"trial_type","trial_index","time_elapsed","internal_node_id","subject_id","task_version","interactions","blur_events","focus_events","fullscreenenter_events","fullscreenexit_events","success","timeout","failed_images","failed_audio","failed_video","rt","stimulus","response","button_pressed","task_part","key_press","answer","correct"
"pavlovia","0","2","0.0-0.0","7594","approach_avoid_sv1","""event"",""trial"",""time""
""fullscreenenter"",""1"",""2457""
","
","
","""event"",""trial"",""time""
""fullscreenenter"",""1"",""2457""
","
","","","","","","","","","","","","",""
"fullscreen","1","3458","0.0-1.0","7594","approach_avoid_sv1","""event"",""trial"",""time""
""fullscreenenter"",""1"",""2457""
""fullscreenexit"",""2"",""4660""
""blur"",""2"",""7566""
""focus"",""2"",""7638""
""blur"",""2"",""7996""
","""event"",""trial"",""time""
""blur"",""2"",""7566""
""blur"",""2"",""7996""
","""event"",""trial"",""time""
""focus"",""2"",""7638""
","""event"",""trial"",""time""
""fullscreenenter"",""1"",""2457""
","""event"",""trial"",""time""
""fullscreenexit"",""2"",""4660""
","true","","","","","","","","","","","",""
"preload","2","13253","0.0-2.0","7594","approach_avoid_sv1","""event"",""trial"",""time""
""fullscreenenter"",""1"",""2457""
""fullscreenexit"",""2"",""4660""
""blur"",""2"",""7566""
""focus"",""2"",""7638""
""blur"",""2"",""7996""
","""event"",""trial"",""time""
""blur"",""2"",""7566""
""blur"",""2"",""7996""
","""event"",""trial"",""time""
""focus"",""2"",""7638""
","""event"",""trial"",""time""
""fullscreenenter"",""1"",""2457""
","""event"",""trial"",""time""
""fullscreenexit"",""2"",""4660""
","true","false","[]","[]","[]","","","","","","","",""
"preload","3","17046","0.0-3.0","7594","approach_avoid_sv1","""event"",""trial"",""time""
""fullscreenenter"",""1"",""2457""
""fullscreenexit"",""2"",""4660""
""blur"",""2"",""7566""
""focus"",""2"",""7638""
""blur"",""2"",""7996""
","""event"",""trial"",""time""
""blur"",""2"",""7566""
""blur"",""2"",""7996""
","""event"",""trial"",""time""
""focus"",""2"",""7638""
","""event"",""trial"",""time""
""fullscreenenter"",""1"",""2457""
","""event"",""trial"",""time""
""fullscreenexit"",""2"",""4660""
","true","false","[]","[]","[]","","","","","","","",""
"preload","4","17332","0.0-4.0","7594","approach_avoid_sv1","""event"",""trial"",""time""
""fullscreenenter"",""1"",""2457""
""fullscreenexit"",""2"",""4660""
""blur"",""2"",""7566""
""focus"",""2"",""7638""
""blur"",""2"",""7996""
""focus"",""5"",""30286""
","""event"",""trial"",""time""
""blur"",""2"",""7566""
""blur"",""2"",""7996""
","""event"",""trial"",""time""
""focus"",""2"",""7638""
""focus"",""5"",""30286""
","""event"",""trial"",""time""
""fullscreenenter"",""1"",""2457""
","""event"",""trial"",""time""
""fullscreenexit"",""2"",""4660""
","true","false","[]","[]","[]","","","","","","","",""
"audio-keyboard-response","5","30839","0.0-5.0","7594","approach_avoid_sv1","""event"",""trial"",""time""
""fullscreenenter"",""1"",""2457""
""fullscreenexit"",""2"",""4660""
""blur"",""2"",""7566""
""focus"",""2"",""7638""
""blur"",""2"",""7996""
""focus"",""5"",""30286""
","""event"",""trial"",""time""
""blur"",""2"",""7566""
""blur"",""2"",""7996""
","""event"",""trial"",""time""
""focus"",""2"",""7638""
""focus"",""5"",""30286""
","""event"",""trial"",""time""
""fullscreenenter"",""1"",""2457""
","""event"",""trial"",""time""
""fullscreenexit"",""2"",""4660""
","","","","","","13509.333333333334","audio/beep_loop.wav"," ","","","","",""
"audio-button-response","6","32116","0.0-6.0","7594","approach_avoid_sv1","""event"",""trial"",""time""
""fullscreenenter"",""1"",""2457""
""fullscreenexit"",""2"",""4660""
""blur"",""2"",""7566""
""focus"",""2"",""7638""
""blur"",""2"",""7996""
""focus"",""5"",""30286""
","""event"",""trial"",""time""
""blur"",""2"",""7566""
""blur"",""2"",""7996""
","""event"",""trial"",""time""
""focus"",""2"",""7638""
""focus"",""5"",""30286""
","""event"",""trial"",""time""
""fullscreenenter"",""1"",""2457""
","""event"",""trial"",""time""
""fullscreenexit"",""2"",""4660""
","","","","","","1280","audio/turtle.wav","3","","","","",""
"audio-button-response","7","34836","0.0-7.0","7594","approach_avoid_sv1","""event"",""trial"",""time""
""fullscreenenter"",""1"",""2457""
""fullscreenexit"",""2"",""4660""
""blur"",""2"",""7566""
""focus"",""2"",""7638""
""blur"",""2"",""7996""
""focus"",""5"",""30286""
""blur"",""8"",""37894""
","""event"",""trial"",""time""
""blur"",""2"",""7566""
""blur"",""2"",""7996""
""blur"",""8"",""37894""
","""event"",""trial"",""time""
""focus"",""2"",""7638""
""focus"",""5"",""30286""
","""event"",""trial"",""time""
""fullscreenenter"",""1"",""2457""
","""event"",""trial"",""time""
""fullscreenexit"",""2"",""4660""
","","","","","","1709","audio/shark.wav","2","","","","",""
"preload","8","40314","0.0-8.0","7594","approach_avoid_sv1","""event"",""trial"",""time""
""fullscreenenter"",""1"",""2457""
""fullscreenexit"",""2"",""4660""
""blur"",""2"",""7566""
""focus"",""2"",""7638""
""blur"",""2"",""7996""
""focus"",""5"",""30286""
""blur"",""8"",""37894""
""focus"",""9"",""44317""
","""event"",""trial"",""time""
""blur"",""2"",""7566""
""blur"",""2"",""7996""
""blur"",""8"",""37894""
","""event"",""trial"",""time""
""focus"",""2"",""7638""
""focus"",""5"",""30286""
""focus"",""9"",""44317""
","""event"",""trial"",""time""
""fullscreenenter"",""1"",""2457""
","""event"",""trial"",""time""
""fullscreenexit"",""2"",""4660""
","true","false","[]","[]","[]","","","","","","","",""
"learning-instructions","9","45884","0.0-9.0-0.0","7594","approach_avoid_sv1","""event"",""trial"",""time""
""fullscreenenter"",""1"",""2457""
""fullscreenexit"",""2"",""4660""
""blur"",""2"",""7566""
""focus"",""2"",""7638""
""blur"",""2"",""7996""
""focus"",""5"",""30286""
""blur"",""8"",""37894""
""focus"",""9"",""44317""
","""event"",""trial"",""time""
""blur"",""2"",""7566""
""blur"",""2"",""7996""
""blur"",""8"",""37894""
","""event"",""trial"",""time""
""focus"",""2"",""7638""
""focus"",""5"",""30286""
""focus"",""9"",""44317""
","""event"",""trial"",""time""
""fullscreenenter"",""1"",""2457""
","""event"",""trial"",""time""
""fullscreenexit"",""2"",""4660""
","","","","","","1089.3999999985099","<p> Welcome back! </p><p> Last week, you had to make choices about lots of different items.  </p>","","0","instructions","","",""
"learning-instructions","10","52732","0.0-9.0-0.1","7594","approach_avoid_sv1","""event"",""trial"",""time""
""fullscreenenter"",""1"",""2457""
""fullscreenexit"",""2"",""4660""
""blur"",""2"",""7566""
""focus"",""2"",""7638""
""blur"",""2"",""7996""
""focus"",""5"",""30286""
""blur"",""8"",""37894""
""focus"",""9"",""44317""
""blur"",""11"",""63355""
""focus"",""11"",""64614""
","""event"",""trial"",""time""
""blur"",""2"",""7566""
""blur"",""2"",""7996""
""blur"",""8"",""37894""
""blur"",""11"",""63355""
","""event"",""trial"",""time""
""focus"",""2"",""7638""
""focus"",""5"",""30286""
""focus"",""9"",""44317""
""focus"",""11"",""64614""
","""event"",""trial"",""time""
""fullscreenenter"",""1"",""2457""
","""event"",""trial"",""time""
""fullscreenexit"",""2"",""4660""
","","","","","","2727.1999999955297","<p> Today, we are going to ask you to try to remember all the items. </p>","","0","instructions","","",""
"learning-instructions","11","64716","0.0-9.0-0.2","7594","approach_avoid_sv1","""event"",""trial"",""time""
""fullscreenenter"",""1"",""2457""
""fullscreenexit"",""2"",""4660""
""blur"",""2"",""7566""
""focus"",""2"",""7638""
""blur"",""2"",""7996""
""focus"",""5"",""30286""
""blur"",""8"",""37894""
""focus"",""9"",""44317""
""blur"",""11"",""63355""
""focus"",""11"",""64614""
","""event"",""trial"",""time""
""blur"",""2"",""7566""
""blur"",""2"",""7996""
""blur"",""8"",""37894""
""blur"",""11"",""63355""
","""event"",""trial"",""time""
""focus"",""2"",""7638""
""focus"",""5"",""30286""
""focus"",""9"",""44317""
""focus"",""11"",""64614""
","""event"",""trial"",""time""
""fullscreenenter"",""1"",""2457""
","""event"",""trial"",""time""
""fullscreenexit"",""2"",""4660""
","","","","","","1852.1000000014901","<p> On every trial, you will see an image. </p><p> The image may be an OLD image you saw during the games last week or it may be a NEW image that was not presented. </p>","","0","instructions","","",""
"learning-instructions","12","73925","0.0-9.0-0.3","7594","approach_avoid_sv1","""event"",""trial"",""time""
""fullscreenenter"",""1"",""2457""
""fullscreenexit"",""2"",""4660""
""blur"",""2"",""7566""
""focus"",""2"",""7638""
""blur"",""2"",""7996""
""focus"",""5"",""30286""
""blur"",""8"",""37894""
""focus"",""9"",""44317""
""blur"",""11"",""63355""
""focus"",""11"",""64614""
","""event"",""trial"",""time""
""blur"",""2"",""7566""
""blur"",""2"",""7996""
""blur"",""8"",""37894""
""blur"",""11"",""63355""
","""event"",""trial"",""time""
""focus"",""2"",""7638""
""focus"",""5"",""30286""
""focus"",""9"",""44317""
""focus"",""11"",""64614""
","""event"",""trial"",""time""
""fullscreenenter"",""1"",""2457""
","""event"",""trial"",""time""
""fullscreenexit"",""2"",""4660""
","","","","","","709.7000000029802","<p> You need to select whether the image is:  </p><p>  'Definitely old', 'Maybe old', 'Maybe new', or 'Definitely new.'  </p><div class=""mem-choice-instructions-grid""><div class=""choice-option"" id=""choice-option-1"" ><img src=""images/definitely_old_1.png"" id=""choice-option-img-1"" class=""choice-option-img"" stage=""1""></div><div class=""choice-option"" id=""choice-option-2"" ><img src=""images/maybe_old_1.png"" id=""choice-option-img-2"" class=""choice-option-img"" stage=""1""></div><div class=""choice-option"" id=""choice-option-3"" ><img src=""images/maybe_new_1.png"" id=""choice-option-img-3"" class=""choice-option-img"" stage=""1""></div><div class=""choice-option"" id=""choice-option-4"" > <img src=""images/definitely_new_1.png"" id=""choice-option-img-4"" class=""choice-option-img"" stage=""1""></div></div>","","0","instructions","","",""
"learning-instructions","13","82964","0.0-9.0-0.4","7594","approach_avoid_sv1","""event"",""trial"",""time""
""fullscreenenter"",""1"",""2457""
""fullscreenexit"",""2"",""4660""
""blur"",""2"",""7566""
""focus"",""2"",""7638""
""blur"",""2"",""7996""
""focus"",""5"",""30286""
""blur"",""8"",""37894""
""focus"",""9"",""44317""
""blur"",""11"",""63355""
""focus"",""11"",""64614""
","""event"",""trial"",""time""
""blur"",""2"",""7566""
""blur"",""2"",""7996""
""blur"",""8"",""37894""
""blur"",""11"",""63355""
","""event"",""trial"",""time""
""focus"",""2"",""7638""
""focus"",""5"",""30286""
""focus"",""9"",""44317""
""focus"",""11"",""64614""
","""event"",""trial"",""time""
""fullscreenenter"",""1"",""2457""
","""event"",""trial"",""time""
""fullscreenexit"",""2"",""4660""
","","","","","","2519.39999999851","<p> You should use the 1, 2, 3, and 4 keys to make your responses.  </p><div class=""mem-choice-instructions-grid""><div class=""choice-option"" id=""choice-option-1"" ><img src=""images/definitely_old.png"" id=""choice-option-img-1"" class=""choice-option-img"" stage=""1""></div><div class=""choice-option"" id=""choice-option-2"" ><img src=""images/maybe_old.png"" id=""choice-option-img-2"" class=""choice-option-img"" stage=""1""></div><div class=""choice-option"" id=""choice-option-3"" ><img src=""images/maybe_new.png"" id=""choice-option-img-3"" class=""choice-option-img"" stage=""1""></div><div class=""choice-option"" id=""choice-option-4"" > <img src=""images/definitely_new.png"" id=""choice-option-img-4"" class=""choice-option-img"" stage=""1""></div></div>","","0","instructions","","",""
"learning-instructions","14","89700","0.0-9.0-0.5","7594","approach_avoid_sv1","""event"",""trial"",""time""
""fullscreenenter"",""1"",""2457""
""fullscreenexit"",""2"",""4660""
""blur"",""2"",""7566""
""focus"",""2"",""7638""
""blur"",""2"",""7996""
""focus"",""5"",""30286""
""blur"",""8"",""37894""
""focus"",""9"",""44317""
""blur"",""11"",""63355""
""focus"",""11"",""64614""
","""event"",""trial"",""time""
""blur"",""2"",""7566""
""blur"",""2"",""7996""
""blur"",""8"",""37894""
""blur"",""11"",""63355""
","""event"",""trial"",""time""
""focus"",""2"",""7638""
""focus"",""5"",""30286""
""focus"",""9"",""44317""
""focus"",""11"",""64614""
","""event"",""trial"",""time""
""fullscreenenter"",""1"",""2457""
","""event"",""trial"",""time""
""fullscreenexit"",""2"",""4660""
","","","","","","405.79999999701977","<p> You will have 10 seconds to make each response.  </p><p>  Make sure to respond before time runs out! </p>","","0","instructions","","",""
"learning-instructions","15","97524","0.0-9.0-0.6","7594","approach_avoid_sv1","""event"",""trial"",""time""
""fullscreenenter"",""1"",""2457""
""fullscreenexit"",""2"",""4660""
""blur"",""2"",""7566""
""focus"",""2"",""7638""
""blur"",""2"",""7996""
""focus"",""5"",""30286""
""blur"",""8"",""37894""
""focus"",""9"",""44317""
""blur"",""11"",""63355""
""focus"",""11"",""64614""
","""event"",""trial"",""time""
""blur"",""2"",""7566""
""blur"",""2"",""7996""
""blur"",""8"",""37894""
""blur"",""11"",""63355""
","""event"",""trial"",""time""
""focus"",""2"",""7638""
""focus"",""5"",""30286""
""focus"",""9"",""44317""
""focus"",""11"",""64614""
","""event"",""trial"",""time""
""fullscreenenter"",""1"",""2457""
","""event"",""trial"",""time""
""fullscreenexit"",""2"",""4660""
","","","","","","740.5","<p> Today, you will see each image ONCE only.  </p><p>  That means none of the images will repeat. </p>","","0","instructions","","",""
"learning-instructions","16","110652","0.0-9.0-0.7","7594","approach_avoid_sv1","""event"",""trial"",""time""
""fullscreenenter"",""1"",""2457""
""fullscreenexit"",""2"",""4660""
""blur"",""2"",""7566""
""focus"",""2"",""7638""
""blur"",""2"",""7996""
""focus"",""5"",""30286""
""blur"",""8"",""37894""
""focus"",""9"",""44317""
""blur"",""11"",""63355""
""focus"",""11"",""64614""
","""event"",""trial"",""time""
""blur"",""2"",""7566""
""blur"",""2"",""7996""
""blur"",""8"",""37894""
""blur"",""11"",""63355""
","""event"",""trial"",""time""
""focus"",""2"",""7638""
""focus"",""5"",""30286""
""focus"",""9"",""44317""
""focus"",""11"",""64614""
","""event"",""trial"",""time""
""fullscreenenter"",""1"",""2457""
","""event"",""trial"",""time""
""fullscreenexit"",""2"",""4660""
","","","","","","448.3999999985099","<p> Before you play the real game, it is time to practice. </p><p>  Just like in the real game, some of the images in the practice will be ones you have seen before. </p><p>  Others will be entirely new. </p>","","0","instructions","","",""
"html-button-response","17","112091","0.0-10.0","7594","approach_avoid_sv1","""event"",""trial"",""time""
""fullscreenenter"",""1"",""2457""
""fullscreenexit"",""2"",""4660""
""blur"",""2"",""7566""
""focus"",""2"",""7638""
""blur"",""2"",""7996""
""focus"",""5"",""30286""
""blur"",""8"",""37894""
""focus"",""9"",""44317""
""blur"",""11"",""63355""
""focus"",""11"",""64614""
","""event"",""trial"",""time""
""blur"",""2"",""7566""
""blur"",""2"",""7996""
""blur"",""8"",""37894""
""blur"",""11"",""63355""
","""event"",""trial"",""time""
""focus"",""2"",""7638""
""focus"",""5"",""30286""
""focus"",""9"",""44317""
""focus"",""11"",""64614""
","""event"",""trial"",""time""
""fullscreenenter"",""1"",""2457""
","""event"",""trial"",""time""
""fullscreenexit"",""2"",""4660""
","","","","","","1327","<p> Ready to practice? </p><p> Remember, use the 1, 2, 3, and 4 keys to make your responses. </p>","0","","instructions","","",""
"html-keyboard-response","18","112708","0.0-11.0-0.0","7594","approach_avoid_sv1","""event"",""trial"",""time""
""fullscreenenter"",""1"",""2457""
""fullscreenexit"",""2"",""4660""
""blur"",""2"",""7566""
""focus"",""2"",""7638""
""blur"",""2"",""7996""
""focus"",""5"",""30286""
""blur"",""8"",""37894""
""focus"",""9"",""44317""
""blur"",""11"",""63355""
""focus"",""11"",""64614""
","""event"",""trial"",""time""
""blur"",""2"",""7566""
""blur"",""2"",""7996""
""blur"",""8"",""37894""
""blur"",""11"",""63355""
","""event"",""trial"",""time""
""focus"",""2"",""7638""
""focus"",""5"",""30286""
""focus"",""9"",""44317""
""focus"",""11"",""64614""
","""event"",""trial"",""time""
""fullscreenenter"",""1"",""2457""
","""event"",""trial"",""time""
""fullscreenexit"",""2"",""4660""
","","","","","","null","<div style=""font-size:60px;"">+</div>","null","","fixation","","",""
"memory-trial","19","118093","0.0-11.0-1.0","7594","approach_avoid_sv1","""event"",""trial"",""time""
""fullscreenenter"",""1"",""2457""
""fullscreenexit"",""2"",""4660""
""blur"",""2"",""7566""
""focus"",""2"",""7638""
""blur"",""2"",""7996""
""focus"",""5"",""30286""
""blur"",""8"",""37894""
""focus"",""9"",""44317""
""blur"",""11"",""63355""
""focus"",""11"",""64614""
","""event"",""trial"",""time""
""blur"",""2"",""7566""
""blur"",""2"",""7996""
""blur"",""8"",""37894""
""blur"",""11"",""63355""
","""event"",""trial"",""time""
""focus"",""2"",""7638""
""focus"",""5"",""30286""
""focus"",""9"",""44317""
""focus"",""11"",""64614""
","""event"",""trial"",""time""
""fullscreenenter"",""1"",""2457""
","""event"",""trial"",""time""
""fullscreenexit"",""2"",""4660""
","","","","","","4377.19999999553","images/ball1.png","","","practice","1","definitely_old",""
"html-keyboard-response","20","118594","0.0-11.0-0.1","7594","approach_avoid_sv1","""event"",""trial"",""time""
""fullscreenenter"",""1"",""2457""
""fullscreenexit"",""2"",""4660""
""blur"",""2"",""7566""
""focus"",""2"",""7638""
""blur"",""2"",""7996""
""focus"",""5"",""30286""
""blur"",""8"",""37894""
""focus"",""9"",""44317""
""blur"",""11"",""63355""
""focus"",""11"",""64614""
","""event"",""trial"",""time""
""blur"",""2"",""7566""
""blur"",""2"",""7996""
""blur"",""8"",""37894""
""blur"",""11"",""63355""
","""event"",""trial"",""time""
""focus"",""2"",""7638""
""focus"",""5"",""30286""
""focus"",""9"",""44317""
""focus"",""11"",""64614""
","""event"",""trial"",""time""
""fullscreenenter"",""1"",""2457""
","""event"",""trial"",""time""
""fullscreenexit"",""2"",""4660""
","","","","","","null","<div style=""font-size:60px;"">+</div>","null","","fixation","","",""
"memory-trial","21","120750","0.0-11.0-1.1","7594","approach_avoid_sv1","""event"",""trial"",""time""
""fullscreenenter"",""1"",""2457""
""fullscreenexit"",""2"",""4660""
""blur"",""2"",""7566""
""focus"",""2"",""7638""
""blur"",""2"",""7996""
""focus"",""5"",""30286""
""blur"",""8"",""37894""
""focus"",""9"",""44317""
""blur"",""11"",""63355""
""focus"",""11"",""64614""
","""event"",""trial"",""time""
""blur"",""2"",""7566""
""blur"",""2"",""7996""
""blur"",""8"",""37894""
""blur"",""11"",""63355""
","""event"",""trial"",""time""
""focus"",""2"",""7638""
""focus"",""5"",""30286""
""focus"",""9"",""44317""
""focus"",""11"",""64614""
","""event"",""trial"",""time""
""fullscreenenter"",""1"",""2457""
","""event"",""trial"",""time""
""fullscreenexit"",""2"",""4660""
","","","","","","1146.7000000029802","images/racket5.png","","","practice","1","definitely_old",""
"html-keyboard-response","22","121263","0.0-11.0-0.2","7594","approach_avoid_sv1","""event"",""trial"",""time""
""fullscreenenter"",""1"",""2457""
""fullscreenexit"",""2"",""4660""
""blur"",""2"",""7566""
""focus"",""2"",""7638""
""blur"",""2"",""7996""
""focus"",""5"",""30286""
""blur"",""8"",""37894""
""focus"",""9"",""44317""
""blur"",""11"",""63355""
""focus"",""11"",""64614""
","""event"",""trial"",""time""
""blur"",""2"",""7566""
""blur"",""2"",""7996""
""blur"",""8"",""37894""
""blur"",""11"",""63355""
","""event"",""trial"",""time""
""focus"",""2"",""7638""
""focus"",""5"",""30286""
""focus"",""9"",""44317""
""focus"",""11"",""64614""
","""event"",""trial"",""time""
""fullscreenenter"",""1"",""2457""
","""event"",""trial"",""time""
""fullscreenexit"",""2"",""4660""
","","","","","","null","<div style=""font-size:60px;"">+</div>","null","","fixation","","",""
"memory-trial","23","124028","0.0-11.0-1.2","7594","approach_avoid_sv1","""event"",""trial"",""time""
""fullscreenenter"",""1"",""2457""
""fullscreenexit"",""2"",""4660""
""blur"",""2"",""7566""
""focus"",""2"",""7638""
""blur"",""2"",""7996""
""focus"",""5"",""30286""
""blur"",""8"",""37894""
""focus"",""9"",""44317""
""blur"",""11"",""63355""
""focus"",""11"",""64614""
","""event"",""trial"",""time""
""blur"",""2"",""7566""
""blur"",""2"",""7996""
""blur"",""8"",""37894""
""blur"",""11"",""63355""
","""event"",""trial"",""time""
""focus"",""2"",""7638""
""focus"",""5"",""30286""
""focus"",""9"",""44317""
""focus"",""11"",""64614""
","""event"",""trial"",""time""
""fullscreenenter"",""1"",""2457""
","""event"",""trial"",""time""
""fullscreenexit"",""2"",""4660""
","","","","","","1757.1999999955297","images/racket2.png","","","practice","3","maybe_new",""
"html-keyboard-response","24","124531","0.0-11.0-0.3","7594","approach_avoid_sv1","""event"",""trial"",""time""
""fullscreenenter"",""1"",""2457""
""fullscreenexit"",""2"",""4660""
""blur"",""2"",""7566""
""focus"",""2"",""7638""
""blur"",""2"",""7996""
""focus"",""5"",""30286""
""blur"",""8"",""37894""
""focus"",""9"",""44317""
""blur"",""11"",""63355""
""focus"",""11"",""64614""
","""event"",""trial"",""time""
""blur"",""2"",""7566""
""blur"",""2"",""7996""
""blur"",""8"",""37894""
""blur"",""11"",""63355""
","""event"",""trial"",""time""
""focus"",""2"",""7638""
""focus"",""5"",""30286""
""focus"",""9"",""44317""
""focus"",""11"",""64614""
","""event"",""trial"",""time""
""fullscreenenter"",""1"",""2457""
","""event"",""trial"",""time""
""fullscreenexit"",""2"",""4660""
","","","","","","null","<div style=""font-size:60px;"">+</div>","null","","fixation","","",""
"memory-trial","25","126259","0.0-11.0-1.3","7594","approach_avoid_sv1","""event"",""trial"",""time""
""fullscreenenter"",""1"",""2457""
""fullscreenexit"",""2"",""4660""
""blur"",""2"",""7566""
""focus"",""2"",""7638""
""blur"",""2"",""7996""
""focus"",""5"",""30286""
""blur"",""8"",""37894""
""focus"",""9"",""44317""
""blur"",""11"",""63355""
""focus"",""11"",""64614""
","""event"",""trial"",""time""
""blur"",""2"",""7566""
""blur"",""2"",""7996""
""blur"",""8"",""37894""
""blur"",""11"",""63355""
","""event"",""trial"",""time""
""focus"",""2"",""7638""
""focus"",""5"",""30286""
""focus"",""9"",""44317""
""focus"",""11"",""64614""
","""event"",""trial"",""time""
""fullscreenenter"",""1"",""2457""
","""event"",""trial"",""time""
""fullscreenexit"",""2"",""4660""
","","","","","","724.2000000029802","images/ball2.png","","","practice","1","definitely_old",""
"html-keyboard-response","26","126771","0.0-11.0-0.4","7594","approach_avoid_sv1","""event"",""trial"",""time""
""fullscreenenter"",""1"",""2457""
""fullscreenexit"",""2"",""4660""
""blur"",""2"",""7566""
""focus"",""2"",""7638""
""blur"",""2"",""7996""
""focus"",""5"",""30286""
""blur"",""8"",""37894""
""focus"",""9"",""44317""
""blur"",""11"",""63355""
""focus"",""11"",""64614""
","""event"",""trial"",""time""
""blur"",""2"",""7566""
""blur"",""2"",""7996""
""blur"",""8"",""37894""
""blur"",""11"",""63355""
","""event"",""trial"",""time""
""focus"",""2"",""7638""
""focus"",""5"",""30286""
""focus"",""9"",""44317""
""focus"",""11"",""64614""
","""event"",""trial"",""time""
""fullscreenenter"",""1"",""2457""
","""event"",""trial"",""time""
""fullscreenexit"",""2"",""4660""
","","","","","","null","<div style=""font-size:60px;"">+</div>","null","","fixation","","",""
"memory-trial","27","128496","0.0-11.0-1.4","7594","approach_avoid_sv1","""event"",""trial"",""time""
""fullscreenenter"",""1"",""2457""
""fullscreenexit"",""2"",""4660""
""blur"",""2"",""7566""
""focus"",""2"",""7638""
""blur"",""2"",""7996""
""focus"",""5"",""30286""
""blur"",""8"",""37894""
""focus"",""9"",""44317""
""blur"",""11"",""63355""
""focus"",""11"",""64614""
","""event"",""trial"",""time""
""blur"",""2"",""7566""
""blur"",""2"",""7996""
""blur"",""8"",""37894""
""blur"",""11"",""63355""
","""event"",""trial"",""time""
""focus"",""2"",""7638""
""focus"",""5"",""30286""
""focus"",""9"",""44317""
""focus"",""11"",""64614""
","""event"",""trial"",""time""
""fullscreenenter"",""1"",""2457""
","""event"",""trial"",""time""
""fullscreenexit"",""2"",""4660""
","","","","","","710.8999999985099","images/racket3.png","","","practice","1","definitely_old",""
"html-keyboard-response","28","129007","0.0-11.0-0.5","7594","approach_avoid_sv1","""event"",""trial"",""time""
""fullscreenenter"",""1"",""2457""
""fullscreenexit"",""2"",""4660""
""blur"",""2"",""7566""
""focus"",""2"",""7638""
""blur"",""2"",""7996""
""focus"",""5"",""30286""
""blur"",""8"",""37894""
""focus"",""9"",""44317""
""blur"",""11"",""63355""
""focus"",""11"",""64614""
","""event"",""trial"",""time""
""blur"",""2"",""7566""
""blur"",""2"",""7996""
""blur"",""8"",""37894""
""blur"",""11"",""63355""
","""event"",""trial"",""time""
""focus"",""2"",""7638""
""focus"",""5"",""30286""
""focus"",""9"",""44317""
""focus"",""11"",""64614""
","""event"",""trial"",""time""
""fullscreenenter"",""1"",""2457""
","""event"",""trial"",""time""
""fullscreenexit"",""2"",""4660""
","","","","","","null","<div style=""font-size:60px;"">+</div>","null","","fixation","","",""
"memory-trial","29","130769","0.0-11.0-1.5","7594","approach_avoid_sv1","""event"",""trial"",""time""
""fullscreenenter"",""1"",""2457""
""fullscreenexit"",""2"",""4660""
""blur"",""2"",""7566""
""focus"",""2"",""7638""
""blur"",""2"",""7996""
""focus"",""5"",""30286""
""blur"",""8"",""37894""
""focus"",""9"",""44317""
""blur"",""11"",""63355""
""focus"",""11"",""64614""
","""event"",""trial"",""time""
""blur"",""2"",""7566""
""blur"",""2"",""7996""
""blur"",""8"",""37894""
""blur"",""11"",""63355""
","""event"",""trial"",""time""
""focus"",""2"",""7638""
""focus"",""5"",""30286""
""focus"",""9"",""44317""
""focus"",""11"",""64614""
","""event"",""trial"",""time""
""fullscreenenter"",""1"",""2457""
","""event"",""trial"",""time""
""fullscreenexit"",""2"",""4660""
","","","","","","758","images/ball3.png","","","practice","1","definitely_old",""
"html-keyboard-response","30","131283","0.0-11.0-0.6","7594","approach_avoid_sv1","""event"",""trial"",""time""
""fullscreenenter"",""1"",""2457""
""fullscreenexit"",""2"",""4660""
""blur"",""2"",""7566""
""focus"",""2"",""7638""
""blur"",""2"",""7996""
""focus"",""5"",""30286""
""blur"",""8"",""37894""
""focus"",""9"",""44317""
""blur"",""11"",""63355""
""focus"",""11"",""64614""
","""event"",""trial"",""time""
""blur"",""2"",""7566""
""blur"",""2"",""7996""
""blur"",""8"",""37894""
""blur"",""11"",""63355""
","""event"",""trial"",""time""
""focus"",""2"",""7638""
""focus"",""5"",""30286""
""focus"",""9"",""44317""
""focus"",""11"",""64614""
","""event"",""trial"",""time""
""fullscreenenter"",""1"",""2457""
","""event"",""trial"",""time""
""fullscreenexit"",""2"",""4660""
","","","","","","null","<div style=""font-size:60px;"">+</div>","null","","fixation","","",""
"memory-trial","31","132889","0.0-11.0-1.6","7594","approach_avoid_sv1","""event"",""trial"",""time""
""fullscreenenter"",""1"",""2457""
""fullscreenexit"",""2"",""4660""
""blur"",""2"",""7566""
""focus"",""2"",""7638""
""blur"",""2"",""7996""
""focus"",""5"",""30286""
""blur"",""8"",""37894""
""focus"",""9"",""44317""
""blur"",""11"",""63355""
""focus"",""11"",""64614""
","""event"",""trial"",""time""
""blur"",""2"",""7566""
""blur"",""2"",""7996""
""blur"",""8"",""37894""
""blur"",""11"",""63355""
","""event"",""trial"",""time""
""focus"",""2"",""7638""
""focus"",""5"",""30286""
""focus"",""9"",""44317""
""focus"",""11"",""64614""
","""event"",""trial"",""time""
""fullscreenenter"",""1"",""2457""
","""event"",""trial"",""time""
""fullscreenexit"",""2"",""4660""
","","","","","","590.0999999940395","images/ball5.png","","","practice","1","definitely_old",""
"html-keyboard-response","32","133404","0.0-11.0-0.7","7594","approach_avoid_sv1","""event"",""trial"",""time""
""fullscreenenter"",""1"",""2457""
""fullscreenexit"",""2"",""4660""
""blur"",""2"",""7566""
""focus"",""2"",""7638""
""blur"",""2"",""7996""
""focus"",""5"",""30286""
""blur"",""8"",""37894""
""focus"",""9"",""44317""
""blur"",""11"",""63355""
""focus"",""11"",""64614""
","""event"",""trial"",""time""
""blur"",""2"",""7566""
""blur"",""2"",""7996""
""blur"",""8"",""37894""
""blur"",""11"",""63355""
","""event"",""trial"",""time""
""focus"",""2"",""7638""
""focus"",""5"",""30286""
""focus"",""9"",""44317""
""focus"",""11"",""64614""
","""event"",""trial"",""time""
""fullscreenenter"",""1"",""2457""
","""event"",""trial"",""time""
""fullscreenexit"",""2"",""4660""
","","","","","","null","<div style=""font-size:60px;"">+</div>","null","","fixation","","",""
"memory-trial","33","135677","0.0-11.0-1.7","7594","approach_avoid_sv1","""event"",""trial"",""time""
""fullscreenenter"",""1"",""2457""
""fullscreenexit"",""2"",""4660""
""blur"",""2"",""7566""
""focus"",""2"",""7638""
""blur"",""2"",""7996""
""focus"",""5"",""30286""
""blur"",""8"",""37894""
""focus"",""9"",""44317""
""blur"",""11"",""63355""
""focus"",""11"",""64614""
","""event"",""trial"",""time""
""blur"",""2"",""7566""
""blur"",""2"",""7996""
""blur"",""8"",""37894""
""blur"",""11"",""63355""
","""event"",""trial"",""time""
""focus"",""2"",""7638""
""focus"",""5"",""30286""
""focus"",""9"",""44317""
""focus"",""11"",""64614""
","""event"",""trial"",""time""
""fullscreenenter"",""1"",""2457""
","""event"",""trial"",""time""
""fullscreenexit"",""2"",""4660""
","","","","","","1256.7999999970198","images/racket1.png","","","practice","1","definitely_old",""
"learning-instructions","34","143851","0.0-12.0-0.0","7594","approach_avoid_sv1","""event"",""trial"",""time""
""fullscreenenter"",""1"",""2457""
""fullscreenexit"",""2"",""4660""
""blur"",""2"",""7566""
""focus"",""2"",""7638""
""blur"",""2"",""7996""
""focus"",""5"",""30286""
""blur"",""8"",""37894""
""focus"",""9"",""44317""
""blur"",""11"",""63355""
""focus"",""11"",""64614""
","""event"",""trial"",""time""
""blur"",""2"",""7566""
""blur"",""2"",""7996""
""blur"",""8"",""37894""
""blur"",""11"",""63355""
","""event"",""trial"",""time""
""focus"",""2"",""7638""
""focus"",""5"",""30286""
""focus"",""9"",""44317""
""focus"",""11"",""64614""
","""event"",""trial"",""time""
""fullscreenenter"",""1"",""2457""
","""event"",""trial"",""time""
""fullscreenexit"",""2"",""4660""
","","","","","","867.5","<p> Great! You have completed the practice. </p><p> Before you start, we're going to ask you a few questions about how the game works.  </p>","","0","instructions","","",""
"preload","35","148441","0.0-13.0","7594","approach_avoid_sv1","""event"",""trial"",""time""
""fullscreenenter"",""1"",""2457""
""fullscreenexit"",""2"",""4660""
""blur"",""2"",""7566""
""focus"",""2"",""7638""
""blur"",""2"",""7996""
""focus"",""5"",""30286""
""blur"",""8"",""37894""
""focus"",""9"",""44317""
""blur"",""11"",""63355""
""focus"",""11"",""64614""
""blur"",""36"",""148879""
""focus"",""36"",""155287""
","""event"",""trial"",""time""
""blur"",""2"",""7566""
""blur"",""2"",""7996""
""blur"",""8"",""37894""
""blur"",""11"",""63355""
""blur"",""36"",""148879""
","""event"",""trial"",""time""
""focus"",""2"",""7638""
""focus"",""5"",""30286""
""focus"",""9"",""44317""
""focus"",""11"",""64614""
""focus"",""36"",""155287""
","""event"",""trial"",""time""
""fullscreenenter"",""1"",""2457""
","""event"",""trial"",""time""
""fullscreenexit"",""2"",""4660""
","true","false","[]","[]","[]","","","","","","","",""
"comp-q","36","155741","0.0-14.0-0.0","7594","approach_avoid_sv1","""event"",""trial"",""time""
""fullscreenenter"",""1"",""2457""
""fullscreenexit"",""2"",""4660""
""blur"",""2"",""7566""
""focus"",""2"",""7638""
""blur"",""2"",""7996""
""focus"",""5"",""30286""
""blur"",""8"",""37894""
""focus"",""9"",""44317""
""blur"",""11"",""63355""
""focus"",""11"",""64614""
""blur"",""36"",""148879""
""focus"",""36"",""155287""
""blur"",""37"",""157126""
""focus"",""37"",""158281""
","""event"",""trial"",""time""
""blur"",""2"",""7566""
""blur"",""2"",""7996""
""blur"",""8"",""37894""
""blur"",""11"",""63355""
""blur"",""36"",""148879""
""blur"",""37"",""157126""
","""event"",""trial"",""time""
""focus"",""2"",""7638""
""focus"",""5"",""30286""
""focus"",""9"",""44317""
""focus"",""11"",""64614""
""focus"",""36"",""155287""
""focus"",""37"",""158281""
","""event"",""trial"",""time""
""fullscreenenter"",""1"",""2457""
","""event"",""trial"",""time""
""fullscreenexit"",""2"",""4660""
","","","","","","1476.8000000044703","<p> <b> True or False? </b> </p><p> In this game, you will only see each image once. </p>","","0","comp_question","","","true"
"comp-q","37","162788","0.0-14.0-1.0","7594","approach_avoid_sv1","""event"",""trial"",""time""
""fullscreenenter"",""1"",""2457""
""fullscreenexit"",""2"",""4660""
""blur"",""2"",""7566""
""focus"",""2"",""7638""
""blur"",""2"",""7996""
""focus"",""5"",""30286""
""blur"",""8"",""37894""
""focus"",""9"",""44317""
""blur"",""11"",""63355""
""focus"",""11"",""64614""
""blur"",""36"",""148879""
""focus"",""36"",""155287""
""blur"",""37"",""157126""
""focus"",""37"",""158281""
","""event"",""trial"",""time""
""blur"",""2"",""7566""
""blur"",""2"",""7996""
""blur"",""8"",""37894""
""blur"",""11"",""63355""
""blur"",""36"",""148879""
""blur"",""37"",""157126""
","""event"",""trial"",""time""
""focus"",""2"",""7638""
""focus"",""5"",""30286""
""focus"",""9"",""44317""
""focus"",""11"",""64614""
""focus"",""36"",""155287""
""focus"",""37"",""158281""
","""event"",""trial"",""time""
""fullscreenenter"",""1"",""2457""
","""event"",""trial"",""time""
""fullscreenexit"",""2"",""4660""
","","","","","","703.6000000014901","<p> <b> That's right! </b> You will see many different images <i> one time each </i> in this game. </p>","","0","comp_answer","","",""
"comp-q","38","168724","0.0-15.0-0.0","7594","approach_avoid_sv1","""event"",""trial"",""time""
""fullscreenenter"",""1"",""2457""
""fullscreenexit"",""2"",""4660""
""blur"",""2"",""7566""
""focus"",""2"",""7638""
""blur"",""2"",""7996""
""focus"",""5"",""30286""
""blur"",""8"",""37894""
""focus"",""9"",""44317""
""blur"",""11"",""63355""
""focus"",""11"",""64614""
""blur"",""36"",""148879""
""focus"",""36"",""155287""
""blur"",""37"",""157126""
""focus"",""37"",""158281""
","""event"",""trial"",""time""
""blur"",""2"",""7566""
""blur"",""2"",""7996""
""blur"",""8"",""37894""
""blur"",""11"",""63355""
""blur"",""36"",""148879""
""blur"",""37"",""157126""
","""event"",""trial"",""time""
""focus"",""2"",""7638""
""focus"",""5"",""30286""
""focus"",""9"",""44317""
""focus"",""11"",""64614""
""focus"",""36"",""155287""
""focus"",""37"",""158281""
","""event"",""trial"",""time""
""fullscreenenter"",""1"",""2457""
","""event"",""trial"",""time""
""fullscreenexit"",""2"",""4660""
","","","","","","919.8999999985099","<p> <b> True or False? </b> </p><p> You should use the mouse and click to make your response. </p>","","1","comp_question","","","true"
"comp-q","39","176652","0.0-15.0-1.0","7594","approach_avoid_sv1","""event"",""trial"",""time""
""fullscreenenter"",""1"",""2457""
""fullscreenexit"",""2"",""4660""
""blur"",""2"",""7566""
""focus"",""2"",""7638""
""blur"",""2"",""7996""
""focus"",""5"",""30286""
""blur"",""8"",""37894""
""focus"",""9"",""44317""
""blur"",""11"",""63355""
""focus"",""11"",""64614""
""blur"",""36"",""148879""
""focus"",""36"",""155287""
""blur"",""37"",""157126""
""focus"",""37"",""158281""
""blur"",""40"",""179200""
""focus"",""40"",""181465""
","""event"",""trial"",""time""
""blur"",""2"",""7566""
""blur"",""2"",""7996""
""blur"",""8"",""37894""
""blur"",""11"",""63355""
""blur"",""36"",""148879""
""blur"",""37"",""157126""
""blur"",""40"",""179200""
","""event"",""trial"",""time""
""focus"",""2"",""7638""
""focus"",""5"",""30286""
""focus"",""9"",""44317""
""focus"",""11"",""64614""
""focus"",""36"",""155287""
""focus"",""37"",""158281""
""focus"",""40"",""181465""
","""event"",""trial"",""time""
""fullscreenenter"",""1"",""2457""
","""event"",""trial"",""time""
""fullscreenexit"",""2"",""4660""
","","","","","","1427.5","<p><b> That's right! </b> You should use the '1', '2', '3', and '4' keys to make your response. </p>","","0","comp_answer","","",""
"comp-q","40","182892","0.0-16.0-0.0","7594","approach_avoid_sv1","""event"",""trial"",""time""
""fullscreenenter"",""1"",""2457""
""fullscreenexit"",""2"",""4660""
""blur"",""2"",""7566""
""focus"",""2"",""7638""
""blur"",""2"",""7996""
""focus"",""5"",""30286""
""blur"",""8"",""37894""
""focus"",""9"",""44317""
""blur"",""11"",""63355""
""focus"",""11"",""64614""
""blur"",""36"",""148879""
""focus"",""36"",""155287""
""blur"",""37"",""157126""
""focus"",""37"",""158281""
""blur"",""40"",""179200""
""focus"",""40"",""181465""
","""event"",""trial"",""time""
""blur"",""2"",""7566""
""blur"",""2"",""7996""
""blur"",""8"",""37894""
""blur"",""11"",""63355""
""blur"",""36"",""148879""
""blur"",""37"",""157126""
""blur"",""40"",""179200""
","""event"",""trial"",""time""
""focus"",""2"",""7638""
""focus"",""5"",""30286""
""focus"",""9"",""44317""
""focus"",""11"",""64614""
""focus"",""36"",""155287""
""focus"",""37"",""158281""
""focus"",""40"",""181465""
","""event"",""trial"",""time""
""fullscreenenter"",""1"",""2457""
","""event"",""trial"",""time""
""fullscreenexit"",""2"",""4660""
","","","","","","568","<p> <b> True or False? </b> </p><p> You will have as much time as you want to make each choice. </p>","","1","comp_question","","","true"
"comp-q","41","188548","0.0-16.0-1.0","7594","approach_avoid_sv1","""event"",""trial"",""time""
""fullscreenenter"",""1"",""2457""
""fullscreenexit"",""2"",""4660""
""blur"",""2"",""7566""
""focus"",""2"",""7638""
""blur"",""2"",""7996""
""focus"",""5"",""30286""
""blur"",""8"",""37894""
""focus"",""9"",""44317""
""blur"",""11"",""63355""
""focus"",""11"",""64614""
""blur"",""36"",""148879""
""focus"",""36"",""155287""
""blur"",""37"",""157126""
""focus"",""37"",""158281""
""blur"",""40"",""179200""
""focus"",""40"",""181465""
""blur"",""42"",""190243""
""focus"",""42"",""198103""
","""event"",""trial"",""time""
""blur"",""2"",""7566""
""blur"",""2"",""7996""
""blur"",""8"",""37894""
""blur"",""11"",""63355""
""blur"",""36"",""148879""
""blur"",""37"",""157126""
""blur"",""40"",""179200""
""blur"",""42"",""190243""
","""event"",""trial"",""time""
""focus"",""2"",""7638""
""focus"",""5"",""30286""
""focus"",""9"",""44317""
""focus"",""11"",""64614""
""focus"",""36"",""155287""
""focus"",""37"",""158281""
""focus"",""40"",""181465""
""focus"",""42"",""198103""
","""event"",""trial"",""time""
""fullscreenenter"",""1"",""2457""
","""event"",""trial"",""time""
""fullscreenexit"",""2"",""4660""
","","","","","","963.7000000029802","<p> <b> That's right! </b> You will only have 10 seconds to make each choice. </p>","","0","comp_answer","","",""
"learning-instructions","42","198195","0.0-17.0","7594","approach_avoid_sv1","""event"",""trial"",""time""
""fullscreenenter"",""1"",""2457""
""fullscreenexit"",""2"",""4660""
""blur"",""2"",""7566""
""focus"",""2"",""7638""
""blur"",""2"",""7996""
""focus"",""5"",""30286""
""blur"",""8"",""37894""
""focus"",""9"",""44317""
""blur"",""11"",""63355""
""focus"",""11"",""64614""
""blur"",""36"",""148879""
""focus"",""36"",""155287""
""blur"",""37"",""157126""
""focus"",""37"",""158281""
""blur"",""40"",""179200""
""focus"",""40"",""181465""
""blur"",""42"",""190243""
""focus"",""42"",""198103""
""blur"",""43"",""198499""
","""event"",""trial"",""time""
""blur"",""2"",""7566""
""blur"",""2"",""7996""
""blur"",""8"",""37894""
""blur"",""11"",""63355""
""blur"",""36"",""148879""
""blur"",""37"",""157126""
""blur"",""40"",""179200""
""blur"",""42"",""190243""
""blur"",""43"",""198499""
","""event"",""trial"",""time""
""focus"",""2"",""7638""
""focus"",""5"",""30286""
""focus"",""9"",""44317""
""focus"",""11"",""64614""
""focus"",""36"",""155287""
""focus"",""37"",""158281""
""focus"",""40"",""181465""
""focus"",""42"",""198103""
","""event"",""trial"",""time""
""fullscreenenter"",""1"",""2457""
","""event"",""trial"",""time""
""fullscreenexit"",""2"",""4660""
","","","","","","981.1999999955297","<p> Great! You are now ready to begin the game. </p><p> Remember, use the 1, 2, 3, and 4 keys to make your responses. </p>","","0","instructions","","",""
"html-keyboard-response","43","198798","0.0-18.0-0.0","7594","approach_avoid_sv1","""event"",""trial"",""time""
""fullscreenenter"",""1"",""2457""
""fullscreenexit"",""2"",""4660""
""blur"",""2"",""7566""
""focus"",""2"",""7638""
""blur"",""2"",""7996""
""focus"",""5"",""30286""
""blur"",""8"",""37894""
""focus"",""9"",""44317""
""blur"",""11"",""63355""
""focus"",""11"",""64614""
""blur"",""36"",""148879""
""focus"",""36"",""155287""
""blur"",""37"",""157126""
""focus"",""37"",""158281""
""blur"",""40"",""179200""
""focus"",""40"",""181465""
""blur"",""42"",""190243""
""focus"",""42"",""198103""
""blur"",""43"",""198499""
""focus"",""44"",""200908""
","""event"",""trial"",""time""
""blur"",""2"",""7566""
""blur"",""2"",""7996""
""blur"",""8"",""37894""
""blur"",""11"",""63355""
""blur"",""36"",""148879""
""blur"",""37"",""157126""
""blur"",""40"",""179200""
""blur"",""42"",""190243""
""blur"",""43"",""198499""
","""event"",""trial"",""time""
""focus"",""2"",""7638""
""focus"",""5"",""30286""
""focus"",""9"",""44317""
""focus"",""11"",""64614""
""focus"",""36"",""155287""
""focus"",""37"",""158281""
""focus"",""40"",""181465""
""focus"",""42"",""198103""
""focus"",""44"",""200908""
","""event"",""trial"",""time""
""fullscreenenter"",""1"",""2457""
","""event"",""trial"",""time""
""fullscreenexit"",""2"",""4660""
","","","","","","null","<div style=""font-size:60px;"">+</div>","null","","fixation","","",""
"memory-trial","44","202215","0.0-18.0-1.0","7594","approach_avoid_sv1","""event"",""trial"",""time""
""fullscreenenter"",""1"",""2457""
""fullscreenexit"",""2"",""4660""
""blur"",""2"",""7566""
""focus"",""2"",""7638""
""blur"",""2"",""7996""
""focus"",""5"",""30286""
""blur"",""8"",""37894""
""focus"",""9"",""44317""
""blur"",""11"",""63355""
""focus"",""11"",""64614""
""blur"",""36"",""148879""
""focus"",""36"",""155287""
""blur"",""37"",""157126""
""focus"",""37"",""158281""
""blur"",""40"",""179200""
""focus"",""40"",""181465""
""blur"",""42"",""190243""
""focus"",""42"",""198103""
""blur"",""43"",""198499""
""focus"",""44"",""200908""
","""event"",""trial"",""time""
""blur"",""2"",""7566""
""blur"",""2"",""7996""
""blur"",""8"",""37894""
""blur"",""11"",""63355""
""blur"",""36"",""148879""
""blur"",""37"",""157126""
""blur"",""40"",""179200""
""blur"",""42"",""190243""
""blur"",""43"",""198499""
","""event"",""trial"",""time""
""focus"",""2"",""7638""
""focus"",""5"",""30286""
""focus"",""9"",""44317""
""focus"",""11"",""64614""
""focus"",""36"",""155287""
""focus"",""37"",""158281""
""focus"",""40"",""181465""
""focus"",""42"",""198103""
""focus"",""44"",""200908""
","""event"",""trial"",""time""
""fullscreenenter"",""1"",""2457""
","""event"",""trial"",""time""
""fullscreenexit"",""2"",""4660""
","","","","","","2411.60000000149","images/chair5.png","","","memory_trial","1","definitely_old",""
"html-keyboard-response","45","202716","0.0-18.0-0.1","7594","approach_avoid_sv1","""event"",""trial"",""time""
""fullscreenenter"",""1"",""2457""
""fullscreenexit"",""2"",""4660""
""blur"",""2"",""7566""
""focus"",""2"",""7638""
""blur"",""2"",""7996""
""focus"",""5"",""30286""
""blur"",""8"",""37894""
""focus"",""9"",""44317""
""blur"",""11"",""63355""
""focus"",""11"",""64614""
""blur"",""36"",""148879""
""focus"",""36"",""155287""
""blur"",""37"",""157126""
""focus"",""37"",""158281""
""blur"",""40"",""179200""
""focus"",""40"",""181465""
""blur"",""42"",""190243""
""focus"",""42"",""198103""
""blur"",""43"",""198499""
""focus"",""44"",""200908""
","""event"",""trial"",""time""
""blur"",""2"",""7566""
""blur"",""2"",""7996""
""blur"",""8"",""37894""
""blur"",""11"",""63355""
""blur"",""36"",""148879""
""blur"",""37"",""157126""
""blur"",""40"",""179200""
""blur"",""42"",""190243""
""blur"",""43"",""198499""
","""event"",""trial"",""time""
""focus"",""2"",""7638""
""focus"",""5"",""30286""
""focus"",""9"",""44317""
""focus"",""11"",""64614""
""focus"",""36"",""155287""
""focus"",""37"",""158281""
""focus"",""40"",""181465""
""focus"",""42"",""198103""
""focus"",""44"",""200908""
","""event"",""trial"",""time""
""fullscreenenter"",""1"",""2457""
","""event"",""trial"",""time""
""fullscreenexit"",""2"",""4660""
","","","","","","null","<div style=""font-size:60px;"">+</div>","null","","fixation","","",""
"memory-trial","46","205846","0.0-18.0-1.1","7594","approach_avoid_sv1","""event"",""trial"",""time""
""fullscreenenter"",""1"",""2457""
""fullscreenexit"",""2"",""4660""
""blur"",""2"",""7566""
""focus"",""2"",""7638""
""blur"",""2"",""7996""
""focus"",""5"",""30286""
""blur"",""8"",""37894""
""focus"",""9"",""44317""
""blur"",""11"",""63355""
""focus"",""11"",""64614""
""blur"",""36"",""148879""
""focus"",""36"",""155287""
""blur"",""37"",""157126""
""focus"",""37"",""158281""
""blur"",""40"",""179200""
""focus"",""40"",""181465""
""blur"",""42"",""190243""
""focus"",""42"",""198103""
""blur"",""43"",""198499""
""focus"",""44"",""200908""
","""event"",""trial"",""time""
""blur"",""2"",""7566""
""blur"",""2"",""7996""
""blur"",""8"",""37894""
""blur"",""11"",""63355""
""blur"",""36"",""148879""
""blur"",""37"",""157126""
""blur"",""40"",""179200""
""blur"",""42"",""190243""
""blur"",""43"",""198499""
","""event"",""trial"",""time""
""focus"",""2"",""7638""
""focus"",""5"",""30286""
""focus"",""9"",""44317""
""focus"",""11"",""64614""
""focus"",""36"",""155287""
""focus"",""37"",""158281""
""focus"",""40"",""181465""
""focus"",""42"",""198103""
""focus"",""44"",""200908""
","""event"",""trial"",""time""
""fullscreenenter"",""1"",""2457""
","""event"",""trial"",""time""
""fullscreenexit"",""2"",""4660""
","","","","","","2126.5999999940395","images/bush8.png","","","memory_trial","3","maybe_new",""
"html-keyboard-response","47","206347","0.0-18.0-0.2","7594","approach_avoid_sv1","""event"",""trial"",""time""
""fullscreenenter"",""1"",""2457""
""fullscreenexit"",""2"",""4660""
""blur"",""2"",""7566""
""focus"",""2"",""7638""
""blur"",""2"",""7996""
""focus"",""5"",""30286""
""blur"",""8"",""37894""
""focus"",""9"",""44317""
""blur"",""11"",""63355""
""focus"",""11"",""64614""
""blur"",""36"",""148879""
""focus"",""36"",""155287""
""blur"",""37"",""157126""
""focus"",""37"",""158281""
""blur"",""40"",""179200""
""focus"",""40"",""181465""
""blur"",""42"",""190243""
""focus"",""42"",""198103""
""blur"",""43"",""198499""
""focus"",""44"",""200908""
","""event"",""trial"",""time""
""blur"",""2"",""7566""
""blur"",""2"",""7996""
""blur"",""8"",""37894""
""blur"",""11"",""63355""
""blur"",""36"",""148879""
""blur"",""37"",""157126""
""blur"",""40"",""179200""
""blur"",""42"",""190243""
""blur"",""43"",""198499""
","""event"",""trial"",""time""
""focus"",""2"",""7638""
""focus"",""5"",""30286""
""focus"",""9"",""44317""
""focus"",""11"",""64614""
""focus"",""36"",""155287""
""focus"",""37"",""158281""
""focus"",""40"",""181465""
""focus"",""42"",""198103""
""focus"",""44"",""200908""
","""event"",""trial"",""time""
""fullscreenenter"",""1"",""2457""
","""event"",""trial"",""time""
""fullscreenexit"",""2"",""4660""
","","","","","","null","<div style=""font-size:60px;"">+</div>","null","","fixation","","",""
"memory-trial","48","210258","0.0-18.0-1.2","7594","approach_avoid_sv1","""event"",""trial"",""time""
""fullscreenenter"",""1"",""2457""
""fullscreenexit"",""2"",""4660""
""blur"",""2"",""7566""
""focus"",""2"",""7638""
""blur"",""2"",""7996""
""focus"",""5"",""30286""
""blur"",""8"",""37894""
""focus"",""9"",""44317""
""blur"",""11"",""63355""
""focus"",""11"",""64614""
""blur"",""36"",""148879""
""focus"",""36"",""155287""
""blur"",""37"",""157126""
""focus"",""37"",""158281""
""blur"",""40"",""179200""
""focus"",""40"",""181465""
""blur"",""42"",""190243""
""focus"",""42"",""198103""
""blur"",""43"",""198499""
""focus"",""44"",""200908""
","""event"",""trial"",""time""
""blur"",""2"",""7566""
""blur"",""2"",""7996""
""blur"",""8"",""37894""
""blur"",""11"",""63355""
""blur"",""36"",""148879""
""blur"",""37"",""157126""
""blur"",""40"",""179200""
""blur"",""42"",""190243""
""blur"",""43"",""198499""
","""event"",""trial"",""time""
""focus"",""2"",""7638""
""focus"",""5"",""30286""
""focus"",""9"",""44317""
""focus"",""11"",""64614""
""focus"",""36"",""155287""
""focus"",""37"",""158281""
""focus"",""40"",""181465""
""focus"",""42"",""198103""
""focus"",""44"",""200908""
","""event"",""trial"",""time""
""fullscreenenter"",""1"",""2457""
","""event"",""trial"",""time""
""fullscreenexit"",""2"",""4660""
","","","","","","2893.89999999851","images/bed2.png","","","memory_trial","1","definitely_old",""
"html-keyboard-response","49","210772","0.0-18.0-0.3","7594","approach_avoid_sv1","""event"",""trial"",""time""
""fullscreenenter"",""1"",""2457""
""fullscreenexit"",""2"",""4660""
""blur"",""2"",""7566""
""focus"",""2"",""7638""
""blur"",""2"",""7996""
""focus"",""5"",""30286""
""blur"",""8"",""37894""
""focus"",""9"",""44317""
""blur"",""11"",""63355""
""focus"",""11"",""64614""
""blur"",""36"",""148879""
""focus"",""36"",""155287""
""blur"",""37"",""157126""
""focus"",""37"",""158281""
""blur"",""40"",""179200""
""focus"",""40"",""181465""
""blur"",""42"",""190243""
""focus"",""42"",""198103""
""blur"",""43"",""198499""
""focus"",""44"",""200908""
","""event"",""trial"",""time""
""blur"",""2"",""7566""
""blur"",""2"",""7996""
""blur"",""8"",""37894""
""blur"",""11"",""63355""
""blur"",""36"",""148879""
""blur"",""37"",""157126""
""blur"",""40"",""179200""
""blur"",""42"",""190243""
""blur"",""43"",""198499""
","""event"",""trial"",""time""
""focus"",""2"",""7638""
""focus"",""5"",""30286""
""focus"",""9"",""44317""
""focus"",""11"",""64614""
""focus"",""36"",""155287""
""focus"",""37"",""158281""
""focus"",""40"",""181465""
""focus"",""42"",""198103""
""focus"",""44"",""200908""
","""event"",""trial"",""time""
""fullscreenenter"",""1"",""2457""
","""event"",""trial"",""time""
""fullscreenexit"",""2"",""4660""
","","","","","","null","<div style=""font-size:60px;"">+</div>","null","","fixation","","",""
"memory-trial","50","212527","0.0-18.0-1.3","7594","approach_avoid_sv1","""event"",""trial"",""time""
""fullscreenenter"",""1"",""2457""
""fullscreenexit"",""2"",""4660""
""blur"",""2"",""7566""
""focus"",""2"",""7638""
""blur"",""2"",""7996""
""focus"",""5"",""30286""
""blur"",""8"",""37894""
""focus"",""9"",""44317""
""blur"",""11"",""63355""
""focus"",""11"",""64614""
""blur"",""36"",""148879""
""focus"",""36"",""155287""
""blur"",""37"",""157126""
""focus"",""37"",""158281""
""blur"",""40"",""179200""
""focus"",""40"",""181465""
""blur"",""42"",""190243""
""focus"",""42"",""198103""
""blur"",""43"",""198499""
""focus"",""44"",""200908""
","""event"",""trial"",""time""
""blur"",""2"",""7566""
""blur"",""2"",""7996""
""blur"",""8"",""37894""
""blur"",""11"",""63355""
""blur"",""36"",""148879""
""blur"",""37"",""157126""
""blur"",""40"",""179200""
""blur"",""42"",""190243""
""blur"",""43"",""198499""
","""event"",""trial"",""time""
""focus"",""2"",""7638""
""focus"",""5"",""30286""
""focus"",""9"",""44317""
""focus"",""11"",""64614""
""focus"",""36"",""155287""
""focus"",""37"",""158281""
""focus"",""40"",""181465""
""focus"",""42"",""198103""
""focus"",""44"",""200908""
","""event"",""trial"",""time""
""fullscreenenter"",""1"",""2457""
","""event"",""trial"",""time""
""fullscreenexit"",""2"",""4660""
","","","","","","753.6000000014901","images/sheep6.png","","","memory_trial","1","definitely_old",""
"html-keyboard-response","51","213032","0.0-18.0-0.4","7594","approach_avoid_sv1","""event"",""trial"",""time""
""fullscreenenter"",""1"",""2457""
""fullscreenexit"",""2"",""4660""
""blur"",""2"",""7566""
""focus"",""2"",""7638""
""blur"",""2"",""7996""
""focus"",""5"",""30286""
""blur"",""8"",""37894""
""focus"",""9"",""44317""
""blur"",""11"",""63355""
""focus"",""11"",""64614""
""blur"",""36"",""148879""
""focus"",""36"",""155287""
""blur"",""37"",""157126""
""focus"",""37"",""158281""
""blur"",""40"",""179200""
""focus"",""40"",""181465""
""blur"",""42"",""190243""
""focus"",""42"",""198103""
""blur"",""43"",""198499""
""focus"",""44"",""200908""
","""event"",""trial"",""time""
""blur"",""2"",""7566""
""blur"",""2"",""7996""
""blur"",""8"",""37894""
""blur"",""11"",""63355""
""blur"",""36"",""148879""
""blur"",""37"",""157126""
""blur"",""40"",""179200""
""blur"",""42"",""190243""
""blur"",""43"",""198499""
","""event"",""trial"",""time""
""focus"",""2"",""7638""
""focus"",""5"",""30286""
""focus"",""9"",""44317""
""focus"",""11"",""64614""
""focus"",""36"",""155287""
""focus"",""37"",""158281""
""focus"",""40"",""181465""
""focus"",""42"",""198103""
""focus"",""44"",""200908""
","""event"",""trial"",""time""
""fullscreenenter"",""1"",""2457""
","""event"",""trial"",""time""
""fullscreenexit"",""2"",""4660""
","","","","","","null","<div style=""font-size:60px;"">+</div>","null","","fixation","","",""
"memory-trial","52","214720","0.0-18.0-1.4","7594","approach_avoid_sv1","""event"",""trial"",""time""
""fullscreenenter"",""1"",""2457""
""fullscreenexit"",""2"",""4660""
""blur"",""2"",""7566""
""focus"",""2"",""7638""
""blur"",""2"",""7996""
""focus"",""5"",""30286""
""blur"",""8"",""37894""
""focus"",""9"",""44317""
""blur"",""11"",""63355""
""focus"",""11"",""64614""
""blur"",""36"",""148879""
""focus"",""36"",""155287""
""blur"",""37"",""157126""
""focus"",""37"",""158281""
""blur"",""40"",""179200""
""focus"",""40"",""181465""
""blur"",""42"",""190243""
""focus"",""42"",""198103""
""blur"",""43"",""198499""
""focus"",""44"",""200908""
","""event"",""trial"",""time""
""blur"",""2"",""7566""
""blur"",""2"",""7996""
""blur"",""8"",""37894""
""blur"",""11"",""63355""
""blur"",""36"",""148879""
""blur"",""37"",""157126""
""blur"",""40"",""179200""
""blur"",""42"",""190243""
""blur"",""43"",""198499""
","""event"",""trial"",""time""
""focus"",""2"",""7638""
""focus"",""5"",""30286""
""focus"",""9"",""44317""
""focus"",""11"",""64614""
""focus"",""36"",""155287""
""focus"",""37"",""158281""
""focus"",""40"",""181465""
""focus"",""42"",""198103""
""focus"",""44"",""200908""
","""event"",""trial"",""time""
""fullscreenenter"",""1"",""2457""
","""event"",""trial"",""time""
""fullscreenexit"",""2"",""4660""
","","","","","","683.5","images/table2.png","","","memory_trial","1","definitely_old",""
"html-keyboard-response","53","215236","0.0-18.0-0.5","7594","approach_avoid_sv1","""event"",""trial"",""time""
""fullscreenenter"",""1"",""2457""
""fullscreenexit"",""2"",""4660""
""blur"",""2"",""7566""
""focus"",""2"",""7638""
""blur"",""2"",""7996""
""focus"",""5"",""30286""
""blur"",""8"",""37894""
""focus"",""9"",""44317""
""blur"",""11"",""63355""
""focus"",""11"",""64614""
""blur"",""36"",""148879""
""focus"",""36"",""155287""
""blur"",""37"",""157126""
""focus"",""37"",""158281""
""blur"",""40"",""179200""
""focus"",""40"",""181465""
""blur"",""42"",""190243""
""focus"",""42"",""198103""
""blur"",""43"",""198499""
""focus"",""44"",""200908""
","""event"",""trial"",""time""
""blur"",""2"",""7566""
""blur"",""2"",""7996""
""blur"",""8"",""37894""
""blur"",""11"",""63355""
""blur"",""36"",""148879""
""blur"",""37"",""157126""
""blur"",""40"",""179200""
""blur"",""42"",""190243""
""blur"",""43"",""198499""
","""event"",""trial"",""time""
""focus"",""2"",""7638""
""focus"",""5"",""30286""
""focus"",""9"",""44317""
""focus"",""11"",""64614""
""focus"",""36"",""155287""
""focus"",""37"",""158281""
""focus"",""40"",""181465""
""focus"",""42"",""198103""
""focus"",""44"",""200908""
","""event"",""trial"",""time""
""fullscreenenter"",""1"",""2457""
","""event"",""trial"",""time""
""fullscreenexit"",""2"",""4660""
","","","","","","null","<div style=""font-size:60px;"">+</div>","null","","fixation","","",""
"memory-trial","54","216924","0.0-18.0-1.5","7594","approach_avoid_sv1","""event"",""trial"",""time""
""fullscreenenter"",""1"",""2457""
""fullscreenexit"",""2"",""4660""
""blur"",""2"",""7566""
""focus"",""2"",""7638""
""blur"",""2"",""7996""
""focus"",""5"",""30286""
""blur"",""8"",""37894""
""focus"",""9"",""44317""
""blur"",""11"",""63355""
""focus"",""11"",""64614""
""blur"",""36"",""148879""
""focus"",""36"",""155287""
""blur"",""37"",""157126""
""focus"",""37"",""158281""
""blur"",""40"",""179200""
""focus"",""40"",""181465""
""blur"",""42"",""190243""
""focus"",""42"",""198103""
""blur"",""43"",""198499""
""focus"",""44"",""200908""
","""event"",""trial"",""time""
""blur"",""2"",""7566""
""blur"",""2"",""7996""
""blur"",""8"",""37894""
""blur"",""11"",""63355""
""blur"",""36"",""148879""
""blur"",""37"",""157126""
""blur"",""40"",""179200""
""blur"",""42"",""190243""
""blur"",""43"",""198499""
","""event"",""trial"",""time""
""focus"",""2"",""7638""
""focus"",""5"",""30286""
""focus"",""9"",""44317""
""focus"",""11"",""64614""
""focus"",""36"",""155287""
""focus"",""37"",""158281""
""focus"",""40"",""181465""
""focus"",""42"",""198103""
""focus"",""44"",""200908""
","""event"",""trial"",""time""
""fullscreenenter"",""1"",""2457""
","""event"",""trial"",""time""
""fullscreenexit"",""2"",""4660""
","","","","","","672.5","images/cow6.png","","","memory_trial","1","definitely_old",""
"html-keyboard-response","55","217440","0.0-18.0-0.6","7594","approach_avoid_sv1","""event"",""trial"",""time""
""fullscreenenter"",""1"",""2457""
""fullscreenexit"",""2"",""4660""
""blur"",""2"",""7566""
""focus"",""2"",""7638""
""blur"",""2"",""7996""
""focus"",""5"",""30286""
""blur"",""8"",""37894""
""focus"",""9"",""44317""
""blur"",""11"",""63355""
""focus"",""11"",""64614""
""blur"",""36"",""148879""
""focus"",""36"",""155287""
""blur"",""37"",""157126""
""focus"",""37"",""158281""
""blur"",""40"",""179200""
""focus"",""40"",""181465""
""blur"",""42"",""190243""
""focus"",""42"",""198103""
""blur"",""43"",""198499""
""focus"",""44"",""200908""
","""event"",""trial"",""time""
""blur"",""2"",""7566""
""blur"",""2"",""7996""
""blur"",""8"",""37894""
""blur"",""11"",""63355""
""blur"",""36"",""148879""
""blur"",""37"",""157126""
""blur"",""40"",""179200""
""blur"",""42"",""190243""
""blur"",""43"",""198499""
","""event"",""trial"",""time""
""focus"",""2"",""7638""
""focus"",""5"",""30286""
""focus"",""9"",""44317""
""focus"",""11"",""64614""
""focus"",""36"",""155287""
""focus"",""37"",""158281""
""focus"",""40"",""181465""
""focus"",""42"",""198103""
""focus"",""44"",""200908""
","""event"",""trial"",""time""
""fullscreenenter"",""1"",""2457""
","""event"",""trial"",""time""
""fullscreenexit"",""2"",""4660""
","","","","","","null","<div style=""font-size:60px;"">+</div>","null","","fixation","","",""
"memory-trial","56","220203","0.0-18.0-1.6","7594","approach_avoid_sv1","""event"",""trial"",""time""
""fullscreenenter"",""1"",""2457""
""fullscreenexit"",""2"",""4660""
""blur"",""2"",""7566""
""focus"",""2"",""7638""
""blur"",""2"",""7996""
""focus"",""5"",""30286""
""blur"",""8"",""37894""
""focus"",""9"",""44317""
""blur"",""11"",""63355""
""focus"",""11"",""64614""
""blur"",""36"",""148879""
""focus"",""36"",""155287""
""blur"",""37"",""157126""
""focus"",""37"",""158281""
""blur"",""40"",""179200""
""focus"",""40"",""181465""
""blur"",""42"",""190243""
""focus"",""42"",""198103""
""blur"",""43"",""198499""
""focus"",""44"",""200908""
","""event"",""trial"",""time""
""blur"",""2"",""7566""
""blur"",""2"",""7996""
""blur"",""8"",""37894""
""blur"",""11"",""63355""
""blur"",""36"",""148879""
""blur"",""37"",""157126""
""blur"",""40"",""179200""
""blur"",""42"",""190243""
""blur"",""43"",""198499""
","""event"",""trial"",""time""
""focus"",""2"",""7638""
""focus"",""5"",""30286""
""focus"",""9"",""44317""
""focus"",""11"",""64614""
""focus"",""36"",""155287""
""focus"",""37"",""158281""
""focus"",""40"",""181465""
""focus"",""42"",""198103""
""focus"",""44"",""200908""
","""event"",""trial"",""time""
""fullscreenenter"",""1"",""2457""
","""event"",""trial"",""time""
""fullscreenexit"",""2"",""4660""
","","","","","","1750.1999999955297","images/chair3.png","","","memory_trial","1","definitely_old",""
"html-keyboard-response","57","220706","0.0-18.0-0.7","7594","approach_avoid_sv1","""event"",""trial"",""time""
""fullscreenenter"",""1"",""2457""
""fullscreenexit"",""2"",""4660""
""blur"",""2"",""7566""
""focus"",""2"",""7638""
""blur"",""2"",""7996""
""focus"",""5"",""30286""
""blur"",""8"",""37894""
""focus"",""9"",""44317""
""blur"",""11"",""63355""
""focus"",""11"",""64614""
""blur"",""36"",""148879""
""focus"",""36"",""155287""
""blur"",""37"",""157126""
""focus"",""37"",""158281""
""blur"",""40"",""179200""
""focus"",""40"",""181465""
""blur"",""42"",""190243""
""focus"",""42"",""198103""
""blur"",""43"",""198499""
""focus"",""44"",""200908""
","""event"",""trial"",""time""
""blur"",""2"",""7566""
""blur"",""2"",""7996""
""blur"",""8"",""37894""
""blur"",""11"",""63355""
""blur"",""36"",""148879""
""blur"",""37"",""157126""
""blur"",""40"",""179200""
""blur"",""42"",""190243""
""blur"",""43"",""198499""
","""event"",""trial"",""time""
""focus"",""2"",""7638""
""focus"",""5"",""30286""
""focus"",""9"",""44317""
""focus"",""11"",""64614""
""focus"",""36"",""155287""
""focus"",""37"",""158281""
""focus"",""40"",""181465""
""focus"",""42"",""198103""
""focus"",""44"",""200908""
","""event"",""trial"",""time""
""fullscreenenter"",""1"",""2457""
","""event"",""trial"",""time""
""fullscreenexit"",""2"",""4660""
","","","","","","null","<div style=""font-size:60px;"">+</div>","null","","fixation","","",""
"memory-trial","58","222360","0.0-18.0-1.7","7594","approach_avoid_sv1","""event"",""trial"",""time""
""fullscreenenter"",""1"",""2457""
""fullscreenexit"",""2"",""4660""
""blur"",""2"",""7566""
""focus"",""2"",""7638""
""blur"",""2"",""7996""
""focus"",""5"",""30286""
""blur"",""8"",""37894""
""focus"",""9"",""44317""
""blur"",""11"",""63355""
""focus"",""11"",""64614""
""blur"",""36"",""148879""
""focus"",""36"",""155287""
""blur"",""37"",""157126""
""focus"",""37"",""158281""
""blur"",""40"",""179200""
""focus"",""40"",""181465""
""blur"",""42"",""190243""
""focus"",""42"",""198103""
""blur"",""43"",""198499""
""focus"",""44"",""200908""
","""event"",""trial"",""time""
""blur"",""2"",""7566""
""blur"",""2"",""7996""
""blur"",""8"",""37894""
""blur"",""11"",""63355""
""blur"",""36"",""148879""
""blur"",""37"",""157126""
""blur"",""40"",""179200""
""blur"",""42"",""190243""
""blur"",""43"",""198499""
","""event"",""trial"",""time""
""focus"",""2"",""7638""
""focus"",""5"",""30286""
""focus"",""9"",""44317""
""focus"",""11"",""64614""
""focus"",""36"",""155287""
""focus"",""37"",""158281""
""focus"",""40"",""181465""
""focus"",""42"",""198103""
""focus"",""44"",""200908""
","""event"",""trial"",""time""
""fullscreenenter"",""1"",""2457""
","""event"",""trial"",""time""
""fullscreenexit"",""2"",""4660""
","","","","","","642.5","images/cow3.png","","","memory_trial","1","definitely_old",""
"html-keyboard-response","59","222861","0.0-18.0-0.8","7594","approach_avoid_sv1","""event"",""trial"",""time""
""fullscreenenter"",""1"",""2457""
""fullscreenexit"",""2"",""4660""
""blur"",""2"",""7566""
""focus"",""2"",""7638""
""blur"",""2"",""7996""
""focus"",""5"",""30286""
""blur"",""8"",""37894""
""focus"",""9"",""44317""
""blur"",""11"",""63355""
""focus"",""11"",""64614""
""blur"",""36"",""148879""
""focus"",""36"",""155287""
""blur"",""37"",""157126""
""focus"",""37"",""158281""
""blur"",""40"",""179200""
""focus"",""40"",""181465""
""blur"",""42"",""190243""
""focus"",""42"",""198103""
""blur"",""43"",""198499""
""focus"",""44"",""200908""
","""event"",""trial"",""time""
""blur"",""2"",""7566""
""blur"",""2"",""7996""
""blur"",""8"",""37894""
""blur"",""11"",""63355""
""blur"",""36"",""148879""
""blur"",""37"",""157126""
""blur"",""40"",""179200""
""blur"",""42"",""190243""
""blur"",""43"",""198499""
","""event"",""trial"",""time""
""focus"",""2"",""7638""
""focus"",""5"",""30286""
""focus"",""9"",""44317""
""focus"",""11"",""64614""
""focus"",""36"",""155287""
""focus"",""37"",""158281""
""focus"",""40"",""181465""
""focus"",""42"",""198103""
""focus"",""44"",""200908""
","""event"",""trial"",""time""
""fullscreenenter"",""1"",""2457""
","""event"",""trial"",""time""
""fullscreenexit"",""2"",""4660""
","","","","","","null","<div style=""font-size:60px;"">+</div>","null","","fixation","","",""
"memory-trial","60","224563","0.0-18.0-1.8","7594","approach_avoid_sv1","""event"",""trial"",""time""
""fullscreenenter"",""1"",""2457""
""fullscreenexit"",""2"",""4660""
""blur"",""2"",""7566""
""focus"",""2"",""7638""
""blur"",""2"",""7996""
""focus"",""5"",""30286""
""blur"",""8"",""37894""
""focus"",""9"",""44317""
""blur"",""11"",""63355""
""focus"",""11"",""64614""
""blur"",""36"",""148879""
""focus"",""36"",""155287""
""blur"",""37"",""157126""
""focus"",""37"",""158281""
""blur"",""40"",""179200""
""focus"",""40"",""181465""
""blur"",""42"",""190243""
""focus"",""42"",""198103""
""blur"",""43"",""198499""
""focus"",""44"",""200908""
","""event"",""trial"",""time""
""blur"",""2"",""7566""
""blur"",""2"",""7996""
""blur"",""8"",""37894""
""blur"",""11"",""63355""
""blur"",""36"",""148879""
""blur"",""37"",""157126""
""blur"",""40"",""179200""
""blur"",""42"",""190243""
""blur"",""43"",""198499""
","""event"",""trial"",""time""
""focus"",""2"",""7638""
""focus"",""5"",""30286""
""focus"",""9"",""44317""
""focus"",""11"",""64614""
""focus"",""36"",""155287""
""focus"",""37"",""158281""
""focus"",""40"",""181465""
""focus"",""42"",""198103""
""focus"",""44"",""200908""
","""event"",""trial"",""time""
""fullscreenenter"",""1"",""2457""
","""event"",""trial"",""time""
""fullscreenexit"",""2"",""4660""
","","","","","","690.0999999940395","images/cat2.png","","","memory_trial","1","definitely_old",""
"html-keyboard-response","61","225064","0.0-18.0-0.9","7594","approach_avoid_sv1","""event"",""trial"",""time""
""fullscreenenter"",""1"",""2457""
""fullscreenexit"",""2"",""4660""
""blur"",""2"",""7566""
""focus"",""2"",""7638""
""blur"",""2"",""7996""
""focus"",""5"",""30286""
""blur"",""8"",""37894""
""focus"",""9"",""44317""
""blur"",""11"",""63355""
""focus"",""11"",""64614""
""blur"",""36"",""148879""
""focus"",""36"",""155287""
""blur"",""37"",""157126""
""focus"",""37"",""158281""
""blur"",""40"",""179200""
""focus"",""40"",""181465""
""blur"",""42"",""190243""
""focus"",""42"",""198103""
""blur"",""43"",""198499""
""focus"",""44"",""200908""
","""event"",""trial"",""time""
""blur"",""2"",""7566""
""blur"",""2"",""7996""
""blur"",""8"",""37894""
""blur"",""11"",""63355""
""blur"",""36"",""148879""
""blur"",""37"",""157126""
""blur"",""40"",""179200""
""blur"",""42"",""190243""
""blur"",""43"",""198499""
","""event"",""trial"",""time""
""focus"",""2"",""7638""
""focus"",""5"",""30286""
""focus"",""9"",""44317""
""focus"",""11"",""64614""
""focus"",""36"",""155287""
""focus"",""37"",""158281""
""focus"",""40"",""181465""
""focus"",""42"",""198103""
""focus"",""44"",""200908""
","""event"",""trial"",""time""
""fullscreenenter"",""1"",""2457""
","""event"",""trial"",""time""
""fullscreenexit"",""2"",""4660""
","","","","","","null","<div style=""font-size:60px;"">+</div>","null","","fixation","","",""
"memory-trial","62","227430","0.0-18.0-1.9","7594","approach_avoid_sv1","""event"",""trial"",""time""
""fullscreenenter"",""1"",""2457""
""fullscreenexit"",""2"",""4660""
""blur"",""2"",""7566""
""focus"",""2"",""7638""
""blur"",""2"",""7996""
""focus"",""5"",""30286""
""blur"",""8"",""37894""
""focus"",""9"",""44317""
""blur"",""11"",""63355""
""focus"",""11"",""64614""
""blur"",""36"",""148879""
""focus"",""36"",""155287""
""blur"",""37"",""157126""
""focus"",""37"",""158281""
""blur"",""40"",""179200""
""focus"",""40"",""181465""
""blur"",""42"",""190243""
""focus"",""42"",""198103""
""blur"",""43"",""198499""
""focus"",""44"",""200908""
","""event"",""trial"",""time""
""blur"",""2"",""7566""
""blur"",""2"",""7996""
""blur"",""8"",""37894""
""blur"",""11"",""63355""
""blur"",""36"",""148879""
""blur"",""37"",""157126""
""blur"",""40"",""179200""
""blur"",""42"",""190243""
""blur"",""43"",""198499""
","""event"",""trial"",""time""
""focus"",""2"",""7638""
""focus"",""5"",""30286""
""focus"",""9"",""44317""
""focus"",""11"",""64614""
""focus"",""36"",""155287""
""focus"",""37"",""158281""
""focus"",""40"",""181465""
""focus"",""42"",""198103""
""focus"",""44"",""200908""
","""event"",""trial"",""time""
""fullscreenenter"",""1"",""2457""
","""event"",""trial"",""time""
""fullscreenexit"",""2"",""4660""
","","","","","","1363.8999999985099","images/apple1.png","","","memory_trial","1","definitely_old",""
"html-keyboard-response","63","227930","0.0-18.0-0.10","7594","approach_avoid_sv1","""event"",""trial"",""time""
""fullscreenenter"",""1"",""2457""
""fullscreenexit"",""2"",""4660""
""blur"",""2"",""7566""
""focus"",""2"",""7638""
""blur"",""2"",""7996""
""focus"",""5"",""30286""
""blur"",""8"",""37894""
""focus"",""9"",""44317""
""blur"",""11"",""63355""
""focus"",""11"",""64614""
""blur"",""36"",""148879""
""focus"",""36"",""155287""
""blur"",""37"",""157126""
""focus"",""37"",""158281""
""blur"",""40"",""179200""
""focus"",""40"",""181465""
""blur"",""42"",""190243""
""focus"",""42"",""198103""
""blur"",""43"",""198499""
""focus"",""44"",""200908""
","""event"",""trial"",""time""
""blur"",""2"",""7566""
""blur"",""2"",""7996""
""blur"",""8"",""37894""
""blur"",""11"",""63355""
""blur"",""36"",""148879""
""blur"",""37"",""157126""
""blur"",""40"",""179200""
""blur"",""42"",""190243""
""blur"",""43"",""198499""
","""event"",""trial"",""time""
""focus"",""2"",""7638""
""focus"",""5"",""30286""
""focus"",""9"",""44317""
""focus"",""11"",""64614""
""focus"",""36"",""155287""
""focus"",""37"",""158281""
""focus"",""40"",""181465""
""focus"",""42"",""198103""
""focus"",""44"",""200908""
","""event"",""trial"",""time""
""fullscreenenter"",""1"",""2457""
","""event"",""trial"",""time""
""fullscreenexit"",""2"",""4660""
","","","","","","null","<div style=""font-size:60px;"">+</div>","null","","fixation","","",""
"memory-trial","64","230174","0.0-18.0-1.10","7594","approach_avoid_sv1","""event"",""trial"",""time""
""fullscreenenter"",""1"",""2457""
""fullscreenexit"",""2"",""4660""
""blur"",""2"",""7566""
""focus"",""2"",""7638""
""blur"",""2"",""7996""
""focus"",""5"",""30286""
""blur"",""8"",""37894""
""focus"",""9"",""44317""
""blur"",""11"",""63355""
""focus"",""11"",""64614""
""blur"",""36"",""148879""
""focus"",""36"",""155287""
""blur"",""37"",""157126""
""focus"",""37"",""158281""
""blur"",""40"",""179200""
""focus"",""40"",""181465""
""blur"",""42"",""190243""
""focus"",""42"",""198103""
""blur"",""43"",""198499""
""focus"",""44"",""200908""
","""event"",""trial"",""time""
""blur"",""2"",""7566""
""blur"",""2"",""7996""
""blur"",""8"",""37894""
""blur"",""11"",""63355""
""blur"",""36"",""148879""
""blur"",""37"",""157126""
""blur"",""40"",""179200""
""blur"",""42"",""190243""
""blur"",""43"",""198499""
","""event"",""trial"",""time""
""focus"",""2"",""7638""
""focus"",""5"",""30286""
""focus"",""9"",""44317""
""focus"",""11"",""64614""
""focus"",""36"",""155287""
""focus"",""37"",""158281""
""focus"",""40"",""181465""
""focus"",""42"",""198103""
""focus"",""44"",""200908""
","""event"",""trial"",""time""
""fullscreenenter"",""1"",""2457""
","""event"",""trial"",""time""
""fullscreenexit"",""2"",""4660""
","","","","","","1242.7999999970198","images/apple4.png","","","memory_trial","4","definitely_new",""
"html-keyboard-response","65","230676","0.0-18.0-0.11","7594","approach_avoid_sv1","""event"",""trial"",""time""
""fullscreenenter"",""1"",""2457""
""fullscreenexit"",""2"",""4660""
""blur"",""2"",""7566""
""focus"",""2"",""7638""
""blur"",""2"",""7996""
""focus"",""5"",""30286""
""blur"",""8"",""37894""
""focus"",""9"",""44317""
""blur"",""11"",""63355""
""focus"",""11"",""64614""
""blur"",""36"",""148879""
""focus"",""36"",""155287""
""blur"",""37"",""157126""
""focus"",""37"",""158281""
""blur"",""40"",""179200""
""focus"",""40"",""181465""
""blur"",""42"",""190243""
""focus"",""42"",""198103""
""blur"",""43"",""198499""
""focus"",""44"",""200908""
","""event"",""trial"",""time""
""blur"",""2"",""7566""
""blur"",""2"",""7996""
""blur"",""8"",""37894""
""blur"",""11"",""63355""
""blur"",""36"",""148879""
""blur"",""37"",""157126""
""blur"",""40"",""179200""
""blur"",""42"",""190243""
""blur"",""43"",""198499""
","""event"",""trial"",""time""
""focus"",""2"",""7638""
""focus"",""5"",""30286""
""focus"",""9"",""44317""
""focus"",""11"",""64614""
""focus"",""36"",""155287""
""focus"",""37"",""158281""
""focus"",""40"",""181465""
""focus"",""42"",""198103""
""focus"",""44"",""200908""
","""event"",""trial"",""time""
""fullscreenenter"",""1"",""2457""
","""event"",""trial"",""time""
""fullscreenexit"",""2"",""4660""
","","","","","","null","<div style=""font-size:60px;"">+</div>","null","","fixation","","",""
"memory-trial","66","232268","0.0-18.0-1.11","7594","approach_avoid_sv1","""event"",""trial"",""time""
""fullscreenenter"",""1"",""2457""
""fullscreenexit"",""2"",""4660""
""blur"",""2"",""7566""
""focus"",""2"",""7638""
""blur"",""2"",""7996""
""focus"",""5"",""30286""
""blur"",""8"",""37894""
""focus"",""9"",""44317""
""blur"",""11"",""63355""
""focus"",""11"",""64614""
""blur"",""36"",""148879""
""focus"",""36"",""155287""
""blur"",""37"",""157126""
""focus"",""37"",""158281""
""blur"",""40"",""179200""
""focus"",""40"",""181465""
""blur"",""42"",""190243""
""focus"",""42"",""198103""
""blur"",""43"",""198499""
""focus"",""44"",""200908""
","""event"",""trial"",""time""
""blur"",""2"",""7566""
""blur"",""2"",""7996""
""blur"",""8"",""37894""
""blur"",""11"",""63355""
""blur"",""36"",""148879""
""blur"",""37"",""157126""
""blur"",""40"",""179200""
""blur"",""42"",""190243""
""blur"",""43"",""198499""
","""event"",""trial"",""time""
""focus"",""2"",""7638""
""focus"",""5"",""30286""
""focus"",""9"",""44317""
""focus"",""11"",""64614""
""focus"",""36"",""155287""
""focus"",""37"",""158281""
""focus"",""40"",""181465""
""focus"",""42"",""198103""
""focus"",""44"",""200908""
","""event"",""trial"",""time""
""fullscreenenter"",""1"",""2457""
","""event"",""trial"",""time""
""fullscreenexit"",""2"",""4660""
","","","","","","591","images/cow8.png","","","memory_trial","1","definitely_old",""
"html-keyboard-response","67","232769","0.0-18.0-0.12","7594","approach_avoid_sv1","""event"",""trial"",""time""
""fullscreenenter"",""1"",""2457""
""fullscreenexit"",""2"",""4660""
""blur"",""2"",""7566""
""focus"",""2"",""7638""
""blur"",""2"",""7996""
""focus"",""5"",""30286""
""blur"",""8"",""37894""
""focus"",""9"",""44317""
""blur"",""11"",""63355""
""focus"",""11"",""64614""
""blur"",""36"",""148879""
""focus"",""36"",""155287""
""blur"",""37"",""157126""
""focus"",""37"",""158281""
""blur"",""40"",""179200""
""focus"",""40"",""181465""
""blur"",""42"",""190243""
""focus"",""42"",""198103""
""blur"",""43"",""198499""
""focus"",""44"",""200908""
","""event"",""trial"",""time""
""blur"",""2"",""7566""
""blur"",""2"",""7996""
""blur"",""8"",""37894""
""blur"",""11"",""63355""
""blur"",""36"",""148879""
""blur"",""37"",""157126""
""blur"",""40"",""179200""
""blur"",""42"",""190243""
""blur"",""43"",""198499""
","""event"",""trial"",""time""
""focus"",""2"",""7638""
""focus"",""5"",""30286""
""focus"",""9"",""44317""
""focus"",""11"",""64614""
""focus"",""36"",""155287""
""focus"",""37"",""158281""
""focus"",""40"",""181465""
""focus"",""42"",""198103""
""focus"",""44"",""200908""
","""event"",""trial"",""time""
""fullscreenenter"",""1"",""2457""
","""event"",""trial"",""time""
""fullscreenexit"",""2"",""4660""
","","","","","","null","<div style=""font-size:60px;"">+</div>","null","","fixation","","",""
"memory-trial","68","234751","0.0-18.0-1.12","7594","approach_avoid_sv1","""event"",""trial"",""time""
""fullscreenenter"",""1"",""2457""
""fullscreenexit"",""2"",""4660""
""blur"",""2"",""7566""
""focus"",""2"",""7638""
""blur"",""2"",""7996""
""focus"",""5"",""30286""
""blur"",""8"",""37894""
""focus"",""9"",""44317""
""blur"",""11"",""63355""
""focus"",""11"",""64614""
""blur"",""36"",""148879""
""focus"",""36"",""155287""
""blur"",""37"",""157126""
""focus"",""37"",""158281""
""blur"",""40"",""179200""
""focus"",""40"",""181465""
""blur"",""42"",""190243""
""focus"",""42"",""198103""
""blur"",""43"",""198499""
""focus"",""44"",""200908""
","""event"",""trial"",""time""
""blur"",""2"",""7566""
""blur"",""2"",""7996""
""blur"",""8"",""37894""
""blur"",""11"",""63355""
""blur"",""36"",""148879""
""blur"",""37"",""157126""
""blur"",""40"",""179200""
""blur"",""42"",""190243""
""blur"",""43"",""198499""
","""event"",""trial"",""time""
""focus"",""2"",""7638""
""focus"",""5"",""30286""
""focus"",""9"",""44317""
""focus"",""11"",""64614""
""focus"",""36"",""155287""
""focus"",""37"",""158281""
""focus"",""40"",""181465""
""focus"",""42"",""198103""
""focus"",""44"",""200908""
","""event"",""trial"",""time""
""fullscreenenter"",""1"",""2457""
","""event"",""trial"",""time""
""fullscreenexit"",""2"",""4660""
","","","","","","980.6000000014901","images/train1.png","","","memory_trial","1","definitely_old",""
"html-keyboard-response","69","235253","0.0-18.0-0.13","7594","approach_avoid_sv1","""event"",""trial"",""time""
""fullscreenenter"",""1"",""2457""
""fullscreenexit"",""2"",""4660""
""blur"",""2"",""7566""
""focus"",""2"",""7638""
""blur"",""2"",""7996""
""focus"",""5"",""30286""
""blur"",""8"",""37894""
""focus"",""9"",""44317""
""blur"",""11"",""63355""
""focus"",""11"",""64614""
""blur"",""36"",""148879""
""focus"",""36"",""155287""
""blur"",""37"",""157126""
""focus"",""37"",""158281""
""blur"",""40"",""179200""
""focus"",""40"",""181465""
""blur"",""42"",""190243""
""focus"",""42"",""198103""
""blur"",""43"",""198499""
""focus"",""44"",""200908""
","""event"",""trial"",""time""
""blur"",""2"",""7566""
""blur"",""2"",""7996""
""blur"",""8"",""37894""
""blur"",""11"",""63355""
""blur"",""36"",""148879""
""blur"",""37"",""157126""
""blur"",""40"",""179200""
""blur"",""42"",""190243""
""blur"",""43"",""198499""
","""event"",""trial"",""time""
""focus"",""2"",""7638""
""focus"",""5"",""30286""
""focus"",""9"",""44317""
""focus"",""11"",""64614""
""focus"",""36"",""155287""
""focus"",""37"",""158281""
""focus"",""40"",""181465""
""focus"",""42"",""198103""
""focus"",""44"",""200908""
","""event"",""trial"",""time""
""fullscreenenter"",""1"",""2457""
","""event"",""trial"",""time""
""fullscreenexit"",""2"",""4660""
","","","","","","null","<div style=""font-size:60px;"">+</div>","null","","fixation","","",""
"memory-trial","70","238096","0.0-18.0-1.13","7594","approach_avoid_sv1","""event"",""trial"",""time""
""fullscreenenter"",""1"",""2457""
""fullscreenexit"",""2"",""4660""
""blur"",""2"",""7566""
""focus"",""2"",""7638""
""blur"",""2"",""7996""
""focus"",""5"",""30286""
""blur"",""8"",""37894""
""focus"",""9"",""44317""
""blur"",""11"",""63355""
""focus"",""11"",""64614""
""blur"",""36"",""148879""
""focus"",""36"",""155287""
""blur"",""37"",""157126""
""focus"",""37"",""158281""
""blur"",""40"",""179200""
""focus"",""40"",""181465""
""blur"",""42"",""190243""
""focus"",""42"",""198103""
""blur"",""43"",""198499""
""focus"",""44"",""200908""
","""event"",""trial"",""time""
""blur"",""2"",""7566""
""blur"",""2"",""7996""
""blur"",""8"",""37894""
""blur"",""11"",""63355""
""blur"",""36"",""148879""
""blur"",""37"",""157126""
""blur"",""40"",""179200""
""blur"",""42"",""190243""
""blur"",""43"",""198499""
","""event"",""trial"",""time""
""focus"",""2"",""7638""
""focus"",""5"",""30286""
""focus"",""9"",""44317""
""focus"",""11"",""64614""
""focus"",""36"",""155287""
""focus"",""37"",""158281""
""focus"",""40"",""181465""
""focus"",""42"",""198103""
""focus"",""44"",""200908""
","""event"",""trial"",""time""
""fullscreenenter"",""1"",""2457""
","""event"",""trial"",""time""
""fullscreenexit"",""2"",""4660""
","","","","","","1841","images/bush7.png","","","memory_trial","4","definitely_new",""
"html-keyboard-response","71","238598","0.0-18.0-0.14","7594","approach_avoid_sv1","""event"",""trial"",""time""
""fullscreenenter"",""1"",""2457""
""fullscreenexit"",""2"",""4660""
""blur"",""2"",""7566""
""focus"",""2"",""7638""
""blur"",""2"",""7996""
""focus"",""5"",""30286""
""blur"",""8"",""37894""
""focus"",""9"",""44317""
""blur"",""11"",""63355""
""focus"",""11"",""64614""
""blur"",""36"",""148879""
""focus"",""36"",""155287""
""blur"",""37"",""157126""
""focus"",""37"",""158281""
""blur"",""40"",""179200""
""focus"",""40"",""181465""
""blur"",""42"",""190243""
""focus"",""42"",""198103""
""blur"",""43"",""198499""
""focus"",""44"",""200908""
","""event"",""trial"",""time""
""blur"",""2"",""7566""
""blur"",""2"",""7996""
""blur"",""8"",""37894""
""blur"",""11"",""63355""
""blur"",""36"",""148879""
""blur"",""37"",""157126""
""blur"",""40"",""179200""
""blur"",""42"",""190243""
""blur"",""43"",""198499""
","""event"",""trial"",""time""
""focus"",""2"",""7638""
""focus"",""5"",""30286""
""focus"",""9"",""44317""
""focus"",""11"",""64614""
""focus"",""36"",""155287""
""focus"",""37"",""158281""
""focus"",""40"",""181465""
""focus"",""42"",""198103""
""focus"",""44"",""200908""
","""event"",""trial"",""time""
""fullscreenenter"",""1"",""2457""
","""event"",""trial"",""time""
""fullscreenexit"",""2"",""4660""
","","","","","","null","<div style=""font-size:60px;"">+</div>","null","","fixation","","",""
"memory-trial","72","240605","0.0-18.0-1.14","7594","approach_avoid_sv1","""event"",""trial"",""time""
""fullscreenenter"",""1"",""2457""
""fullscreenexit"",""2"",""4660""
""blur"",""2"",""7566""
""focus"",""2"",""7638""
""blur"",""2"",""7996""
""focus"",""5"",""30286""
""blur"",""8"",""37894""
""focus"",""9"",""44317""
""blur"",""11"",""63355""
""focus"",""11"",""64614""
""blur"",""36"",""148879""
""focus"",""36"",""155287""
""blur"",""37"",""157126""
""focus"",""37"",""158281""
""blur"",""40"",""179200""
""focus"",""40"",""181465""
""blur"",""42"",""190243""
""focus"",""42"",""198103""
""blur"",""43"",""198499""
""focus"",""44"",""200908""
","""event"",""trial"",""time""
""blur"",""2"",""7566""
""blur"",""2"",""7996""
""blur"",""8"",""37894""
""blur"",""11"",""63355""
""blur"",""36"",""148879""
""blur"",""37"",""157126""
""blur"",""40"",""179200""
""blur"",""42"",""190243""
""blur"",""43"",""198499""
","""event"",""trial"",""time""
""focus"",""2"",""7638""
""focus"",""5"",""30286""
""focus"",""9"",""44317""
""focus"",""11"",""64614""
""focus"",""36"",""155287""
""focus"",""37"",""158281""
""focus"",""40"",""181465""
""focus"",""42"",""198103""
""focus"",""44"",""200908""
","""event"",""trial"",""time""
""fullscreenenter"",""1"",""2457""
","""event"",""trial"",""time""
""fullscreenexit"",""2"",""4660""
","","","","","","1004.7000000029802","images/chair1.png","","","memory_trial","1","definitely_old",""
"html-keyboard-response","73","241107","0.0-18.0-0.15","7594","approach_avoid_sv1","""event"",""trial"",""time""
""fullscreenenter"",""1"",""2457""
""fullscreenexit"",""2"",""4660""
""blur"",""2"",""7566""
""focus"",""2"",""7638""
""blur"",""2"",""7996""
""focus"",""5"",""30286""
""blur"",""8"",""37894""
""focus"",""9"",""44317""
""blur"",""11"",""63355""
""focus"",""11"",""64614""
""blur"",""36"",""148879""
""focus"",""36"",""155287""
""blur"",""37"",""157126""
""focus"",""37"",""158281""
""blur"",""40"",""179200""
""focus"",""40"",""181465""
""blur"",""42"",""190243""
""focus"",""42"",""198103""
""blur"",""43"",""198499""
""focus"",""44"",""200908""
","""event"",""trial"",""time""
""blur"",""2"",""7566""
""blur"",""2"",""7996""
""blur"",""8"",""37894""
""blur"",""11"",""63355""
""blur"",""36"",""148879""
""blur"",""37"",""157126""
""blur"",""40"",""179200""
""blur"",""42"",""190243""
""blur"",""43"",""198499""
","""event"",""trial"",""time""
""focus"",""2"",""7638""
""focus"",""5"",""30286""
""focus"",""9"",""44317""
""focus"",""11"",""64614""
""focus"",""36"",""155287""
""focus"",""37"",""158281""
""focus"",""40"",""181465""
""focus"",""42"",""198103""
""focus"",""44"",""200908""
","""event"",""trial"",""time""
""fullscreenenter"",""1"",""2457""
","""event"",""trial"",""time""
""fullscreenexit"",""2"",""4660""
","","","","","","null","<div style=""font-size:60px;"">+</div>","null","","fixation","","",""
"memory-trial","74","243106","0.0-18.0-1.15","7594","approach_avoid_sv1","""event"",""trial"",""time""
""fullscreenenter"",""1"",""2457""
""fullscreenexit"",""2"",""4660""
""blur"",""2"",""7566""
""focus"",""2"",""7638""
""blur"",""2"",""7996""
""focus"",""5"",""30286""
""blur"",""8"",""37894""
""focus"",""9"",""44317""
""blur"",""11"",""63355""
""focus"",""11"",""64614""
""blur"",""36"",""148879""
""focus"",""36"",""155287""
""blur"",""37"",""157126""
""focus"",""37"",""158281""
""blur"",""40"",""179200""
""focus"",""40"",""181465""
""blur"",""42"",""190243""
""focus"",""42"",""198103""
""blur"",""43"",""198499""
""focus"",""44"",""200908""
","""event"",""trial"",""time""
""blur"",""2"",""7566""
""blur"",""2"",""7996""
""blur"",""8"",""37894""
""blur"",""11"",""63355""
""blur"",""36"",""148879""
""blur"",""37"",""157126""
""blur"",""40"",""179200""
""blur"",""42"",""190243""
""blur"",""43"",""198499""
","""event"",""trial"",""time""
""focus"",""2"",""7638""
""focus"",""5"",""30286""
""focus"",""9"",""44317""
""focus"",""11"",""64614""
""focus"",""36"",""155287""
""focus"",""37"",""158281""
""focus"",""40"",""181465""
""focus"",""42"",""198103""
""focus"",""44"",""200908""
","""event"",""trial"",""time""
""fullscreenenter"",""1"",""2457""
","""event"",""trial"",""time""
""fullscreenexit"",""2"",""4660""
","","","","","","997.1000000014901","images/orange7.png","","","memory_trial","1","definitely_old",""
"html-keyboard-response","75","243607","0.0-18.0-0.16","7594","approach_avoid_sv1","""event"",""trial"",""time""
""fullscreenenter"",""1"",""2457""
""fullscreenexit"",""2"",""4660""
""blur"",""2"",""7566""
""focus"",""2"",""7638""
""blur"",""2"",""7996""
""focus"",""5"",""30286""
""blur"",""8"",""37894""
""focus"",""9"",""44317""
""blur"",""11"",""63355""
""focus"",""11"",""64614""
""blur"",""36"",""148879""
""focus"",""36"",""155287""
""blur"",""37"",""157126""
""focus"",""37"",""158281""
""blur"",""40"",""179200""
""focus"",""40"",""181465""
""blur"",""42"",""190243""
""focus"",""42"",""198103""
""blur"",""43"",""198499""
""focus"",""44"",""200908""
","""event"",""trial"",""time""
""blur"",""2"",""7566""
""blur"",""2"",""7996""
""blur"",""8"",""37894""
""blur"",""11"",""63355""
""blur"",""36"",""148879""
""blur"",""37"",""157126""
""blur"",""40"",""179200""
""blur"",""42"",""190243""
""blur"",""43"",""198499""
","""event"",""trial"",""time""
""focus"",""2"",""7638""
""focus"",""5"",""30286""
""focus"",""9"",""44317""
""focus"",""11"",""64614""
""focus"",""36"",""155287""
""focus"",""37"",""158281""
""focus"",""40"",""181465""
""focus"",""42"",""198103""
""focus"",""44"",""200908""
","""event"",""trial"",""time""
""fullscreenenter"",""1"",""2457""
","""event"",""trial"",""time""
""fullscreenexit"",""2"",""4660""
","","","","","","null","<div style=""font-size:60px;"">+</div>","null","","fixation","","",""
"memory-trial","76","245683","0.0-18.0-1.16","7594","approach_avoid_sv1","""event"",""trial"",""time""
""fullscreenenter"",""1"",""2457""
""fullscreenexit"",""2"",""4660""
""blur"",""2"",""7566""
""focus"",""2"",""7638""
""blur"",""2"",""7996""
""focus"",""5"",""30286""
""blur"",""8"",""37894""
""focus"",""9"",""44317""
""blur"",""11"",""63355""
""focus"",""11"",""64614""
""blur"",""36"",""148879""
""focus"",""36"",""155287""
""blur"",""37"",""157126""
""focus"",""37"",""158281""
""blur"",""40"",""179200""
""focus"",""40"",""181465""
""blur"",""42"",""190243""
""focus"",""42"",""198103""
""blur"",""43"",""198499""
""focus"",""44"",""200908""
","""event"",""trial"",""time""
""blur"",""2"",""7566""
""blur"",""2"",""7996""
""blur"",""8"",""37894""
""blur"",""11"",""63355""
""blur"",""36"",""148879""
""blur"",""37"",""157126""
""blur"",""40"",""179200""
""blur"",""42"",""190243""
""blur"",""43"",""198499""
","""event"",""trial"",""time""
""focus"",""2"",""7638""
""focus"",""5"",""30286""
""focus"",""9"",""44317""
""focus"",""11"",""64614""
""focus"",""36"",""155287""
""focus"",""37"",""158281""
""focus"",""40"",""181465""
""focus"",""42"",""198103""
""focus"",""44"",""200908""
","""event"",""trial"",""time""
""fullscreenenter"",""1"",""2457""
","""event"",""trial"",""time""
""fullscreenexit"",""2"",""4660""
","","","","","","1074.6000000014901","images/table4.png","","","memory_trial","1","definitely_old",""
"html-keyboard-response","77","246183","0.0-18.0-0.17","7594","approach_avoid_sv1","""event"",""trial"",""time""
""fullscreenenter"",""1"",""2457""
""fullscreenexit"",""2"",""4660""
""blur"",""2"",""7566""
""focus"",""2"",""7638""
""blur"",""2"",""7996""
""focus"",""5"",""30286""
""blur"",""8"",""37894""
""focus"",""9"",""44317""
""blur"",""11"",""63355""
""focus"",""11"",""64614""
""blur"",""36"",""148879""
""focus"",""36"",""155287""
""blur"",""37"",""157126""
""focus"",""37"",""158281""
""blur"",""40"",""179200""
""focus"",""40"",""181465""
""blur"",""42"",""190243""
""focus"",""42"",""198103""
""blur"",""43"",""198499""
""focus"",""44"",""200908""
","""event"",""trial"",""time""
""blur"",""2"",""7566""
""blur"",""2"",""7996""
""blur"",""8"",""37894""
""blur"",""11"",""63355""
""blur"",""36"",""148879""
""blur"",""37"",""157126""
""blur"",""40"",""179200""
""blur"",""42"",""190243""
""blur"",""43"",""198499""
","""event"",""trial"",""time""
""focus"",""2"",""7638""
""focus"",""5"",""30286""
""focus"",""9"",""44317""
""focus"",""11"",""64614""
""focus"",""36"",""155287""
""focus"",""37"",""158281""
""focus"",""40"",""181465""
""focus"",""42"",""198103""
""focus"",""44"",""200908""
","""event"",""trial"",""time""
""fullscreenenter"",""1"",""2457""
","""event"",""trial"",""time""
""fullscreenexit"",""2"",""4660""
","","","","","","null","<div style=""font-size:60px;"">+</div>","null","","fixation","","",""
"memory-trial","78","249112","0.0-18.0-1.17","7594","approach_avoid_sv1","""event"",""trial"",""time""
""fullscreenenter"",""1"",""2457""
""fullscreenexit"",""2"",""4660""
""blur"",""2"",""7566""
""focus"",""2"",""7638""
""blur"",""2"",""7996""
""focus"",""5"",""30286""
""blur"",""8"",""37894""
""focus"",""9"",""44317""
""blur"",""11"",""63355""
""focus"",""11"",""64614""
""blur"",""36"",""148879""
""focus"",""36"",""155287""
""blur"",""37"",""157126""
""focus"",""37"",""158281""
""blur"",""40"",""179200""
""focus"",""40"",""181465""
""blur"",""42"",""190243""
""focus"",""42"",""198103""
""blur"",""43"",""198499""
""focus"",""44"",""200908""
","""event"",""trial"",""time""
""blur"",""2"",""7566""
""blur"",""2"",""7996""
""blur"",""8"",""37894""
""blur"",""11"",""63355""
""blur"",""36"",""148879""
""blur"",""37"",""157126""
""blur"",""40"",""179200""
""blur"",""42"",""190243""
""blur"",""43"",""198499""
","""event"",""trial"",""time""
""focus"",""2"",""7638""
""focus"",""5"",""30286""
""focus"",""9"",""44317""
""focus"",""11"",""64614""
""focus"",""36"",""155287""
""focus"",""37"",""158281""
""focus"",""40"",""181465""
""focus"",""42"",""198103""
""focus"",""44"",""200908""
","""event"",""trial"",""time""
""fullscreenenter"",""1"",""2457""
","""event"",""trial"",""time""
""fullscreenexit"",""2"",""4660""
","","","","","","1927.5","images/sheep1.png","","","memory_trial","3","maybe_new",""
"html-keyboard-response","79","249613","0.0-18.0-0.18","7594","approach_avoid_sv1","""event"",""trial"",""time""
""fullscreenenter"",""1"",""2457""
""fullscreenexit"",""2"",""4660""
""blur"",""2"",""7566""
""focus"",""2"",""7638""
""blur"",""2"",""7996""
""focus"",""5"",""30286""
""blur"",""8"",""37894""
""focus"",""9"",""44317""
""blur"",""11"",""63355""
""focus"",""11"",""64614""
""blur"",""36"",""148879""
""focus"",""36"",""155287""
""blur"",""37"",""157126""
""focus"",""37"",""158281""
""blur"",""40"",""179200""
""focus"",""40"",""181465""
""blur"",""42"",""190243""
""focus"",""42"",""198103""
""blur"",""43"",""198499""
""focus"",""44"",""200908""
","""event"",""trial"",""time""
""blur"",""2"",""7566""
""blur"",""2"",""7996""
""blur"",""8"",""37894""
""blur"",""11"",""63355""
""blur"",""36"",""148879""
""blur"",""37"",""157126""
""blur"",""40"",""179200""
""blur"",""42"",""190243""
""blur"",""43"",""198499""
","""event"",""trial"",""time""
""focus"",""2"",""7638""
""focus"",""5"",""30286""
""focus"",""9"",""44317""
""focus"",""11"",""64614""
""focus"",""36"",""155287""
""focus"",""37"",""158281""
""focus"",""40"",""181465""
""focus"",""42"",""198103""
""focus"",""44"",""200908""
","""event"",""trial"",""time""
""fullscreenenter"",""1"",""2457""
","""event"",""trial"",""time""
""fullscreenexit"",""2"",""4660""
","","","","","","null","<div style=""font-size:60px;"">+</div>","null","","fixation","","",""
"memory-trial","80","251304","0.0-18.0-1.18","7594","approach_avoid_sv1","""event"",""trial"",""time""
""fullscreenenter"",""1"",""2457""
""fullscreenexit"",""2"",""4660""
""blur"",""2"",""7566""
""focus"",""2"",""7638""
""blur"",""2"",""7996""
""focus"",""5"",""30286""
""blur"",""8"",""37894""
""focus"",""9"",""44317""
""blur"",""11"",""63355""
""focus"",""11"",""64614""
""blur"",""36"",""148879""
""focus"",""36"",""155287""
""blur"",""37"",""157126""
""focus"",""37"",""158281""
""blur"",""40"",""179200""
""focus"",""40"",""181465""
""blur"",""42"",""190243""
""focus"",""42"",""198103""
""blur"",""43"",""198499""
""focus"",""44"",""200908""
","""event"",""trial"",""time""
""blur"",""2"",""7566""
""blur"",""2"",""7996""
""blur"",""8"",""37894""
""blur"",""11"",""63355""
""blur"",""36"",""148879""
""blur"",""37"",""157126""
""blur"",""40"",""179200""
""blur"",""42"",""190243""
""blur"",""43"",""198499""
","""event"",""trial"",""time""
""focus"",""2"",""7638""
""focus"",""5"",""30286""
""focus"",""9"",""44317""
""focus"",""11"",""64614""
""focus"",""36"",""155287""
""focus"",""37"",""158281""
""focus"",""40"",""181465""
""focus"",""42"",""198103""
""focus"",""44"",""200908""
","""event"",""trial"",""time""
""fullscreenenter"",""1"",""2457""
","""event"",""trial"",""time""
""fullscreenexit"",""2"",""4660""
","","","","","","688.6000000014901","images/bed8.png","","","memory_trial","1","definitely_old",""
"html-keyboard-response","81","251805","0.0-18.0-0.19","7594","approach_avoid_sv1","""event"",""trial"",""time""
""fullscreenenter"",""1"",""2457""
""fullscreenexit"",""2"",""4660""
""blur"",""2"",""7566""
""focus"",""2"",""7638""
""blur"",""2"",""7996""
""focus"",""5"",""30286""
""blur"",""8"",""37894""
""focus"",""9"",""44317""
""blur"",""11"",""63355""
""focus"",""11"",""64614""
""blur"",""36"",""148879""
""focus"",""36"",""155287""
""blur"",""37"",""157126""
""focus"",""37"",""158281""
""blur"",""40"",""179200""
""focus"",""40"",""181465""
""blur"",""42"",""190243""
""focus"",""42"",""198103""
""blur"",""43"",""198499""
""focus"",""44"",""200908""
","""event"",""trial"",""time""
""blur"",""2"",""7566""
""blur"",""2"",""7996""
""blur"",""8"",""37894""
""blur"",""11"",""63355""
""blur"",""36"",""148879""
""blur"",""37"",""157126""
""blur"",""40"",""179200""
""blur"",""42"",""190243""
""blur"",""43"",""198499""
","""event"",""trial"",""time""
""focus"",""2"",""7638""
""focus"",""5"",""30286""
""focus"",""9"",""44317""
""focus"",""11"",""64614""
""focus"",""36"",""155287""
""focus"",""37"",""158281""
""focus"",""40"",""181465""
""focus"",""42"",""198103""
""focus"",""44"",""200908""
","""event"",""trial"",""time""
""fullscreenenter"",""1"",""2457""
","""event"",""trial"",""time""
""fullscreenexit"",""2"",""4660""
","","","","","","null","<div style=""font-size:60px;"">+</div>","null","","fixation","","",""
"memory-trial","82","253557","0.0-18.0-1.19","7594","approach_avoid_sv1","""event"",""trial"",""time""
""fullscreenenter"",""1"",""2457""
""fullscreenexit"",""2"",""4660""
""blur"",""2"",""7566""
""focus"",""2"",""7638""
""blur"",""2"",""7996""
""focus"",""5"",""30286""
""blur"",""8"",""37894""
""focus"",""9"",""44317""
""blur"",""11"",""63355""
""focus"",""11"",""64614""
""blur"",""36"",""148879""
""focus"",""36"",""155287""
""blur"",""37"",""157126""
""focus"",""37"",""158281""
""blur"",""40"",""179200""
""focus"",""40"",""181465""
""blur"",""42"",""190243""
""focus"",""42"",""198103""
""blur"",""43"",""198499""
""focus"",""44"",""200908""
","""event"",""trial"",""time""
""blur"",""2"",""7566""
""blur"",""2"",""7996""
""blur"",""8"",""37894""
""blur"",""11"",""63355""
""blur"",""36"",""148879""
""blur"",""37"",""157126""
""blur"",""40"",""179200""
""blur"",""42"",""190243""
""blur"",""43"",""198499""
","""event"",""trial"",""time""
""focus"",""2"",""7638""
""focus"",""5"",""30286""
""focus"",""9"",""44317""
""focus"",""11"",""64614""
""focus"",""36"",""155287""
""focus"",""37"",""158281""
""focus"",""40"",""181465""
""focus"",""42"",""198103""
""focus"",""44"",""200908""
