"trial_type","trial_index","time_elapsed","internal_node_id","subject_id","task_version","interactions","blur_events","focus_events","fullscreenenter_events","fullscreenexit_events","success","timeout","failed_images","failed_audio","failed_video","rt","stimulus","response","button_pressed","task_part","key_press","answer","correct"
"pavlovia","0","4","0.0-0.0","6378","approach_avoid_sv1","""event"",""trial"",""time""
""fullscreenenter"",""1"",""6330""
","
","
","""event"",""trial"",""time""
""fullscreenenter"",""1"",""6330""
","
","","","","","","","","","","","","",""
"fullscreen","1","7334","0.0-1.0","6378","approach_avoid_sv1","""event"",""trial"",""time""
""fullscreenenter"",""1"",""6330""
","
","
","""event"",""trial"",""time""
""fullscreenenter"",""1"",""6330""
","
","true","","","","","","","","","","","",""
"preload","2","9205","0.0-2.0","6378","approach_avoid_sv1","""event"",""trial"",""time""
""fullscreenenter"",""1"",""6330""
","
","
","""event"",""trial"",""time""
""fullscreenenter"",""1"",""6330""
","
","true","false","[]","[]","[]","","","","","","","",""
"preload","3","11103","0.0-3.0","6378","approach_avoid_sv1","""event"",""trial"",""time""
""fullscreenenter"",""1"",""6330""
","
","
","""event"",""trial"",""time""
""fullscreenenter"",""1"",""6330""
","
","true","false","[]","[]","[]","","","","","","","",""
"preload","4","11369","0.0-4.0","6378","approach_avoid_sv1","""event"",""trial"",""time""
""fullscreenenter"",""1"",""6330""
","
","
","""event"",""trial"",""time""
""fullscreenenter"",""1"",""6330""
","
","true","false","[]","[]","[]","","","","","","","",""
"audio-keyboard-response","5","18188","0.0-5.0","6378","approach_avoid_sv1","""event"",""trial"",""time""
""fullscreenenter"",""1"",""6330""
","
","
","""event"",""trial"",""time""
""fullscreenenter"",""1"",""6330""
","
","","","","","","6815.056689342404","audio/beep_loop.wav"," ","","","","",""
"audio-button-response","6","21673","0.0-6.0","6378","approach_avoid_sv1","""event"",""trial"",""time""
""fullscreenenter"",""1"",""6330""
","
","
","""event"",""trial"",""time""
""fullscreenenter"",""1"",""6330""
","
","","","","","","3483","audio/turtle.wav","3","","","","",""
"audio-button-response","7","23640","0.0-7.0","6378","approach_avoid_sv1","""event"",""trial"",""time""
""fullscreenenter"",""1"",""6330""
","
","
","""event"",""trial"",""time""
""fullscreenenter"",""1"",""6330""
","
","","","","","","964","audio/shark.wav","2","","","","",""
"preload","8","27286","0.0-8.0","6378","approach_avoid_sv1","""event"",""trial"",""time""
""fullscreenenter"",""1"",""6330""
","
","
","""event"",""trial"",""time""
""fullscreenenter"",""1"",""6330""
","
","true","false","[]","[]","[]","","","","","","","",""
"learning-instructions","9","34174","0.0-9.0-0.0","6378","approach_avoid_sv1","""event"",""trial"",""time""
""fullscreenenter"",""1"",""6330""
","
","
","""event"",""trial"",""time""
""fullscreenenter"",""1"",""6330""
","
","","","","","","2410.899999999441","<p> Welcome back! </p><p> Last week, you had to make choices about lots of different items.  </p>","","0","instructions","","",""
"learning-instructions","10","39240","0.0-9.0-0.1","6378","approach_avoid_sv1","""event"",""trial"",""time""
""fullscreenenter"",""1"",""6330""
","
","
","""event"",""trial"",""time""
""fullscreenenter"",""1"",""6330""
","
","","","","","","953.1000000005588","<p> Today, we are going to ask you to try to remember all the items. </p>","","0","instructions","","",""
"learning-instructions","11","50310","0.0-9.0-0.2","6378","approach_avoid_sv1","""event"",""trial"",""time""
""fullscreenenter"",""1"",""6330""
","
","
","""event"",""trial"",""time""
""fullscreenenter"",""1"",""6330""
","
","","","","","","929.3000000007451","<p> On every trial, you will see an image. </p><p> The image may be an OLD image you saw during the games last week or it may be a NEW image that was not presented. </p>","","0","instructions","","",""
"learning-instructions","12","60327","0.0-9.0-0.3","6378","approach_avoid_sv1","""event"",""trial"",""time""
""fullscreenenter"",""1"",""6330""
","
","
","""event"",""trial"",""time""
""fullscreenenter"",""1"",""6330""
","
","","","","","","1517.5999999996275","<p> You need to select whether the image is:  </p><p>  'Definitely old', 'Maybe old', 'Maybe new', or 'Definitely new.'  </p><div class=""mem-choice-instructions-grid""><div class=""choice-option"" id=""choice-option-1"" ><img src=""images/definitely_old_1.png"" id=""choice-option-img-1"" class=""choice-option-img"" stage=""1""></div><div class=""choice-option"" id=""choice-option-2"" ><img src=""images/maybe_old_1.png"" id=""choice-option-img-2"" class=""choice-option-img"" stage=""1""></div><div class=""choice-option"" id=""choice-option-3"" ><img src=""images/maybe_new_1.png"" id=""choice-option-img-3"" class=""choice-option-img"" stage=""1""></div><div class=""choice-option"" id=""choice-option-4"" > <img src=""images/definitely_new_1.png"" id=""choice-option-img-4"" class=""choice-option-img"" stage=""1""></div></div>","","0","instructions","","",""
"learning-instructions","13","67310","0.0-9.0-0.4","6378","approach_avoid_sv1","""event"",""trial"",""time""
""fullscreenenter"",""1"",""6330""
","
","
","""event"",""trial"",""time""
""fullscreenenter"",""1"",""6330""
","
","","","","","","472.69999999925494","<p> You should use the 1, 2, 3, and 4 keys to make your responses.  </p><div class=""mem-choice-instructions-grid""><div class=""choice-option"" id=""choice-option-1"" ><img src=""images/definitely_old.png"" id=""choice-option-img-1"" class=""choice-option-img"" stage=""1""></div><div class=""choice-option"" id=""choice-option-2"" ><img src=""images/maybe_old.png"" id=""choice-option-img-2"" class=""choice-option-img"" stage=""1""></div><div class=""choice-option"" id=""choice-option-3"" ><img src=""images/maybe_new.png"" id=""choice-option-img-3"" class=""choice-option-img"" stage=""1""></div><div class=""choice-option"" id=""choice-option-4"" > <img src=""images/definitely_new.png"" id=""choice-option-img-4"" class=""choice-option-img"" stage=""1""></div></div>","","0","instructions","","",""
"learning-instructions","14","74095","0.0-9.0-0.5","6378","approach_avoid_sv1","""event"",""trial"",""time""
""fullscreenenter"",""1"",""6330""
","
","
","""event"",""trial"",""time""
""fullscreenenter"",""1"",""6330""
","
","","","","","","454.20000000018626","<p> You will have 10 seconds to make each response.  </p><p>  Make sure to respond before time runs out! </p>","","0","instructions","","",""
"learning-instructions","15","81595","0.0-9.0-0.6","6378","approach_avoid_sv1","""event"",""trial"",""time""
""fullscreenenter"",""1"",""6330""
","
","
","""event"",""trial"",""time""
""fullscreenenter"",""1"",""6330""
","
","","","","","","425.30000000074506","<p> Today, you will see each image ONCE only.  </p><p>  That means none of the images will repeat. </p>","","0","instructions","","",""
"learning-instructions","16","94714","0.0-9.0-0.7","6378","approach_avoid_sv1","""event"",""trial"",""time""
""fullscreenenter"",""1"",""6330""
","
","
","""event"",""trial"",""time""
""fullscreenenter"",""1"",""6330""
","
","","","","","","447.5","<p> Before you play the real game, it is time to practice. </p><p>  Just like in the real game, some of the images in the practice will be ones you have seen before. </p><p>  Others will be entirely new. </p>","","0","instructions","","",""
"html-button-response","17","99198","0.0-10.0","6378","approach_avoid_sv1","""event"",""trial"",""time""
""fullscreenenter"",""1"",""6330""
","
","
","""event"",""trial"",""time""
""fullscreenenter"",""1"",""6330""
","
","","","","","","4374.100000000559","<p> Ready to practice? </p><p> Remember, use the 1, 2, 3, and 4 keys to make your responses. </p>","0","","instructions","","",""
"html-keyboard-response","18","99815","0.0-11.0-0.0","6378","approach_avoid_sv1","""event"",""trial"",""time""
""fullscreenenter"",""1"",""6330""
","
","
","""event"",""trial"",""time""
""fullscreenenter"",""1"",""6330""
","
","","","","","","null","<div style=""font-size:60px;"">+</div>","null","","fixation","","",""
"memory-trial","19","102225","0.0-11.0-1.0","6378","approach_avoid_sv1","""event"",""trial"",""time""
""fullscreenenter"",""1"",""6330""
","
","
","""event"",""trial"",""time""
""fullscreenenter"",""1"",""6330""
","
","","","","","","1401.5","images/ball2.png","","","practice","3","maybe_new",""
"html-keyboard-response","20","102735","0.0-11.0-0.1","6378","approach_avoid_sv1","""event"",""trial"",""time""
""fullscreenenter"",""1"",""6330""
","
","
","""event"",""trial"",""time""
""fullscreenenter"",""1"",""6330""
","
","","","","","","null","<div style=""font-size:60px;"">+</div>","null","","fixation","","",""
"memory-trial","21","105101","0.0-11.0-1.1","6378","approach_avoid_sv1","""event"",""trial"",""time""
""fullscreenenter"",""1"",""6330""
","
","
","""event"",""trial"",""time""
""fullscreenenter"",""1"",""6330""
","
","","","","","","1357.2000000001863","images/racket2.png","","","practice","4","definitely_new",""
"html-keyboard-response","22","105609","0.0-11.0-0.2","6378","approach_avoid_sv1","""event"",""trial"",""time""
""fullscreenenter"",""1"",""6330""
","
","
","""event"",""trial"",""time""
""fullscreenenter"",""1"",""6330""
","
","","","","","","null","<div style=""font-size:60px;"">+</div>","null","","fixation","","",""
"memory-trial","23","108055","0.0-11.0-1.2","6378","approach_avoid_sv1","""event"",""trial"",""time""
""fullscreenenter"",""1"",""6330""
","
","
","""event"",""trial"",""time""
""fullscreenenter"",""1"",""6330""
","
","","","","","","1436.0999999996275","images/racket5.png","","","practice","4","definitely_new",""
"html-keyboard-response","24","108560","0.0-11.0-0.3","6378","approach_avoid_sv1","""event"",""trial"",""time""
""fullscreenenter"",""1"",""6330""
","
","
","""event"",""trial"",""time""
""fullscreenenter"",""1"",""6330""
","
","","","","","","null","<div style=""font-size:60px;"">+</div>","null","","fixation","","",""
"memory-trial","25","111198","0.0-11.0-1.3","6378","approach_avoid_sv1","""event"",""trial"",""time""
""fullscreenenter"",""1"",""6330""
","
","
","""event"",""trial"",""time""
""fullscreenenter"",""1"",""6330""
","
","","","","","","1632.7000000001863","images/ball5.png","","","practice","2","maybe_old",""
"html-keyboard-response","26","111704","0.0-11.0-0.4","6378","approach_avoid_sv1","""event"",""trial"",""time""
""fullscreenenter"",""1"",""6330""
","
","
","""event"",""trial"",""time""
""fullscreenenter"",""1"",""6330""
","
","","","","","","null","<div style=""font-size:60px;"">+</div>","null","","fixation","","",""
"memory-trial","27","114166","0.0-11.0-1.4","6378","approach_avoid_sv1","""event"",""trial"",""time""
""fullscreenenter"",""1"",""6330""
","
","
","""event"",""trial"",""time""
""fullscreenenter"",""1"",""6330""
","
","","","","","","1453","images/racket3.png","","","practice","2","maybe_old",""
"html-keyboard-response","28","114670","0.0-11.0-0.5","6378","approach_avoid_sv1","""event"",""trial"",""time""
""fullscreenenter"",""1"",""6330""
","
","
","""event"",""trial"",""time""
""fullscreenenter"",""1"",""6330""
","
","","","","","","null","<div style=""font-size:60px;"">+</div>","null","","fixation","","",""
"memory-trial","29","116947","0.0-11.0-1.5","6378","approach_avoid_sv1","""event"",""trial"",""time""
""fullscreenenter"",""1"",""6330""
","
","
","""event"",""trial"",""time""
""fullscreenenter"",""1"",""6330""
","
","","","","","","1262.8999999994412","images/ball3.png","","","practice","1","definitely_old",""
"html-keyboard-response","30","117457","0.0-11.0-0.6","6378","approach_avoid_sv1","""event"",""trial"",""time""
""fullscreenenter"",""1"",""6330""
","
","
","""event"",""trial"",""time""
""fullscreenenter"",""1"",""6330""
","
","","","","","","null","<div style=""font-size:60px;"">+</div>","null","","fixation","","",""
"memory-trial","31","119736","0.0-11.0-1.6","6378","approach_avoid_sv1","""event"",""trial"",""time""
""fullscreenenter"",""1"",""6330""
","
","
","""event"",""trial"",""time""
""fullscreenenter"",""1"",""6330""
","
","","","","","","1272.2999999998137","images/ball1.png","","","practice","1","definitely_old",""
"html-keyboard-response","32","120238","0.0-11.0-0.7","6378","approach_avoid_sv1","""event"",""trial"",""time""
""fullscreenenter"",""1"",""6330""
","
","
","""event"",""trial"",""time""
""fullscreenenter"",""1"",""6330""
","
","","","","","","null","<div style=""font-size:60px;"">+</div>","null","","fixation","","",""
"memory-trial","33","122230","0.0-11.0-1.7","6378","approach_avoid_sv1","""event"",""trial"",""time""
""fullscreenenter"",""1"",""6330""
","
","
","""event"",""trial"",""time""
""fullscreenenter"",""1"",""6330""
","
","","","","","","985.6000000005588","images/racket1.png","","","practice","3","maybe_new",""
"learning-instructions","34","131501","0.0-12.0-0.0","6378","approach_avoid_sv1","""event"",""trial"",""time""
""fullscreenenter"",""1"",""6330""
","
","
","""event"",""trial"",""time""
""fullscreenenter"",""1"",""6330""
","
","","","","","","1962.0999999996275","<p> Great! You have completed the practice. </p><p> Before you start, we're going to ask you a few questions about how the game works.  </p>","","0","instructions","","",""
"preload","35","133464","0.0-13.0","6378","approach_avoid_sv1","""event"",""trial"",""time""
""fullscreenenter"",""1"",""6330""
","
","
","""event"",""trial"",""time""
""fullscreenenter"",""1"",""6330""
","
","true","false","[]","[]","[]","","","","","","","",""
"comp-q","36","140553","0.0-14.0-0.0","6378","approach_avoid_sv1","""event"",""trial"",""time""
""fullscreenenter"",""1"",""6330""
","
","
","""event"",""trial"",""time""
""fullscreenenter"",""1"",""6330""
","
","","","","","","1260.9000000003725","<p> <b> True or False? </b> </p><p> In this game, you will only see each image once. </p>","","0","comp_question","","","true"
"comp-q","37","148203","0.0-14.0-1.0","6378","approach_avoid_sv1","""event"",""trial"",""time""
""fullscreenenter"",""1"",""6330""
","
","
","""event"",""trial"",""time""
""fullscreenenter"",""1"",""6330""
","
","","","","","","1311.300000000745","<p> <b> That's right! </b> You will see many different images <i> one time each </i> in this game. </p>","","0","comp_answer","","",""
"comp-q","38","153887","0.0-15.0-0.0","6378","approach_avoid_sv1","""event"",""trial"",""time""
""fullscreenenter"",""1"",""6330""
","
","
","""event"",""trial"",""time""
""fullscreenenter"",""1"",""6330""
","
","","","","","","674.5","<p> <b> True or False? </b> </p><p> You should use the mouse and click to make your response. </p>","","1","comp_question","","","true"
"comp-q","39","162037","0.0-15.0-1.0","6378","approach_avoid_sv1","""event"",""trial"",""time""
""fullscreenenter"",""1"",""6330""
","
","
","""event"",""trial"",""time""
""fullscreenenter"",""1"",""6330""
","
","","","","","","1644","<p><b> That's right! </b> You should use the '1', '2', '3', and '4' keys to make your response. </p>","","0","comp_answer","","",""
"comp-q","40","168571","0.0-16.0-0.0","6378","approach_avoid_sv1","""event"",""trial"",""time""
""fullscreenenter"",""1"",""6330""
","
","
","""event"",""trial"",""time""
""fullscreenenter"",""1"",""6330""
","
","","","","","","851.3000000007451","<p> <b> True or False? </b> </p><p> You will have as much time as you want to make each choice. </p>","","1","comp_question","","","true"
"comp-q","41","174489","0.0-16.0-1.0","6378","approach_avoid_sv1","""event"",""trial"",""time""
""fullscreenenter"",""1"",""6330""
","
","
","""event"",""trial"",""time""
""fullscreenenter"",""1"",""6330""
","
","","","","","","1224.8999999994412","<p> <b> That's right! </b> You will only have 10 seconds to make each choice. </p>","","0","comp_answer","","",""
"learning-instructions","42","185039","0.0-17.0","6378","approach_avoid_sv1","""event"",""trial"",""time""
""fullscreenenter"",""1"",""6330""
","
","
","""event"",""trial"",""time""
""fullscreenenter"",""1"",""6330""
","
","","","","","","1877.5","<p> Great! You are now ready to begin the game. </p><p> Remember, use the 1, 2, 3, and 4 keys to make your responses. </p>","","0","instructions","","",""
"html-keyboard-response","43","185651","0.0-18.0-0.0","6378","approach_avoid_sv1","""event"",""trial"",""time""
""fullscreenenter"",""1"",""6330""
","
","
","""event"",""trial"",""time""
""fullscreenenter"",""1"",""6330""
","
","","","","","","null","<div style=""font-size:60px;"">+</div>","null","","fixation","","",""
"memory-trial","44","188426","0.0-18.0-1.0","6378","approach_avoid_sv1","""event"",""trial"",""time""
""fullscreenenter"",""1"",""6330""
","
","
","""event"",""trial"",""time""
""fullscreenenter"",""1"",""6330""
","
","","","","","","1767.4000000003725","images/bed7.png","","","memory_trial","1","definitely_old",""
"html-keyboard-response","45","188930","0.0-18.0-0.1","6378","approach_avoid_sv1","""event"",""trial"",""time""
""fullscreenenter"",""1"",""6330""
","
","
","""event"",""trial"",""time""
""fullscreenenter"",""1"",""6330""
","
","","","","","","null","<div style=""font-size:60px;"">+</div>","null","","fixation","","",""
"memory-trial","46","191032","0.0-18.0-1.1","6378","approach_avoid_sv1","""event"",""trial"",""time""
""fullscreenenter"",""1"",""6330""
","
","
","""event"",""trial"",""time""
""fullscreenenter"",""1"",""6330""
","
","","","","","","1093.7999999998137","images/plane4.png","","","memory_trial","3","maybe_new",""
"html-keyboard-response","47","191537","0.0-18.0-0.2","6378","approach_avoid_sv1","""event"",""trial"",""time""
""fullscreenenter"",""1"",""6330""
","
","
","""event"",""trial"",""time""
""fullscreenenter"",""1"",""6330""
","
","","","","","","null","<div style=""font-size:60px;"">+</div>","null","","fixation","","",""
"memory-trial","48","193619","0.0-18.0-1.2","6378","approach_avoid_sv1","""event"",""trial"",""time""
""fullscreenenter"",""1"",""6330""
","
","
","""event"",""trial"",""time""
""fullscreenenter"",""1"",""6330""
","
","","","","","","1068.7999999998137","images/flower4.png","","","memory_trial","4","definitely_new",""
"html-keyboard-response","49","194132","0.0-18.0-0.3","6378","approach_avoid_sv1","""event"",""trial"",""time""
""fullscreenenter"",""1"",""6330""
","
","
","""event"",""trial"",""time""
""fullscreenenter"",""1"",""6330""
","
","","","","","","null","<div style=""font-size:60px;"">+</div>","null","","fixation","","",""
"memory-trial","50","196291","0.0-18.0-1.3","6378","approach_avoid_sv1","""event"",""trial"",""time""
""fullscreenenter"",""1"",""6330""
","
","
","""event"",""trial"",""time""
""fullscreenenter"",""1"",""6330""
","
","","","","","","1151.2999999998137","images/dog6.png","","","memory_trial","2","maybe_old",""
"html-keyboard-response","51","196802","0.0-18.0-0.4","6378","approach_avoid_sv1","""event"",""trial"",""time""
""fullscreenenter"",""1"",""6330""
","
","
","""event"",""trial"",""time""
""fullscreenenter"",""1"",""6330""
","
","","","","","","null","<div style=""font-size:60px;"">+</div>","null","","fixation","","",""
"memory-trial","52","199211","0.0-18.0-1.4","6378","approach_avoid_sv1","""event"",""trial"",""time""
""fullscreenenter"",""1"",""6330""
","
","
","""event"",""trial"",""time""
""fullscreenenter"",""1"",""6330""
","
","","","","","","1395.5999999996275","images/apple7.png","","","memory_trial","4","definitely_new",""
"html-keyboard-response","53","199721","0.0-18.0-0.5","6378","approach_avoid_sv1","""event"",""trial"",""time""
""fullscreenenter"",""1"",""6330""
","
","
","""event"",""trial"",""time""
""fullscreenenter"",""1"",""6330""
","
","","","","","","null","<div style=""font-size:60px;"">+</div>","null","","fixation","","",""
"memory-trial","54","201754","0.0-18.0-1.5","6378","approach_avoid_sv1","""event"",""trial"",""time""
""fullscreenenter"",""1"",""6330""
","
","
","""event"",""trial"",""time""
""fullscreenenter"",""1"",""6330""
","
","","","","","","1022.2000000001863","images/straw6.png","","","memory_trial","4","definitely_new",""
"html-keyboard-response","55","202257","0.0-18.0-0.6","6378","approach_avoid_sv1","""event"",""trial"",""time""
""fullscreenenter"",""1"",""6330""
","
","
","""event"",""trial"",""time""
""fullscreenenter"",""1"",""6330""
","
","","","","","","null","<div style=""font-size:60px;"">+</div>","null","","fixation","","",""
"memory-trial","56","204577","0.0-18.0-1.6","6378","approach_avoid_sv1","""event"",""trial"",""time""
""fullscreenenter"",""1"",""6330""
","
","
","""event"",""trial"",""time""
""fullscreenenter"",""1"",""6330""
","
","","","","","","1316","images/flower8.png","","","memory_trial","2","maybe_old",""
"html-keyboard-response","57","205080","0.0-18.0-0.7","6378","approach_avoid_sv1","""event"",""trial"",""time""
""fullscreenenter"",""1"",""6330""
","
","
","""event"",""trial"",""time""
""fullscreenenter"",""1"",""6330""
","
","","","","","","null","<div style=""font-size:60px;"">+</div>","null","","fixation","","",""
"memory-trial","58","207561","0.0-18.0-1.7","6378","approach_avoid_sv1","""event"",""trial"",""time""
""fullscreenenter"",""1"",""6330""
","
","
","""event"",""trial"",""time""
""fullscreenenter"",""1"",""6330""
","
","","","","","","1471.4000000003725","images/banana6.png","","","memory_trial","1","definitely_old",""
"html-keyboard-response","59","208065","0.0-18.0-0.8","6378","approach_avoid_sv1","""event"",""trial"",""time""
""fullscreenenter"",""1"",""6330""
","
","
","""event"",""trial"",""time""
""fullscreenenter"",""1"",""6330""
","
","","","","","","null","<div style=""font-size:60px;"">+</div>","null","","fixation","","",""
"memory-trial","60","209948","0.0-18.0-1.8","6378","approach_avoid_sv1","""event"",""trial"",""time""
""fullscreenenter"",""1"",""6330""
","
","
","""event"",""trial"",""time""
""fullscreenenter"",""1"",""6330""
","
","","","","","","868.4000000003725","images/cow4.png","","","memory_trial","4","definitely_new",""
"html-keyboard-response","61","210458","0.0-18.0-0.9","6378","approach_avoid_sv1","""event"",""trial"",""time""
""fullscreenenter"",""1"",""6330""
","
","
","""event"",""trial"",""time""
""fullscreenenter"",""1"",""6330""
","
","","","","","","null","<div style=""font-size:60px;"">+</div>","null","","fixation","","",""
"memory-trial","62","212221","0.0-18.0-1.9","6378","approach_avoid_sv1","""event"",""trial"",""time""
""fullscreenenter"",""1"",""6330""
","
","
","""event"",""trial"",""time""
""fullscreenenter"",""1"",""6330""
","
","","","","","","754.6000000005588","images/flower1.png","","","memory_trial","4","definitely_new",""
"html-keyboard-response","63","212732","0.0-18.0-0.10","6378","approach_avoid_sv1","""event"",""trial"",""time""
""fullscreenenter"",""1"",""6330""
","
","
","""event"",""trial"",""time""
""fullscreenenter"",""1"",""6330""
","
","","","","","","null","<div style=""font-size:60px;"">+</div>","null","","fixation","","",""
"memory-trial","64","214596","0.0-18.0-1.10","6378","approach_avoid_sv1","""event"",""trial"",""time""
""fullscreenenter"",""1"",""6330""
","
","
","""event"",""trial"",""time""
""fullscreenenter"",""1"",""6330""
","
","","","","","","858","images/sofa6.png","","","memory_trial","4","definitely_new",""
"html-keyboard-response","65","215107","0.0-18.0-0.11","6378","approach_avoid_sv1","""event"",""trial"",""time""
""fullscreenenter"",""1"",""6330""
","
","
","""event"",""trial"",""time""
""fullscreenenter"",""1"",""6330""
","
","","","","","","null","<div style=""font-size:60px;"">+</div>","null","","fixation","","",""
"memory-trial","66","217197","0.0-18.0-1.11","6378","approach_avoid_sv1","""event"",""trial"",""time""
""fullscreenenter"",""1"",""6330""
","
","
","""event"",""trial"",""time""
""fullscreenenter"",""1"",""6330""
","
","","","","","","1078.2999999998137","images/train3.png","","","memory_trial","1","definitely_old",""
"html-keyboard-response","67","217708","0.0-18.0-0.12","6378","approach_avoid_sv1","""event"",""trial"",""time""
""fullscreenenter"",""1"",""6330""
","
","
","""event"",""trial"",""time""
""fullscreenenter"",""1"",""6330""
","
","","","","","","null","<div style=""font-size:60px;"">+</div>","null","","fixation","","",""
"memory-trial","68","219734","0.0-18.0-1.12","6378","approach_avoid_sv1","""event"",""trial"",""time""
""fullscreenenter"",""1"",""6330""
","
","
","""event"",""trial"",""time""
""fullscreenenter"",""1"",""6330""
","
","","","","","","1017.7999999998137","images/boat1.png","","","memory_trial","1","definitely_old",""
"html-keyboard-response","69","220245","0.0-18.0-0.13","6378","approach_avoid_sv1","""event"",""trial"",""time""
""fullscreenenter"",""1"",""6330""
","
","
","""event"",""trial"",""time""
""fullscreenenter"",""1"",""6330""
","
","","","","","","null","<div style=""font-size:60px;"">+</div>","null","","fixation","","",""
"memory-trial","70","222073","0.0-18.0-1.13","6378","approach_avoid_sv1","""event"",""trial"",""time""
""fullscreenenter"",""1"",""6330""
","
","
","""event"",""trial"",""time""
""fullscreenenter"",""1"",""6330""
","
","","","","","","824.6999999992549","images/truck7.png","","","memory_trial","2","maybe_old",""
"html-keyboard-response","71","222578","0.0-18.0-0.14","6378","approach_avoid_sv1","""event"",""trial"",""time""
""fullscreenenter"",""1"",""6330""
","
","
","""event"",""trial"",""time""
""fullscreenenter"",""1"",""6330""
","
","","","","","","null","<div style=""font-size:60px;"">+</div>","null","","fixation","","",""
"memory-trial","72","224268","0.0-18.0-1.14","6378","approach_avoid_sv1","""event"",""trial"",""time""
""fullscreenenter"",""1"",""6330""
","
","
","""event"",""trial"",""time""
""fullscreenenter"",""1"",""6330""
","
","","","","","","684.0999999996275","images/chair4.png","","","memory_trial","4","definitely_new",""
"html-keyboard-response","73","224778","0.0-18.0-0.15","6378","approach_avoid_sv1","""event"",""trial"",""time""
""fullscreenenter"",""1"",""6330""
","
","
","""event"",""trial"",""time""
""fullscreenenter"",""1"",""6330""
","
","","","","","","null","<div style=""font-size:60px;"">+</div>","null","","fixation","","",""
"memory-trial","74","226961","0.0-18.0-1.15","6378","approach_avoid_sv1","""event"",""trial"",""time""
""fullscreenenter"",""1"",""6330""
","
","
","""event"",""trial"",""time""
""fullscreenenter"",""1"",""6330""
","
","","","","","","1174.8999999994412","images/orange7.png","","","memory_trial","2","maybe_old",""
"html-keyboard-response","75","227466","0.0-18.0-0.16","6378","approach_avoid_sv1","""event"",""trial"",""time""
""fullscreenenter"",""1"",""6330""
","
","
","""event"",""trial"",""time""
""fullscreenenter"",""1"",""6330""
","
","","","","","","null","<div style=""font-size:60px;"">+</div>","null","","fixation","","",""
"memory-trial","76","230044","0.0-18.0-1.16","6378","approach_avoid_sv1","""event"",""trial"",""time""
""fullscreenenter"",""1"",""6330""
","
","
","""event"",""trial"",""time""
""fullscreenenter"",""1"",""6330""
","
","","","","","","1568.5","images/sofa5.png","","","memory_trial","4","definitely_new",""
"html-keyboard-response","77","230549","0.0-18.0-0.17","6378","approach_avoid_sv1","""event"",""trial"",""time""
""fullscreenenter"",""1"",""6330""
","
","
","""event"",""trial"",""time""
""fullscreenenter"",""1"",""6330""
","
","","","","","","null","<div style=""font-size:60px;"">+</div>","null","","fixation","","",""
"memory-trial","78","232418","0.0-18.0-1.17","6378","approach_avoid_sv1","""event"",""trial"",""time""
""fullscreenenter"",""1"",""6330""
","
","
","""event"",""trial"",""time""
""fullscreenenter"",""1"",""6330""
","
","","","","","","861.3999999994412","images/boat2.png","","","memory_trial","4","definitely_new",""
"html-keyboard-response","79","232923","0.0-18.0-0.18","6378","approach_avoid_sv1","""event"",""trial"",""time""
""fullscreenenter"",""1"",""6330""
","
","
","""event"",""trial"",""time""
""fullscreenenter"",""1"",""6330""
","
","","","","","","null","<div style=""font-size:60px;"">+</div>","null","","fixation","","",""
"memory-trial","80","234868","0.0-18.0-1.18","6378","approach_avoid_sv1","""event"",""trial"",""time""
""fullscreenenter"",""1"",""6330""
","
","
","""event"",""trial"",""time""
""fullscreenenter"",""1"",""6330""
","
","","","","","","935.7000000001863","images/tree3.png","","","memory_trial","4","definitely_new",""
"html-keyboard-response","81","235379","0.0-18.0-0.19","6378","approach_avoid_sv1","""event"",""trial"",""time""
""fullscreenenter"",""1"",""6330""
","
","
","""event"",""trial"",""time""
""fullscreenenter"",""1"",""6330""
","
","","","","","","null","<div style=""font-size:60px;"">+</div>","null","","fixation","","",""
"memory-trial","82","237341","0.0-18.0-1.19","6378","approach_avoid_sv1","""event"",""trial"",""time""
""fullscreenenter"",""1"",""6330""
","
","
","""event"",""trial"",""time""
""fullscreenenter"",""1"",""6330""
","
","","","","","","952.5999999996275","images/straw8.png","","","memory_trial","4","definitely_new",""
"html-keyboard-response","83","237853","0.0-18.0-0.20","6378","approach_avoid_sv1","""event"",""trial"",""time""
""fullscreenenter"",""1"",""6330""
","
","
","""event"",""trial"",""time""
""fullscreenenter"",""1"",""6330""
","
","","","","","","null","<div style=""font-size:60px;"">+</div>","null","","fixation","","",""
"memory-trial","84","240377","0.0-18.0-1.20","6378","approach_avoid_sv1","""event"",""trial"",""time""
""fullscreenenter"",""1"",""6330""
","
","
","""event"",""trial"",""time""
""fullscreenenter"",""1"",""6330""
","
","","","","","","1521.2000000001863","images/cat7.png","","","memory_trial","4","definitely_new",""
"html-keyboard-response","85","240882","0.0-18.0-0.21","6378","approach_avoid_sv1","""event"",""trial"",""time""
""fullscreenenter"",""1"",""6330""
","
","
","""event"",""trial"",""time""
""fullscreenenter"",""1"",""6330""
","
","","","","","","null","<div style=""font-size:60px;"">+</div>","null","","fixation","","",""
"memory-trial","86","242941","0.0-18.0-1.21","6378","approach_avoid_sv1","""event"",""trial"",""time""
""fullscreenenter"",""1"",""6330""
","
","
","""event"",""trial"",""time""
""fullscreenenter"",""1"",""6330""
","
","","","","","","1047","images/horse6.png","","","memory_trial","1","definitely_old",""
"html-keyboard-response","87","243454","0.0-18.0-0.22","6378","approach_avoid_sv1","""event"",""trial"",""time""
""fullscreenenter"",""1"",""6330""
","
","
","""event"",""trial"",""time""
""fullscreenenter"",""1"",""6330""
","
","","","","","","null","<div style=""font-size:60px;"">+</div>","null","","fixation","","",""
"memory-trial","88","245331","0.0-18.0-1.22","6378","approach_avoid_sv1","""event"",""trial"",""time""
""fullscreenenter"",""1"",""6330""
","
","
","""event"",""trial"",""time""
""fullscreenenter"",""1"",""6330""
","
","","","","","","870.3000000007451","images/orange6.png","","","memory_trial","4","definitely_new",""
"html-keyboard-response","89","245834","0.0-18.0-0.23","6378","approach_avoid_sv1","""event"",""trial"",""time""
""fullscreenenter"",""1"",""6330""
","
","
","""event"",""trial"",""time""
""fullscreenenter"",""1"",""6330""
","
","","","","","","null","<div style=""font-size:60px;"">+</div>","null","","fixation","","",""
"memory-trial","90","248597","0.0-18.0-1.23","6378","approach_avoid_sv1","""event"",""trial"",""time""
""fullscreenenter"",""1"",""6330""
","
","
","""event"",""trial"",""time""
""fullscreenenter"",""1"",""6330""
","
","","","","","","1749.9000000003725","images/bed5.png","","","memory_trial","3","maybe_new",""
"html-keyboard-response","91","249108","0.0-18.0-0.24","6378","approach_avoid_sv1","""event"",""trial"",""time""
""fullscreenenter"",""1"",""6330""
","
","
","""event"",""trial"",""time""
""fullscreenenter"",""1"",""6330""
","
","","","","","","null","<div style=""font-size:60px;"">+</div>","null","","fixation","","",""
"memory-trial","92","251157","0.0-18.0-1.24","6378","approach_avoid_sv1","""event"",""trial"",""time""
""fullscreenenter"",""1"",""6330""
","
","
","""event"",""trial"",""time""
""fullscreenenter"",""1"",""6330""
","
","","","","","","1041","images/sofa3.png","","","memory_trial","1","definitely_old",""
"html-keyboard-response","93","251668","0.0-18.0-0.25","6378","approach_avoid_sv1","""event"",""trial"",""time""
""fullscreenenter"",""1"",""6330""
","
","
","""event"",""trial"",""time""
""fullscreenenter"",""1"",""6330""
","
","","","","","","null","<div style=""font-size:60px;"">+</div>","null","","fixation","","",""
"memory-trial","94","254277","0.0-18.0-1.25","6378","approach_avoid_sv1","""event"",""trial"",""time""
""fullscreenenter"",""1"",""6330""
","
","
","""event"",""trial"",""time""
""fullscreenenter"",""1"",""6330""
","
","","","","","","1603.5","images/cow7.png","","","memory_trial","1","definitely_old",""
"html-keyboard-response","95","254785","0.0-18.0-0.26","6378","approach_avoid_sv1","""event"",""trial"",""time""
""fullscreenenter"",""1"",""6330""
","
","
","""event"",""trial"",""time""
""fullscreenenter"",""1"",""6330""
","
","","","","","","null","<div style=""font-size:60px;"">+</div>","null","","fixation","","",""
"memory-trial","96","256734","0.0-18.0-1.26","6378","approach_avoid_sv1","""event"",""trial"",""time""
""fullscreenenter"",""1"",""6330""
","
","
","""event"",""trial"",""time""
""fullscreenenter"",""1"",""6330""
","
","","","","","","937.2999999998137","images/table4.png","","","memory_trial","4","definitely_new",""
"html-keyboard-response","97","257247","0.0-18.0-0.27","6378","approach_avoid_sv1","""event"",""trial"",""time""
""fullscreenenter"",""1"",""6330""
","
","
","""event"",""trial"",""time""
""fullscreenenter"",""1"",""6330""
","
","","","","","","null","<div style=""font-size:60px;"">+</div>","null","","fixation","","",""
"memory-trial","98","259279","0.0-18.0-1.27","6378","approach_avoid_sv1","""event"",""trial"",""time""
""fullscreenenter"",""1"",""6330""
","
","
","""event"",""trial"",""time""
""fullscreenenter"",""1"",""6330""
","
","","","","","","1021.8999999994412","images/orange5.png","","","memory_trial","1","definitely_old",""
"html-keyboard-response","99","259789","0.0-18.0-0.28","6378","approach_avoid_sv1","""event"",""trial"",""time""
""fullscreenenter"",""1"",""6330""
","
","
","""event"",""trial"",""time""
""fullscreenenter"",""1"",""6330""
","
","","","","","","null","<div style=""font-size:60px;"">+</div>","null","","fixation","","",""
"memory-trial","100","262326","0.0-18.0-1.28","6378","approach_avoid_sv1","""event"",""trial"",""time""
""fullscreenenter"",""1"",""6330""
","
","
","""event"",""trial"",""time""
""fullscreenenter"",""1"",""6330""
","
","","","","","","1523","images/train2.png","","","memory_trial","3","maybe_new",""
"html-keyboard-response","101","262837","0.0-18.0-0.29","6378","approach_avoid_sv1","""event"",""trial"",""time""
""fullscreenenter"",""1"",""6330""
","
","
","""event"",""trial"",""time""
""fullscreenenter"",""1"",""6330""
","
","","","","","","null","<div style=""font-size:60px;"">+</div>","null","","fixation","","",""
"memory-trial","102","264997","0.0-18.0-1.29","6378","approach_avoid_sv1","""event"",""trial"",""time""
""fullscreenenter"",""1"",""6330""
","
","
","""event"",""trial"",""time""
""fullscreenenter"",""1"",""6330""
","
","","","","","","1147","images/flower6.png","","","memory_trial","3","maybe_new",""
"html-keyboard-response","103","265508","0.0-18.0-0.30","6378","approach_avoid_sv1","""event"",""trial"",""time""
""fullscreenenter"",""1"",""6330""
","
","
","""event"",""trial"",""time""
""fullscreenenter"",""1"",""6330""
","
","","","","","","null","<div style=""font-size:60px;"">+</div>","null","","fixation","","",""
"memory-trial","104","267548","0.0-18.0-1.30","6378","approach_avoid_sv1","""event"",""trial"",""time""
""fullscreenenter"",""1"",""6330""
","
","
","""event"",""trial"",""time""
""fullscreenenter"",""1"",""6330""
","
","","","","","","1036.0999999996275","images/tree5.png","","","memory_trial","4","definitely_new",""
"html-keyboard-response","105","268050","0.0-18.0-0.31","6378","approach_avoid_sv1","""event"",""trial"",""time""
""fullscreenenter"",""1"",""6330""
","
","
","""event"",""trial"",""time""
""fullscreenenter"",""1"",""6330""
","
","","","","","","null","<div style=""font-size:60px;"">+</div>","null","","fixation","","",""
"memory-trial","106","270637","0.0-18.0-1.31","6378","approach_avoid_sv1","""event"",""trial"",""time""
""fullscreenenter"",""1"",""6330""
","
","
","""event"",""trial"",""time""
""fullscreenenter"",""1"",""6330""
","
","","","","","","1577.9000000003725","images/apple6.png","","","memory_trial","4","definitely_new",""
"html-keyboard-response","107","271150","0.0-18.0-0.32","6378","approach_avoid_sv1","""event"",""trial"",""time""
""fullscreenenter"",""1"",""6330""
","
","
","""event"",""trial"",""time""
""fullscreenenter"",""1"",""6330""
","
","","","","","","null","<div style=""font-size:60px;"">+</div>","null","","fixation","","",""
"memory-trial","108","273652","0.0-18.0-1.32","6378","approach_avoid_sv1","""event"",""trial"",""time""
""fullscreenenter"",""1"",""6330""
","
","
","""event"",""trial"",""time""
""fullscreenenter"",""1"",""6330""
","
","","","","","","1496.1000000005588","images/flower5.png","","","memory_trial","3","maybe_new",""
"html-keyboard-response","109","274157","0.0-18.0-0.33","6378","approach_avoid_sv1","""event"",""trial"",""time""
""fullscreenenter"",""1"",""6330""
","
","
","""event"",""trial"",""time""
""fullscreenenter"",""1"",""6330""
","
","","","","","","null","<div style=""font-size:60px;"">+</div>","null","","fixation","","",""
"memory-trial","110","276607","0.0-18.0-1.33","6378","approach_avoid_sv1","""event"",""trial"",""time""
""fullscreenenter"",""1"",""6330""
","
","
","""event"",""trial"",""time""
""fullscreenenter"",""1"",""6330""
","
","","","","","","1438.1000000005588","images/table5.png","","","memory_trial","4","definitely_new",""
"html-keyboard-response","111","277118","0.0-18.0-0.34","6378","approach_avoid_sv1","""event"",""trial"",""time""
""fullscreenenter"",""1"",""6330""
","
","
","""event"",""trial"",""time""
""fullscreenenter"",""1"",""6330""
","
","","","","","","null","<div style=""font-size:60px;"">+</div>","null","","fixation","","",""
"memory-trial","112","279126","0.0-18.0-1.34","6378","approach_avoid_sv1","""event"",""trial"",""time""
""fullscreenenter"",""1"",""6330""
","
","
","""event"",""trial"",""time""
""fullscreenenter"",""1"",""6330""
","
","","","","","","996.2000000001863","images/rabbit2.png","","","memory_trial","2","maybe_old",""
"html-keyboard-response","113","279637","0.0-18.0-0.35","6378","approach_avoid_sv1","""event"",""trial"",""time""
""fullscreenenter"",""1"",""6330""
","
","
","""event"",""trial"",""time""
""fullscreenenter"",""1"",""6330""
","
","","","","","","null","<div style=""font-size:60px;"">+</div>","null","","fixation","","",""
"memory-trial","114","282180","0.0-18.0-1.35","6378","approach_avoid_sv1","""event"",""trial"",""time""
""fullscreenenter"",""1"",""6330""
","
","
","""event"",""trial"",""time""
""fullscreenenter"",""1"",""6330""
","
","","","","","","1536","images/boat6.png","","","memory_trial","2","maybe_old",""
"html-keyboard-response","115","282685","0.0-18.0-0.36","6378","approach_avoid_sv1","""event"",""trial"",""time""
""fullscreenenter"",""1"",""6330""
","
","
","""event"",""trial"",""time""
""fullscreenenter"",""1"",""6330""
","
","","","","","","null","<div style=""font-size:60px;"">+</div>","null","","fixation","","",""
"memory-trial","116","285222","0.0-18.0-1.36","6378","approach_avoid_sv1","""event"",""trial"",""time""
""fullscreenenter"",""1"",""6330""
","
","
","""event"",""trial"",""time""
""fullscreenenter"",""1"",""6330""
","
","","","","","","1530.2999999998137","images/rodent8.png","","","memory_trial","4","definitely_new",""
"html-keyboard-response","117","285733","0.0-18.0-0.37","6378","approach_avoid_sv1","""event"",""trial"",""time""
""fullscreenenter"",""1"",""6330""
","
","
","""event"",""trial"",""time""
""fullscreenenter"",""1"",""6330""
","
","","","","","","null","<div style=""font-size:60px;"">+</div>","null","","fixation","","",""
"memory-trial","118","287916","0.0-18.0-1.37","6378","approach_avoid_sv1","""event"",""trial"",""time""
""fullscreenenter"",""1"",""6330""
","
","
","""event"",""trial"",""time""
""fullscreenenter"",""1"",""6330""
","
","","","","","","1177.2999999998137","images/bush2.png","","","memory_trial","1","definitely_old",""
"html-keyboard-response","119","288420","0.0-18.0-0.38","6378","approach_avoid_sv1","""event"",""trial"",""time""
""fullscreenenter"",""1"",""6330""
","
","
","""event"",""trial"",""time""
""fullscreenenter"",""1"",""6330""
","
","","","","","","null","<div style=""font-size:60px;"">+</div>","null","","fixation","","",""
"memory-trial","120","290597","0.0-18.0-1.38","6378","approach_avoid_sv1","""event"",""trial"",""time""
""fullscreenenter"",""1"",""6330""
","
","
","""event"",""trial"",""time""
""fullscreenenter"",""1"",""6330""
","
","","","","","","1167.199999999255","images/dog7.png","","","memory_trial","3","maybe_new",""
"html-keyboard-response","121","291108","0.0-18.0-0.39","6378","approach_avoid_sv1","""event"",""trial"",""time""
""fullscreenenter"",""1"",""6330""
","
","
","""event"",""trial"",""time""
""fullscreenenter"",""1"",""6330""
","
","","","","","","null","<div style=""font-size:60px;"">+</div>","null","","fixation","","",""
"memory-trial","122","293676","0.0-18.0-1.39","6378","approach_avoid_sv1","""event"",""trial"",""time""
""fullscreenenter"",""1"",""6330""
","
","
","""event"",""trial"",""time""
""fullscreenenter"",""1"",""6330""
","
","","","","","","1560.2000000001863","images/dog5.png","","","memory_trial","1","definitely_old",""
"html-keyboard-response","123","294179","0.0-18.0-0.40","6378","approach_avoid_sv1","""event"",""trial"",""time""
""fullscreenenter"",""1"",""6330""
","
","
","""event"",""trial"",""time""
""fullscreenenter"",""1"",""6330""
","
","","","","","","null","<div style=""font-size:60px;"">+</div>","null","","fixation","","",""
"memory-trial","124","296548","0.0-18.0-1.40","6378","approach_avoid_sv1","""event"",""trial"",""time""
""fullscreenenter"",""1"",""6330""
","
","
","""event"",""trial"",""time""
""fullscreenenter"",""1"",""6330""
","
","","","","","","1359.5","images/rodent4.png","","","memory_trial","4","definitely_new",""
"html-keyboard-response","125","297053","0.0-18.0-0.41","6378","approach_avoid_sv1","""event"",""trial"",""time""
""fullscreenenter"",""1"",""6330""
","
","
","""event"",""trial"",""time""
""fullscreenenter"",""1"",""6330""
","
","","","","","","null","<div style=""font-size:60px;"">+</div>","null","","fixation","","",""
"memory-trial","126","299462","0.0-18.0-1.41","6378","approach_avoid_sv1","""event"",""trial"",""time""
""fullscreenenter"",""1"",""6330""
","
","
","""event"",""trial"",""time""
""fullscreenenter"",""1"",""6330""
","
","","","","","","1403.0999999996275","images/tree4.png","","","memory_trial","4","definitely_new",""
"html-button-response","127","306818","0.0-18.0-2.41-0.41","6378","approach_avoid_sv1","""event"",""trial"",""time""
""fullscreenenter"",""1"",""6330""
","
","
","""event"",""trial"",""time""
""fullscreenenter"",""1"",""6330""
","
","","","","","","7354.399999999441","<p> Take a break! </p><p> Click the button to continue. </p>","0","","break","","",""
"html-keyboard-response","128","307328","0.0-18.0-0.42","6378","approach_avoid_sv1","""event"",""trial"",""time""
""fullscreenenter"",""1"",""6330""
","
","
","""event"",""trial"",""time""
""fullscreenenter"",""1"",""6330""
","
","","","","","","null","<div style=""font-size:60px;"">+</div>","null","","fixation","","",""
"memory-trial","129","309238","0.0-18.0-1.42","6378","approach_avoid_sv1","""event"",""trial"",""time""
""fullscreenenter"",""1"",""6330""
","
","
","""event"",""trial"",""time""
""fullscreenenter"",""1"",""6330""
","
","","","","","","898.8000000007451","images/cactus1.png","","","memory_trial","4","definitely_new",""
"html-keyboard-response","130","309749","0.0-18.0-0.43","6378","approach_avoid_sv1","""event"",""trial"",""time""
""fullscreenenter"",""1"",""6330""
","
","
","""event"",""trial"",""time""
""fullscreenenter"",""1"",""6330""
","
","","","","","","null","<div style=""font-size:60px;"">+</div>","null","","fixation","","",""
"memory-trial","131","312355","0.0-18.0-1.43","6378","approach_avoid_sv1","""event"",""trial"",""time""
""fullscreenenter"",""1"",""6330""
","
","
","""event"",""trial"",""time""
""fullscreenenter"",""1"",""6330""
","
","","","","","","1597.9000000003725","images/flower2.png","","","memory_trial","3","maybe_new",""
"html-keyboard-response","132","312860","0.0-18.0-0.44","6378","approach_avoid_sv1","""event"",""trial"",""time""
""fullscreenenter"",""1"",""6330""
","
","
","""event"",""trial"",""time""
""fullscreenenter"",""1"",""6330""
","
","","","","","","null","<div style=""font-size:60px;"">+</div>","null","","fixation","","",""
"memory-trial","133","315310","0.0-18.0-1.44","6378","approach_avoid_sv1","""event"",""trial"",""time""
""fullscreenenter"",""1"",""6330""
","
","
","""event"",""trial"",""time""
""fullscreenenter"",""1"",""6330""
","
","","","","","","1437.6000000005588","images/banana5.png","","","memory_trial","2","maybe_old",""
"html-keyboard-response","134","315821","0.0-18.0-0.45","6378","approach_avoid_sv1","""event"",""trial"",""time""
""fullscreenenter"",""1"",""6330""
","
","
","""event"",""trial"",""time""
""fullscreenenter"",""1"",""6330""
","
","","","","","","null","<div style=""font-size:60px;"">+</div>","null","","fixation","","",""
"memory-trial","135","317940","0.0-18.0-1.45","6378","approach_avoid_sv1","""event"",""trial"",""time""
""fullscreenenter"",""1"",""6330""
","
","
","""event"",""trial"",""time""
""fullscreenenter"",""1"",""6330""
","
","","","","","","1115.2000000001863","images/dog2.png","","","memory_trial","1","definitely_old",""
"html-keyboard-response","136","318445","0.0-18.0-0.46","6378","approach_avoid_sv1","""event"",""trial"",""time""
""fullscreenenter"",""1"",""6330""
","
","
","""event"",""trial"",""time""
""fullscreenenter"",""1"",""6330""
","
","","","","","","null","<div style=""font-size:60px;"">+</div>","null","","fixation","","",""
"memory-trial","137","320588","0.0-18.0-1.46","6378","approach_avoid_sv1","""event"",""trial"",""time""
""fullscreenenter"",""1"",""6330""
","
","
","""event"",""trial"",""time""
""fullscreenenter"",""1"",""6330""
","
","","","","","","1139.2000000001863","images/goat3.png","","","memory_trial","1","definitely_old",""
"html-keyboard-response","138","321092","0.0-18.0-0.47","6378","approach_avoid_sv1","""event"",""trial"",""time""
""fullscreenenter"",""1"",""6330""
","
","
","""event"",""trial"",""time""
""fullscreenenter"",""1"",""6330""
","
","","","","","","null","<div style=""font-size:60px;"">+</div>","null","","fixation","","",""
"memory-trial","139","323733","0.0-18.0-1.47","6378","approach_avoid_sv1","""event"",""trial"",""time""
""fullscreenenter"",""1"",""6330""
","
","
","""event"",""trial"",""time""
""fullscreenenter"",""1"",""6330""
","
","","","","","","1633","images/apple5.png","","","memory_trial","4","definitely_new",""
"html-keyboard-response","140","324238","0.0-18.0-0.48","6378","approach_avoid_sv1","""event"",""trial"",""time""
""fullscreenenter"",""1"",""6330""
","
","
","""event"",""trial"",""time""
""fullscreenenter"",""1"",""6330""
","
","","","","","","null","<div style=""font-size:60px;"">+</div>","null","","fixation","","",""
"memory-trial","141","326265","0.0-18.0-1.48","6378","approach_avoid_sv1","""event"",""trial"",""time""
""fullscreenenter"",""1"",""6330""
","
","
","""event"",""trial"",""time""
""fullscreenenter"",""1"",""6330""
","
","","","","","","1011","images/boat3.png","","","memory_trial","1","definitely_old",""
"html-keyboard-response","142","326775","0.0-18.0-0.49","6378","approach_avoid_sv1","""event"",""trial"",""time""
""fullscreenenter"",""1"",""6330""
","
","
","""event"",""trial"",""time""
""fullscreenenter"",""1"",""6330""
","
","","","","","","null","<div style=""font-size:60px;"">+</div>","null","","fixation","","",""
"memory-trial","143","329646","0.0-18.0-1.49","6378","approach_avoid_sv1","""event"",""trial"",""time""
""fullscreenenter"",""1"",""6330""
","
","
","""event"",""trial"",""time""
""fullscreenenter"",""1"",""6330""
","
","","","","","","1858.5","images/bush7.png","","","memory_trial","3","maybe_new",""
"html-keyboard-response","144","330150","0.0-18.0-0.50","6378","approach_avoid_sv1","""event"",""trial"",""time""
""fullscreenenter"",""1"",""6330""
","
","
","""event"",""trial"",""time""
""fullscreenenter"",""1"",""6330""
","
","","","","","","null","<div style=""font-size:60px;"">+</div>","null","","fixation","","",""
"memory-trial","145","332005","0.0-18.0-1.50","6378","approach_avoid_sv1","""event"",""trial"",""time""
""fullscreenenter"",""1"",""6330""
","
","
","""event"",""trial"",""time""
""fullscreenenter"",""1"",""6330""
","
","","","","","","843.2000000001863","images/table2.png","","","memory_trial","4","definitely_new",""
"html-keyboard-response","146","332511","0.0-18.0-0.51","6378","approach_avoid_sv1","""event"",""trial"",""time""
""fullscreenenter"",""1"",""6330""
","
","
","""event"",""trial"",""time""
""fullscreenenter"",""1"",""6330""
","
","","","","","","null","<div style=""font-size:60px;"">+</div>","null","","fixation","","",""
"memory-trial","147","334473","0.0-18.0-1.51","6378","approach_avoid_sv1","""event"",""trial"",""time""
""fullscreenenter"",""1"",""6330""
","
","
","""event"",""trial"",""time""
""fullscreenenter"",""1"",""6330""
","
","","","","","","953.0999999996275","images/bed6.png","","","memory_trial","1","definitely_old",""
"html-keyboard-response","148","334984","0.0-18.0-0.52","6378","approach_avoid_sv1","""event"",""trial"",""time""
""fullscreenenter"",""1"",""6330""
","
","
","""event"",""trial"",""time""
""fullscreenenter"",""1"",""6330""
","
","","","","","","null","<div style=""font-size:60px;"">+</div>","null","","fixation","","",""
"memory-trial","149","336959","0.0-18.0-1.52","6378","approach_avoid_sv1","""event"",""trial"",""time""
""fullscreenenter"",""1"",""6330""
","
","
","""event"",""trial"",""time""
""fullscreenenter"",""1"",""6330""
","
","","","","","","968","images/bush5.png","","","memory_trial","4","definitely_new",""
"html-keyboard-response","150","337468","0.0-18.0-0.53","6378","approach_avoid_sv1","""event"",""trial"",""time""
""fullscreenenter"",""1"",""6330""
","
","
","""event"",""trial"",""time""
""fullscreenenter"",""1"",""6330""
","
","","","","","","null","<div style=""font-size:60px;"">+</div>","null","","fixation","","",""
"memory-trial","151","339889","0.0-18.0-1.53","6378","approach_avoid_sv1","""event"",""trial"",""time""
""fullscreenenter"",""1"",""6330""
","
","
","""event"",""trial"",""time""
""fullscreenenter"",""1"",""6330""
","
","","","","","","1406.2999999998137","images/boat7.png","","","memory_trial","4","definitely_new",""
"html-keyboard-response","152","340400","0.0-18.0-0.54","6378","approach_avoid_sv1","""event"",""trial"",""time""
""fullscreenenter"",""1"",""6330""
","
","
","""event"",""trial"",""time""
""fullscreenenter"",""1"",""6330""
","
","","","","","","null","<div style=""font-size:60px;"">+</div>","null","","fixation","","",""
"memory-trial","153","342647","0.0-18.0-1.54","6378","approach_avoid_sv1","""event"",""trial"",""time""
""fullscreenenter"",""1"",""6330""
","
","
","""event"",""trial"",""time""
""fullscreenenter"",""1"",""6330""
","
","","","","","","1236.9000000003725","images/apple3.png","","","memory_trial","1","definitely_old",""
"html-keyboard-response","154","343152","0.0-18.0-0.55","6378","approach_avoid_sv1","""event"",""trial"",""time""
""fullscreenenter"",""1"",""6330""
","
","
","""event"",""trial"",""time""
""fullscreenenter"",""1"",""6330""
","
","","","","","","null","<div style=""font-size:60px;"">+</div>","null","","fixation","","",""
"memory-trial","155","345149","0.0-18.0-1.55","6378","approach_avoid_sv1","""event"",""trial"",""time""
""fullscreenenter"",""1"",""6330""
","
","
","""event"",""trial"",""time""
""fullscreenenter"",""1"",""6330""
","
","","","","","","988.5999999996275","images/cactus3.png","","","memory_trial","4","definitely_new",""
"html-keyboard-response","156","345654","0.0-18.0-0.56","6378","approach_avoid_sv1","""event"",""trial"",""time""
""fullscreenenter"",""1"",""6330""
","
","
","""event"",""trial"",""time""
""fullscreenenter"",""1"",""6330""
","
","","","","","","null","<div style=""font-size:60px;"">+</div>","null","","fixation","","",""
"memory-trial","157","347552","0.0-18.0-1.56","6378","approach_avoid_sv1","""event"",""trial"",""time""
""fullscreenenter"",""1"",""6330""
","
","
","""event"",""trial"",""time""
""fullscreenenter"",""1"",""6330""
","
","","","","","","891.5999999996275","images/cactus6.png","","","memory_trial","4","definitely_new",""
"html-keyboard-response","158","348065","0.0-18.0-0.57","6378","approach_avoid_sv1","""event"",""trial"",""time""
""fullscreenenter"",""1"",""6330""
","
","
","""event"",""trial"",""time""
""fullscreenenter"",""1"",""6330""
","
","","","","","","null","<div style=""font-size:60px;"">+</div>","null","","fixation","","",""
"memory-trial","159","350165","0.0-18.0-1.57","6378","approach_avoid_sv1","""event"",""trial"",""time""
""fullscreenenter"",""1"",""6330""
","
","
","""event"",""trial"",""time""
""fullscreenenter"",""1"",""6330""
","
","","","","","","1094.7000000001863","images/orange3.png","","","memory_trial","1","definitely_old",""
"html-keyboard-response","160","350669","0.0-18.0-0.58","6378","approach_avoid_sv1","""event"",""trial"",""time""
""fullscreenenter"",""1"",""6330""
","
","
","""event"",""trial"",""time""
""fullscreenenter"",""1"",""6330""
","
","","","","","","null","<div style=""font-size:60px;"">+</div>","null","","fixation","","",""
"memory-trial","161","353032","0.0-18.0-1.58","6378","approach_avoid_sv1","""event"",""trial"",""time""
""fullscreenenter"",""1"",""6330""
","
","
","""event"",""trial"",""time""
""fullscreenenter"",""1"",""6330""
","
","","","","","","1350.5","images/truck6.png","","","memory_trial","4","definitely_new",""
"html-keyboard-response","162","353543","0.0-18.0-0.59","6378","approach_avoid_sv1","""event"",""trial"",""time""
""fullscreenenter"",""1"",""6330""
","
","
","""event"",""trial"",""time""
""fullscreenenter"",""1"",""6330""
","
","","","","","","null","<div style=""font-size:60px;"">+</div>","null","","fixation","","",""
"memory-trial","163","355941","0.0-18.0-1.59","6378","approach_avoid_sv1","""event"",""trial"",""time""
""fullscreenenter"",""1"",""6330""
","
","
","""event"",""trial"",""time""
""fullscreenenter"",""1"",""6330""
","
","","","","","","1389.0999999996275","images/cat4.png","","","memory_trial","2","maybe_old",""
"html-keyboard-response","164","356445","0.0-18.0-0.60","6378","approach_avoid_sv1","""event"",""trial"",""time""
""fullscreenenter"",""1"",""6330""
","
","
","""event"",""trial"",""time""
""fullscreenenter"",""1"",""6330""
","
","","","","","","null","<div style=""font-size:60px;"">+</div>","null","","fixation","","",""
"memory-trial","165","359679","0.0-18.0-1.60","6378","approach_avoid_sv1","""event"",""trial"",""time""
""fullscreenenter"",""1"",""6330""
","
","
","""event"",""trial"",""time""
""fullscreenenter"",""1"",""6330""
","
","","","","","","2228.199999999255","images/bed3.png","","","memory_trial","3","maybe_new",""
"html-keyboard-response","166","360184","0.0-18.0-0.61","6378","approach_avoid_sv1","""event"",""trial"",""time""
""fullscreenenter"",""1"",""6330""
","
","
","""event"",""trial"",""time""
""fullscreenenter"",""1"",""6330""
","
","","","","","","null","<div style=""font-size:60px;"">+</div>","null","","fixation","","",""
"memory-trial","167","362175","0.0-18.0-1.61","6378","approach_avoid_sv1","""event"",""trial"",""time""
""fullscreenenter"",""1"",""6330""
","
","
","""event"",""trial"",""time""
""fullscreenenter"",""1"",""6330""
","
","","","","","","983.0999999996275","images/chair8.png","","","memory_trial","1","definitely_old",""
"html-keyboard-response","168","362680","0.0-18.0-0.62","6378","approach_avoid_sv1","""event"",""trial"",""time""
""fullscreenenter"",""1"",""6330""
","
","
","""event"",""trial"",""time""
""fullscreenenter"",""1"",""6330""
","
","","","","","","null","<div style=""font-size:60px;"">+</div>","null","","fixation","","",""
"memory-trial","169","364921","0.0-18.0-1.62","6378","approach_avoid_sv1","""event"",""trial"",""time""
""fullscreenenter"",""1"",""6330""
","
","
","""event"",""trial"",""time""
""fullscreenenter"",""1"",""6330""
","
","","","","","","1229.699999999255","images/horse4.png","","","memory_trial","2","maybe_old",""
"html-keyboard-response","170","365432","0.0-18.0-0.63","6378","approach_avoid_sv1","""event"",""trial"",""time""
""fullscreenenter"",""1"",""6330""
","
","
","""event"",""trial"",""time""
""fullscreenenter"",""1"",""6330""
","
","","","","","","null","<div style=""font-size:60px;"">+</div>","null","","fixation","","",""
"memory-trial","171","368311","0.0-18.0-1.63","6378","approach_avoid_sv1","""event"",""trial"",""time""
""fullscreenenter"",""1"",""6330""
","
","
","""event"",""trial"",""time""
""fullscreenenter"",""1"",""6330""
","
","","","","","","1874.2999999998137","images/sofa1.png","","","memory_trial","3","maybe_new",""
"html-keyboard-response","172","368816","0.0-18.0-0.64","6378","approach_avoid_sv1","""event"",""trial"",""time""
""fullscreenenter"",""1"",""6330""
","
","
","""event"",""trial"",""time""
""fullscreenenter"",""1"",""6330""
","
","","","","","","null","<div style=""font-size:60px;"">+</div>","null","","fixation","","",""
"memory-trial","173","371631","0.0-18.0-1.64","6378","approach_avoid_sv1","""event"",""trial"",""time""
""fullscreenenter"",""1"",""6330""
","
","
","""event"",""trial"",""time""
""fullscreenenter"",""1"",""6330""
","
","","","","","","1807.199999999255","images/rabbit3.png","","","memory_trial","2","maybe_old",""
"html-keyboard-response","174","372137","0.0-18.0-0.65","6378","approach_avoid_sv1","""event"",""trial"",""time""
""fullscreenenter"",""1"",""6330""
","
","
","""event"",""trial"",""time""
""fullscreenenter"",""1"",""6330""
","
","","","","","","null","<div style=""font-size:60px;"">+</div>","null","","fixation","","",""
"memory-trial","175","374296","0.0-18.0-1.65","6378","approach_avoid_sv1","""event"",""trial"",""time""
""fullscreenenter"",""1"",""6330""
","
","
","""event"",""trial"",""time""
""fullscreenenter"",""1"",""6330""
","
","","","","","","1151.5","images/horse5.png","","","memory_trial","4","definitely_new",""
"html-keyboard-response","176","374807","0.0-18.0-0.66","6378","approach_avoid_sv1","""event"",""trial"",""time""
""fullscreenenter"",""1"",""6330""
","
","
","""event"",""trial"",""time""
""fullscreenenter"",""1"",""6330""
","
","","","","","","null","<div style=""font-size:60px;"">+</div>","null","","fixation","","",""
"memory-trial","177","377065","0.0-18.0-1.66","6378","approach_avoid_sv1","""event"",""trial"",""time""
""fullscreenenter"",""1"",""6330""
","
","
","""event"",""trial"",""time""
""fullscreenenter"",""1"",""6330""
","
","","","","","","1246.7000000001863","images/banana8.png","","","memory_trial","4","definitely_new",""
"html-keyboard-response","178","377576","0.0-18.0-0.67","6378","approach_avoid_sv1","""event"",""trial"",""time""
""fullscreenenter"",""1"",""6330""
","
","
","""event"",""trial"",""time""
""fullscreenenter"",""1"",""6330""
","
","","","","","","null","<div style=""font-size:60px;"">+</div>","null","","fixation","","",""
"memory-trial","179","380496","0.0-18.0-1.67","6378","approach_avoid_sv1","""event"",""trial"",""time""
""fullscreenenter"",""1"",""6330""
","
","
","""event"",""trial"",""time""
""fullscreenenter"",""1"",""6330""
","
","","","","","","1910.2999999998137","images/tree1.png","","","memory_trial","2","maybe_old",""
"html-keyboard-response","180","381001","0.0-18.0-0.68","6378","approach_avoid_sv1","""event"",""trial"",""time""
""fullscreenenter"",""1"",""6330""
","
","
","""event"",""trial"",""time""
""fullscreenenter"",""1"",""6330""
","
","","","","","","null","<div style=""font-size:60px;"">+</div>","null","","fixation","","",""
"memory-trial","181","382946","0.0-18.0-1.68","6378","approach_avoid_sv1","""event"",""trial"",""time""
""fullscreenenter"",""1"",""6330""
","
","
","""event"",""trial"",""time""
""fullscreenenter"",""1"",""6330""
","
","","","","","","929.5","images/cactus5.png","","","memory_trial","4","definitely_new",""
"html-keyboard-response","182","383458","0.0-18.0-0.69","6378","approach_avoid_sv1","""event"",""trial"",""time""
""fullscreenenter"",""1"",""6330""
","
","
","""event"",""trial"",""time""
""fullscreenenter"",""1"",""6330""
","
","","","","","","null","<div style=""font-size:60px;"">+</div>","null","","fixation","","",""
"memory-trial","183","385535","0.0-18.0-1.69","6378","approach_avoid_sv1","""event"",""trial"",""time""
""fullscreenenter"",""1"",""6330""
","
","
","""event"",""trial"",""time""
""fullscreenenter"",""1"",""6330""
","
","","","","","","1065.9000000003725","images/rodent2.png","","","memory_trial","2","maybe_old",""
"html-keyboard-response","184","386040","0.0-18.0-0.70","6378","approach_avoid_sv1","""event"",""trial"",""time""
""fullscreenenter"",""1"",""6330""
","
","
","""event"",""trial"",""time""
""fullscreenenter"",""1"",""6330""
","
","","","","","","null","<div style=""font-size:60px;"">+</div>","null","","fixation","","",""
"memory-trial","185","387886","0.0-18.0-1.70","6378","approach_avoid_sv1","""event"",""trial"",""time""
""fullscreenenter"",""1"",""6330""
","
","
","""event"",""trial"",""time""
""fullscreenenter"",""1"",""6330""
","
","","","","","","842.2999999998137","images/truck8.png","","","memory_trial","4","definitely_new",""
"html-keyboard-response","186","388391","0.0-18.0-0.71","6378","approach_avoid_sv1","""event"",""trial"",""time""
""fullscreenenter"",""1"",""6330""
","
","
","""event"",""trial"",""time""
""fullscreenenter"",""1"",""6330""
","
","","","","","","null","<div style=""font-size:60px;"">+</div>","null","","fixation","","",""
"memory-trial","187","390400","0.0-18.0-1.71","6378","approach_avoid_sv1","""event"",""trial"",""time""
""fullscreenenter"",""1"",""6330""
","
","
","""event"",""trial"",""time""
""fullscreenenter"",""1"",""6330""
","
","","","","","","997.2000000001863","images/plane1.png","","","memory_trial","1","definitely_old",""
"html-keyboard-response","188","390904","0.0-18.0-0.72","6378","approach_avoid_sv1","""event"",""trial"",""time""
""fullscreenenter"",""1"",""6330""
","
","
","""event"",""trial"",""time""
""fullscreenenter"",""1"",""6330""
","
","","","","","","null","<div style=""font-size:60px;"">+</div>","null","","fixation","","",""
"memory-trial","189","392983","0.0-18.0-1.72","6378","approach_avoid_sv1","""event"",""trial"",""time""
""fullscreenenter"",""1"",""6330""
","
","
","""event"",""trial"",""time""
""fullscreenenter"",""1"",""6330""
","
","","","","","","1075","images/sheep7.png","","","memory_trial","4","definitely_new",""
"html-keyboard-response","190","393488","0.0-18.0-0.73","6378","approach_avoid_sv1","""event"",""trial"",""time""
""fullscreenenter"",""1"",""6330""
","
","
","""event"",""trial"",""time""
""fullscreenenter"",""1"",""6330""
","
","","","","","","null","<div style=""font-size:60px;"">+</div>","null","","fixation","","",""
"memory-trial","191","396015","0.0-18.0-1.73","6378","approach_avoid_sv1","""event"",""trial"",""time""
""fullscreenenter"",""1"",""6330""
","
","
","""event"",""trial"",""time""
""fullscreenenter"",""1"",""6330""
","
","","","","","","1520.2000000001863","images/rabbit5.png","","","memory_trial","2","maybe_old",""
"html-keyboard-response","192","396518","0.0-18.0-0.74","6378","approach_avoid_sv1","""event"",""trial"",""time""
""fullscreenenter"",""1"",""6330""
","
","
","""event"",""trial"",""time""
""fullscreenenter"",""1"",""6330""
","
","","","","","","null","<div style=""font-size:60px;"">+</div>","null","","fixation","","",""
"memory-trial","193","399665","0.0-18.0-1.74","6378","approach_avoid_sv1","""event"",""trial"",""time""
""fullscreenenter"",""1"",""6330""
","
","
","""event"",""trial"",""time""
""fullscreenenter"",""1"",""6330""
","
","","","","","","2133.5999999996275","images/train8.png","","","memory_trial","1","definitely_old",""
"html-keyboard-response","194","400175","0.0-18.0-0.75","6378","approach_avoid_sv1","""event"",""trial"",""time""
""fullscreenenter"",""1"",""6330""
","
","
","""event"",""trial"",""time""
""fullscreenenter"",""1"",""6330""
","
","","","","","","null","<div style=""font-size:60px;"">+</div>","null","","fixation","","",""
"memory-trial","195","402858","0.0-18.0-1.75","6378","approach_avoid_sv1","""event"",""trial"",""time""
""fullscreenenter"",""1"",""6330""
","
","
","""event"",""trial"",""time""
""fullscreenenter"",""1"",""6330""
","
","","","","","","1671.2000000001863","images/truck1.png","","","memory_trial","4","definitely_new",""
"html-keyboard-response","196","403368","0.0-18.0-0.76","6378","approach_avoid_sv1","""event"",""trial"",""time""
""fullscreenenter"",""1"",""6330""
","
","
","""event"",""trial"",""time""
""fullscreenenter"",""1"",""6330""
","
","","","","","","null","<div style=""font-size:60px;"">+</div>","null","","fixation","","",""
"memory-trial","197","406898","0.0-18.0-1.76","6378","approach_avoid_sv1","""event"",""trial"",""time""
""fullscreenenter"",""1"",""6330""
","
","
","""event"",""trial"",""time""
""fullscreenenter"",""1"",""6330""
","
","","","","","","2519.4000000003725","images/dog4.png","","","memory_trial","4","definitely_new",""
"html-keyboard-response","198","407409","0.0-18.0-0.77","6378","approach_avoid_sv1","""event"",""trial"",""time""
""fullscreenenter"",""1"",""6330""
","
","
","""event"",""trial"",""time""
""fullscreenenter"",""1"",""6330""
","
","","","","","","null","<div style=""font-size:60px;"">+</div>","null","","fixation","","",""
"memory-trial","199","410027","0.0-18.0-1.77","6378","approach_avoid_sv1","""event"",""trial"",""time""
""fullscreenenter"",""1"",""6330""
","
","
","""event"",""trial"",""time""
""fullscreenenter"",""1"",""6330""
","
","","","","","","1605.4000000003725","images/cat3.png","","","memory_trial","1","definitely_old",""
"html-keyboard-response","200","410538","0.0-18.0-0.78","6378","approach_avoid_sv1","""event"",""trial"",""time""
""fullscreenenter"",""1"",""6330""
","
","
","""event"",""trial"",""time""
""fullscreenenter"",""1"",""6330""
","
","","","","","","null","<div style=""font-size:60px;"">+</div>","null","","fixation","","",""
"memory-trial","201","412779","0.0-18.0-1.78","6378","approach_avoid_sv1","""event"",""trial"",""time""
""fullscreenenter"",""1"",""6330""
","
","
","""event"",""trial"",""time""
""fullscreenenter"",""1"",""6330""
","
","","","","","","1232.7999999998137","images/cow1.png","","","memory_trial","4","definitely_new",""
"html-keyboard-response","202","413289","0.0-18.0-0.79","6378","approach_avoid_sv1","""event"",""trial"",""time""
""fullscreenenter"",""1"",""6330""
","
","
","""event"",""trial"",""time""
""fullscreenenter"",""1"",""6330""
","
","","","","","","null","<div style=""font-size:60px;"">+</div>","null","","fixation","","",""
"memory-trial","203","415280","0.0-18.0-1.79","6378","approach_avoid_sv1","""event"",""trial"",""time""
""fullscreenenter"",""1"",""6330""
","
","
","""event"",""trial"",""time""
""fullscreenenter"",""1"",""6330""
","
","","","","","","984.1999999992549","images/orange4.png","","","memory_trial","4","definitely_new",""
"html-keyboard-response","204","415786","0.0-18.0-0.80","6378","approach_avoid_sv1","""event"",""trial"",""time""
""fullscreenenter"",""1"",""6330""
","
","
","""event"",""trial"",""time""
""fullscreenenter"",""1"",""6330""
","
","","","","","","null","<div style=""font-size:60px;"">+</div>","null","","fixation","","",""
"memory-trial","205","417551","0.0-18.0-1.80","6378","approach_avoid_sv1","""event"",""trial"",""time""
""fullscreenenter"",""1"",""6330""
","
","
","""event"",""trial"",""time""
""fullscreenenter"",""1"",""6330""
","
","","","","","","754.6000000005588","images/cactus2.png","","","memory_trial","4","definitely_new",""
"html-keyboard-response","206","418055","0.0-18.0-0.81","6378","approach_avoid_sv1","""event"",""trial"",""time""
""fullscreenenter"",""1"",""6330""
","
","
","""event"",""trial"",""time""
""fullscreenenter"",""1"",""6330""
","
","","","","","","null","<div style=""font-size:60px;"">+</div>","null","","fixation","","",""
"memory-trial","207","420072","0.0-18.0-1.81","6378","approach_avoid_sv1","""event"",""trial"",""time""
""fullscreenenter"",""1"",""6330""
","
","
","""event"",""trial"",""time""
""fullscreenenter"",""1"",""6330""
","
","","","","","","1006","images/rabbit7.png","","","memory_trial","2","maybe_old",""
"html-keyboard-response","208","420575","0.0-18.0-0.82","6378","approach_avoid_sv1","""event"",""trial"",""time""
""fullscreenenter"",""1"",""6330""
","
","
","""event"",""trial"",""time""
""fullscreenenter"",""1"",""6330""
","
","","","","","","null","<div style=""font-size:60px;"">+</div>","null","","fixation","","",""
"memory-trial","209","422601","0.0-18.0-1.82","6378","approach_avoid_sv1","""event"",""trial"",""time""
""fullscreenenter"",""1"",""6330""
","
","
","""event"",""trial"",""time""
""fullscreenenter"",""1"",""6330""
","
","","","","","","1020.7999999998137","images/cat1.png","","","memory_trial","1","definitely_old",""
"html-keyboard-response","210","423106","0.0-18.0-0.83","6378","approach_avoid_sv1","""event"",""trial"",""time""
""fullscreenenter"",""1"",""6330""
","
","
","""event"",""trial"",""time""
""fullscreenenter"",""1"",""6330""
","
","","","","","","null","<div style=""font-size:60px;"">+</div>","null","","fixation","","",""
"memory-trial","211","424992","0.0-18.0-1.83","6378","approach_avoid_sv1","""event"",""trial"",""time""
""fullscreenenter"",""1"",""6330""
","
","
","""event"",""trial"",""time""
""fullscreenenter"",""1"",""6330""
","
","","","","","","881.2000000001863","images/straw7.png","","","memory_trial","4","definitely_new",""
"html-keyboard-response","212","425498","0.0-18.0-0.84","6378","approach_avoid_sv1","""event"",""trial"",""time""
""fullscreenenter"",""1"",""6330""
","
","
","""event"",""trial"",""time""
""fullscreenenter"",""1"",""6330""
","
","","","","","","null","<div style=""font-size:60px;"">+</div>","null","","fixation","","",""
"memory-trial","213","427866","0.0-18.0-1.84","6378","approach_avoid_sv1","""event"",""trial"",""time""
""fullscreenenter"",""1"",""6330""
","
","
","""event"",""trial"",""time""
""fullscreenenter"",""1"",""6330""
","
","","","","","","1359.1000000005588","images/table8.png","","","memory_trial","3","maybe_new",""
"html-keyboard-response","214","428377","0.0-18.0-0.85","6378","approach_avoid_sv1","""event"",""trial"",""time""
""fullscreenenter"",""1"",""6330""
","
","
","""event"",""trial"",""time""
""fullscreenenter"",""1"",""6330""
","
","","","","","","null","<div style=""font-size:60px;"">+</div>","null","","fixation","","",""
"memory-trial","215","430351","0.0-18.0-1.85","6378","approach_avoid_sv1","""event"",""trial"",""time""
""fullscreenenter"",""1"",""6330""
","
","
","""event"",""trial"",""time""
""fullscreenenter"",""1"",""6330""
","
","","","","","","965.7000000001863","images/rodent1.png","","","memory_trial","4","definitely_new",""
"html-keyboard-response","216","430856","0.0-18.0-0.86","6378","approach_avoid_sv1","""event"",""trial"",""time""
""fullscreenenter"",""1"",""6330""
","
","
","""event"",""trial"",""time""
""fullscreenenter"",""1"",""6330""
","
","","","","","","null","<div style=""font-size:60px;"">+</div>","null","","fixation","","",""
"memory-trial","217","432968","0.0-18.0-1.86","6378","approach_avoid_sv1","""event"",""trial"",""time""
""fullscreenenter"",""1"",""6330""
","
","
","""event"",""trial"",""time""
""fullscreenenter"",""1"",""6330""
","
","","","","","","1105.199999999255","images/bed2.png","","","memory_trial","4","definitely_new",""
"html-keyboard-response","218","433474","0.0-18.0-0.87","6378","approach_avoid_sv1","""event"",""trial"",""time""
""fullscreenenter"",""1"",""6330""
","
","
","""event"",""trial"",""time""
""fullscreenenter"",""1"",""6330""
","
","","","","","","null","<div style=""font-size:60px;"">+</div>","null","","fixation","","",""
"memory-trial","219","435322","0.0-18.0-1.87","6378","approach_avoid_sv1","""event"",""trial"",""time""
""fullscreenenter"",""1"",""6330""
","
","
","""event"",""trial"",""time""
""fullscreenenter"",""1"",""6330""
","
","","","","","","842.4000000003725","images/straw1.png","","","memory_trial","4","definitely_new",""
"html-keyboard-response","220","435831","0.0-18.0-0.88","6378","approach_avoid_sv1","""event"",""trial"",""time""
""fullscreenenter"",""1"",""6330""
","
","
","""event"",""trial"",""time""
""fullscreenenter"",""1"",""6330""
","
","","","","","","null","<div style=""font-size:60px;"">+</div>","null","","fixation","","",""
"memory-trial","221","437903","0.0-18.0-1.88","6378","approach_avoid_sv1","""event"",""trial"",""time""
""fullscreenenter"",""1"",""6330""
","
","
","""event"",""trial"",""time""
""fullscreenenter"",""1"",""6330""
","
","","","","","","1067.5999999996275","images/sheep3.png","","","memory_trial","1","definitely_old",""
"html-keyboard-response","222","438408","0.0-18.0-0.89","6378","approach_avoid_sv1","""event"",""trial"",""time""
""fullscreenenter"",""1"",""6330""
","
","
","""event"",""trial"",""time""
""fullscreenenter"",""1"",""6330""
","
","","","","","","null","<div style=""font-size:60px;"">+</div>","null","","fixation","","",""
"memory-trial","223","440713","0.0-18.0-1.89","6378","approach_avoid_sv1","""event"",""trial"",""time""
""fullscreenenter"",""1"",""6330""
","
","
","""event"",""trial"",""time""
""fullscreenenter"",""1"",""6330""
","
","","","","","","1299.5999999996275","images/plane2.png","","","memory_trial","4","definitely_new",""
"html-keyboard-response","224","441218","0.0-18.0-0.90","6378","approach_avoid_sv1","""event"",""trial"",""time""
""fullscreenenter"",""1"",""6330""
","
","
","""event"",""trial"",""time""
""fullscreenenter"",""1"",""6330""
","
","","","","","","null","<div style=""font-size:60px;"">+</div>","null","","fixation","","",""
"memory-trial","225","443244","0.0-18.0-1.90","6378","approach_avoid_sv1","""event"",""trial"",""time""
""fullscreenenter"",""1"",""6330""
","
","
","""event"",""trial"",""time""
""fullscreenenter"",""1"",""6330""
","
","","","","","","1013.0999999996275","images/rodent5.png","","","memory_trial","2","maybe_old",""
"html-keyboard-response","226","443754","0.0-18.0-0.91","6378","approach_avoid_sv1","""event"",""trial"",""time""
""fullscreenenter"",""1"",""6330""
","
","
","""event"",""trial"",""time""
""fullscreenenter"",""1"",""6330""
","
","","","","","","null","<div style=""font-size:60px;"">+</div>","null","","fixation","","",""
"memory-trial","227","445779","0.0-18.0-1.91","6378","approach_avoid_sv1","""event"",""trial"",""time""
""fullscreenenter"",""1"",""6330""
","
","
","""event"",""trial"",""time""
""fullscreenenter"",""1"",""6330""
","
","","","","","","1016.7999999998137","images/table7.png","","","memory_trial","4","definitely_new",""
"html-button-response","228","488836","0.0-18.0-2.91-0.91","6378","approach_avoid_sv1","""event"",""trial"",""time""
""fullscreenenter"",""1"",""6330""
","
","
","""event"",""trial"",""time""
""fullscreenenter"",""1"",""6330""
","
","","","","","","43054","<p> Take a break! </p><p> Click the button to continue. </p>","0","","break","","",""
"html-keyboard-response","229","489349","0.0-18.0-0.92","6378","approach_avoid_sv1","""event"",""trial"",""time""
""fullscreenenter"",""1"",""6330""
","
","
","""event"",""trial"",""time""
""fullscreenenter"",""1"",""6330""
","
","","","","","","null","<div style=""font-size:60px;"">+</div>","null","","fixation","","",""
"memory-trial","230","491781","0.0-18.0-1.92","6378","approach_avoid_sv1","""event"",""trial"",""time""
""fullscreenenter"",""1"",""6330""
","
","
","""event"",""trial"",""time""
""fullscreenenter"",""1"",""6330""
","
","","","","","","1418.7999999998137","images/cat5.png","","","memory_trial","1","definitely_old",""
"html-keyboard-response","231","492292","0.0-18.0-0.93","6378","approach_avoid_sv1","""event"",""trial"",""time""
""fullscreenenter"",""1"",""6330""
","
","
","""event"",""trial"",""time""
""fullscreenenter"",""1"",""6330""
","
","","","","","","null","<div style=""font-size:60px;"">+</div>","null","","fixation","","",""
"memory-trial","232","494150","0.0-18.0-1.93","6378","approach_avoid_sv1","""event"",""trial"",""time""
""fullscreenenter"",""1"",""6330""
","
","
","""event"",""trial"",""time""
""fullscreenenter"",""1"",""6330""
","
","","","","","","844.2999999998137","images/cow8.png","","","memory_trial","4","definitely_new",""
"html-keyboard-response","233","494660","0.0-18.0-0.94","6378","approach_avoid_sv1","""event"",""trial"",""time""
""fullscreenenter"",""1"",""6330""
","
","
","""event"",""trial"",""time""
""fullscreenenter"",""1"",""6330""
","
","","","","","","null","<div style=""font-size:60px;"">+</div>","null","","fixation","","",""
"memory-trial","234","496594","0.0-18.0-1.94","6378","approach_avoid_sv1","""event"",""trial"",""time""
""fullscreenenter"",""1"",""6330""
","
","
","""event"",""trial"",""time""
""fullscreenenter"",""1"",""6330""
","
","","","","","","923.5","images/cow6.png","","","memory_trial","4","definitely_new",""
"html-keyboard-response","235","497098","0.0-18.0-0.95","6378","approach_avoid_sv1","""event"",""trial"",""time""
""fullscreenenter"",""1"",""6330""
","
","
","""event"",""trial"",""time""
""fullscreenenter"",""1"",""6330""
","
","","","","","","null","<div style=""font-size:60px;"">+</div>","null","","fixation","","",""
"memory-trial","236","499140","0.0-18.0-1.95","6378","approach_avoid_sv1","""event"",""trial"",""time""
""fullscreenenter"",""1"",""6330""
","
","
","""event"",""trial"",""time""
""fullscreenenter"",""1"",""6330""
","
","","","","","","1034.2999999998137","images/bed1.png","","","memory_trial","2","maybe_old",""
"html-keyboard-response","237","499641","0.0-18.0-0.96","6378","approach_avoid_sv1","""event"",""trial"",""time""
""fullscreenenter"",""1"",""6330""
","
","
","""event"",""trial"",""time""
""fullscreenenter"",""1"",""6330""
","
","","","","","","null","<div style=""font-size:60px;"">+</div>","null","","fixation","","",""
"memory-trial","238","501795","0.0-18.0-1.96","6378","approach_avoid_sv1","""event"",""trial"",""time""
""fullscreenenter"",""1"",""6330""
","
","
","""event"",""trial"",""time""
""fullscreenenter"",""1"",""6330""
","
","","","","","","1142.9000000003725","images/straw2.png","","","memory_trial","4","definitely_new",""
"html-keyboard-response","239","502300","0.0-18.0-0.97","6378","approach_avoid_sv1","""event"",""trial"",""time""
""fullscreenenter"",""1"",""6330""
","
","
","""event"",""trial"",""time""
""fullscreenenter"",""1"",""6330""
","
","","","","","","null","<div style=""font-size:60px;"">+</div>","null","","fixation","","",""
"memory-trial","240","504419","0.0-18.0-1.97","6378","approach_avoid_sv1","""event"",""trial"",""time""
""fullscreenenter"",""1"",""6330""
","
","
","""event"",""trial"",""time""
""fullscreenenter"",""1"",""6330""
","
","","","","","","1107.2999999998137","images/goat4.png","","","memory_trial","1","definitely_old",""
"html-keyboard-response","241","504924","0.0-18.0-0.98","6378","approach_avoid_sv1","""event"",""trial"",""time""
""fullscreenenter"",""1"",""6330""
","
","
","""event"",""trial"",""time""
""fullscreenenter"",""1"",""6330""
","
","","","","","","null","<div style=""font-size:60px;"">+</div>","null","","fixation","","",""
"memory-trial","242","507147","0.0-18.0-1.98","6378","approach_avoid_sv1","""event"",""trial"",""time""
""fullscreenenter"",""1"",""6330""
","
","
","""event"",""trial"",""time""
""fullscreenenter"",""1"",""6330""
","
","","","","","","1214.4000000003725","images/bush8.png","","","memory_trial","4","definitely_new",""
"html-keyboard-response","243","507652","0.0-18.0-0.99","6378","approach_avoid_sv1","""event"",""trial"",""time""
""fullscreenenter"",""1"",""6330""
","
","
","""event"",""trial"",""time""
""fullscreenenter"",""1"",""6330""
","
","","","","","","null","<div style=""font-size:60px;"">+</div>","null","","fixation","","",""
"memory-trial","244","509835","0.0-18.0-1.99","6378","approach_avoid_sv1","""event"",""trial"",""time""
""fullscreenenter"",""1"",""6330""
","
","
","""event"",""trial"",""time""
""fullscreenenter"",""1"",""6330""
","
","","","","","","1175.5","images/cow3.png","","","memory_trial","4","definitely_new",""
"html-keyboard-response","245","510340","0.0-18.0-0.100","6378","approach_avoid_sv1","""event"",""trial"",""time""
""fullscreenenter"",""1"",""6330""
","
","
","""event"",""trial"",""time""
""fullscreenenter"",""1"",""6330""
","
","","","","","","null","<div style=""font-size:60px;"">+</div>","null","","fixation","","",""
"memory-trial","246","512053","0.0-18.0-1.100","6378","approach_avoid_sv1","""event"",""trial"",""time""
""fullscreenenter"",""1"",""6330""
","
","
","""event"",""trial"",""time""
""fullscreenenter"",""1"",""6330""
","
","","","","","","701.5999999996275","images/truck4.png","","","memory_trial","4","definitely_new",""
"html-keyboard-response","247","512564","0.0-18.0-0.101","6378","approach_avoid_sv1","""event"",""trial"",""time""
""fullscreenenter"",""1"",""6330""
","
","
","""event"",""trial"",""time""
""fullscreenenter"",""1"",""6330""
","
","","","","","","null","<div style=""font-size:60px;"">+</div>","null","","fixation","","",""
"memory-trial","248","514467","0.0-18.0-1.101","6378","approach_avoid_sv1","""event"",""trial"",""time""
""fullscreenenter"",""1"",""6330""
","
","
","""event"",""trial"",""time""
""fullscreenenter"",""1"",""6330""
","
","","","","","","896.4000000003725","images/sheep4.png","","","memory_trial","4","definitely_new",""
"html-keyboard-response","249","514971","0.0-18.0-0.102","6378","approach_avoid_sv1","""event"",""trial"",""time""
""fullscreenenter"",""1"",""6330""
","
","
","""event"",""trial"",""time""
""fullscreenenter"",""1"",""6330""
","
","","","","","","null","<div style=""font-size:60px;"">+</div>","null","","fixation","","",""
"memory-trial","250","517045","0.0-18.0-1.102","6378","approach_avoid_sv1","""event"",""trial"",""time""
""fullscreenenter"",""1"",""6330""
","
","
","""event"",""trial"",""time""
""fullscreenenter"",""1"",""6330""
","
","","","","","","1062.300000000745","images/cactus8.png","","","memory_trial","4","definitely_new",""
"html-keyboard-response","251","517556","0.0-18.0-0.103","6378","approach_avoid_sv1","""event"",""trial"",""time""
""fullscreenenter"",""1"",""6330""
","
","
","""event"",""trial"",""time""
""fullscreenenter"",""1"",""6330""
","
","","","","","","null","<div style=""font-size:60px;"">+</div>","null","","fixation","","",""
"memory-trial","252","520338","0.0-18.0-1.103","6378","approach_avoid_sv1","""event"",""trial"",""time""
""fullscreenenter"",""1"",""6330""
","
","
","""event"",""trial"",""time""
""fullscreenenter"",""1"",""6330""
","
","","","","","","1773.9000000003725","images/boat5.png","","","memory_trial","4","definitely_new",""
"html-keyboard-response","253","520842","0.0-18.0-0.104","6378","approach_avoid_sv1","""event"",""trial"",""time""
""fullscreenenter"",""1"",""6330""
","
","
","""event"",""trial"",""time""
""fullscreenenter"",""1"",""6330""
","
","","","","","","null","<div style=""font-size:60px;"">+</div>","null","","fixation","","",""
"memory-trial","254","522653","0.0-18.0-1.104","6378","approach_avoid_sv1","""event"",""trial"",""time""
""fullscreenenter"",""1"",""6330""
","
","
","""event"",""trial"",""time""
""fullscreenenter"",""1"",""6330""
","
","","","","","","800.9000000003725","images/goat5.png","","","memory_trial","4","definitely_new",""
"html-keyboard-response","255","523164","0.0-18.0-0.105","6378","approach_avoid_sv1","""event"",""trial"",""time""
""fullscreenenter"",""1"",""6330""
","
","
","""event"",""trial"",""time""
""fullscreenenter"",""1"",""6330""
","
","","","","","","null","<div style=""font-size:60px;"">+</div>","null","","fixation","","",""
"memory-trial","256","525027","0.0-18.0-1.105","6378","approach_avoid_sv1","""event"",""trial"",""time""
""fullscreenenter"",""1"",""6330""
","
","
","""event"",""trial"",""time""
""fullscreenenter"",""1"",""6330""
","
","","","","","","853.2000000001863","images/sofa8.png","","","memory_trial","1","definitely_old",""
"html-keyboard-response","257","525532","0.0-18.0-0.106","6378","approach_avoid_sv1","""event"",""trial"",""time""
""fullscreenenter"",""1"",""6330""
","
","
","""event"",""trial"",""time""
""fullscreenenter"",""1"",""6330""
","
","","","","","","null","<div style=""font-size:60px;"">+</div>","null","","fixation","","",""
"memory-trial","258","528354","0.0-18.0-1.106","6378","approach_avoid_sv1","""event"",""trial"",""time""
""fullscreenenter"",""1"",""6330""
","
","
","""event"",""trial"",""time""
""fullscreenenter"",""1"",""6330""
","
","","","","","","1818.2000000001863","images/banana2.png","","","memory_trial","2","maybe_old",""
"html-keyboard-response","259","528859","0.0-18.0-0.107","6378","approach_avoid_sv1","""event"",""trial"",""time""
""fullscreenenter"",""1"",""6330""
","
","
","""event"",""trial"",""time""
""fullscreenenter"",""1"",""6330""
","
","","","","","","null","<div style=""font-size:60px;"">+</div>","null","","fixation","","",""
"memory-trial","260","530739","0.0-18.0-1.107","6378","approach_avoid_sv1","""event"",""trial"",""time""
""fullscreenenter"",""1"",""6330""
","
","
","""event"",""trial"",""time""
""fullscreenenter"",""1"",""6330""
","
","","","","","","876.4000000003725","images/cow2.png","","","memory_trial","4","definitely_new",""
"html-keyboard-response","261","531244","0.0-18.0-0.108","6378","approach_avoid_sv1","""event"",""trial"",""time""
""fullscreenenter"",""1"",""6330""
","
","
","""event"",""trial"",""time""
""fullscreenenter"",""1"",""6330""
","
","","","","","","null","<div style=""font-size:60px;"">+</div>","null","","fixation","","",""
"memory-trial","262","533139","0.0-18.0-1.108","6378","approach_avoid_sv1","""event"",""trial"",""time""
""fullscreenenter"",""1"",""6330""
","
","
","""event"",""trial"",""time""
""fullscreenenter"",""1"",""6330""
","
","","","","","","887.0999999996275","images/truck2.png","","","memory_trial","4","definitely_new",""
"html-keyboard-response","263","533642","0.0-18.0-0.109","6378","approach_avoid_sv1","""event"",""trial"",""time""
""fullscreenenter"",""1"",""6330""
","
","
","""event"",""trial"",""time""
""fullscreenenter"",""1"",""6330""
","
","","","","","","null","<div style=""font-size:60px;"">+</div>","null","","fixation","","",""
"memory-trial","264","535375","0.0-18.0-1.109","6378","approach_avoid_sv1","""event"",""trial"",""time""
""fullscreenenter"",""1"",""6330""
","
","
","""event"",""trial"",""time""
""fullscreenenter"",""1"",""6330""
","
","","","","","","718.5","images/table6.png","","","memory_trial","4","definitely_new",""
"html-keyboard-response","265","535883","0.0-18.0-0.110","6378","approach_avoid_sv1","""event"",""trial"",""time""
""fullscreenenter"",""1"",""6330""
","
","
","""event"",""trial"",""time""
""fullscreenenter"",""1"",""6330""
","
","","","","","","null","<div style=""font-size:60px;"">+</div>","null","","fixation","","",""
"memory-trial","266","537810","0.0-18.0-1.110","6378","approach_avoid_sv1","""event"",""trial"",""time""
""fullscreenenter"",""1"",""6330""
","
","
","""event"",""trial"",""time""
""fullscreenenter"",""1"",""6330""
","
","","","","","","918.5999999996275","images/rabbit8.png","","","memory_trial","4","definitely_new",""
"html-keyboard-response","267","538315","0.0-18.0-0.111","6378","approach_avoid_sv1","""event"",""trial"",""time""
""fullscreenenter"",""1"",""6330""
","
","
","""event"",""trial"",""time""
""fullscreenenter"",""1"",""6330""
","
","","","","","","null","<div style=""font-size:60px;"">+</div>","null","","fixation","","",""
"memory-trial","268","540666","0.0-18.0-1.111","6378","approach_avoid_sv1","""event"",""trial"",""time""
""fullscreenenter"",""1"",""6330""
","
","
","""event"",""trial"",""time""
""fullscreenenter"",""1"",""6330""
","
","","","","","","1345.7000000001863","images/chair7.png","","","memory_trial","1","definitely_old",""
"html-keyboard-response","269","541171","0.0-18.0-0.112","6378","approach_avoid_sv1","""event"",""trial"",""time""
""fullscreenenter"",""1"",""6330""
","
","
","""event"",""trial"",""time""
""fullscreenenter"",""1"",""6330""
","
","","","","","","null","<div style=""font-size:60px;"">+</div>","null","","fixation","","",""
"memory-trial","270","543006","0.0-18.0-1.112","6378","approach_avoid_sv1","""event"",""trial"",""time""
""fullscreenenter"",""1"",""6330""
","
","
","""event"",""trial"",""time""
""fullscreenenter"",""1"",""6330""
","
","","","","","","821.8999999994412","images/horse8.png","","","memory_trial","1","definitely_old",""
"html-keyboard-response","271","543517","0.0-18.0-0.113","6378","approach_avoid_sv1","""event"",""trial"",""time""
""fullscreenenter"",""1"",""6330""
","
","
","""event"",""trial"",""time""
""fullscreenenter"",""1"",""6330""
","
","","","","","","null","<div style=""font-size:60px;"">+</div>","null","","fixation","","",""
"memory-trial","272","545276","0.0-18.0-1.113","6378","approach_avoid_sv1","""event"",""trial"",""time""
""fullscreenenter"",""1"",""6330""
","
","
","""event"",""trial"",""time""
""fullscreenenter"",""1"",""6330""
","
","","","","","","751.8999999994412","images/bed8.png","","","memory_trial","1","definitely_old",""
"html-keyboard-response","273","545781","0.0-18.0-0.114","6378","approach_avoid_sv1","""event"",""trial"",""time""
""fullscreenenter"",""1"",""6330""
","
","
","""event"",""trial"",""time""
""fullscreenenter"",""1"",""6330""
","
","","","","","","null","<div style=""font-size:60px;"">+</div>","null","","fixation","","",""
"memory-trial","274","547795","0.0-18.0-1.114","6378","approach_avoid_sv1","""event"",""trial"",""time""
""fullscreenenter"",""1"",""6330""
","
","
","""event"",""trial"",""time""
""fullscreenenter"",""1"",""6330""
","
","","","","","","1008.7000000001863","images/chair5.png","","","memory_trial","4","definitely_new",""
"html-keyboard-response","275","548300","0.0-18.0-0.115","6378","approach_avoid_sv1","""event"",""trial"",""time""
""fullscreenenter"",""1"",""6330""
","
","
","""event"",""trial"",""time""
""fullscreenenter"",""1"",""6330""
","
","","","","","","null","<div style=""font-size:60px;"">+</div>","null","","fixation","","",""
"memory-trial","276","550146","0.0-18.0-1.115","6378","approach_avoid_sv1","""event"",""trial"",""time""
""fullscreenenter"",""1"",""6330""
","
","
","""event"",""trial"",""time""
""fullscreenenter"",""1"",""6330""
","
","","","","","","838.9000000003725","images/dog8.png","","","memory_trial","1","definitely_old",""
"html-keyboard-response","277","550651","0.0-18.0-0.116","6378","approach_avoid_sv1","""event"",""trial"",""time""
""fullscreenenter"",""1"",""6330""
","
","
","""event"",""trial"",""time""
""fullscreenenter"",""1"",""6330""
","
","","","","","","null","<div style=""font-size:60px;"">+</div>","null","","fixation","","",""
"memory-trial","278","553879","0.0-18.0-1.116","6378","approach_avoid_sv1","""event"",""trial"",""time""
""fullscreenenter"",""1"",""6330""
","
","
","""event"",""trial"",""time""
""fullscreenenter"",""1"",""6330""
","
","","","","","","2217.2000000001863","images/rabbit6.png","","","memory_trial","4","definitely_new",""
"html-keyboard-response","279","554390","0.0-18.0-0.117","6378","approach_avoid_sv1","""event"",""trial"",""time""
""fullscreenenter"",""1"",""6330""
","
","
","""event"",""trial"",""time""
""fullscreenenter"",""1"",""6330""
","
","","","","","","null","<div style=""font-size:60px;"">+</div>","null","","fixation","","",""
"memory-trial","280","556189","0.0-18.0-1.117","6378","approach_avoid_sv1","""event"",""trial"",""time""
""fullscreenenter"",""1"",""6330""
","
","
","""event"",""trial"",""time""
""fullscreenenter"",""1"",""6330""
","
","","","","","","790.5","images/sheep8.png","","","memory_trial","4","definitely_new",""
"html-keyboard-response","281","556694","0.0-18.0-0.118","6378","approach_avoid_sv1","""event"",""trial"",""time""
""fullscreenenter"",""1"",""6330""
","
","
","""event"",""trial"",""time""
""fullscreenenter"",""1"",""6330""
","
","","","","","","null","<div style=""font-size:60px;"">+</div>","null","","fixation","","",""
"memory-trial","282","558715","0.0-18.0-1.118","6378","approach_avoid_sv1","""event"",""trial"",""time""
""fullscreenenter"",""1"",""6330""
","
","
","""event"",""trial"",""time""
""fullscreenenter"",""1"",""6330""
","
","","","","","","1015.2000000001863","images/chair6.png","","","memory_trial","4","definitely_new",""
"html-keyboard-response","283","559220","0.0-18.0-0.119","6378","approach_avoid_sv1","""event"",""trial"",""time""
""fullscreenenter"",""1"",""6330""
","
","
","""event"",""trial"",""time""
""fullscreenenter"",""1"",""6330""
","
","","","","","","null","<div style=""font-size:60px;"">+</div>","null","","fixation","","",""
"memory-trial","284","561838","0.0-18.0-1.119","6378","approach_avoid_sv1","""event"",""trial"",""time""
""fullscreenenter"",""1"",""6330""
","
","
","""event"",""trial"",""time""
""fullscreenenter"",""1"",""6330""
","
","","","","","","1609","images/banana4.png","","","memory_trial","2","maybe_old",""
"html-keyboard-response","285","562349","0.0-18.0-0.120","6378","approach_avoid_sv1","""event"",""trial"",""time""
""fullscreenenter"",""1"",""6330""
","
","
","""event"",""trial"",""time""
""fullscreenenter"",""1"",""6330""
","
","","","","","","null","<div style=""font-size:60px;"">+</div>","null","","fixation","","",""
"memory-trial","286","564061","0.0-18.0-1.120","6378","approach_avoid_sv1","""event"",""trial"",""time""
""fullscreenenter"",""1"",""6330""
","
","
","""event"",""trial"",""time""
""fullscreenenter"",""1"",""6330""
","
","","","","","","701.0999999996275","images/plane6.png","","","memory_trial","4","definitely_new",""
"html-keyboard-response","287","564566","0.0-18.0-0.121","6378","approach_avoid_sv1","""event"",""trial"",""time""
""fullscreenenter"",""1"",""6330""
","
","
","""event"",""trial"",""time""
""fullscreenenter"",""1"",""6330""
","
","","","","","","null","<div style=""font-size:60px;"">+</div>","null","","fixation","","",""
"memory-trial","288","566534","0.0-18.0-1.121","6378","approach_avoid_sv1","""event"",""trial"",""time""
""fullscreenenter"",""1"",""6330""
","
","
","""event"",""trial"",""time""
""fullscreenenter"",""1"",""6330""
","
","","","","","","958.3999999994412","images/bush1.png","","","memory_trial","4","definitely_new",""
"html-keyboard-response","289","567045","0.0-18.0-0.122","6378","approach_avoid_sv1","""event"",""trial"",""time""
""fullscreenenter"",""1"",""6330""
","
","
","""event"",""trial"",""time""
""fullscreenenter"",""1"",""6330""
","
","","","","","","null","<div style=""font-size:60px;"">+</div>","null","","fixation","","",""
"memory-trial","290","568879","0.0-18.0-1.122","6378","approach_avoid_sv1","""event"",""trial"",""time""
""fullscreenenter"",""1"",""6330""
","
","
","""event"",""trial"",""time""
""fullscreenenter"",""1"",""6330""
","
","","","","","","825.6999999992549","images/rabbit4.png","","","memory_trial","4","definitely_new",""
"html-keyboard-response","291","569390","0.0-18.0-0.123","6378","approach_avoid_sv1","""event"",""trial"",""time""
""fullscreenenter"",""1"",""6330""
","
","
","""event"",""trial"",""time""
""fullscreenenter"",""1"",""6330""
","
","","","","","","null","<div style=""font-size:60px;"">+</div>","null","","fixation","","",""
"memory-trial","292","571915","0.0-18.0-1.123","6378","approach_avoid_sv1","""event"",""trial"",""time""
""fullscreenenter"",""1"",""6330""
","
","
","""event"",""trial"",""time""
""fullscreenenter"",""1"",""6330""
","
","","","","","","1518.2999999998137","images/horse2.png","","","memory_trial","3","maybe_new",""
"html-keyboard-response","293","572420","0.0-18.0-0.124","6378","approach_avoid_sv1","""event"",""trial"",""time""
""fullscreenenter"",""1"",""6330""
","
","
","""event"",""trial"",""time""
""fullscreenenter"",""1"",""6330""
","
","","","","","","null","<div style=""font-size:60px;"">+</div>","null","","fixation","","",""
"memory-trial","294","575551","0.0-18.0-1.124","6378","approach_avoid_sv1","""event"",""trial"",""time""
""fullscreenenter"",""1"",""6330""
","
","
","""event"",""trial"",""time""
""fullscreenenter"",""1"",""6330""
","
","","","","","","2121.399999999441","images/sofa4.png","","","memory_trial","3","maybe_new",""
"html-keyboard-response","295","576063","0.0-18.0-0.125","6378","approach_avoid_sv1","""event"",""trial"",""time""
""fullscreenenter"",""1"",""6330""
","
","
","""event"",""trial"",""time""
""fullscreenenter"",""1"",""6330""
","
","","","","","","null","<div style=""font-size:60px;"">+</div>","null","","fixation","","",""
"memory-trial","296","578231","0.0-18.0-1.125","6378","approach_avoid_sv1","""event"",""trial"",""time""
""fullscreenenter"",""1"",""6330""
","
","
","""event"",""trial"",""time""
""fullscreenenter"",""1"",""6330""
","
","","","","","","1153.800000000745","images/banana3.png","","","memory_trial","1","definitely_old",""
"html-keyboard-response","297","578742","0.0-18.0-0.126","6378","approach_avoid_sv1","""event"",""trial"",""time""
""fullscreenenter"",""1"",""6330""
","