"trial_type","trial_index","time_elapsed","internal_node_id","subject_id","task_version","interactions","blur_events","focus_events","fullscreenenter_events","fullscreenexit_events","success","timeout","failed_images","failed_audio","failed_video","rt","stimulus","response","button_pressed","task_part","key_press","answer","correct"
"pavlovia","0","2","0.0-0.0","7640","approach_avoid_sv1","""event"",""trial"",""time""
""fullscreenenter"",""1"",""6135""
","
","
","""event"",""trial"",""time""
""fullscreenenter"",""1"",""6135""
","
","","","","","","","","","","","","",""
"fullscreen","1","7109","0.0-1.0","7640","approach_avoid_sv1","""event"",""trial"",""time""
""fullscreenenter"",""1"",""6135""
","
","
","""event"",""trial"",""time""
""fullscreenenter"",""1"",""6135""
","
","true","","","","","","","","","","","",""
"preload","2","18120","0.0-2.0","7640","approach_avoid_sv1","""event"",""trial"",""time""
""fullscreenenter"",""1"",""6135""
","
","
","""event"",""trial"",""time""
""fullscreenenter"",""1"",""6135""
","
","true","false","[]","[]","[]","","","","","","","",""
"preload","3","34988","0.0-3.0","7640","approach_avoid_sv1","""event"",""trial"",""time""
""fullscreenenter"",""1"",""6135""
","
","
","""event"",""trial"",""time""
""fullscreenenter"",""1"",""6135""
","
","true","false","[]","[]","[]","","","","","","","",""
"preload","4","36012","0.0-4.0","7640","approach_avoid_sv1","""event"",""trial"",""time""
""fullscreenenter"",""1"",""6135""
","
","
","""event"",""trial"",""time""
""fullscreenenter"",""1"",""6135""
","
","true","false","[]","[]","[]","","","","","","","",""
"audio-keyboard-response","5","39876","0.0-5.0","7640","approach_avoid_sv1","""event"",""trial"",""time""
""fullscreenenter"",""1"",""6135""
","
","
","""event"",""trial"",""time""
""fullscreenenter"",""1"",""6135""
","
","","","","","","3818.6666666666724","audio/beep_loop.wav"," ","","","","",""
"audio-button-response","6","41324","0.0-6.0","7640","approach_avoid_sv1","""event"",""trial"",""time""
""fullscreenenter"",""1"",""6135""
","
","
","""event"",""trial"",""time""
""fullscreenenter"",""1"",""6135""
","
","","","","","","1451","audio/turtle.wav","3","","","","",""
"audio-button-response","7","43372","0.0-7.0","7640","approach_avoid_sv1","""event"",""trial"",""time""
""fullscreenenter"",""1"",""6135""
","
","
","""event"",""trial"",""time""
""fullscreenenter"",""1"",""6135""
","
","","","","","","1051","audio/shark.wav","2","","","","",""
"preload","8","61021","0.0-8.0","7640","approach_avoid_sv1","""event"",""trial"",""time""
""fullscreenenter"",""1"",""6135""
","
","
","""event"",""trial"",""time""
""fullscreenenter"",""1"",""6135""
","
","true","false","[]","[]","[]","","","","","","","",""
"learning-instructions","9","67188","0.0-9.0-0.0","7640","approach_avoid_sv1","""event"",""trial"",""time""
""fullscreenenter"",""1"",""6135""
","
","
","""event"",""trial"",""time""
""fullscreenenter"",""1"",""6135""
","
","","","","","","1686.9000000059605","<p> Welcome back! </p><p> Last week, you had to make choices about lots of different items.  </p>","","0","instructions","","",""
"learning-instructions","10","72860","0.0-9.0-0.1","7640","approach_avoid_sv1","""event"",""trial"",""time""
""fullscreenenter"",""1"",""6135""
","
","
","""event"",""trial"",""time""
""fullscreenenter"",""1"",""6135""
","
","","","","","","1559.5999999940395","<p> Today, we are going to ask you to try to remember all the items. </p>","","0","instructions","","",""
"learning-instructions","11","83444","0.0-9.0-0.2","7640","approach_avoid_sv1","""event"",""trial"",""time""
""fullscreenenter"",""1"",""6135""
","
","
","""event"",""trial"",""time""
""fullscreenenter"",""1"",""6135""
","
","","","","","","455.30000001192093","<p> On every trial, you will see an image. </p><p> The image may be an OLD image you saw during the games last week or it may be a NEW image that was not presented. </p>","","0","instructions","","",""
"learning-instructions","12","93140","0.0-9.0-0.3","7640","approach_avoid_sv1","""event"",""trial"",""time""
""fullscreenenter"",""1"",""6135""
","
","
","""event"",""trial"",""time""
""fullscreenenter"",""1"",""6135""
","
","","","","","","1200.0999999940395","<p> You need to select whether the image is:  </p><p>  'Definitely old', 'Maybe old', 'Maybe new', or 'Definitely new.'  </p><div class=""mem-choice-instructions-grid""><div class=""choice-option"" id=""choice-option-1"" ><img src=""images/definitely_old_1.png"" id=""choice-option-img-1"" class=""choice-option-img"" stage=""1""></div><div class=""choice-option"" id=""choice-option-2"" ><img src=""images/maybe_old_1.png"" id=""choice-option-img-2"" class=""choice-option-img"" stage=""1""></div><div class=""choice-option"" id=""choice-option-3"" ><img src=""images/maybe_new_1.png"" id=""choice-option-img-3"" class=""choice-option-img"" stage=""1""></div><div class=""choice-option"" id=""choice-option-4"" > <img src=""images/definitely_new_1.png"" id=""choice-option-img-4"" class=""choice-option-img"" stage=""1""></div></div>","","0","instructions","","",""
"learning-instructions","13","101356","0.0-9.0-0.4","7640","approach_avoid_sv1","""event"",""trial"",""time""
""fullscreenenter"",""1"",""6135""
","
","
","""event"",""trial"",""time""
""fullscreenenter"",""1"",""6135""
","
","","","","","","1705.5999999940395","<p> You should use the 1, 2, 3, and 4 keys to make your responses.  </p><div class=""mem-choice-instructions-grid""><div class=""choice-option"" id=""choice-option-1"" ><img src=""images/definitely_old.png"" id=""choice-option-img-1"" class=""choice-option-img"" stage=""1""></div><div class=""choice-option"" id=""choice-option-2"" ><img src=""images/maybe_old.png"" id=""choice-option-img-2"" class=""choice-option-img"" stage=""1""></div><div class=""choice-option"" id=""choice-option-3"" ><img src=""images/maybe_new.png"" id=""choice-option-img-3"" class=""choice-option-img"" stage=""1""></div><div class=""choice-option"" id=""choice-option-4"" > <img src=""images/definitely_new.png"" id=""choice-option-img-4"" class=""choice-option-img"" stage=""1""></div></div>","","0","instructions","","",""
"learning-instructions","14","108988","0.0-9.0-0.5","7640","approach_avoid_sv1","""event"",""trial"",""time""
""fullscreenenter"",""1"",""6135""
","
","
","""event"",""trial"",""time""
""fullscreenenter"",""1"",""6135""
","
","","","","","","1309.4000000059605","<p> You will have 10 seconds to make each response.  </p><p>  Make sure to respond before time runs out! </p>","","0","instructions","","",""
"learning-instructions","15","117076","0.0-9.0-0.6","7640","approach_avoid_sv1","""event"",""trial"",""time""
""fullscreenenter"",""1"",""6135""
","
","
","""event"",""trial"",""time""
""fullscreenenter"",""1"",""6135""
","
","","","","","","996.1999999880791","<p> Today, you will see each image ONCE only.  </p><p>  That means none of the images will repeat. </p>","","0","instructions","","",""
"learning-instructions","16","130485","0.0-9.0-0.7","7640","approach_avoid_sv1","""event"",""trial"",""time""
""fullscreenenter"",""1"",""6135""
","
","
","""event"",""trial"",""time""
""fullscreenenter"",""1"",""6135""
","
","","","","","","744.2000000029802","<p> Before you play the real game, it is time to practice. </p><p>  Just like in the real game, some of the images in the practice will be ones you have seen before. </p><p>  Others will be entirely new. </p>","","0","instructions","","",""
"html-button-response","17","132300","0.0-10.0","7640","approach_avoid_sv1","""event"",""trial"",""time""
""fullscreenenter"",""1"",""6135""
","
","
","""event"",""trial"",""time""
""fullscreenenter"",""1"",""6135""
","
","","","","","","1711.7999999970198","<p> Ready to practice? </p><p> Remember, use the 1, 2, 3, and 4 keys to make your responses. </p>","0","","instructions","","",""
"html-keyboard-response","18","132909","0.0-11.0-0.0","7640","approach_avoid_sv1","""event"",""trial"",""time""
""fullscreenenter"",""1"",""6135""
","
","
","""event"",""trial"",""time""
""fullscreenenter"",""1"",""6135""
","
","","","","","","null","<div style=""font-size:60px;"">+</div>","null","","fixation","","",""
"memory-trial","19","135750","0.0-11.0-1.0","7640","approach_avoid_sv1","""event"",""trial"",""time""
""fullscreenenter"",""1"",""6135""
","
","
","""event"",""trial"",""time""
""fullscreenenter"",""1"",""6135""
","
","","","","","","1831.2000000029802","images/ball1.png","","","practice","1","definitely_old",""
"html-keyboard-response","20","136257","0.0-11.0-0.1","7640","approach_avoid_sv1","""event"",""trial"",""time""
""fullscreenenter"",""1"",""6135""
","
","
","""event"",""trial"",""time""
""fullscreenenter"",""1"",""6135""
","
","","","","","","null","<div style=""font-size:60px;"">+</div>","null","","fixation","","",""
"memory-trial","21","139537","0.0-11.0-1.1","7640","approach_avoid_sv1","""event"",""trial"",""time""
""fullscreenenter"",""1"",""6135""
","
","
","""event"",""trial"",""time""
""fullscreenenter"",""1"",""6135""
","
","","","","","","2259.199999988079","images/racket5.png","","","practice","2","maybe_old",""
"html-keyboard-response","22","140039","0.0-11.0-0.2","7640","approach_avoid_sv1","""event"",""trial"",""time""
""fullscreenenter"",""1"",""6135""
","
","
","""event"",""trial"",""time""
""fullscreenenter"",""1"",""6135""
","
","","","","","","null","<div style=""font-size:60px;"">+</div>","null","","fixation","","",""
"memory-trial","23","142837","0.0-11.0-1.2","7640","approach_avoid_sv1","""event"",""trial"",""time""
""fullscreenenter"",""1"",""6135""
","
","
","""event"",""trial"",""time""
""fullscreenenter"",""1"",""6135""
","
","","","","","","1787.7999999970198","images/ball5.png","","","practice","2","maybe_old",""
"html-keyboard-response","24","143357","0.0-11.0-0.3","7640","approach_avoid_sv1","""event"",""trial"",""time""
""fullscreenenter"",""1"",""6135""
","
","
","""event"",""trial"",""time""
""fullscreenenter"",""1"",""6135""
","
","","","","","","null","<div style=""font-size:60px;"">+</div>","null","","fixation","","",""
"memory-trial","25","145758","0.0-11.0-1.3","7640","approach_avoid_sv1","""event"",""trial"",""time""
""fullscreenenter"",""1"",""6135""
","
","
","""event"",""trial"",""time""
""fullscreenenter"",""1"",""6135""
","
","","","","","","1397.3999999910593","images/ball2.png","","","practice","3","maybe_new",""
"html-keyboard-response","26","146277","0.0-11.0-0.4","7640","approach_avoid_sv1","""event"",""trial"",""time""
""fullscreenenter"",""1"",""6135""
","
","
","""event"",""trial"",""time""
""fullscreenenter"",""1"",""6135""
","
","","","","","","null","<div style=""font-size:60px;"">+</div>","null","","fixation","","",""
"memory-trial","27","149087","0.0-11.0-1.4","7640","approach_avoid_sv1","""event"",""trial"",""time""
""fullscreenenter"",""1"",""6135""
","
","
","""event"",""trial"",""time""
""fullscreenenter"",""1"",""6135""
","
","","","","","","1806","images/racket2.png","","","practice","3","maybe_new",""
"html-keyboard-response","28","149607","0.0-11.0-0.5","7640","approach_avoid_sv1","""event"",""trial"",""time""
""fullscreenenter"",""1"",""6135""
","
","
","""event"",""trial"",""time""
""fullscreenenter"",""1"",""6135""
","
","","","","","","null","<div style=""font-size:60px;"">+</div>","null","","fixation","","",""
"memory-trial","29","152471","0.0-11.0-1.5","7640","approach_avoid_sv1","""event"",""trial"",""time""
""fullscreenenter"",""1"",""6135""
","
","
","""event"",""trial"",""time""
""fullscreenenter"",""1"",""6135""
","
","","","","","","1851.2000000029802","images/racket1.png","","","practice","2","maybe_old",""
"html-keyboard-response","30","152981","0.0-11.0-0.6","7640","approach_avoid_sv1","""event"",""trial"",""time""
""fullscreenenter"",""1"",""6135""
","
","
","""event"",""trial"",""time""
""fullscreenenter"",""1"",""6135""
","
","","","","","","null","<div style=""font-size:60px;"">+</div>","null","","fixation","","",""
"memory-trial","31","155837","0.0-11.0-1.6","7640","approach_avoid_sv1","""event"",""trial"",""time""
""fullscreenenter"",""1"",""6135""
","
","
","""event"",""trial"",""time""
""fullscreenenter"",""1"",""6135""
","
","","","","","","1839.7000000029802","images/ball3.png","","","practice","3","maybe_new",""
"html-keyboard-response","32","156349","0.0-11.0-0.7","7640","approach_avoid_sv1","""event"",""trial"",""time""
""fullscreenenter"",""1"",""6135""
","
","
","""event"",""trial"",""time""
""fullscreenenter"",""1"",""6135""
","
","","","","","","null","<div style=""font-size:60px;"">+</div>","null","","fixation","","",""
"memory-trial","33","158997","0.0-11.0-1.7","7640","approach_avoid_sv1","""event"",""trial"",""time""
""fullscreenenter"",""1"",""6135""
","
","
","""event"",""trial"",""time""
""fullscreenenter"",""1"",""6135""
","
","","","","","","1637.7000000029802","images/racket3.png","","","practice","2","maybe_old",""
"learning-instructions","34","167149","0.0-12.0-0.0","7640","approach_avoid_sv1","""event"",""trial"",""time""
""fullscreenenter"",""1"",""6135""
","
","
","""event"",""trial"",""time""
""fullscreenenter"",""1"",""6135""
","
","","","","","","847.7999999970198","<p> Great! You have completed the practice. </p><p> Before you start, we're going to ask you a few questions about how the game works.  </p>","","0","instructions","","",""
"preload","35","182883","0.0-13.0","7640","approach_avoid_sv1","""event"",""trial"",""time""
""fullscreenenter"",""1"",""6135""
","
","
","""event"",""trial"",""time""
""fullscreenenter"",""1"",""6135""
","
","true","false","[]","[]","[]","","","","","","","",""
"comp-q","36","189396","0.0-14.0-0.0","7640","approach_avoid_sv1","""event"",""trial"",""time""
""fullscreenenter"",""1"",""6135""
","
","
","""event"",""trial"",""time""
""fullscreenenter"",""1"",""6135""
","
","","","","","","685.8000000119209","<p> <b> True or False? </b> </p><p> In this game, you will only see each image once. </p>","","0","comp_question","","","true"
"comp-q","37","197757","0.0-14.0-1.0","7640","approach_avoid_sv1","""event"",""trial"",""time""
""fullscreenenter"",""1"",""6135""
","
","
","""event"",""trial"",""time""
""fullscreenenter"",""1"",""6135""
","
","","","","","","2017.2000000029802","<p> <b> That's right! </b> You will see many different images <i> one time each </i> in this game. </p>","","0","comp_answer","","",""
"comp-q","38","203572","0.0-15.0-0.0","7640","approach_avoid_sv1","""event"",""trial"",""time""
""fullscreenenter"",""1"",""6135""
","
","
","""event"",""trial"",""time""
""fullscreenenter"",""1"",""6135""
","
","","","","","","801.8999999910593","<p> <b> True or False? </b> </p><p> You should use the mouse and click to make your response. </p>","","1","comp_question","","","true"
"comp-q","39","215380","0.0-15.0-1.0","7640","approach_avoid_sv1","""event"",""trial"",""time""
""fullscreenenter"",""1"",""6135""
","
","
","""event"",""trial"",""time""
""fullscreenenter"",""1"",""6135""
","
","","","","","","5309.899999991059","<p><b> That's right! </b> You should use the '1', '2', '3', and '4' keys to make your response. </p>","","0","comp_answer","","",""
"comp-q","40","222028","0.0-16.0-0.0","7640","approach_avoid_sv1","""event"",""trial"",""time""
""fullscreenenter"",""1"",""6135""
","
","
","""event"",""trial"",""time""
""fullscreenenter"",""1"",""6135""
","
","","","","","","968.7000000029802","<p> <b> True or False? </b> </p><p> You will have as much time as you want to make each choice. </p>","","1","comp_question","","","true"
"comp-q","41","231612","0.0-16.0-1.0","7640","approach_avoid_sv1","""event"",""trial"",""time""
""fullscreenenter"",""1"",""6135""
","
","
","""event"",""trial"",""time""
""fullscreenenter"",""1"",""6135""
","
","","","","","","4872.600000008941","<p> <b> That's right! </b> You will only have 10 seconds to make each choice. </p>","","0","comp_answer","","",""
"learning-instructions","42","241844","0.0-17.0","7640","approach_avoid_sv1","""event"",""trial"",""time""
""fullscreenenter"",""1"",""6135""
","
","
","""event"",""trial"",""time""
""fullscreenenter"",""1"",""6135""
","
","","","","","","1553.5999999940395","<p> Great! You are now ready to begin the game. </p><p> Remember, use the 1, 2, 3, and 4 keys to make your responses. </p>","","0","instructions","","",""
"html-keyboard-response","43","242467","0.0-18.0-0.0","7640","approach_avoid_sv1","""event"",""trial"",""time""
""fullscreenenter"",""1"",""6135""
","
","
","""event"",""trial"",""time""
""fullscreenenter"",""1"",""6135""
","
","","","","","","null","<div style=""font-size:60px;"">+</div>","null","","fixation","","",""
"memory-trial","44","244987","0.0-18.0-1.0","7640","approach_avoid_sv1","""event"",""trial"",""time""
""fullscreenenter"",""1"",""6135""
","
","
","""event"",""trial"",""time""
""fullscreenenter"",""1"",""6135""
","
","","","","","","1503.5","images/table1.png","","","memory_trial","3","maybe_new",""
"html-keyboard-response","45","245497","0.0-18.0-0.1","7640","approach_avoid_sv1","""event"",""trial"",""time""
""fullscreenenter"",""1"",""6135""
","
","
","""event"",""trial"",""time""
""fullscreenenter"",""1"",""6135""
","
","","","","","","null","<div style=""font-size:60px;"">+</div>","null","","fixation","","",""
"memory-trial","46","248498","0.0-18.0-1.1","7640","approach_avoid_sv1","""event"",""trial"",""time""
""fullscreenenter"",""1"",""6135""
","
","
","""event"",""trial"",""time""
""fullscreenenter"",""1"",""6135""
","
","","","","","","1978.0999999940395","images/apple1.png","","","memory_trial","3","maybe_new",""
"html-keyboard-response","47","249017","0.0-18.0-0.2","7640","approach_avoid_sv1","""event"",""trial"",""time""
""fullscreenenter"",""1"",""6135""
","
","
","""event"",""trial"",""time""
""fullscreenenter"",""1"",""6135""
","
","","","","","","null","<div style=""font-size:60px;"">+</div>","null","","fixation","","",""
"memory-trial","48","251697","0.0-18.0-1.2","7640","approach_avoid_sv1","""event"",""trial"",""time""
""fullscreenenter"",""1"",""6135""
","
","
","""event"",""trial"",""time""
""fullscreenenter"",""1"",""6135""
","
","","","","","","1658.6000000089407","images/sofa5.png","","","memory_trial","2","maybe_old",""
"html-keyboard-response","49","252207","0.0-18.0-0.3","7640","approach_avoid_sv1","""event"",""trial"",""time""
""fullscreenenter"",""1"",""6135""
","
","
","""event"",""trial"",""time""
""fullscreenenter"",""1"",""6135""
","
","","","","","","null","<div style=""font-size:60px;"">+</div>","null","","fixation","","",""
"memory-trial","50","255468","0.0-18.0-1.3","7640","approach_avoid_sv1","""event"",""trial"",""time""
""fullscreenenter"",""1"",""6135""
","
","
","""event"",""trial"",""time""
""fullscreenenter"",""1"",""6135""
","
","","","","","","2242","images/truck8.png","","","memory_trial","3","maybe_new",""
"html-keyboard-response","51","255987","0.0-18.0-0.4","7640","approach_avoid_sv1","""event"",""trial"",""time""
""fullscreenenter"",""1"",""6135""
","
","
","""event"",""trial"",""time""
""fullscreenenter"",""1"",""6135""
","
","","","","","","null","<div style=""font-size:60px;"">+</div>","null","","fixation","","",""
"memory-trial","52","258817","0.0-18.0-1.4","7640","approach_avoid_sv1","""event"",""trial"",""time""
""fullscreenenter"",""1"",""6135""
","
","
","""event"",""trial"",""time""
""fullscreenenter"",""1"",""6135""
","
","","","","","","1807.4000000059605","images/rodent7.png","","","memory_trial","1","definitely_old",""
"html-keyboard-response","53","259327","0.0-18.0-0.5","7640","approach_avoid_sv1","""event"",""trial"",""time""
""fullscreenenter"",""1"",""6135""
","
","
","""event"",""trial"",""time""
""fullscreenenter"",""1"",""6135""
","
","","","","","","null","<div style=""font-size:60px;"">+</div>","null","","fixation","","",""
"memory-trial","54","262297","0.0-18.0-1.5","7640","approach_avoid_sv1","""event"",""trial"",""time""
""fullscreenenter"",""1"",""6135""
","
","
","""event"",""trial"",""time""
""fullscreenenter"",""1"",""6135""
","
","","","","","","1955.3999999910593","images/rabbit2.png","","","memory_trial","4","definitely_new",""
"html-keyboard-response","55","262817","0.0-18.0-0.6","7640","approach_avoid_sv1","""event"",""trial"",""time""
""fullscreenenter"",""1"",""6135""
","
","
","""event"",""trial"",""time""
""fullscreenenter"",""1"",""6135""
","
","","","","","","null","<div style=""font-size:60px;"">+</div>","null","","fixation","","",""
"memory-trial","56","267168","0.0-18.0-1.6","7640","approach_avoid_sv1","""event"",""trial"",""time""
""fullscreenenter"",""1"",""6135""
","
","
","""event"",""trial"",""time""
""fullscreenenter"",""1"",""6135""
","
","","","","","","3329.5","images/horse6.png","","","memory_trial","2","maybe_old",""
"html-keyboard-response","57","267687","0.0-18.0-0.7","7640","approach_avoid_sv1","""event"",""trial"",""time""
""fullscreenenter"",""1"",""6135""
","
","
","""event"",""trial"",""time""
""fullscreenenter"",""1"",""6135""
","
","","","","","","null","<div style=""font-size:60px;"">+</div>","null","","fixation","","",""
"memory-trial","58","270370","0.0-18.0-1.7","7640","approach_avoid_sv1","""event"",""trial"",""time""
""fullscreenenter"",""1"",""6135""
","
","
","""event"",""trial"",""time""
""fullscreenenter"",""1"",""6135""
","
","","","","","","1675.1000000089407","images/orange5.png","","","memory_trial","4","definitely_new",""
"html-keyboard-response","59","270872","0.0-18.0-0.8","7640","approach_avoid_sv1","""event"",""trial"",""time""
""fullscreenenter"",""1"",""6135""
","
","
","""event"",""trial"",""time""
""fullscreenenter"",""1"",""6135""
","
","","","","","","null","<div style=""font-size:60px;"">+</div>","null","","fixation","","",""
"memory-trial","60","275071","0.0-18.0-1.8","7640","approach_avoid_sv1","""event"",""trial"",""time""
""fullscreenenter"",""1"",""6135""
","
","
","""event"",""trial"",""time""
""fullscreenenter"",""1"",""6135""
","
","","","","","","3196.7000000029802","images/boat4.png","","","memory_trial","3","maybe_new",""
"html-keyboard-response","61","275573","0.0-18.0-0.9","7640","approach_avoid_sv1","""event"",""trial"",""time""
""fullscreenenter"",""1"",""6135""
","
","
","""event"",""trial"",""time""
""fullscreenenter"",""1"",""6135""
","
","","","","","","null","<div style=""font-size:60px;"">+</div>","null","","fixation","","",""
"memory-trial","62","278365","0.0-18.0-1.9","7640","approach_avoid_sv1","""event"",""trial"",""time""
""fullscreenenter"",""1"",""6135""
","
","
","""event"",""trial"",""time""
""fullscreenenter"",""1"",""6135""
","
","","","","","","1789.2000000029802","images/tree2.png","","","memory_trial","3","maybe_new",""
"html-keyboard-response","63","278867","0.0-18.0-0.10","7640","approach_avoid_sv1","""event"",""trial"",""time""
""fullscreenenter"",""1"",""6135""
","
","
","""event"",""trial"",""time""
""fullscreenenter"",""1"",""6135""
","
","","","","","","null","<div style=""font-size:60px;"">+</div>","null","","fixation","","",""
"memory-trial","64","281965","0.0-18.0-1.10","7640","approach_avoid_sv1","""event"",""trial"",""time""
""fullscreenenter"",""1"",""6135""
","
","
","""event"",""trial"",""time""
""fullscreenenter"",""1"",""6135""
","
","","","","","","2095","images/table8.png","","","memory_trial","4","definitely_new",""
"html-keyboard-response","65","282467","0.0-18.0-0.11","7640","approach_avoid_sv1","""event"",""trial"",""time""
""fullscreenenter"",""1"",""6135""
","
","
","""event"",""trial"",""time""
""fullscreenenter"",""1"",""6135""
","
","","","","","","null","<div style=""font-size:60px;"">+</div>","null","","fixation","","",""
"memory-trial","66","285053","0.0-18.0-1.11","7640","approach_avoid_sv1","""event"",""trial"",""time""
""fullscreenenter"",""1"",""6135""
","
","
","""event"",""trial"",""time""
""fullscreenenter"",""1"",""6135""
","
","","","","","","1584.6000000089407","images/flower3.png","","","memory_trial","4","definitely_new",""
"html-keyboard-response","67","285554","0.0-18.0-0.12","7640","approach_avoid_sv1","""event"",""trial"",""time""
""fullscreenenter"",""1"",""6135""
","
","
","""event"",""trial"",""time""
""fullscreenenter"",""1"",""6135""
","
","","","","","","null","<div style=""font-size:60px;"">+</div>","null","","fixation","","",""
"memory-trial","68","288286","0.0-18.0-1.12","7640","approach_avoid_sv1","""event"",""trial"",""time""
""fullscreenenter"",""1"",""6135""
","
","
","""event"",""trial"",""time""
""fullscreenenter"",""1"",""6135""
","
","","","","","","1729.5","images/horse2.png","","","memory_trial","4","definitely_new",""
"html-keyboard-response","69","288788","0.0-18.0-0.13","7640","approach_avoid_sv1","""event"",""trial"",""time""
""fullscreenenter"",""1"",""6135""
","
","
","""event"",""trial"",""time""
""fullscreenenter"",""1"",""6135""
","
","","","","","","null","<div style=""font-size:60px;"">+</div>","null","","fixation","","",""
"memory-trial","70","291630","0.0-18.0-1.13","7640","approach_avoid_sv1","""event"",""trial"",""time""
""fullscreenenter"",""1"",""6135""
","
","
","""event"",""trial"",""time""
""fullscreenenter"",""1"",""6135""
","
","","","","","","1838.3999999910593","images/orange6.png","","","memory_trial","4","definitely_new",""
"html-keyboard-response","71","292131","0.0-18.0-0.14","7640","approach_avoid_sv1","""event"",""trial"",""time""
""fullscreenenter"",""1"",""6135""
","
","
","""event"",""trial"",""time""
""fullscreenenter"",""1"",""6135""
","
","","","","","","null","<div style=""font-size:60px;"">+</div>","null","","fixation","","",""
"memory-trial","72","294876","0.0-18.0-1.14","7640","approach_avoid_sv1","""event"",""trial"",""time""
""fullscreenenter"",""1"",""6135""
","
","
","""event"",""trial"",""time""
""fullscreenenter"",""1"",""6135""
","
","","","","","","1742.7000000029802","images/bush8.png","","","memory_trial","1","definitely_old",""
"html-keyboard-response","73","295377","0.0-18.0-0.15","7640","approach_avoid_sv1","""event"",""trial"",""time""
""fullscreenenter"",""1"",""6135""
","
","
","""event"",""trial"",""time""
""fullscreenenter"",""1"",""6135""
","
","","","","","","null","<div style=""font-size:60px;"">+</div>","null","","fixation","","",""
"memory-trial","74","298494","0.0-18.0-1.15","7640","approach_avoid_sv1","""event"",""trial"",""time""
""fullscreenenter"",""1"",""6135""
","
","
","""event"",""trial"",""time""
""fullscreenenter"",""1"",""6135""
","
","","","","","","2114.1000000089407","images/rabbit1.png","","","memory_trial","4","definitely_new",""
"html-keyboard-response","75","298996","0.0-18.0-0.16","7640","approach_avoid_sv1","""event"",""trial"",""time""
""fullscreenenter"",""1"",""6135""
","
","
","""event"",""trial"",""time""
""fullscreenenter"",""1"",""6135""
","
","","","","","","null","<div style=""font-size:60px;"">+</div>","null","","fixation","","",""
"memory-trial","76","301549","0.0-18.0-1.16","7640","approach_avoid_sv1","""event"",""trial"",""time""
""fullscreenenter"",""1"",""6135""
","
","
","""event"",""trial"",""time""
""fullscreenenter"",""1"",""6135""
","
","","","","","","1550.699999988079","images/cow2.png","","","memory_trial","4","definitely_new",""
"html-keyboard-response","77","302051","0.0-18.0-0.17","7640","approach_avoid_sv1","""event"",""trial"",""time""
""fullscreenenter"",""1"",""6135""
","
","
","""event"",""trial"",""time""
""fullscreenenter"",""1"",""6135""
","
","","","","","","null","<div style=""font-size:60px;"">+</div>","null","","fixation","","",""
"memory-trial","78","305517","0.0-18.0-1.17","7640","approach_avoid_sv1","""event"",""trial"",""time""
""fullscreenenter"",""1"",""6135""
","
","
","""event"",""trial"",""time""
""fullscreenenter"",""1"",""6135""
","
","","","","","","2464.2000000029802","images/plane6.png","","","memory_trial","2","maybe_old",""
"html-keyboard-response","79","306018","0.0-18.0-0.18","7640","approach_avoid_sv1","""event"",""trial"",""time""
""fullscreenenter"",""1"",""6135""
","
","
","""event"",""trial"",""time""
""fullscreenenter"",""1"",""6135""
","
","","","","","","null","<div style=""font-size:60px;"">+</div>","null","","fixation","","",""
"memory-trial","80","309808","0.0-18.0-1.18","7640","approach_avoid_sv1","""event"",""trial"",""time""
""fullscreenenter"",""1"",""6135""
","
","
","""event"",""trial"",""time""
""fullscreenenter"",""1"",""6135""
","
","","","","","","2785.2999999970198","images/dog7.png","","","memory_trial","1","definitely_old",""
"html-keyboard-response","81","310309","0.0-18.0-0.19","7640","approach_avoid_sv1","""event"",""trial"",""time""
""fullscreenenter"",""1"",""6135""
","
","
","""event"",""trial"",""time""
""fullscreenenter"",""1"",""6135""
","
","","","","","","null","<div style=""font-size:60px;"">+</div>","null","","fixation","","",""
"memory-trial","82","312989","0.0-18.0-1.19","7640","approach_avoid_sv1","""event"",""trial"",""time""
""fullscreenenter"",""1"",""6135""
","
","
","""event"",""trial"",""time""
""fullscreenenter"",""1"",""6135""
","
","","","","","","1676.6000000089407","images/sheep1.png","","","memory_trial","1","definitely_old",""
"html-keyboard-response","83","313492","0.0-18.0-0.20","7640","approach_avoid_sv1","""event"",""trial"",""time""
""fullscreenenter"",""1"",""6135""
","
","
","""event"",""trial"",""time""
""fullscreenenter"",""1"",""6135""
","
","","","","","","null","<div style=""font-size:60px;"">+</div>","null","","fixation","","",""
"memory-trial","84","316302","0.0-18.0-1.20","7640","approach_avoid_sv1","""event"",""trial"",""time""
""fullscreenenter"",""1"",""6135""
","
","
","""event"",""trial"",""time""
""fullscreenenter"",""1"",""6135""
","
","","","","","","1806.2999999970198","images/boat8.png","","","memory_trial","1","definitely_old",""
"html-keyboard-response","85","316803","0.0-18.0-0.21","7640","approach_avoid_sv1","""event"",""trial"",""time""
""fullscreenenter"",""1"",""6135""
","
","
","""event"",""trial"",""time""
""fullscreenenter"",""1"",""6135""
","
","","","","","","null","<div style=""font-size:60px;"">+</div>","null","","fixation","","",""
"memory-trial","86","319582","0.0-18.0-1.21","7640","approach_avoid_sv1","""event"",""trial"",""time""
""fullscreenenter"",""1"",""6135""
","
","
","""event"",""trial"",""time""
""fullscreenenter"",""1"",""6135""
","
","","","","","","1775.0999999940395","images/rabbit5.png","","","memory_trial","4","definitely_new",""
"html-keyboard-response","87","320083","0.0-18.0-0.22","7640","approach_avoid_sv1","""event"",""trial"",""time""
""fullscreenenter"",""1"",""6135""
","
","
","""event"",""trial"",""time""
""fullscreenenter"",""1"",""6135""
","
","","","","","","null","<div style=""font-size:60px;"">+</div>","null","","fixation","","",""
"memory-trial","88","322287","0.0-18.0-1.22","7640","approach_avoid_sv1","""event"",""trial"",""time""
""fullscreenenter"",""1"",""6135""
","
","
","""event"",""trial"",""time""
""fullscreenenter"",""1"",""6135""
","
","","","","","","1200.7999999970198","images/orange8.png","","","memory_trial","4","definitely_new",""
"html-keyboard-response","89","322788","0.0-18.0-0.23","7640","approach_avoid_sv1","""event"",""trial"",""time""
""fullscreenenter"",""1"",""6135""
","
","
","""event"",""trial"",""time""
""fullscreenenter"",""1"",""6135""
","
","","","","","","null","<div style=""font-size:60px;"">+</div>","null","","fixation","","",""
"memory-trial","90","325710","0.0-18.0-1.23","7640","approach_avoid_sv1","""event"",""trial"",""time""
""fullscreenenter"",""1"",""6135""
","
","
","""event"",""trial"",""time""
""fullscreenenter"",""1"",""6135""
","
","","","","","","1919.4000000059605","images/sheep7.png","","","memory_trial","3","maybe_new",""
"html-keyboard-response","91","326211","0.0-18.0-0.24","7640","approach_avoid_sv1","""event"",""trial"",""time""
""fullscreenenter"",""1"",""6135""
","
","
","""event"",""trial"",""time""
""fullscreenenter"",""1"",""6135""
","
","","","","","","null","<div style=""font-size:60px;"">+</div>","null","","fixation","","",""
"memory-trial","92","328574","0.0-18.0-1.24","7640","approach_avoid_sv1","""event"",""trial"",""time""
""fullscreenenter"",""1"",""6135""
","
","
","""event"",""trial"",""time""
""fullscreenenter"",""1"",""6135""
","
","","","","","","1360","images/goat6.png","","","memory_trial","1","definitely_old",""
"html-keyboard-response","93","329077","0.0-18.0-0.25","7640","approach_avoid_sv1","""event"",""trial"",""time""
""fullscreenenter"",""1"",""6135""
","
","
","""event"",""trial"",""time""
""fullscreenenter"",""1"",""6135""
","
","","","","","","null","<div style=""font-size:60px;"">+</div>","null","","fixation","","",""
"memory-trial","94","332125","0.0-18.0-1.25","7640","approach_avoid_sv1","""event"",""trial"",""time""
""fullscreenenter"",""1"",""6135""
","
","
","""event"",""trial"",""time""
""fullscreenenter"",""1"",""6135""
","
","","","","","","2045.0999999940395","images/bush5.png","","","memory_trial","2","maybe_old",""
"html-keyboard-response","95","332626","0.0-18.0-0.26","7640","approach_avoid_sv1","""event"",""trial"",""time""
""fullscreenenter"",""1"",""6135""
","
","
","""event"",""trial"",""time""
""fullscreenenter"",""1"",""6135""
","
","","","","","","null","<div style=""font-size:60px;"">+</div>","null","","fixation","","",""
"memory-trial","96","335311","0.0-18.0-1.26","7640","approach_avoid_sv1","""event"",""trial"",""time""
""fullscreenenter"",""1"",""6135""
","
","
","""event"",""trial"",""time""
""fullscreenenter"",""1"",""6135""
","
","","","","","","1682.5","images/cow4.png","","","memory_trial","4","definitely_new",""
"html-keyboard-response","97","335813","0.0-18.0-0.27","7640","approach_avoid_sv1","""event"",""trial"",""time""
""fullscreenenter"",""1"",""6135""
","
","
","""event"",""trial"",""time""
""fullscreenenter"",""1"",""6135""
","
","","","","","","null","<div style=""font-size:60px;"">+</div>","null","","fixation","","",""
"memory-trial","98","338173","0.0-18.0-1.27","7640","approach_avoid_sv1","""event"",""trial"",""time""
""fullscreenenter"",""1"",""6135""
","
","
","""event"",""trial"",""time""
""fullscreenenter"",""1"",""6135""
","
","","","","","","1357.1000000089407","images/table2.png","","","memory_trial","4","definitely_new",""
"html-keyboard-response","99","338674","0.0-18.0-0.28","7640","approach_avoid_sv1","""event"",""trial"",""time""
""fullscreenenter"",""1"",""6135""
","
","
","""event"",""trial"",""time""
""fullscreenenter"",""1"",""6135""
","
","","","","","","null","<div style=""font-size:60px;"">+</div>","null","","fixation","","",""
"memory-trial","100","340941","0.0-18.0-1.28","7640","approach_avoid_sv1","""event"",""trial"",""time""
""fullscreenenter"",""1"",""6135""
","
","
","""event"",""trial"",""time""
""fullscreenenter"",""1"",""6135""
","
","","","","","","1263.7000000029802","images/bed1.png","","","memory_trial","1","definitely_old",""
"html-keyboard-response","101","341443","0.0-18.0-0.29","7640","approach_avoid_sv1","""event"",""trial"",""time""
""fullscreenenter"",""1"",""6135""
","
","
","""event"",""trial"",""time""
""fullscreenenter"",""1"",""6135""
","
","","","","","","null","<div style=""font-size:60px;"">+</div>","null","","fixation","","",""
"memory-trial","102","343966","0.0-18.0-1.29","7640","approach_avoid_sv1","""event"",""trial"",""time""
""fullscreenenter"",""1"",""6135""
","
","
","""event"",""trial"",""time""
""fullscreenenter"",""1"",""6135""
","
","","","","","","1519.5","images/plane2.png","","","memory_trial","4","definitely_new",""
"html-keyboard-response","103","344474","0.0-18.0-0.30","7640","approach_avoid_sv1","""event"",""trial"",""time""
""fullscreenenter"",""1"",""6135""
","
","
","""event"",""trial"",""time""
""fullscreenenter"",""1"",""6135""
","
","","","","","","null","<div style=""font-size:60px;"">+</div>","null","","fixation","","",""
"memory-trial","104","346462","0.0-18.0-1.30","7640","approach_avoid_sv1","""event"",""trial"",""time""
""fullscreenenter"",""1"",""6135""
","
","
","""event"",""trial"",""time""
""fullscreenenter"",""1"",""6135""
","
","","","","","","986.0999999940395","images/chair4.png","","","memory_trial","4","definitely_new",""
"html-keyboard-response","105","346964","0.0-18.0-0.31","7640","approach_avoid_sv1","""event"",""trial"",""time""
""fullscreenenter"",""1"",""6135""
","
","
","""event"",""trial"",""time""
""fullscreenenter"",""1"",""6135""
","
","","","","","","null","<div style=""font-size:60px;"">+</div>","null","","fixation","","",""
"memory-trial","106","349085","0.0-18.0-1.31","7640","approach_avoid_sv1","""event"",""trial"",""time""
""fullscreenenter"",""1"",""6135""
","
","
","""event"",""trial"",""time""
""fullscreenenter"",""1"",""6135""
","
","","","","","","1118.5","images/cactus7.png","","","memory_trial","1","definitely_old",""
"html-keyboard-response","107","349587","0.0-18.0-0.32","7640","approach_avoid_sv1","""event"",""trial"",""time""
""fullscreenenter"",""1"",""6135""
","
","
","""event"",""trial"",""time""
""fullscreenenter"",""1"",""6135""
","
","","","","","","null","<div style=""font-size:60px;"">+</div>","null","","fixation","","",""
"memory-trial","108","352269","0.0-18.0-1.32","7640","approach_avoid_sv1","""event"",""trial"",""time""
""fullscreenenter"",""1"",""6135""
","
","
","""event"",""trial"",""time""
""fullscreenenter"",""1"",""6135""
","
","","","","","","1679.8999999910593","images/tree7.png","","","memory_trial","2","maybe_old",""
"html-keyboard-response","109","352771","0.0-18.0-0.33","7640","approach_avoid_sv1","""event"",""trial"",""time""
""fullscreenenter"",""1"",""6135""
","
","
","""event"",""trial"",""time""
""fullscreenenter"",""1"",""6135""
","
","","","","","","null","<div style=""font-size:60px;"">+</div>","null","","fixation","","",""
"memory-trial","110","356894","0.0-18.0-1.33","7640","approach_avoid_sv1","""event"",""trial"",""time""
""fullscreenenter"",""1"",""6135""
","
","
","""event"",""trial"",""time""
""fullscreenenter"",""1"",""6135""
","
","","","","","","3121","images/boat3.png","","","memory_trial","3","maybe_new",""
"html-keyboard-response","111","357396","0.0-18.0-0.34","7640","approach_avoid_sv1","""event"",""trial"",""time""
""fullscreenenter"",""1"",""6135""
","
","
","""event"",""trial"",""time""
""fullscreenenter"",""1"",""6135""
","
","","","","","","null","<div style=""font-size:60px;"">+</div>","null","","fixation","","",""
"memory-trial","112","359454","0.0-18.0-1.34","7640","approach_avoid_sv1","""event"",""trial"",""time""
""fullscreenenter"",""1"",""6135""
","
","
","""event"",""trial"",""time""
""fullscreenenter"",""1"",""6135""
","
","","","","","","1055.199999988079","images/cow6.png","","","memory_trial","4","definitely_new",""
"html-keyboard-response","113","359956","0.0-18.0-0.35","7640","approach_avoid_sv1","""event"",""trial"",""time""
""fullscreenenter"",""1"",""6135""
","
","
","""event"",""trial"",""time""
""fullscreenenter"",""1"",""6135""
","
","","","","","","null","<div style=""font-size:60px;"">+</div>","null","","fixation","","",""
"memory-trial","114","362398","0.0-18.0-1.35","7640","approach_avoid_sv1","""event"",""trial"",""time""
""fullscreenenter"",""1"",""6135""
","
","
","""event"",""trial"",""time""
""fullscreenenter"",""1"",""6135""
","
","","","","","","1439.7999999970198","images/rodent6.png","","","memory_trial","1","definitely_old",""
"html-keyboard-response","115","362900","0.0-18.0-0.36","7640","approach_avoid_sv1","""event"",""trial"",""time""
""fullscreenenter"",""1"",""6135""
","
","
","""event"",""trial"",""time""
""fullscreenenter"",""1"",""6135""
","
","","","","","","null","<div style=""font-size:60px;"">+</div>","null","","fixation","","",""
"memory-trial","116","365854","0.0-18.0-1.36","7640","approach_avoid_sv1","""event"",""trial"",""time""
""fullscreenenter"",""1"",""6135""
","
","
","""event"",""trial"",""time""
""fullscreenenter"",""1"",""6135""
","
","","","","","","1950.3999999910593","images/straw6.png","","","memory_trial","1","definitely_old",""
"html-keyboard-response","117","366355","0.0-18.0-0.37","7640","approach_avoid_sv1","""event"",""trial"",""time""
""fullscreenenter"",""1"",""6135""
","
","
","""event"",""trial"",""time""
""fullscreenenter"",""1"",""6135""
","
","","","","","","null","<div style=""font-size:60px;"">+</div>","null","","fixation","","",""
"memory-trial","118","368511","0.0-18.0-1.37","7640","approach_avoid_sv1","""event"",""trial"",""time""
""fullscreenenter"",""1"",""6135""
","
","
","""event"",""trial"",""time""
""fullscreenenter"",""1"",""6135""
","
","","","","","","1152.9000000059605","images/cow1.png","","","memory_trial","4","definitely_new",""
"html-keyboard-response","119","369012","0.0-18.0-0.38","7640","approach_avoid_sv1","""event"",""trial"",""time""
""fullscreenenter"",""1"",""6135""
","
","
","""event"",""trial"",""time""
""fullscreenenter"",""1"",""6135""
","
","","","","","","null","<div style=""font-size:60px;"">+</div>","null","","fixation","","",""
"memory-trial","120","371668","0.0-18.0-1.38","7640","approach_avoid_sv1","""event"",""trial"",""time""
""fullscreenenter"",""1"",""6135""
","
","
","""event"",""trial"",""time""
""fullscreenenter"",""1"",""6135""
","
","","","","","","1647.0999999940395","images/flower1.png","","","memory_trial","4","definitely_new",""
"html-keyboard-response","121","372169","0.0-18.0-0.39","7640","approach_avoid_sv1","""event"",""trial"",""time""
""fullscreenenter"",""1"",""6135""
","
","
","""event"",""trial"",""time""
""fullscreenenter"",""1"",""6135""
","
","","","","","","null","<div style=""font-size:60px;"">+</div>","null","","fixation","","",""
"memory-trial","122","374893","0.0-18.0-1.39","7640","approach_avoid_sv1","""event"",""trial"",""time""
""fullscreenenter"",""1"",""6135""
","
","
","""event"",""trial"",""time""
""fullscreenenter"",""1"",""6135""
","
","","","","","","1722.5","images/apple4.png","","","memory_trial","1","definitely_old",""
"html-keyboard-response","123","375395","0.0-18.0-0.40","7640","approach_avoid_sv1","""event"",""trial"",""time""
""fullscreenenter"",""1"",""6135""
","
","
","""event"",""trial"",""time""
""fullscreenenter"",""1"",""6135""
","
","","","","","","null","<div style=""font-size:60px;"">+</div>","null","","fixation","","",""
"memory-trial","124","378030","0.0-18.0-1.40","7640","approach_avoid_sv1","""event"",""trial"",""time""
""fullscreenenter"",""1"",""6135""
","
","
","""event"",""trial"",""time""
""fullscreenenter"",""1"",""6135""
","
","","","","","","1631.8999999910593","images/sofa2.png","","","memory_trial","1","definitely_old",""
"html-keyboard-response","125","378531","0.0-18.0-0.41","7640","approach_avoid_sv1","""event"",""trial"",""time""
""fullscreenenter"",""1"",""6135""
","
","
","""event"",""trial"",""time""
""fullscreenenter"",""1"",""6135""
","
","","","","","","null","<div style=""font-size:60px;"">+</div>","null","","fixation","","",""
"memory-trial","126","381326","0.0-18.0-1.41","7640","approach_avoid_sv1","""event"",""trial"",""time""
""fullscreenenter"",""1"",""6135""
","
","
","""event"",""trial"",""time""
""fullscreenenter"",""1"",""6135""
","
","","","","","","1792.5","images/plane3.png","","","memory_trial","3","maybe_new",""
"html-button-response","127","384452","0.0-18.0-2.41-0.41","7640","approach_avoid_sv1","""event"",""trial"",""time""
""fullscreenenter"",""1"",""6135""
","
","
","""event"",""trial"",""time""
""fullscreenenter"",""1"",""6135""
","
","","","","","","3125.7000000029802","<p> Take a break! </p><p> Click the button to continue. </p>","0","","break","","",""
"html-keyboard-response","128","384954","0.0-18.0-0.42","7640","approach_avoid_sv1","""event"",""trial"",""time""
""fullscreenenter"",""1"",""6135""
","
","
","""event"",""trial"",""time""
""fullscreenenter"",""1"",""6135""
","
","","","","","","null","<div style=""font-size:60px;"">+</div>","null","","fixation","","",""
"memory-trial","129","387598","0.0-18.0-1.42","7640","approach_avoid_sv1","""event"",""trial"",""time""
""fullscreenenter"",""1"",""6135""
","
","
","""event"",""trial"",""time""
""fullscreenenter"",""1"",""6135""
","
","","","","","","1641.7000000029802","images/rabbit7.png","","","memory_trial","4","definitely_new",""
"html-keyboard-response","130","388100","0.0-18.0-0.43","7640","approach_avoid_sv1","""event"",""trial"",""time""
""fullscreenenter"",""1"",""6135""
","
","
","""event"",""trial"",""time""
""fullscreenenter"",""1"",""6135""
","
","","","","","","null","<div style=""font-size:60px;"">+</div>","null","","fixation","","",""
"memory-trial","131","391214","0.0-18.0-1.43","7640","approach_avoid_sv1","""event"",""trial"",""time""
""fullscreenenter"",""1"",""6135""
","
","
","""event"",""trial"",""time""
""fullscreenenter"",""1"",""6135""
","
","","","","","","2111.6000000089407","images/tree6.png","","","memory_trial","3","maybe_new",""
"html-keyboard-response","132","391714","0.0-18.0-0.44","7640","approach_avoid_sv1","""event"",""trial"",""time""
""fullscreenenter"",""1"",""6135""
","
","
","""event"",""trial"",""time""
""fullscreenenter"",""1"",""6135""
","
","","","","","","null","<div style=""font-size:60px;"">+</div>","null","","fixation","","",""
"memory-trial","133","395583","0.0-18.0-1.44","7640","approach_avoid_sv1","""event"",""trial"",""time""
""fullscreenenter"",""1"",""6135""
","
","
","""event"",""trial"",""time""
""fullscreenenter"",""1"",""6135""
","
","","","","","","2866.8999999910593","images/cat7.png","","","memory_trial","3","maybe_new",""
"html-keyboard-response","134","396083","0.0-18.0-0.45","7640","approach_avoid_sv1","""event"",""trial"",""time""
""fullscreenenter"",""1"",""6135""
","
","
","""event"",""trial"",""time""
""fullscreenenter"",""1"",""6135""
","
","","","","","","null","<div style=""font-size:60px;"">+</div>","null","","fixation","","",""
"memory-trial","135","398622","0.0-18.0-1.45","7640","approach_avoid_sv1","""event"",""trial"",""time""
""fullscreenenter"",""1"",""6135""
","
","
","""event"",""trial"",""time""
""fullscreenenter"",""1"",""6135""
","
","","","","","","1535.199999988079","images/apple2.png","","","memory_trial","3","maybe_new",""
"html-keyboard-response","136","399123","0.0-18.0-0.46","7640","approach_avoid_sv1","""event"",""trial"",""time""
""fullscreenenter"",""1"",""6135""
","
","
","""event"",""trial"",""time""
""fullscreenenter"",""1"",""6135""
","
","","","","","","null","<div style=""font-size:60px;"">+</div>","null","","fixation","","",""
"memory-trial","137","401262","0.0-18.0-1.46","7640","approach_avoid_sv1","""event"",""trial"",""time""
""fullscreenenter"",""1"",""6135""
","
","
","""event"",""trial"",""time""
""fullscreenenter"",""1"",""6135""
","
","","","","","","1135.5999999940395","images/train5.png","","","memory_trial","4","definitely_new",""
"html-keyboard-response","138","401763","0.0-18.0-0.47","7640","approach_avoid_sv1","""event"",""trial"",""time""
""fullscreenenter"",""1"",""6135""
","
","
","""event"",""trial"",""time""
""fullscreenenter"",""1"",""6135""
","
","","","","","","null","<div style=""font-size:60px;"">+</div>","null","","fixation","","",""
"memory-trial","139","404957","0.0-18.0-1.47","7640","approach_avoid_sv1","""event"",""trial"",""time""
""fullscreenenter"",""1"",""6135""
","
","
","""event"",""trial"",""time""
""fullscreenenter"",""1"",""6135""
","
","","","","","","2191.5","images/chair3.png","","","memory_trial","1","definitely_old",""
"html-keyboard-response","140","405459","0.0-18.0-0.48","7640","approach_avoid_sv1","""event"",""trial"",""time""
""fullscreenenter"",""1"",""6135""
","
","
","""event"",""trial"",""time""
""fullscreenenter"",""1"",""6135""
","
","","","","","","null","<div style=""font-size:60px;"">+</div>","null","","fixation","","",""
"memory-trial","141","408255","0.0-18.0-1.48","7640","approach_avoid_sv1","""event"",""trial"",""time""
""fullscreenenter"",""1"",""6135""
","
","
","""event"",""trial"",""time""
""fullscreenenter"",""1"",""6135""
","
","","","","","","1794.2000000029802","images/straw1.png","","","memory_trial","1","definitely_old",""
"html-keyboard-response","142","408756","0.0-18.0-0.49","7640","approach_avoid_sv1","""event"",""trial"",""time""
""fullscreenenter"",""1"",""6135""
","
","
","""event"",""trial"",""time""
""fullscreenenter"",""1"",""6135""
","
","","","","","","null","<div style=""font-size:60px;"">+</div>","null","","fixation","","",""
"memory-trial","143","410590","0.0-18.0-1.49","7640","approach_avoid_sv1","""event"",""trial"",""time""
""fullscreenenter"",""1"",""6135""
","
","
","""event"",""trial"",""time""
""fullscreenenter"",""1"",""6135""
","
","","","","","","831.5","images/straw4.png","","","memory_trial","1","definitely_old",""
"html-keyboard-response","144","411091","0.0-18.0-0.50","7640","approach_avoid_sv1","""event"",""trial"",""time""
""fullscreenenter"",""1"",""6135""
","
","
","""event"",""trial"",""time""
""fullscreenenter"",""1"",""6135""
","
","","","","","","null","<div style=""font-size:60px;"">+</div>","null","","fixation","","",""
"memory-trial","145","413901","0.0-18.0-1.50","7640","approach_avoid_sv1","""event"",""trial"",""time""
""fullscreenenter"",""1"",""6135""
","
","
","""event"",""trial"",""time""
""fullscreenenter"",""1"",""6135""
","
","","","","","","1806.5","images/banana4.png","","","memory_trial","1","definitely_old",""
"html-keyboard-response","146","414402","0.0-18.0-0.51","7640","approach_avoid_sv1","""event"",""trial"",""time""
""fullscreenenter"",""1"",""6135""
","
","
","""event"",""trial"",""time""
""fullscreenenter"",""1"",""6135""
","
","","","","","","null","<div style=""font-size:60px;"">+</div>","null","","fixation","","",""
"memory-trial","147","416253","0.0-18.0-1.51","7640","approach_avoid_sv1","""event"",""trial"",""time""
""fullscreenenter"",""1"",""6135""
","
","
","""event"",""trial"",""time""
""fullscreenenter"",""1"",""6135""
","
","","","","","","849","images/straw2.png","","","memory_trial","1","definitely_old",""
"html-keyboard-response","148","416754","0.0-18.0-0.52","7640","approach_avoid_sv1","""event"",""trial"",""time""
""fullscreenenter"",""1"",""6135""
","
","
","""event"",""trial"",""time""
""fullscreenenter"",""1"",""6135""
","
","","","","","","null","<div style=""font-size:60px;"">+</div>","null","","fixation","","",""
"memory-trial","149","419167","0.0-18.0-1.52","7640","approach_avoid_sv1","""event"",""trial"",""time""
""fullscreenenter"",""1"",""6135""
","
","
","""event"",""trial"",""time""
""fullscreenenter"",""1"",""6135""
","
","","","","","","1409.7000000029802","images/boat2.png","","","memory_trial","3","maybe_new",""
"html-keyboard-response","150","419668","0.0-18.0-0.53","7640","approach_avoid_sv1","""event"",""trial"",""time""
""fullscreenenter"",""1"",""6135""
","
","
","""event"",""trial"",""time""
""fullscreenenter"",""1"",""6135""
","
","","","","","","null","<div style=""font-size:60px;"">+</div>","null","","fixation","","",""
"memory-trial","151","422270","0.0-18.0-1.53","7640","approach_avoid_sv1","""event"",""trial"",""time""
""fullscreenenter"",""1"",""6135""
","
","
","""event"",""trial"",""time""
""fullscreenenter"",""1"",""6135""
","
","","","","","","1597.9000000059605","images/cactus1.png","","","memory_trial","3","maybe_new",""
"html-keyboard-response","152","422772","0.0-18.0-0.54","7640","approach_avoid_sv1","""event"",""trial"",""time""
""fullscreenenter"",""1"",""6135""
","
","
","""event"",""trial"",""time""
""fullscreenenter"",""1"",""6135""
","
","","","","","","null","<div style=""font-size:60px;"">+</div>","null","","fixation","","",""
"memory-trial","153","425133","0.0-18.0-1.54","7640","approach_avoid_sv1","""event"",""trial"",""time""
""fullscreenenter"",""1"",""6135""
","
","
","""event"",""trial"",""time""
""fullscreenenter"",""1"",""6135""
","
","","","","","","1359.2000000029802","images/bed3.png","","","memory_trial","1","definitely_old",""
"html-keyboard-response","154","425635","0.0-18.0-0.55","7640","approach_avoid_sv1","""event"",""trial"",""time""
""fullscreenenter"",""1"",""6135""
","
","
","""event"",""trial"",""time""
""fullscreenenter"",""1"",""6135""
","
","","","","","","null","<div style=""font-size:60px;"">+</div>","null","","fixation","","",""
"memory-trial","155","429199","0.0-18.0-1.55","7640","approach_avoid_sv1","""event"",""trial"",""time""
""fullscreenenter"",""1"",""6135""
","
","
","""event"",""trial"",""time""
""fullscreenenter"",""1"",""6135""
","
","","","","","","2560.9000000059605","images/orange1.png","","","memory_trial","3","maybe_new",""
"html-keyboard-response","156","429702","0.0-18.0-0.56","7640","approach_avoid_sv1","""event"",""trial"",""time""
""fullscreenenter"",""1"",""6135""
","
","
","""event"",""trial"",""time""
""fullscreenenter"",""1"",""6135""
","
","","","","","","null","<div style=""font-size:60px;"">+</div>","null","","fixation","","",""
"memory-trial","157","432093","0.0-18.0-1.56","7640","approach_avoid_sv1","""event"",""trial"",""time""
""fullscreenenter"",""1"",""6135""
","
","
","""event"",""trial"",""time""
""fullscreenenter"",""1"",""6135""
","
","","","","","","1389.5","images/table3.png","","","memory_trial","4","definitely_new",""
"html-keyboard-response","158","432595","0.0-18.0-0.57","7640","approach_avoid_sv1","""event"",""trial"",""time""
""fullscreenenter"",""1"",""6135""
","
","
","""event"",""trial"",""time""
""fullscreenenter"",""1"",""6135""
","
","","","","","","null","<div style=""font-size:60px;"">+</div>","null","","fixation","","",""
"memory-trial","159","435982","0.0-18.0-1.57","7640","approach_avoid_sv1","""event"",""trial"",""time""
""fullscreenenter"",""1"",""6135""
","
","
","""event"",""trial"",""time""
""fullscreenenter"",""1"",""6135""
","
","","","","","","2385.199999988079","images/truck3.png","","","memory_trial","4","definitely_new",""
"html-keyboard-response","160","436483","0.0-18.0-0.58","7640","approach_avoid_sv1","""event"",""trial"",""time""
""fullscreenenter"",""1"",""6135""
","
","
","""event"",""trial"",""time""
""fullscreenenter"",""1"",""6135""
","
","","","","","","null","<div style=""font-size:60px;"">+</div>","null","","fixation","","",""
"memory-trial","161","438750","0.0-18.0-1.58","7640","approach_avoid_sv1","""event"",""trial"",""time""
""fullscreenenter"",""1"",""6135""
","
","
","""event"",""trial"",""time""
""fullscreenenter"",""1"",""6135""
","
","","","","","","1263.7999999970198","images/boat5.png","","","memory_trial","3","maybe_new",""
"html-keyboard-response","162","439251","0.0-18.0-0.59","7640","approach_avoid_sv1","""event"",""trial"",""time""
""fullscreenenter"",""1"",""6135""
","
","
","""event"",""trial"",""time""
""fullscreenenter"",""1"",""6135""
","
","","","","","","null","<div style=""font-size:60px;"">+</div>","null","","fixation","","",""
"memory-trial","163","441487","0.0-18.0-1.59","7640","approach_avoid_sv1","""event"",""trial"",""time""
""fullscreenenter"",""1"",""6135""
","
","
","""event"",""trial"",""time""
""fullscreenenter"",""1"",""6135""
","
","","","","","","1232.0999999940395","images/goat2.png","","","memory_trial","1","definitely_old",""
"html-keyboard-response","164","441988","0.0-18.0-0.60","7640","approach_avoid_sv1","""event"",""trial"",""time""
""fullscreenenter"",""1"",""6135""
","
","
","""event"",""trial"",""time""
""fullscreenenter"",""1"",""6135""
","
","","","","","","null","<div style=""font-size:60px;"">+</div>","null","","fixation","","",""
"memory-trial","165","444862","0.0-18.0-1.60","7640","approach_avoid_sv1","""event"",""trial"",""time""
""fullscreenenter"",""1"",""6135""
","
","
","""event"",""trial"",""time""
""fullscreenenter"",""1"",""6135""
","
","","","","","","1871.1000000089407","images/tree1.png","","","memory_trial","1","definitely_old",""
"html-keyboard-response","166","445364","0.0-18.0-0.61","7640","approach_avoid_sv1","""event"",""trial"",""time""
""fullscreenenter"",""1"",""6135""
","
","
","""event"",""trial"",""time""
""fullscreenenter"",""1"",""6135""
","
","","","","","","null","<div style=""font-size:60px;"">+</div>","null","","fixation","","",""
"memory-trial","167","447390","0.0-18.0-1.61","7640","approach_avoid_sv1","""event"",""trial"",""time""
""fullscreenenter"",""1"",""6135""
","
","
","""event"",""trial"",""time""
""fullscreenenter"",""1"",""6135""
","
","","","","","","1023.0999999940395","images/train3.png","","","memory_trial","4","definitely_new",""
"html-keyboard-response","168","447891","0.0-18.0-0.62","7640","approach_avoid_sv1","""event"",""trial"",""time""
""fullscreenenter"",""1"",""6135""
","
","
","""event"",""trial"",""time""
""fullscreenenter"",""1"",""6135""
","
","","","","","","null","<div style=""font-size:60px;"">+</div>","null","","fixation","","",""
"memory-trial","169","451278","0.0-18.0-1.62","7640","approach_avoid_sv1","""event"",""trial"",""time""
""fullscreenenter"",""1"",""6135""
","
","
","""event"",""trial"",""time""
""fullscreenenter"",""1"",""6135""
","
","","","","","","2384.7999999970198","images/dog3.png","","","memory_trial","2","maybe_old",""
"html-keyboard-response","170","451779","0.0-18.0-0.63","7640","approach_avoid_sv1","""event"",""trial"",""time""
""fullscreenenter"",""1"",""6135""
","
","
","""event"",""trial"",""time""
""fullscreenenter"",""1"",""6135""
","
","","","","","","null","<div style=""font-size:60px;"">+</div>","null","","fixation","","",""
"memory-trial","171","454717","0.0-18.0-1.63","7640","approach_avoid_sv1","""event"",""trial"",""time""
""fullscreenenter"",""1"",""6135""
","
","
","""event"",""trial"",""time""
""fullscreenenter"",""1"",""6135""
","
","","","","","","1935.7000000029802","images/cactus5.png","","","memory_trial","3","maybe_new",""
"html-keyboard-response","172","455219","0.0-18.0-0.64","7640","approach_avoid_sv1","""event"",""trial"",""time""
""fullscreenenter"",""1"",""6135""
","
","
","""event"",""trial"",""time""
""fullscreenenter"",""1"",""6135""
","
","","","","","","null","<div style=""font-size:60px;"">+</div>","null","","fixation","","",""
"memory-trial","173","457711","0.0-18.0-1.64","7640","approach_avoid_sv1","""event"",""trial"",""time""
""fullscreenenter"",""1"",""6135""
","
","
","""event"",""trial"",""time""
""fullscreenenter"",""1"",""6135""
","
","","","","","","1488","images/goat4.png","","","memory_trial","3","maybe_new",""
"html-keyboard-response","174","458212","0.0-18.0-0.65","7640","approach_avoid_sv1","""event"",""trial"",""time""
""fullscreenenter"",""1"",""6135""
","
","
","""event"",""trial"",""time""
""fullscreenenter"",""1"",""6135""
","
","","","","","","null","<div style=""font-size:60px;"">+</div>","null","","fixation","","",""
"memory-trial","175","460365","0.0-18.0-1.65","7640","approach_avoid_sv1","""event"",""trial"",""time""
""fullscreenenter"",""1"",""6135""
","
","
","""event"",""trial"",""time""
""fullscreenenter"",""1"",""6135""
","
","","","","","","1151.699999988079","images/dog5.png","","","memory_trial","3","maybe_new",""
"html-keyboard-response","176","460867","0.0-18.0-0.66","7640","approach_avoid_sv1","""event"",""trial"",""time""
""fullscreenenter"",""1"",""6135""
","
","
","""event"",""trial"",""time""
""fullscreenenter"",""1"",""6135""
","
","","","","","","null","<div style=""font-size:60px;"">+</div>","null","","fixation","","",""
"memory-trial","177","463822","0.0-18.0-1.66","7640","approach_avoid_sv1","""event"",""trial"",""time""
""fullscreenenter"",""1"",""6135""
","
","
","""event"",""trial"",""time""
""fullscreenenter"",""1"",""6135""
","
","","","","","","1952.5","images/tree8.png","","","memory_trial","2","maybe_old",""
"html-keyboard-response","178","464323","0.0-18.0-0.67","7640","approach_avoid_sv1","""event"",""trial"",""time""
""fullscreenenter"",""1"",""6135""
","
","
","""event"",""trial"",""time""
""fullscreenenter"",""1"",""6135""
","
","","","","","","null","<div style=""font-size:60px;"">+</div>","null","","fixation","","",""
"memory-trial","179","467919","0.0-18.0-1.67","7640","approach_avoid_sv1","""event"",""trial"",""time""
""fullscreenenter"",""1"",""6135""
","
","
","""event"",""trial"",""time""
""fullscreenenter"",""1"",""6135""
","
","","","","","","2592.5","images/table7.png","","","memory_trial","4","definitely_new",""
"html-keyboard-response","180","468420","0.0-18.0-0.68","7640","approach_avoid_sv1","""event"",""trial"",""time""
""fullscreenenter"",""1"",""6135""
","
","
","""event"",""trial"",""time""
""fullscreenenter"",""1"",""6135""
","
","","","","","","null","<div style=""font-size:60px;"">+</div>","null","","fixation","","",""
"memory-trial","181","471950","0.0-18.0-1.68","7640","approach_avoid_sv1","""event"",""trial"",""time""
""fullscreenenter"",""1"",""6135""
","
","
","""event"",""trial"",""time""
""fullscreenenter"",""1"",""6135""
","
","","","","","","2526.5999999940395","images/cat5.png","","","memory_trial","1","definitely_old",""
"html-keyboard-response","182","472451","0.0-18.0-0.69","7640","approach_avoid_sv1","""event"",""trial"",""time""
""fullscreenenter"",""1"",""6135""
","
","
","""event"",""trial"",""time""
""fullscreenenter"",""1"",""6135""
","
","","","","","","null","<div style=""font-size:60px;"">+</div>","null","","fixation","","",""
"memory-trial","183","475293","0.0-18.0-1.69","7640","approach_avoid_sv1","""event"",""trial"",""time""
""fullscreenenter"",""1"",""6135""
","
","
","""event"",""trial"",""time""
""fullscreenenter"",""1"",""6135""
","
","","","","","","1840","images/horse5.png","","","memory_trial","2","maybe_old",""
"html-keyboard-response","184","475794","0.0-18.0-0.70","7640","approach_avoid_sv1","""event"",""trial"",""time""
""fullscreenenter"",""1"",""6135""
","
","
","""event"",""trial"",""time""
""fullscreenenter"",""1"",""6135""
","
","","","","","","null","<div style=""font-size:60px;"">+</div>","null","","fixation","","",""
"memory-trial","185","479679","0.0-18.0-1.70","7640","approach_avoid_sv1","""event"",""trial"",""time""
""fullscreenenter"",""1"",""6135""
","
","
","""event"",""trial"",""time""
""fullscreenenter"",""1"",""6135""
","
","","","","","","2881.1000000089407","images/bush6.png","","","memory_trial","2","maybe_old",""
"html-keyboard-response","186","480180","0.0-18.0-0.71","7640","approach_avoid_sv1","""event"",""trial"",""time""
""fullscreenenter"",""1"",""6135""
","
","
","""event"",""trial"",""time""
""fullscreenenter"",""1"",""6135""
","
","","","","","","null","<div style=""font-size:60px;"">+</div>","null","","fixation","","",""
"memory-trial","187","483438","0.0-18.0-1.71","7640","approach_avoid_sv1","""event"",""trial"",""time""
""fullscreenenter"",""1"",""6135""
","
","
","""event"",""trial"",""time""
""fullscreenenter"",""1"",""6135""
","
","","","","","","2254.2999999970198","images/truck2.png","","","memory_trial","3","maybe_new",""
"html-keyboard-response","188","483939","0.0-18.0-0.72","7640","approach_avoid_sv1","""event"",""trial"",""time""
""fullscreenenter"",""1"",""6135""
","
","
","""event"",""trial"",""time""
""fullscreenenter"",""1"",""6135""
","
","","","","","","null","<div style=""font-size:60px;"">+</div>","null","","fixation","","",""
"memory-trial","189","486733","0.0-18.0-1.72","7640","approach_avoid_sv1","""event"",""trial"",""time""
""fullscreenenter"",""1"",""6135""
","
","
","""event"",""trial"",""time""
""fullscreenenter"",""1"",""6135""
","
","","","","","","1791.7000000029802","images/sheep2.png","","","memory_trial","3","maybe_new",""
"html-keyboard-response","190","487235","0.0-18.0-0.73","7640","approach_avoid_sv1","""event"",""trial"",""time""
""fullscreenenter"",""1"",""6135""
","
","
","""event"",""trial"",""time""
""fullscreenenter"",""1"",""6135""
","
","","","","","","null","<div style=""font-size:60px;"">+</div>","null","","fixation","","",""
"memory-trial","191","490543","0.0-18.0-1.73","7640","approach_avoid_sv1","""event"",""trial"",""time""
""fullscreenenter"",""1"",""6135""
","
","
","""event"",""trial"",""time""
""fullscreenenter"",""1"",""6135""
","
","","","","","","2304.4000000059605","images/bush3.png","","","memory_trial","3","maybe_new",""
"html-keyboard-response","192","491044","0.0-18.0-0.74","7640","approach_avoid_sv1","""event"",""trial"",""time""
""fullscreenenter"",""1"",""6135""
","
","
","""event"",""trial"",""time""
""fullscreenenter"",""1"",""6135""
","
","","","","","","null","<div style=""font-size:60px;"">+</div>","null","","fixation","","",""
"memory-trial","193","493229","0.0-18.0-1.74","7640","approach_avoid_sv1","""event"",""trial"",""time""
""fullscreenenter"",""1"",""6135""
","
","
","""event"",""trial"",""time""
""fullscreenenter"",""1"",""6135""
","
","","","","","","1182.2999999970198","images/horse1.png","","","memory_trial","1","definitely_old",""
"html-keyboard-response","194","493731","0.0-18.0-0.75","7640","approach_avoid_sv1","""event"",""trial"",""time""
""fullscreenenter"",""1"",""6135""
","
","
","""event"",""trial"",""time""
""fullscreenenter"",""1"",""6135""
","
","","","","","","null","<div style=""font-size:60px;"">+</div>","null","","fixation","","",""
"memory-trial","195","496991","0.0-18.0-1.75","7640","approach_avoid_sv1","""event"",""trial"",""time""
""fullscreenenter"",""1"",""6135""
","
","
","""event"",""trial"",""time""
""fullscreenenter"",""1"",""6135""
","
","","","","","","2255.8999999910593","images/boat7.png","","","memory_trial","2","maybe_old",""
"html-keyboard-response","196","497492","0.0-18.0-0.76","7640","approach_avoid_sv1","""event"",""trial"",""time""
""fullscreenenter"",""1"",""6135""
","
","
","""event"",""trial"",""time""
""fullscreenenter"",""1"",""6135""
","
","","","","","","null","<div style=""font-size:60px;"">+</div>","null","","fixation","","",""
"memory-trial","197","500141","0.0-18.0-1.76","7640","approach_avoid_sv1","""event"",""trial"",""time""
""fullscreenenter"",""1"",""6135""
","
","
","""event"",""trial"",""time""
""fullscreenenter"",""1"",""6135""
","
","","","","","","1646.2999999970198","images/bed8.png","","","memory_trial","3","maybe_new",""
"html-keyboard-response","198","500642","0.0-18.0-0.77","7640","approach_avoid_sv1","""event"",""trial"",""time""
""fullscreenenter"",""1"",""6135""
","
","
","""event"",""trial"",""time""
""fullscreenenter"",""1"",""6135""
","
","","","","","","null","<div style=""font-size:60px;"">+</div>","null","","fixation","","",""
"memory-trial","199","503950","0.0-18.0-1.77","7640","approach_avoid_sv1","""event"",""trial"",""time""
""fullscreenenter"",""1"",""6135""
","
","
","""event"",""trial"",""time""
""fullscreenenter"",""1"",""6135""
","
","","","","","","2305.2999999970198","images/cactus3.png","","","memory_trial","3","maybe_new",""
"html-keyboard-response","200","504451","0.0-18.0-0.78","7640","approach_avoid_sv1","""event"",""trial"",""time""
""fullscreenenter"",""1"",""6135""
","
","
","""event"",""trial"",""time""
""fullscreenenter"",""1"",""6135""
","
","","","","","","null","<div style=""font-size:60px;"">+</div>","null","","fixation","","",""
"memory-trial","201","507469","0.0-18.0-1.78","7640","approach_avoid_sv1","""event"",""trial"",""time""
""fullscreenenter"",""1"",""6135""
","
","
","""event"",""trial"",""time""
""fullscreenenter"",""1"",""6135""
","
","","","","","","2015.699999988079","images/apple5.png","","","memory_trial","3","maybe_new",""
"html-keyboard-response","202","507970","0.0-18.0-0.79","7640","approach_avoid_sv1","""event"",""trial"",""time""
""fullscreenenter"",""1"",""6135""
","
","
","""event"",""trial"",""time""
""fullscreenenter"",""1"",""6135""
","
","","","","","","null","<div style=""font-size:60px;"">+</div>","null","","fixation","","",""
"memory-trial","203","509933","0.0-18.0-1.79","7640","approach_avoid_sv1","""event"",""trial"",""time""
""fullscreenenter"",""1"",""6135""
","
","
","""event"",""trial"",""time""
""fullscreenenter"",""1"",""6135""
","
","","","","","","960.6000000089407","images/rabbit6.png","","","memory_trial","4","definitely_new",""
"html-keyboard-response","204","510436","0.0-18.0-0.80","7640","approach_avoid_sv1","""event"",""trial"",""time""
""fullscreenenter"",""1"",""6135""
","
","
","""event"",""trial"",""time""
""fullscreenenter"",""1"",""6135""
","
","","","","","","null","<div style=""font-size:60px;"">+</div>","null","","fixation","","",""
"memory-trial","205","514622","0.0-18.0-1.80","7640","approach_avoid_sv1","""event"",""trial"",""time""
""fullscreenenter"",""1"",""6135""
","
","
","""event"",""trial"",""time""
""fullscreenenter"",""1"",""6135""
","
","","","","","","3184.0999999940395","images/cat3.png","","","memory_trial","3","maybe_new",""
"html-keyboard-response","206","515124","0.0-18.0-0.81","7640","approach_avoid_sv1","""event"",""trial"",""time""
""fullscreenenter"",""1"",""6135""
","
","
","""event"",""trial"",""time""
""fullscreenenter"",""1"",""6135""
","
","","","","","","null","<div style=""font-size:60px;"">+</div>","null","","fixation","","",""
"memory-trial","207","517822","0.0-18.0-1.81","7640","approach_avoid_sv1","""event"",""trial"",""time""
""fullscreenenter"",""1"",""6135""
","
","
","""event"",""trial"",""time""
""fullscreenenter"",""1"",""6135""
","
","","","","","","1693.800000011921","images/chair5.png","","","memory_trial","3","maybe_new",""
"html-keyboard-response","208","518323","0.0-18.0-0.82","7640","approach_avoid_sv1","""event"",""trial"",""time""
""fullscreenenter"",""1"",""6135""
","
","
","""event"",""trial"",""time""
""fullscreenenter"",""1"",""6135""
","
","","","","","","null","<div style=""font-size:60px;"">+</div>","null","","fixation","","",""
"memory-trial","209","520189","0.0-18.0-1.82","7640","approach_avoid_sv1","""event"",""trial"",""time""
""fullscreenenter"",""1"",""6135""
","
","
","""event"",""trial"",""time""
""fullscreenenter"",""1"",""6135""
","
","","","","","","864","images/cow5.png","","","memory_trial","4","definitely_new",""
"html-keyboard-response","210","520691","0.0-18.0-0.83","7640","approach_avoid_sv1","""event"",""trial"",""time""
""fullscreenenter"",""1"",""6135""
","
","
","""event"",""trial"",""time""
""fullscreenenter"",""1"",""6135""
","
","","","","","","null","<div style=""font-size:60px;"">+</div>","null","","fixation","","",""
"memory-trial","211","522637","0.0-18.0-1.83","7640","approach_avoid_sv1","""event"",""trial"",""time""
""fullscreenenter"",""1"",""6135""
","
","
","""event"",""trial"",""time""
""fullscreenenter"",""1"",""6135""
","
","","","","","","943.8999999910593","images/orange7.png","","","memory_trial","4","definitely_new",""
"html-keyboard-response","212","523138","0.0-18.0-0.84","7640","approach_avoid_sv1","""event"",""trial"",""time""
""fullscreenenter"",""1"",""6135""
","
","
","""event"",""trial"",""time""
""fullscreenenter"",""1"",""6135""
","
","","","","","","null","<div style=""font-size:60px;"">+</div>","null","","fixation","","",""
"memory-trial","213","526191","0.0-18.0-1.84","7640","approach_avoid_sv1","""event"",""trial"",""time""
""fullscreenenter"",""1"",""6135""
","
","
","""event"",""trial"",""time""
""fullscreenenter"",""1"",""6135""
","
","","","","","","2049","images/bed5.png","","","memory_trial","2","maybe_old",""
"html-keyboard-response","214","526692","0.0-18.0-0.85","7640","approach_avoid_sv1","""event"",""trial"",""time""
""fullscreenenter"",""1"",""6135""
","
","
","""event"",""trial"",""time""
""fullscreenenter"",""1"",""6135""
","
","","","","","","null","<div style=""font-size:60px;"">+</div>","null","","fixation","","",""
"memory-trial","215","529213","0.0-18.0-1.85","7640","approach_avoid_sv1","""event"",""trial"",""time""
""fullscreenenter"",""1"",""6135""
","
","
","""event"",""trial"",""time""
""fullscreenenter"",""1"",""6135""
","
","","","","","","1518.7000000029802","images/bed6.png","","","memory_trial","3","maybe_new",""
"html-keyboard-response","216","529714","0.0-18.0-0.86","7640","approach_avoid_sv1","""event"",""trial"",""time""
""fullscreenenter"",""1"",""6135""
","
","
","""event"",""trial"",""time""
""fullscreenenter"",""1"",""6135""
","
","","","","","","null","<div style=""font-size:60px;"">+</div>","null","","fixation","","",""
"memory-trial","217","532510","0.0-18.0-1.86","7640","approach_avoid_sv1","""event"",""trial"",""time""
""fullscreenenter"",""1"",""6135""
","
","
","""event"",""trial"",""time""
""fullscreenenter"",""1"",""6135""
","
","","","","","","1792.5","images/goat3.png","","","memory_trial","1","definitely_old",""
"html-keyboard-response","218","533012","0.0-18.0-0.87","7640","approach_avoid_sv1","""event"",""trial"",""time""
""fullscreenenter"",""1"",""6135""
","
","
","""event"",""trial"",""time""
""fullscreenenter"",""1"",""6135""
","
","","","","","","null","<div style=""font-size:60px;"">+</div>","null","","fixation","","",""
"memory-trial","219","536671","0.0-18.0-1.87","7640","approach_avoid_sv1","""event"",""trial"",""time""
""fullscreenenter"",""1"",""6135""
","
","
","""event"",""trial"",""time""
""fullscreenenter"",""1"",""6135""
","
","","","","","","2656.5","images/table5.png","","","memory_trial","3","maybe_new",""
"html-keyboard-response","220","537173","0.0-18.0-0.88","7640","approach_avoid_sv1","""event"",""trial"",""time""
""fullscreenenter"",""1"",""6135""
","
","
","""event"",""trial"",""time""
""fullscreenenter"",""1"",""6135""
","
","","","","","","null","<div style=""font-size:60px;"">+</div>","null","","fixation","","",""
"memory-trial","221","539437","0.0-18.0-1.88","7640","approach_avoid_sv1","""event"",""trial"",""time""
""fullscreenenter"",""1"",""6135""
","
","
","""event"",""trial"",""time""
""fullscreenenter"",""1"",""6135""
","
","","","","","","1260.2999999970198","images/plane4.png","","","memory_trial","4","definitely_new",""
"html-keyboard-response","222","539939","0.0-18.0-0.89","7640","approach_avoid_sv1","""event"",""trial"",""time""
""fullscreenenter"",""1"",""6135""
","
","
","""event"",""trial"",""time""
""fullscreenenter"",""1"",""6135""
","
","","","","","","null","<div style=""font-size:60px;"">+</div>","null","","fixation","","",""
"memory-trial","223","542638","0.0-18.0-1.89","7640","approach_avoid_sv1","""event"",""trial"",""time""
""fullscreenenter"",""1"",""6135""
","
","
","""event"",""trial"",""time""
""fullscreenenter"",""1"",""6135""
","
","","","","","","1696","images/sofa8.png","","","memory_trial","3","maybe_new",""
"html-keyboard-response","224","543139","0.0-18.0-0.90","7640","approach_avoid_sv1","""event"",""trial"",""time""
""fullscreenenter"",""1"",""6135""
","
","
","""event"",""trial"",""time""
""fullscreenenter"",""1"",""6135""
","
","","","","","","null","<div style=""font-size:60px;"">+</div>","null","","fixation","","",""
"memory-trial","225","547071","0.0-18.0-1.90","7640","approach_avoid_sv1","""event"",""trial"",""time""
""fullscreenenter"",""1"",""6135""
","
","
","""event"",""trial"",""time""
""fullscreenenter"",""1"",""6135""
","
","","","","","","2928.699999988079","images/horse8.png","","","memory_trial","3","maybe_new",""
"html-keyboard-response","226","547574","0.0-18.0-0.91","7640","approach_avoid_sv1","""event"",""trial"",""time""
""fullscreenenter"",""1"",""6135""
","
","
","""event"",""trial"",""time""
""fullscreenenter"",""1"",""6135""
","
","","","","","","null","<div style=""font-size:60px;"">+</div>","null","","fixation","","",""
"memory-trial","227","552030","0.0-18.0-1.91","7640","approach_avoid_sv1","""event"",""trial"",""time""
""fullscreenenter"",""1"",""6135""
","
","
","""event"",""trial"",""time""
""fullscreenenter"",""1"",""6135""
","
","","","","","","3453.2999999970198","images/table4.png","","","memory_trial","4","definitely_new",""
"html-button-response","228","563284","0.0-18.0-2.91-0.91","7640","approach_avoid_sv1","""event"",""trial"",""time""
""fullscreenenter"",""1"",""6135""
","
","
","""event"",""trial"",""time""
""fullscreenenter"",""1"",""6135""
","
","","","","","","11252.89999999106","<p> Take a break! </p><p> Click the button to continue. </p>","0","","break","","",""
"html-keyboard-response","229","563786","0.0-18.0-0.92","7640","approach_avoid_sv1","""event"",""trial"",""time""
""fullscreenenter"",""1"",""6135""
","
","
","""event"",""trial"",""time""
""fullscreenenter"",""1"",""6135""
","
","","","","","","null","<div style=""font-size:60px;"">+</div>","null","","fixation","","",""
"memory-trial","230","566366","0.0-18.0-1.92","7640","approach_avoid_sv1","""event"",""trial"",""time""
""fullscreenenter"",""1"",""6135""
","
","
","""event"",""trial"",""time""
""fullscreenenter"",""1"",""6135""
","
","","","","","","1577.5","images/bush2.png","","","memory_trial","3","maybe_new",""
"html-keyboard-response","231","566867","0.0-18.0-0.93","7640","approach_avoid_sv1","""event"",""trial"",""time""
""fullscreenenter"",""1"",""6135""
","
","
","""event"",""trial"",""time""
""fullscreenenter"",""1"",""6135""
","
","","","","","","null","<div style=""font-size:60px;"">+</div>","null","","fixation","","",""
"memory-trial","232","569358","0.0-18.0-1.93","7640","approach_avoid_sv1","""event"",""trial"",""time""
""fullscreenenter"",""1"",""6135""
","
","
","""event"",""trial"",""time""
""fullscreenenter"",""1"",""6135""
","
","","","","","","1487.7999999970198","images/rodent5.png","","","memory_trial","2","maybe_old",""
"html-keyboard-response","233","569860","0.0-18.0-0.94","7640","approach_avoid_sv1","""event"",""trial"",""time""
""fullscreenenter"",""1"",""6135""
","
","
","""event"",""trial"",""time""
""fullscreenenter"",""1"",""6135""
","
","","","","","","null","<div style=""font-size:60px;"">+</div>","null","","fixation","","",""
"memory-trial","234","571959","0.0-18.0-1.94","7640","approach_avoid_sv1","""event"",""trial"",""time""
""fullscreenenter"",""1"",""6135""
","
","
","""event"",""trial"",""time""
""fullscreenenter"",""1"",""6135""
","
","","","","","","1085.5999999940395","images/bed2.png","","","memory_trial","2","maybe_old",""
"html-keyboard-response","235","572460","0.0-18.0-0.95","7640","approach_avoid_sv1","""event"",""trial"",""time""
""fullscreenenter"",""1"",""6135""
","
","
","""event"",""trial"",""time""
""fullscreenenter"",""1"",""6135""
","
","","","","","","null","<div style=""font-size:60px;"">+</div>","null","","fixation","","",""
"memory-trial","236","574974","0.0-18.0-1.95","7640","approach_avoid_sv1","""event"",""trial"",""time""
""fullscreenenter"",""1"",""6135""
","
","
","""event"",""trial"",""time""
""fullscreenenter"",""1"",""6135""
","
","","","","","","1512.5","images/chair8.png","","","memory_trial","2","maybe_old",""
"html-keyboard-response","237","575476","0.0-18.0-0.96","7640","approach_avoid_sv1","""event"",""trial"",""time""
""fullscreenenter"",""1"",""6135""
","
","
","""event"",""trial"",""time""
""fullscreenenter"",""1"",""6135""
","
","","","","","","null","<div style=""font-size:60px;"">+</div>","null","","fixation","","",""
"memory-trial","238","577566","0.0-18.0-1.96","7640","approach_avoid_sv1","""event"",""trial"",""time""
""fullscreenenter"",""1"",""6135""
","
","
","""event"",""trial"",""time""
""fullscreenenter"",""1"",""6135""
","
","","","","","","1087.4000000059605","images/flower7.png","","","memory_trial","4","definitely_new",""
"html-keyboard-response","239","578067","0.0-18.0-0.97","7640","approach_avoid_sv1","""event"",""trial"",""time""
""fullscreenenter"",""1"",""6135""
","
","
","""event"",""trial"",""time""
""fullscreenenter"",""1"",""6135""
","
","","","","","","null","<div style=""font-size:60px;"">+</div>","null","","fixation","","",""
"memory-trial","240","579838","0.0-18.0-1.97","7640","approach_avoid_sv1","""event"",""trial"",""time""
""fullscreenenter"",""1"",""6135""
","
","
","""event"",""trial"",""time""
""fullscreenenter"",""1"",""6135""
","
","","","","","","767.2000000029802","images/train8.png","","","memory_trial","4","definitely_new",""
"html-keyboard-response","241","580339","0.0-18.0-0.98","7640","approach_avoid_sv1","""event"",""trial"",""time""
""fullscreenenter"",""1"",""6135""
","
","
","""event"",""trial"",""time""
""fullscreenenter"",""1"",""6135""
","
","","","","","","null","<div style=""font-size:60px;"">+</div>","null","","fixation","","",""
"memory-trial","242","583102","0.0-18.0-1.98","7640","approach_avoid_sv1","""event"",""trial"",""time""
""fullscreenenter"",""1"",""6135""
","
","
","""event"",""trial"",""time""
""fullscreenenter"",""1"",""6135""
","
","","","","","","1760.1000000089407","images/sofa1.png","","","memory_trial","2","maybe_old",""
"html-keyboard-response","243","583603","0.0-18.0-0.99","7640","approach_avoid_sv1","""event"",""trial"",""time""
""fullscreenenter"",""1"",""6135""
","
","
","""event"",""trial"",""time""
""fullscreenenter"",""1"",""6135""
","
","","","","","","null","<div style=""font-size:60px;"">+</div>","null","","fixation","","",""
"memory-trial","244","585583","0.0-18.0-1.99","7640","approach_avoid_sv1","""event"",""trial"",""time""
""fullscreenenter"",""1"",""6135""
","
","
","""event"",""trial"",""time""
""fullscreenenter"",""1"",""6135""
","
","","","","","","977.0999999940395","images/cactus8.png","","","memory_trial","1","definitely_old",""
"html-keyboard-response","245","586084","0.0-18.0-0.100","7640","approach_avoid_sv1","""event"",""trial"",""time""
""fullscreenenter"",""1"",""6135""
","
","
","""event"",""trial"",""time""
""fullscreenenter"",""1"",""6135""
","
","","","","","","null","<div style=""font-size:60px;"">+</div>","null","","fixation","","",""
"memory-trial","246","588846","0.0-18.0-1.100","7640","approach_avoid_sv1","""event"",""trial"",""time""
""fullscreenenter"",""1"",""6135""
","
","
","""event"",""trial"",""time""
""fullscreenenter"",""1"",""6135""
","
","","","","","","1758.2000000029802","images/horse3.png","","","memory_trial","3","maybe_new",""
"html-keyboard-response","247","589347","0.0-18.0-0.101","7640","approach_avoid_sv1","""event"",""trial"",""time""
""fullscreenenter"",""1"",""6135""
","
","
","""event"",""trial"",""time""
""fullscreenenter"",""1"",""6135""
","
","","","","","","null","<div style=""font-size:60px;"">+</div>","null","","fixation","","",""
"memory-trial","248","591805","0.0-18.0-1.101","7640","approach_avoid_sv1","""event"",""trial"",""time""
""fullscreenenter"",""1"",""6135""
","
","
","""event"",""trial"",""time""
""fullscreenenter"",""1"",""6135""
","
","","","","","","1456.5","images/sheep3.png","","","memory_trial","4","definitely_new",""
"html-keyboard-response","249","592307","0.0-18.0-0.102","7640","approach_avoid_sv1","""event"",""trial"",""time""
""fullscreenenter"",""1"",""6135""
","
","
","""event"",""trial"",""time""
""fullscreenenter"",""1"",""6135""
","
","","","","","","null","<div style=""font-size:60px;"">+</div>","null","","fixation","","",""
"memory-trial","250","594813","0.0-18.0-1.102","7640","approach_avoid_sv1","""event"",""trial"",""time""
""fullscreenenter"",""1"",""6135""
","
","
","""event"",""trial"",""time""
""fullscreenenter"",""1"",""6135""
","
","","","","","","1504.300000011921","images/rodent1.png","","","memory_trial","1","definitely_old",""
"html-keyboard-response","251","595314","0.0-18.0-0.103","7640","approach_avoid_sv1","""event"",""trial"",""time""
""fullscreenenter"",""1"",""6135""
","
","
","""event"",""trial"",""time""
""fullscreenenter"",""1"",""6135""
","
","","","","","","null","<div style=""font-size:60px;"">+</div>","null","","fixation","","",""
"memory-trial","252","597694","0.0-18.0-1.103","7640","approach_avoid_sv1","""event"",""trial"",""time""
""fullscreenenter"",""1"",""6135""
","
","
","""event"",""trial"",""time""
""fullscreenenter"",""1"",""6135""
","
","","","","","","1378.2999999970198","images/cat1.png","","","memory_trial","3","maybe_new",""
"html-keyboard-response","253","598196","0.0-18.0-0.104","7640","approach_avoid_sv1","""event"",""trial"",""time""
""fullscreenenter"",""1"",""6135""
","
","
","""event"",""trial"",""time""
""fullscreenenter"",""1"",""6135""
","
","","","","","","null","<div style=""font-size:60px;"">+</div>","null","","fixation","","",""
"memory-trial","254","601213","0.0-18.0-1.104","7640","approach_avoid_sv1","""event"",""trial"",""time""
""fullscreenenter"",""1"",""6135""
","
","
","""event"",""trial"",""time""
""fullscreenenter"",""1"",""6135""
","
","","","","","","2015.2999999970198","images/straw5.png","","","memory_trial","3","maybe_new",""
"html-keyboard-response","255","601714","0.0-18.0-0.105","7640","approach_avoid_sv1","""event"",""trial"",""time""
""fullscreenenter"",""1"",""6135""
","
","
","""event"",""trial"",""time""
""fullscreenenter"",""1"",""6135""
","
","","","","","","null","<div style=""font-size:60px;"">+</div>","null","","fixation","","",""
"memory-trial","256","604430","0.0-18.0-1.105","7640","approach_avoid_sv1","""event"",""trial"",""time""
""fullscreenenter"",""1"",""6135""
","
","
","""event"",""trial"",""time""
""fullscreenenter"",""1"",""6135""
","
","","","","","","1712.8999999910593","images/flower5.png","","","memory_trial","4","definitely_new",""
"html-keyboard-response","257","604932","0.0-18.0-0.106","7640","approach_avoid_sv1","""event"",""trial"",""time""
""fullscreenenter"",""1"",""6135""
","
","
","""event"",""trial"",""time""
""fullscreenenter"",""1"",""6135""
","
","","","","","","null","<div style=""font-size:60px;"">+</div>","null","","fixation","","",""
"memory-trial","258","607646","0.0-18.0-1.106","7640","approach_avoid_sv1","""event"",""trial"",""time""
""fullscreenenter"",""1"",""6135""
","
","
","""event"",""trial"",""time""
""fullscreenenter"",""1"",""6135""
","
","","","","","","1710.2999999970198","images/dog4.png","","","memory_trial","3","maybe_new",""
"html-keyboard-response","259","608148","0.0-18.0-0.107","7640","approach_avoid_sv1","""event"",""trial"",""time""
""fullscreenenter"",""1"",""6135""
","
","
","""event"",""trial"",""time""
""fullscreenenter"",""1"",""6135""
","
","","","","","","null","<div style=""font-size:60px;"">+</div>","null","","fixation","","",""
"memory-trial","260","611375","0.0-18.0-1.107","7640","approach_avoid_sv1","""event"",""trial"",""time""
""fullscreenenter"",""1"",""6135""
","
","
","""event"",""trial"",""time""
""fullscreenenter"",""1"",""6135""
","
","","","","","","2223.7999999970198","images/goat5.png","","","memory_trial","3","maybe_new",""
"html-keyboard-response","261","611876","0.0-18.0-0.108","7640","approach_avoid_sv1","""event"",""trial"",""time""
""fullscreenenter"",""1"",""6135""
","
","
","""event"",""trial"",""time""
""fullscreenenter"",""1"",""6135""
","
","","","","","","null","<div style=""font-size:60px;"">+</div>","null","","fixation","","",""
"memory-trial","262","614253","0.0-18.0-1.108","7640","approach_avoid_sv1","""event"",""trial"",""time""
""fullscreenenter"",""1"",""6135""
","
","
","""event"",""trial"",""time""
""fullscreenenter"",""1"",""6135""
","
","","","","","","1373.6000000089407","images/tree3.png","","","memory_trial","3","maybe_new",""
"html-keyboard-response","263","614755","0.0-18.0-0.109","7640","approach_avoid_sv1","""event"",""trial"",""time""
""fullscreenenter"",""1"",""6135""
","
","
","""event"",""trial"",""time""
""fullscreenenter"",""1"",""6135""
","
","","","","","","null","<div style=""font-size:60px;"">+</div>","null","","fixation","","",""
"memory-trial","264","616557","0.0-18.0-1.109","7640","approach_avoid_sv1","""event"",""trial"",""time""
""fullscreenenter"",""1"",""6135""
","
","
","""event"",""trial"",""time""
""fullscreenenter"",""1"",""6135""
","
","","","","","","800.2000000029802","images/cow3.png","","","memory_trial","4","definitely_new",""
"html-keyboard-response","265","617059","0.0-18.0-0.110","7640","approach_avoid_sv1","""event"",""trial"",""time""
""fullscreenenter"",""1"",""6135""
","
","
","""event"",""trial"",""time""
""fullscreenenter"",""1"",""6135""
","
","","","","","","null","<div style=""font-size:60px;"">+</div>","null","","fixation","","",""
"memory-trial","266","621134","0.0-18.0-1.110","7640","approach_avoid_sv1","""event"",""trial"",""time""
""fullscreenenter"",""1"",""6135""
","
","
","""event"",""trial"",""time""
""fullscreenenter"",""1"",""6135""
","
","","","","","","3072.199999988079","images/sheep5.png","","","memory_trial","3","maybe_new",""
"html-keyboard-response","267","621636","0.0-18.0-0.111","7640","approach_avoid_sv1","""event"",""trial"",""time""
""fullscreenenter"",""1"",""6135""
","
","
","""event"",""trial"",""time""
""fullscreenenter"",""1"",""6135""
","
","","","","","","null","<div style=""font-size:60px;"">+</div>","null","","fixation","","",""
"memory-trial","268","623742","0.0-18.0-1.111","7640","approach_avoid_sv1","""event"",""trial"",""time""
""fullscreenenter"",""1"",""6135""
","
","
","""event"",""trial"",""time""
""fullscreenenter"",""1"",""6135""
","
","","","","","","1102.4000000059605","images/sheep4.png","","","memory_trial","2","maybe_old",""
"html-keyboard-response","269","624244","0.0-18.0-0.112","7640","approach_avoid_sv1","""event"",""trial"",""time""
""fullscreenenter"",""1"",""6135""
","
","
","""event"",""trial"",""time""
""fullscreenenter"",""1"",""6135""
","
","","","","","","null","<div style=""font-size:60px;"">+</div>","null","","fixation","","",""
"memory-trial","270","628398","0.0-18.0-1.112","7640","approach_avoid_sv1","""event"",""trial"",""time""
""fullscreenenter"",""1"",""6135""
","
","
","""event"",""trial"",""time""
""fullscreenenter"",""1"",""6135""
","
","","","","","","3151.7999999970198","images/truck4.png","","","memory_trial","3","maybe_new",""
"html-keyboard-response","271","628900","0.0-18.0-0.113","7640","approach_avoid_sv1","""event"",""trial"",""time""
""fullscreenenter"",""1"",""6135""
","
","
","""event"",""trial"",""time""
""fullscreenenter"",""1"",""6135""
","
","","","","","","null","<div style=""font-size:60px;"">+</div>","null","","fixation","","",""
"memory-trial","272","632125","0.0-18.0-1.113","7640","approach_avoid_sv1","""event"",""trial"",""time""
""fullscreenenter"",""1"",""6135""
","
","
","""event"",""trial"",""time""
""fullscreenenter"",""1"",""6135""
","
","","","","","","2222.5999999940395","images/apple6.png","","","memory_trial","3","maybe_new",""
"html-keyboard-response","273","632627","0.0-18.0-0.114","7640","approach_avoid_sv1","""event"",""trial"",""time""
""fullscreenenter"",""1"",""6135""
","
","
","""event"",""trial"",""time""
""fullscreenenter"",""1"",""6135""
","
","","","","","","null","<div style=""font-size:60px;"">+</div>","null","","fixation","","",""
"memory-trial","274","634782","0.0-18.0-1.114","7640","approach_avoid_sv1","""event"",""trial"",""time""
""fullscreenenter"",""1"",""6135""
","
","
","""event"",""trial"",""time""
""fullscreenenter"",""1"",""6135""
","
","","","","","","1152.2999999970198","images/truck7.png","","","memory_trial","4","definitely_new",""
"html-keyboard-response","275","635284","0.0-18.0-0.115","7640","approach_avoid_sv1","""event"",""trial"",""time""
""fullscreenenter"",""1"",""6135""
","
","
","""event"",""trial"",""time""
""fullscreenenter"",""1"",""6135""
","
","","","","","","null","<div style=""font-size:60px;"">+</div>","null","","fixation","","",""
"memory-trial","276","639502","0.0-18.0-1.115","7640","approach_avoid_sv1","""event"",""trial"",""time""
""fullscreenenter"",""1"",""6135""
","
","
","""event"",""trial"",""time""
""fullscreenenter"",""1"",""6135""
","
","","","","","","3215.5","images/table6.png","","","memory_trial","4","definitely_new",""
"html-keyboard-response","277","640004","0.0-18.0-0.116","7640","approach_avoid_sv1","""event"",""trial"",""time""
""fullscreenenter"",""1"",""6135""
","
","
","""event"",""trial"",""time""
""fullscreenenter"",""1"",""6135""
","
","","","","","","null","<div style=""font-size:60px;"">+</div>","null","","fixation","","",""
"memory-trial","278","644349","0.0-18.0-1.116","7640","approach_avoid_sv1","""event"",""trial"",""time""
""fullscreenenter"",""1"",""6135""
","
","
","""event"",""trial"",""time""
""fullscreenenter"",""1"",""6135""
","
","","","","","","3341.8999999910593","images/tree5.png","","","memory_trial","2","maybe_old",""
"html-keyboard-response","279","644851","0.0-18.0-0.117","7640","approach_avoid_sv1","""event"",""trial"",""time""
""fullscreenenter"",""1"",""6135""
","
","
","""event"",""trial"",""time""
""fullscreenenter"",""1"",""6135""
","
","","","","","","null","<div style=""font-size:60px;"">+</div>","null","","fixation","","",""
"memory-trial","280","647839","0.0-18.0-1.117","7640","approach_avoid_sv1","""event"",""trial"",""time""
""fullscreenenter"",""1"",""6135""
","
","
","""event"",""trial"",""time""
""fullscreenenter"",""1"",""6135""
","
","","","","","","1985.2000000029802","images/bed7.png","","","memory_trial","3","maybe_new",""
"html-keyboard-response","281","648341","0.0-18.0-0.118","7640","approach_avoid_sv1","""event"",""trial"",""time""
""fullscreenenter"",""1"",""6135""
","
","
","""event"",""trial"",""time""
""fullscreenenter"",""1"",""6135""
","
","","","","","","null","<div style=""font-size:60px;"">+</div>","null","","fixation","","",""
"memory-trial","282","651006","0.0-18.0-1.118","7640","approach_avoid_sv1","""event"",""trial"",""time""
""fullscreenenter"",""1"",""6135""
","
","
","""event"",""trial"",""time""
""fullscreenenter"",""1"",""6135""
","
","","","","","","1661.4000000059605","images/cactus2.png","","","memory_trial","1","definitely_old",""
"html-keyboard-response","283","651507","0.0-18.0-0.119","7640","approach_avoid_sv1","""event"",""trial"",""time""
""fullscreenenter"",""1"",""6135""
","
","
","""event"",""trial"",""time""
""fullscreenenter"",""1"",""6135""
","
","","","","","","null","<div style=""font-size:60px;"">+</div>","null","","fixation","","",""
"memory-trial","284","654654","0.0-18.0-1.119","7640","approach_avoid_sv1","""event"",""trial"",""time""
""fullscreenenter"",""1"",""6135""
","
","
","""event"",""trial"",""time""
""fullscreenenter"",""1"",""6135""
","
","","","","","","2143.7000000029802","images/chair7.png","","","memory_trial","3","maybe_new",""
"html-keyboard-response","285","655157","0.0-18.0-0.120","7640","approach_avoid_sv1","""event"",""trial"",""time""
""fullscreenenter"",""1"",""6135""
","
","
","""event"",""trial"",""time""
""fullscreenenter"",""1"",""6135""
","
","","","","","","null","<div style=""font-size:60px;"">+</div>","null","","fixation","","",""
"memory-trial","286","658847","0.0-18.0-1.120","7640","approach_avoid_sv1","""event"",""trial"",""time""
""fullscreenenter"",""1"",""6135""
","
","
","""event"",""trial"",""time""
""fullscreenenter"",""1"",""6135""
","
","","","","","","2687.3999999910593","images/boat6.png","","","memory_trial","3","maybe_new",""
"html-keyboard-response","287","659348","0.0-18.0-0.121","7640","approach_avoid_sv1","""event"",""trial"",""time""
""fullscreenenter"",""1"",""6135""
","
","
","""event"",""trial"",""time""
""fullscreenenter"",""1"",""6135""
","
","","","","","","null","<div style=""font-size:60px;"">+</div>","null","","fixation","","",""
"memory-trial","288","663630","0.0-18.0-1.121","7640","approach_avoid_sv1","""event"",""trial"",""time""
""fullscreenenter"",""1"",""6135""
","
","
","""event"",""trial"",""time""
""fullscreenenter"",""1"",""6135""
","
","","","","","","3277.5","images/apple3.png","","","memory_trial","3","maybe_new",""
"html-keyboard-response","289","664132","0.0-18.0-0.122","7640","approach_avoid_sv1","""event"",""trial"",""time""
""fullscreenenter"",""1"",""6135""
","
","
","""event"",""trial"",""time""
""fullscreenenter"",""1"",""6135""
","
","","","","","","null","<div style=""font-size:60px;"">+</div>","null","","fixation","","",""
"memory-trial","290","666438","0.0-18.0-1.122","7640","approach_avoid_sv1","""event"",""trial"",""time""
""fullscreenenter"",""1"",""6135""
","
","
","""event"",""trial"",""time""
""fullscreenenter"",""1"",""6135""
","
","","","","","","1295.1000000089407","images/chair6.png","","","memory_trial","1","definitely_old",""
"html-keyboard-response","291","666940","0.0-18.0-0.123","7640","approach_avoid_sv1","""event"",""trial"",""time""
""fullscreenenter"",""1"",""6135""
","
","
","""event"",""trial"",""time""
""fullscreenenter"",""1"",""6135""
","
","","","","","","null","<div style=""font-size:60px;"">+</div>","null","","fixation","","",""
"memory-trial","292","669552","0.0-18.0-1.123","7640","approach_avoid_sv1","""event"",""trial"",""time""
""fullscreenenter"",""1"",""6135""
","
","
","""event"",""trial"",""time""
""fullscreenenter"",""1"",""6135""
","
","","","","","","1608.7000000029802","images/rodent4.png","","","memory_trial","3","maybe_new",""
"html-keyboard-response","293","670053","0.0-18.0-0.124","7640","approach_avoid_sv1","""event"",""trial"",""time""
""fullscreenenter"",""1"",""6135""
","
","
","""event"",""trial"",""time""
""fullscreenenter"",""1"",""6135""
","
","","","","","","null","<div style=""font-size:60px;"">+</div>","null","","fixation","","",""
"memory-trial","294","674318","0.0-18.0-1.124","7640","approach_avoid_sv1","""event"",""trial"",""time""
""fullscreenenter"",""1"",""6135""
","
","
","""event"",""trial"",""time""
""fullscreenenter"",""1"",""6135""
","
","","","","","","3261.0999999940395","images/dog1.png","","","memory_trial","3","maybe_new",""
"html-keyboard-response","295","674820","0.0-18.0-0.125","7640","approach_avoid_sv1","""event"",""trial"",""time""
""fullscreenenter"",""1"",""6135""
","
","
","""event"",""trial"",""time""
""fullscreenenter"",""1"",""6135""
","
","","","","","","null","<div style=""font-size:60px;"">+</div>","null","","fixation","","",""
"memory-trial","296","676829","0.0-18.0-1.125","7640","approach_avoid_sv1","""event"",""trial"",""time""
""fullscreenenter"",""1"",""6135""
","
","
","""event"",""trial"",""time""
""fullscreenenter"",""1"",""6135""
","
","","","","","","1006.5","images/train1.png","","","memory_trial","4","definitely_new",""
"html-keyboard-response","297","677331","0.0-18.0-0.126","7640","approach_avoid_sv1","""event"",""trial"",""time""
""fullscreenenter"",""1"",""6135""
","
","
","""event"",""trial"",""time""
""fullscreenenter"",""1"",""6135""
","
