"trial_type","trial_index","time_elapsed","internal_node_id","subject_id","task_version","interactions","blur_events","focus_events","fullscreenenter_events","fullscreenexit_events","success","timeout","failed_images","failed_audio","failed_video","rt","stimulus","response","button_pressed","task_part","key_press","answer","correct"
"pavlovia","0","2","0.0-0.0","6376","approach_avoid_sv1","""event"",""trial"",""time""
""fullscreenenter"",""1"",""9765""
","
","
","""event"",""trial"",""time""
""fullscreenenter"",""1"",""9765""
","
","","","","","","","","","","","","",""
"fullscreen","1","10765","0.0-1.0","6376","approach_avoid_sv1","""event"",""trial"",""time""
""fullscreenenter"",""1"",""9765""
","
","
","""event"",""trial"",""time""
""fullscreenenter"",""1"",""9765""
","
","true","","","","","","","","","","","",""
"preload","2","12476","0.0-2.0","6376","approach_avoid_sv1","""event"",""trial"",""time""
""fullscreenenter"",""1"",""9765""
","
","
","""event"",""trial"",""time""
""fullscreenenter"",""1"",""9765""
","
","true","false","[]","[]","[]","","","","","","","",""
"preload","3","13425","0.0-3.0","6376","approach_avoid_sv1","""event"",""trial"",""time""
""fullscreenenter"",""1"",""9765""
","
","
","""event"",""trial"",""time""
""fullscreenenter"",""1"",""9765""
","
","true","false","[]","[]","[]","","","","","","","",""
"preload","4","13635","0.0-4.0","6376","approach_avoid_sv1","""event"",""trial"",""time""
""fullscreenenter"",""1"",""9765""
","
","
","""event"",""trial"",""time""
""fullscreenenter"",""1"",""9765""
","
","true","false","[]","[]","[]","","","","","","","",""
"audio-keyboard-response","5","15764","0.0-5.0","6376","approach_avoid_sv1","""event"",""trial"",""time""
""fullscreenenter"",""1"",""9765""
","
","
","""event"",""trial"",""time""
""fullscreenenter"",""1"",""9765""
","
","","","","","","1800","audio/beep_loop.wav"," ","","","","",""
"audio-button-response","6","18781","0.0-6.0","6376","approach_avoid_sv1","""event"",""trial"",""time""
""fullscreenenter"",""1"",""9765""
","
","
","""event"",""trial"",""time""
""fullscreenenter"",""1"",""9765""
","
","","","","","","3021","audio/turtle.wav","3","","","","",""
"audio-button-response","7","20791","0.0-7.0","6376","approach_avoid_sv1","""event"",""trial"",""time""
""fullscreenenter"",""1"",""9765""
","
","
","""event"",""trial"",""time""
""fullscreenenter"",""1"",""9765""
","
","","","","","","1000","audio/shark.wav","2","","","","",""
"preload","8","24741","0.0-8.0","6376","approach_avoid_sv1","""event"",""trial"",""time""
""fullscreenenter"",""1"",""9765""
","
","
","""event"",""trial"",""time""
""fullscreenenter"",""1"",""9765""
","
","true","false","[]","[]","[]","","","","","","","",""
"learning-instructions","9","30661","0.0-9.0-0.0","6376","approach_avoid_sv1","""event"",""trial"",""time""
""fullscreenenter"",""1"",""9765""
","
","
","""event"",""trial"",""time""
""fullscreenenter"",""1"",""9765""
","
","","","","","","1442","<p> Welcome back! </p><p> Last week, you had to make choices about lots of different items.  </p>","","0","instructions","","",""
"learning-instructions","10","35427","0.0-9.0-0.1","6376","approach_avoid_sv1","""event"",""trial"",""time""
""fullscreenenter"",""1"",""9765""
","
","
","""event"",""trial"",""time""
""fullscreenenter"",""1"",""9765""
","
","","","","","","658","<p> Today, we are going to ask you to try to remember all the items. </p>","","0","instructions","","",""
"learning-instructions","11","47395","0.0-9.0-0.2","6376","approach_avoid_sv1","""event"",""trial"",""time""
""fullscreenenter"",""1"",""9765""
","
","
","""event"",""trial"",""time""
""fullscreenenter"",""1"",""9765""
","
","","","","","","1825.5","<p> On every trial, you will see an image. </p><p> The image may be an OLD image you saw during the games last week or it may be a NEW image that was not presented. </p>","","0","instructions","","",""
"learning-instructions","12","56535","0.0-9.0-0.3","6376","approach_avoid_sv1","""event"",""trial"",""time""
""fullscreenenter"",""1"",""9765""
","
","
","""event"",""trial"",""time""
""fullscreenenter"",""1"",""9765""
","
","","","","","","634.6999999880791","<p> You need to select whether the image is:  </p><p>  'Definitely old', 'Maybe old', 'Maybe new', or 'Definitely new.'  </p><div class=""mem-choice-instructions-grid""><div class=""choice-option"" id=""choice-option-1"" ><img src=""images/definitely_old_1.png"" id=""choice-option-img-1"" class=""choice-option-img"" stage=""1""></div><div class=""choice-option"" id=""choice-option-2"" ><img src=""images/maybe_old_1.png"" id=""choice-option-img-2"" class=""choice-option-img"" stage=""1""></div><div class=""choice-option"" id=""choice-option-3"" ><img src=""images/maybe_new_1.png"" id=""choice-option-img-3"" class=""choice-option-img"" stage=""1""></div><div class=""choice-option"" id=""choice-option-4"" > <img src=""images/definitely_new_1.png"" id=""choice-option-img-4"" class=""choice-option-img"" stage=""1""></div></div>","","0","instructions","","",""
"learning-instructions","13","63505","0.0-9.0-0.4","6376","approach_avoid_sv1","""event"",""trial"",""time""
""fullscreenenter"",""1"",""9765""
","
","
","""event"",""trial"",""time""
""fullscreenenter"",""1"",""9765""
","
","","","","","","455.5","<p> You should use the 1, 2, 3, and 4 keys to make your responses.  </p><div class=""mem-choice-instructions-grid""><div class=""choice-option"" id=""choice-option-1"" ><img src=""images/definitely_old.png"" id=""choice-option-img-1"" class=""choice-option-img"" stage=""1""></div><div class=""choice-option"" id=""choice-option-2"" ><img src=""images/maybe_old.png"" id=""choice-option-img-2"" class=""choice-option-img"" stage=""1""></div><div class=""choice-option"" id=""choice-option-3"" ><img src=""images/maybe_new.png"" id=""choice-option-img-3"" class=""choice-option-img"" stage=""1""></div><div class=""choice-option"" id=""choice-option-4"" > <img src=""images/definitely_new.png"" id=""choice-option-img-4"" class=""choice-option-img"" stage=""1""></div></div>","","0","instructions","","",""
"learning-instructions","14","71379","0.0-9.0-0.5","6376","approach_avoid_sv1","""event"",""trial"",""time""
""fullscreenenter"",""1"",""9765""
","
","
","""event"",""trial"",""time""
""fullscreenenter"",""1"",""9765""
","
","","","","","","1539.9000000357628","<p> You will have 10 seconds to make each response.  </p><p>  Make sure to respond before time runs out! </p>","","0","instructions","","",""
"learning-instructions","15","78917","0.0-9.0-0.6","6376","approach_avoid_sv1","""event"",""trial"",""time""
""fullscreenenter"",""1"",""9765""
","
","
","""event"",""trial"",""time""
""fullscreenenter"",""1"",""9765""
","
","","","","","","458","<p> Today, you will see each image ONCE only.  </p><p>  That means none of the images will repeat. </p>","","0","instructions","","",""
"learning-instructions","16","94297","0.0-9.0-0.7","6376","approach_avoid_sv1","""event"",""trial"",""time""
""fullscreenenter"",""1"",""9765""
","
","
","""event"",""trial"",""time""
""fullscreenenter"",""1"",""9765""
","
","","","","","","2697.600000023842","<p> Before you play the real game, it is time to practice. </p><p>  Just like in the real game, some of the images in the practice will be ones you have seen before. </p><p>  Others will be entirely new. </p>","","0","instructions","","",""
"html-button-response","17","96035","0.0-10.0","6376","approach_avoid_sv1","""event"",""trial"",""time""
""fullscreenenter"",""1"",""9765""
","
","
","""event"",""trial"",""time""
""fullscreenenter"",""1"",""9765""
","
","","","","","","1636.5","<p> Ready to practice? </p><p> Remember, use the 1, 2, 3, and 4 keys to make your responses. </p>","0","","instructions","","",""
"html-keyboard-response","18","96656","0.0-11.0-0.0","6376","approach_avoid_sv1","""event"",""trial"",""time""
""fullscreenenter"",""1"",""9765""
","
","
","""event"",""trial"",""time""
""fullscreenenter"",""1"",""9765""
","
","","","","","","null","<div style=""font-size:60px;"">+</div>","null","","fixation","","",""
"memory-trial","19","100527","0.0-11.0-1.0","6376","approach_avoid_sv1","""event"",""trial"",""time""
""fullscreenenter"",""1"",""9765""
","
","
","""event"",""trial"",""time""
""fullscreenenter"",""1"",""9765""
","
","","","","","","2860.699999988079","images/ball2.png","","","practice","2","maybe_old",""
"html-keyboard-response","20","101029","0.0-11.0-0.1","6376","approach_avoid_sv1","""event"",""trial"",""time""
""fullscreenenter"",""1"",""9765""
","
","
","""event"",""trial"",""time""
""fullscreenenter"",""1"",""9765""
","
","","","","","","null","<div style=""font-size:60px;"">+</div>","null","","fixation","","",""
"memory-trial","21","103725","0.0-11.0-1.1","6376","approach_avoid_sv1","""event"",""trial"",""time""
""fullscreenenter"",""1"",""9765""
","
","
","""event"",""trial"",""time""
""fullscreenenter"",""1"",""9765""
","
","","","","","","1692.5999999642372","images/racket3.png","","","practice","2","maybe_old",""
"html-keyboard-response","22","104241","0.0-11.0-0.2","6376","approach_avoid_sv1","""event"",""trial"",""time""
""fullscreenenter"",""1"",""9765""
","
","
","""event"",""trial"",""time""
""fullscreenenter"",""1"",""9765""
","
","","","","","","null","<div style=""font-size:60px;"">+</div>","null","","fixation","","",""
"memory-trial","23","107574","0.0-11.0-1.2","6376","approach_avoid_sv1","""event"",""trial"",""time""
""fullscreenenter"",""1"",""9765""
","
","
","""event"",""trial"",""time""
""fullscreenenter"",""1"",""9765""
","
","","","","","","2315.800000011921","images/racket5.png","","","practice","1","definitely_old",""
"html-keyboard-response","24","108085","0.0-11.0-0.3","6376","approach_avoid_sv1","""event"",""trial"",""time""
""fullscreenenter"",""1"",""9765""
","
","
","""event"",""trial"",""time""
""fullscreenenter"",""1"",""9765""
","
","","","","","","null","<div style=""font-size:60px;"">+</div>","null","","fixation","","",""
"memory-trial","25","111080","0.0-11.0-1.3","6376","approach_avoid_sv1","""event"",""trial"",""time""
""fullscreenenter"",""1"",""9765""
","
","
","""event"",""trial"",""time""
""fullscreenenter"",""1"",""9765""
","
","","","","","","1979.699999988079","images/ball5.png","","","practice","2","maybe_old",""
"html-keyboard-response","26","111581","0.0-11.0-0.4","6376","approach_avoid_sv1","""event"",""trial"",""time""
""fullscreenenter"",""1"",""9765""
","
","
","""event"",""trial"",""time""
""fullscreenenter"",""1"",""9765""
","
","","","","","","null","<div style=""font-size:60px;"">+</div>","null","","fixation","","",""
"memory-trial","27","114546","0.0-11.0-1.4","6376","approach_avoid_sv1","""event"",""trial"",""time""
""fullscreenenter"",""1"",""9765""
","
","
","""event"",""trial"",""time""
""fullscreenenter"",""1"",""9765""
","
","","","","","","1952.300000011921","images/ball1.png","","","practice","2","maybe_old",""
"html-keyboard-response","28","115060","0.0-11.0-0.5","6376","approach_avoid_sv1","""event"",""trial"",""time""
""fullscreenenter"",""1"",""9765""
","
","
","""event"",""trial"",""time""
""fullscreenenter"",""1"",""9765""
","
","","","","","","null","<div style=""font-size:60px;"">+</div>","null","","fixation","","",""
"memory-trial","29","117290","0.0-11.0-1.5","6376","approach_avoid_sv1","""event"",""trial"",""time""
""fullscreenenter"",""1"",""9765""
","
","
","""event"",""trial"",""time""
""fullscreenenter"",""1"",""9765""
","
","","","","","","1221.199999988079","images/racket2.png","","","practice","2","maybe_old",""
"html-keyboard-response","30","117805","0.0-11.0-0.6","6376","approach_avoid_sv1","""event"",""trial"",""time""
""fullscreenenter"",""1"",""9765""
","
","
","""event"",""trial"",""time""
""fullscreenenter"",""1"",""9765""
","
","","","","","","null","<div style=""font-size:60px;"">+</div>","null","","fixation","","",""
"memory-trial","31","119956","0.0-11.0-1.6","6376","approach_avoid_sv1","""event"",""trial"",""time""
""fullscreenenter"",""1"",""9765""
","
","
","""event"",""trial"",""time""
""fullscreenenter"",""1"",""9765""
","
","","","","","","1138.300000011921","images/racket1.png","","","practice","1","definitely_old",""
"html-keyboard-response","32","120472","0.0-11.0-0.7","6376","approach_avoid_sv1","""event"",""trial"",""time""
""fullscreenenter"",""1"",""9765""
","
","
","""event"",""trial"",""time""
""fullscreenenter"",""1"",""9765""
","
","","","","","","null","<div style=""font-size:60px;"">+</div>","null","","fixation","","",""
"memory-trial","33","124079","0.0-11.0-1.7","6376","approach_avoid_sv1","""event"",""trial"",""time""
""fullscreenenter"",""1"",""9765""
","
","
","""event"",""trial"",""time""
""fullscreenenter"",""1"",""9765""
","
","","","","","","2604.2999999523163","images/ball3.png","","","practice","4","definitely_new",""
"learning-instructions","34","132837","0.0-12.0-0.0","6376","approach_avoid_sv1","""event"",""trial"",""time""
""fullscreenenter"",""1"",""9765""
","
","
","""event"",""trial"",""time""
""fullscreenenter"",""1"",""9765""
","
","","","","","","1453.2999999523163","<p> Great! You have completed the practice. </p><p> Before you start, we're going to ask you a few questions about how the game works.  </p>","","0","instructions","","",""
"preload","35","134490","0.0-13.0","6376","approach_avoid_sv1","""event"",""trial"",""time""
""fullscreenenter"",""1"",""9765""
","
","
","""event"",""trial"",""time""
""fullscreenenter"",""1"",""9765""
","
","true","false","[]","[]","[]","","","","","","","",""
"comp-q","36","141337","0.0-14.0-0.0","6376","approach_avoid_sv1","""event"",""trial"",""time""
""fullscreenenter"",""1"",""9765""
","
","
","""event"",""trial"",""time""
""fullscreenenter"",""1"",""9765""
","
","","","","","","1023.9000000357628","<p> <b> True or False? </b> </p><p> In this game, you will only see each image once. </p>","","0","comp_question","","","true"
"comp-q","37","149043","0.0-14.0-1.0","6376","approach_avoid_sv1","""event"",""trial"",""time""
""fullscreenenter"",""1"",""9765""
","
","
","""event"",""trial"",""time""
""fullscreenenter"",""1"",""9765""
","
","","","","","","1360.1000000238419","<p> <b> That's right! </b> You will see many different images <i> one time each </i> in this game. </p>","","0","comp_answer","","",""
"comp-q","38","154779","0.0-15.0-0.0","6376","approach_avoid_sv1","""event"",""trial"",""time""
""fullscreenenter"",""1"",""9765""
","
","
","""event"",""trial"",""time""
""fullscreenenter"",""1"",""9765""
","
","","","","","","736.0999999642372","<p> <b> True or False? </b> </p><p> You should use the mouse and click to make your response. </p>","","1","comp_question","","","true"
"comp-q","39","162278","0.0-15.0-1.0","6376","approach_avoid_sv1","""event"",""trial"",""time""
""fullscreenenter"",""1"",""9765""
","
","
","""event"",""trial"",""time""
""fullscreenenter"",""1"",""9765""
","
","","","","","","1004.1999999880791","<p><b> That's right! </b> You should use the '1', '2', '3', and '4' keys to make your response. </p>","","0","comp_answer","","",""
"comp-q","40","168589","0.0-16.0-0.0","6376","approach_avoid_sv1","""event"",""trial"",""time""
""fullscreenenter"",""1"",""9765""
","
","
","""event"",""trial"",""time""
""fullscreenenter"",""1"",""9765""
","
","","","","","","635.8000000119209","<p> <b> True or False? </b> </p><p> You will have as much time as you want to make each choice. </p>","","1","comp_question","","","true"
"comp-q","41","174477","0.0-16.0-1.0","6376","approach_avoid_sv1","""event"",""trial"",""time""
""fullscreenenter"",""1"",""9765""
","
","
","""event"",""trial"",""time""
""fullscreenenter"",""1"",""9765""
","
","","","","","","1174","<p> <b> That's right! </b> You will only have 10 seconds to make each choice. </p>","","0","comp_answer","","",""
"learning-instructions","42","184131","0.0-17.0","6376","approach_avoid_sv1","""event"",""trial"",""time""
""fullscreenenter"",""1"",""9765""
","
","
","""event"",""trial"",""time""
""fullscreenenter"",""1"",""9765""
","
","","","","","","988","<p> Great! You are now ready to begin the game. </p><p> Remember, use the 1, 2, 3, and 4 keys to make your responses. </p>","","0","instructions","","",""
"html-keyboard-response","43","184744","0.0-18.0-0.0","6376","approach_avoid_sv1","""event"",""trial"",""time""
""fullscreenenter"",""1"",""9765""
","
","
","""event"",""trial"",""time""
""fullscreenenter"",""1"",""9765""
","
","","","","","","null","<div style=""font-size:60px;"">+</div>","null","","fixation","","",""
"memory-trial","44","188998","0.0-18.0-1.0","6376","approach_avoid_sv1","""event"",""trial"",""time""
""fullscreenenter"",""1"",""9765""
","
","
","""event"",""trial"",""time""
""fullscreenenter"",""1"",""9765""
","
","","","","","","3237.600000023842","images/horse8.png","","","memory_trial","3","maybe_new",""
"html-keyboard-response","45","189512","0.0-18.0-0.1","6376","approach_avoid_sv1","""event"",""trial"",""time""
""fullscreenenter"",""1"",""9765""
","
","
","""event"",""trial"",""time""
""fullscreenenter"",""1"",""9765""
","
","","","","","","null","<div style=""font-size:60px;"">+</div>","null","","fixation","","",""
"memory-trial","46","191967","0.0-18.0-1.1","6376","approach_avoid_sv1","""event"",""trial"",""time""
""fullscreenenter"",""1"",""9765""
","
","
","""event"",""trial"",""time""
""fullscreenenter"",""1"",""9765""
","
","","","","","","1439.4000000357628","images/train7.png","","","memory_trial","1","definitely_old",""
"html-keyboard-response","47","192472","0.0-18.0-0.2","6376","approach_avoid_sv1","""event"",""trial"",""time""
""fullscreenenter"",""1"",""9765""
","
","
","""event"",""trial"",""time""
""fullscreenenter"",""1"",""9765""
","
","","","","","","null","<div style=""font-size:60px;"">+</div>","null","","fixation","","",""
"memory-trial","48","194702","0.0-18.0-1.2","6376","approach_avoid_sv1","""event"",""trial"",""time""
""fullscreenenter"",""1"",""9765""
","
","
","""event"",""trial"",""time""
""fullscreenenter"",""1"",""9765""
","
","","","","","","1225.6000000238419","images/dog8.png","","","memory_trial","4","definitely_new",""
"html-keyboard-response","49","195205","0.0-18.0-0.3","6376","approach_avoid_sv1","""event"",""trial"",""time""
""fullscreenenter"",""1"",""9765""
","
","
","""event"",""trial"",""time""
""fullscreenenter"",""1"",""9765""
","
","","","","","","null","<div style=""font-size:60px;"">+</div>","null","","fixation","","",""
"memory-trial","50","197353","0.0-18.0-1.3","6376","approach_avoid_sv1","""event"",""trial"",""time""
""fullscreenenter"",""1"",""9765""
","
","
","""event"",""trial"",""time""
""fullscreenenter"",""1"",""9765""
","
","","","","","","1139.6000000238419","images/apple3.png","","","memory_trial","4","definitely_new",""
"html-keyboard-response","51","197868","0.0-18.0-0.4","6376","approach_avoid_sv1","""event"",""trial"",""time""
""fullscreenenter"",""1"",""9765""
","
","
","""event"",""trial"",""time""
""fullscreenenter"",""1"",""9765""
","
","","","","","","null","<div style=""font-size:60px;"">+</div>","null","","fixation","","",""
"memory-trial","52","199638","0.0-18.0-1.4","6376","approach_avoid_sv1","""event"",""trial"",""time""
""fullscreenenter"",""1"",""9765""
","
","
","""event"",""trial"",""time""
""fullscreenenter"",""1"",""9765""
","
","","","","","","753","images/dog4.png","","","memory_trial","4","definitely_new",""
"html-keyboard-response","53","200142","0.0-18.0-0.5","6376","approach_avoid_sv1","""event"",""trial"",""time""
""fullscreenenter"",""1"",""9765""
","
","
","""event"",""trial"",""time""
""fullscreenenter"",""1"",""9765""
","
","","","","","","null","<div style=""font-size:60px;"">+</div>","null","","fixation","","",""
"memory-trial","54","202056","0.0-18.0-1.5","6376","approach_avoid_sv1","""event"",""trial"",""time""
""fullscreenenter"",""1"",""9765""
","
","
","""event"",""trial"",""time""
""fullscreenenter"",""1"",""9765""
","
","","","","","","907","images/horse2.png","","","memory_trial","1","definitely_old",""
"html-keyboard-response","55","202568","0.0-18.0-0.6","6376","approach_avoid_sv1","""event"",""trial"",""time""
""fullscreenenter"",""1"",""9765""
","
","
","""event"",""trial"",""time""
""fullscreenenter"",""1"",""9765""
","
","","","","","","null","<div style=""font-size:60px;"">+</div>","null","","fixation","","",""
"memory-trial","56","204602","0.0-18.0-1.6","6376","approach_avoid_sv1","""event"",""trial"",""time""
""fullscreenenter"",""1"",""9765""
","
","
","""event"",""trial"",""time""
""fullscreenenter"",""1"",""9765""
","
","","","","","","1031.9000000357628","images/bed2.png","","","memory_trial","1","definitely_old",""
"html-keyboard-response","57","205104","0.0-18.0-0.7","6376","approach_avoid_sv1","""event"",""trial"",""time""
""fullscreenenter"",""1"",""9765""
","
","
","""event"",""trial"",""time""
""fullscreenenter"",""1"",""9765""
","
","","","","","","null","<div style=""font-size:60px;"">+</div>","null","","fixation","","",""
"memory-trial","58","208154","0.0-18.0-1.7","6376","approach_avoid_sv1","""event"",""trial"",""time""
""fullscreenenter"",""1"",""9765""
","
","
","""event"",""trial"",""time""
""fullscreenenter"",""1"",""9765""
","
","","","","","","2034.5999999642372","images/straw3.png","","","memory_trial","3","maybe_new",""
"html-keyboard-response","59","208666","0.0-18.0-0.8","6376","approach_avoid_sv1","""event"",""trial"",""time""
""fullscreenenter"",""1"",""9765""
","
","
","""event"",""trial"",""time""
""fullscreenenter"",""1"",""9765""
","
","","","","","","null","<div style=""font-size:60px;"">+</div>","null","","fixation","","",""
"memory-trial","60","211892","0.0-18.0-1.8","6376","approach_avoid_sv1","""event"",""trial"",""time""
""fullscreenenter"",""1"",""9765""
","
","
","""event"",""trial"",""time""
""fullscreenenter"",""1"",""9765""
","
","","","","","","2208.300000011921","images/boat4.png","","","memory_trial","4","definitely_new",""
"html-keyboard-response","61","212407","0.0-18.0-0.9","6376","approach_avoid_sv1","""event"",""trial"",""time""
""fullscreenenter"",""1"",""9765""
","
","
","""event"",""trial"",""time""
""fullscreenenter"",""1"",""9765""
","
","","","","","","null","<div style=""font-size:60px;"">+</div>","null","","fixation","","",""
"memory-trial","62","214284","0.0-18.0-1.9","6376","approach_avoid_sv1","""event"",""trial"",""time""
""fullscreenenter"",""1"",""9765""
","
","
","""event"",""trial"",""time""
""fullscreenenter"",""1"",""9765""
","
","","","","","","875","images/plane8.png","","","memory_trial","4","definitely_new",""
"html-keyboard-response","63","214785","0.0-18.0-0.10","6376","approach_avoid_sv1","""event"",""trial"",""time""
""fullscreenenter"",""1"",""9765""
","
","
","""event"",""trial"",""time""
""fullscreenenter"",""1"",""9765""
","
","","","","","","null","<div style=""font-size:60px;"">+</div>","null","","fixation","","",""
"memory-trial","64","217548","0.0-18.0-1.10","6376","approach_avoid_sv1","""event"",""trial"",""time""
""fullscreenenter"",""1"",""9765""
","
","
","""event"",""trial"",""time""
""fullscreenenter"",""1"",""9765""
","
","","","","","","1760.300000011921","images/straw1.png","","","memory_trial","3","maybe_new",""
"html-keyboard-response","65","218048","0.0-18.0-0.11","6376","approach_avoid_sv1","""event"",""trial"",""time""
""fullscreenenter"",""1"",""9765""
","
","
","""event"",""trial"",""time""
""fullscreenenter"",""1"",""9765""
","
","","","","","","null","<div style=""font-size:60px;"">+</div>","null","","fixation","","",""
"memory-trial","66","220270","0.0-18.0-1.11","6376","approach_avoid_sv1","""event"",""trial"",""time""
""fullscreenenter"",""1"",""9765""
","
","
","""event"",""trial"",""time""
""fullscreenenter"",""1"",""9765""
","
","","","","","","1219.8999999761581","images/sofa5.png","","","memory_trial","1","definitely_old",""
"html-keyboard-response","67","220772","0.0-18.0-0.12","6376","approach_avoid_sv1","""event"",""trial"",""time""
""fullscreenenter"",""1"",""9765""
","
","
","""event"",""trial"",""time""
""fullscreenenter"",""1"",""9765""
","
","","","","","","null","<div style=""font-size:60px;"">+</div>","null","","fixation","","",""
"memory-trial","68","223871","0.0-18.0-1.12","6376","approach_avoid_sv1","""event"",""trial"",""time""
""fullscreenenter"",""1"",""9765""
","
","
","""event"",""trial"",""time""
""fullscreenenter"",""1"",""9765""
","
","","","","","","2096.899999976158","images/rodent5.png","","","memory_trial","2","maybe_old",""
"html-keyboard-response","69","224373","0.0-18.0-0.13","6376","approach_avoid_sv1","""event"",""trial"",""time""
""fullscreenenter"",""1"",""9765""
","
","
","""event"",""trial"",""time""
""fullscreenenter"",""1"",""9765""
","
","","","","","","null","<div style=""font-size:60px;"">+</div>","null","","fixation","","",""
"memory-trial","70","227222","0.0-18.0-1.13","6376","approach_avoid_sv1","""event"",""trial"",""time""
""fullscreenenter"",""1"",""9765""
","
","
","""event"",""trial"",""time""
""fullscreenenter"",""1"",""9765""
","
","","","","","","1847.1000000238419","images/banana1.png","","","memory_trial","2","maybe_old",""
"html-keyboard-response","71","227723","0.0-18.0-0.14","6376","approach_avoid_sv1","""event"",""trial"",""time""
""fullscreenenter"",""1"",""9765""
","
","
","""event"",""trial"",""time""
""fullscreenenter"",""1"",""9765""
","
","","","","","","null","<div style=""font-size:60px;"">+</div>","null","","fixation","","",""
"memory-trial","72","230448","0.0-18.0-1.14","6376","approach_avoid_sv1","""event"",""trial"",""time""
""fullscreenenter"",""1"",""9765""
","
","
","""event"",""trial"",""time""
""fullscreenenter"",""1"",""9765""
","
","","","","","","1723.199999988079","images/apple8.png","","","memory_trial","3","maybe_new",""
"html-keyboard-response","73","230949","0.0-18.0-0.15","6376","approach_avoid_sv1","""event"",""trial"",""time""
""fullscreenenter"",""1"",""9765""
","
","
","""event"",""trial"",""time""
""fullscreenenter"",""1"",""9765""
","
","","","","","","null","<div style=""font-size:60px;"">+</div>","null","","fixation","","",""
"memory-trial","74","233916","0.0-18.0-1.15","6376","approach_avoid_sv1","""event"",""trial"",""time""
""fullscreenenter"",""1"",""9765""
","
","
","""event"",""trial"",""time""
""fullscreenenter"",""1"",""9765""
","
","","","","","","1965.300000011921","images/bush7.png","","","memory_trial","4","definitely_new",""
"html-keyboard-response","75","234419","0.0-18.0-0.16","6376","approach_avoid_sv1","""event"",""trial"",""time""
""fullscreenenter"",""1"",""9765""
","
","
","""event"",""trial"",""time""
""fullscreenenter"",""1"",""9765""
","
","","","","","","null","<div style=""font-size:60px;"">+</div>","null","","fixation","","",""
"memory-trial","76","237827","0.0-18.0-1.16","6376","approach_avoid_sv1","""event"",""trial"",""time""
""fullscreenenter"",""1"",""9765""
","
","
","""event"",""trial"",""time""
""fullscreenenter"",""1"",""9765""
","
","","","","","","2406.900000035763","images/boat6.png","","","memory_trial","2","maybe_old",""
"html-keyboard-response","77","238328","0.0-18.0-0.17","6376","approach_avoid_sv1","""event"",""trial"",""time""
""fullscreenenter"",""1"",""9765""
","
","
","""event"",""trial"",""time""
""fullscreenenter"",""1"",""9765""
","
","","","","","","null","<div style=""font-size:60px;"">+</div>","null","","fixation","","",""
"memory-trial","78","241055","0.0-18.0-1.17","6376","approach_avoid_sv1","""event"",""trial"",""time""
""fullscreenenter"",""1"",""9765""
","
","
","""event"",""trial"",""time""
""fullscreenenter"",""1"",""9765""
","
","","","","","","1724.4000000357628","images/truck7.png","","","memory_trial","2","maybe_old",""
"html-keyboard-response","79","241556","0.0-18.0-0.18","6376","approach_avoid_sv1","""event"",""trial"",""time""
""fullscreenenter"",""1"",""9765""
","
","
","""event"",""trial"",""time""
""fullscreenenter"",""1"",""9765""
","
","","","","","","null","<div style=""font-size:60px;"">+</div>","null","","fixation","","",""
"memory-trial","80","243720","0.0-18.0-1.18","6376","approach_avoid_sv1","""event"",""trial"",""time""
""fullscreenenter"",""1"",""9765""
","
","
","""event"",""trial"",""time""
""fullscreenenter"",""1"",""9765""
","
","","","","","","1162.2999999523163","images/rodent3.png","","","memory_trial","1","definitely_old",""
"html-keyboard-response","81","244222","0.0-18.0-0.19","6376","approach_avoid_sv1","""event"",""trial"",""time""
""fullscreenenter"",""1"",""9765""
","
","
","""event"",""trial"",""time""
""fullscreenenter"",""1"",""9765""
","
","","","","","","null","<div style=""font-size:60px;"">+</div>","null","","fixation","","",""
"memory-trial","82","246627","0.0-18.0-1.19","6376","approach_avoid_sv1","""event"",""trial"",""time""
""fullscreenenter"",""1"",""9765""
","
","
","""event"",""trial"",""time""
""fullscreenenter"",""1"",""9765""
","
","","","","","","1403.1000000238419","images/orange1.png","","","memory_trial","1","definitely_old",""
"html-keyboard-response","83","247128","0.0-18.0-0.20","6376","approach_avoid_sv1","""event"",""trial"",""time""
""fullscreenenter"",""1"",""9765""
","
","
","""event"",""trial"",""time""
""fullscreenenter"",""1"",""9765""
","
","","","","","","null","<div style=""font-size:60px;"">+</div>","null","","fixation","","",""
"memory-trial","84","250255","0.0-18.0-1.20","6376","approach_avoid_sv1","""event"",""trial"",""time""
""fullscreenenter"",""1"",""9765""
","
","
","""event"",""trial"",""time""
""fullscreenenter"",""1"",""9765""
","
","","","","","","2124.7000000476837","images/sofa6.png","","","memory_trial","4","definitely_new",""
"html-keyboard-response","85","250757","0.0-18.0-0.21","6376","approach_avoid_sv1","""event"",""trial"",""time""
""fullscreenenter"",""1"",""9765""
","
","
","""event"",""trial"",""time""
""fullscreenenter"",""1"",""9765""
","
","","","","","","null","<div style=""font-size:60px;"">+</div>","null","","fixation","","",""
"memory-trial","86","253928","0.0-18.0-1.21","6376","approach_avoid_sv1","""event"",""trial"",""time""
""fullscreenenter"",""1"",""9765""
","
","
","""event"",""trial"",""time""
""fullscreenenter"",""1"",""9765""
","
","","","","","","2168.600000023842","images/tree6.png","","","memory_trial","2","maybe_old",""
"html-keyboard-response","87","254429","0.0-18.0-0.22","6376","approach_avoid_sv1","""event"",""trial"",""time""
""fullscreenenter"",""1"",""9765""
","
","
","""event"",""trial"",""time""
""fullscreenenter"",""1"",""9765""
","
","","","","","","null","<div style=""font-size:60px;"">+</div>","null","","fixation","","",""
"memory-trial","88","256676","0.0-18.0-1.22","6376","approach_avoid_sv1","""event"",""trial"",""time""
""fullscreenenter"",""1"",""9765""
","
","
","""event"",""trial"",""time""
""fullscreenenter"",""1"",""9765""
","
","","","","","","1244.9000000357628","images/sofa2.png","","","memory_trial","4","definitely_new",""
"html-keyboard-response","89","257178","0.0-18.0-0.23","6376","approach_avoid_sv1","""event"",""trial"",""time""
""fullscreenenter"",""1"",""9765""
","
","
","""event"",""trial"",""time""
""fullscreenenter"",""1"",""9765""
","
","","","","","","null","<div style=""font-size:60px;"">+</div>","null","","fixation","","",""
"memory-trial","90","258967","0.0-18.0-1.23","6376","approach_avoid_sv1","""event"",""trial"",""time""
""fullscreenenter"",""1"",""9765""
","
","
","""event"",""trial"",""time""
""fullscreenenter"",""1"",""9765""
","
","","","","","","787.3000000119209","images/cow1.png","","","memory_trial","4","definitely_new",""
"html-keyboard-response","91","259470","0.0-18.0-0.24","6376","approach_avoid_sv1","""event"",""trial"",""time""
""fullscreenenter"",""1"",""9765""
","
","
","""event"",""trial"",""time""
""fullscreenenter"",""1"",""9765""
","
","","","","","","null","<div style=""font-size:60px;"">+</div>","null","","fixation","","",""
"memory-trial","92","261279","0.0-18.0-1.24","6376","approach_avoid_sv1","""event"",""trial"",""time""
""fullscreenenter"",""1"",""9765""
","
","
","""event"",""trial"",""time""
""fullscreenenter"",""1"",""9765""
","
","","","","","","806.8000000119209","images/chair5.png","","","memory_trial","4","definitely_new",""
"html-keyboard-response","93","261780","0.0-18.0-0.25","6376","approach_avoid_sv1","""event"",""trial"",""time""
""fullscreenenter"",""1"",""9765""
","
","
","""event"",""trial"",""time""
""fullscreenenter"",""1"",""9765""
","
","","","","","","null","<div style=""font-size:60px;"">+</div>","null","","fixation","","",""
"memory-trial","94","263759","0.0-18.0-1.25","6376","approach_avoid_sv1","""event"",""trial"",""time""
""fullscreenenter"",""1"",""9765""
","
","
","""event"",""trial"",""time""
""fullscreenenter"",""1"",""9765""
","
","","","","","","977.7000000476837","images/rodent6.png","","","memory_trial","4","definitely_new",""
"html-keyboard-response","95","264260","0.0-18.0-0.26","6376","approach_avoid_sv1","""event"",""trial"",""time""
""fullscreenenter"",""1"",""9765""
","
","
","""event"",""trial"",""time""
""fullscreenenter"",""1"",""9765""
","
","","","","","","null","<div style=""font-size:60px;"">+</div>","null","","fixation","","",""
"memory-trial","96","266548","0.0-18.0-1.26","6376","approach_avoid_sv1","""event"",""trial"",""time""
""fullscreenenter"",""1"",""9765""
","
","
","""event"",""trial"",""time""
""fullscreenenter"",""1"",""9765""
","
","","","","","","1285.6000000238419","images/table6.png","","","memory_trial","1","definitely_old",""
"html-keyboard-response","97","267049","0.0-18.0-0.27","6376","approach_avoid_sv1","""event"",""trial"",""time""
""fullscreenenter"",""1"",""9765""
","
","
","""event"",""trial"",""time""
""fullscreenenter"",""1"",""9765""
","
","","","","","","null","<div style=""font-size:60px;"">+</div>","null","","fixation","","",""
"memory-trial","98","270666","0.0-18.0-1.27","6376","approach_avoid_sv1","""event"",""trial"",""time""
""fullscreenenter"",""1"",""9765""
","
","
","""event"",""trial"",""time""
""fullscreenenter"",""1"",""9765""
","
","","","","","","2614.2999999523163","images/flower8.png","","","memory_trial","4","definitely_new",""
"html-keyboard-response","99","271167","0.0-18.0-0.28","6376","approach_avoid_sv1","""event"",""trial"",""time""
""fullscreenenter"",""1"",""9765""
","
","
","""event"",""trial"",""time""
""fullscreenenter"",""1"",""9765""
","
","","","","","","null","<div style=""font-size:60px;"">+</div>","null","","fixation","","",""
"memory-trial","100","272886","0.0-18.0-1.28","6376","approach_avoid_sv1","""event"",""trial"",""time""
""fullscreenenter"",""1"",""9765""
","
","
","""event"",""trial"",""time""
""fullscreenenter"",""1"",""9765""
","
","","","","","","716.8000000119209","images/cactus7.png","","","memory_trial","4","definitely_new",""
"html-keyboard-response","101","273387","0.0-18.0-0.29","6376","approach_avoid_sv1","""event"",""trial"",""time""
""fullscreenenter"",""1"",""9765""
","
","
","""event"",""trial"",""time""
""fullscreenenter"",""1"",""9765""
","
","","","","","","null","<div style=""font-size:60px;"">+</div>","null","","fixation","","",""
"memory-trial","102","275834","0.0-18.0-1.29","6376","approach_avoid_sv1","""event"",""trial"",""time""
""fullscreenenter"",""1"",""9765""
","
","
","""event"",""trial"",""time""
""fullscreenenter"",""1"",""9765""
","
","","","","","","1446.199999988079","images/train1.png","","","memory_trial","3","maybe_new",""
"html-keyboard-response","103","276335","0.0-18.0-0.30","6376","approach_avoid_sv1","""event"",""trial"",""time""
""fullscreenenter"",""1"",""9765""
","
","
","""event"",""trial"",""time""
""fullscreenenter"",""1"",""9765""
","
","","","","","","null","<div style=""font-size:60px;"">+</div>","null","","fixation","","",""
"memory-trial","104","278446","0.0-18.0-1.30","6376","approach_avoid_sv1","""event"",""trial"",""time""
""fullscreenenter"",""1"",""9765""
","
","
","""event"",""trial"",""time""
""fullscreenenter"",""1"",""9765""
","
","","","","","","1107.7999999523163","images/sofa7.png","","","memory_trial","4","definitely_new",""
"html-keyboard-response","105","278948","0.0-18.0-0.31","6376","approach_avoid_sv1","""event"",""trial"",""time""
""fullscreenenter"",""1"",""9765""
","
","
","""event"",""trial"",""time""
""fullscreenenter"",""1"",""9765""
","
","","","","","","null","<div style=""font-size:60px;"">+</div>","null","","fixation","","",""
"memory-trial","106","280659","0.0-18.0-1.31","6376","approach_avoid_sv1","""event"",""trial"",""time""
""fullscreenenter"",""1"",""9765""
","
","
","""event"",""trial"",""time""
""fullscreenenter"",""1"",""9765""
","
","","","","","","707.9000000357628","images/chair4.png","","","memory_trial","4","definitely_new",""
"html-keyboard-response","107","281160","0.0-18.0-0.32","6376","approach_avoid_sv1","""event"",""trial"",""time""
""fullscreenenter"",""1"",""9765""
","
","
","""event"",""trial"",""time""
""fullscreenenter"",""1"",""9765""
","
","","","","","","null","<div style=""font-size:60px;"">+</div>","null","","fixation","","",""
"memory-trial","108","284076","0.0-18.0-1.32","6376","approach_avoid_sv1","""event"",""trial"",""time""
""fullscreenenter"",""1"",""9765""
","
","
","""event"",""trial"",""time""
""fullscreenenter"",""1"",""9765""
","
","","","","","","1913.300000011921","images/rabbit3.png","","","memory_trial","2","maybe_old",""
"html-keyboard-response","109","284577","0.0-18.0-0.33","6376","approach_avoid_sv1","""event"",""trial"",""time""
""fullscreenenter"",""1"",""9765""
","
","
","""event"",""trial"",""time""
""fullscreenenter"",""1"",""9765""
","
","","","","","","null","<div style=""font-size:60px;"">+</div>","null","","fixation","","",""
"memory-trial","110","286460","0.0-18.0-1.33","6376","approach_avoid_sv1","""event"",""trial"",""time""
""fullscreenenter"",""1"",""9765""
","
","
","""event"",""trial"",""time""
""fullscreenenter"",""1"",""9765""
","
","","","","","","881.5","images/plane3.png","","","memory_trial","4","definitely_new",""
"html-keyboard-response","111","286971","0.0-18.0-0.34","6376","approach_avoid_sv1","""event"",""trial"",""time""
""fullscreenenter"",""1"",""9765""
","
","
","""event"",""trial"",""time""
""fullscreenenter"",""1"",""9765""
","
","","","","","","null","<div style=""font-size:60px;"">+</div>","null","","fixation","","",""
"memory-trial","112","288812","0.0-18.0-1.34","6376","approach_avoid_sv1","""event"",""trial"",""time""
""fullscreenenter"",""1"",""9765""
","
","
","""event"",""trial"",""time""
""fullscreenenter"",""1"",""9765""
","
","","","","","","839","images/cactus2.png","","","memory_trial","4","definitely_new",""
"html-keyboard-response","113","289314","0.0-18.0-0.35","6376","approach_avoid_sv1","""event"",""trial"",""time""
""fullscreenenter"",""1"",""9765""
","
","
","""event"",""trial"",""time""
""fullscreenenter"",""1"",""9765""
","
","","","","","","null","<div style=""font-size:60px;"">+</div>","null","","fixation","","",""
"memory-trial","114","291666","0.0-18.0-1.35","6376","approach_avoid_sv1","""event"",""trial"",""time""
""fullscreenenter"",""1"",""9765""
","
","
","""event"",""trial"",""time""
""fullscreenenter"",""1"",""9765""
","
","","","","","","1350.3999999761581","images/cat6.png","","","memory_trial","1","definitely_old",""
"html-keyboard-response","115","292167","0.0-18.0-0.36","6376","approach_avoid_sv1","""event"",""trial"",""time""
""fullscreenenter"",""1"",""9765""
","
","
","""event"",""trial"",""time""
""fullscreenenter"",""1"",""9765""
","
","","","","","","null","<div style=""font-size:60px;"">+</div>","null","","fixation","","",""
"memory-trial","116","294184","0.0-18.0-1.36","6376","approach_avoid_sv1","""event"",""trial"",""time""
""fullscreenenter"",""1"",""9765""
","
","
","""event"",""trial"",""time""
""fullscreenenter"",""1"",""9765""
","
","","","","","","1013.7000000476837","images/truck8.png","","","memory_trial","1","definitely_old",""
"html-keyboard-response","117","294685","0.0-18.0-0.37","6376","approach_avoid_sv1","""event"",""trial"",""time""
""fullscreenenter"",""1"",""9765""
","
","
","""event"",""trial"",""time""
""fullscreenenter"",""1"",""9765""
","
","","","","","","null","<div style=""font-size:60px;"">+</div>","null","","fixation","","",""
"memory-trial","118","296680","0.0-18.0-1.37","6376","approach_avoid_sv1","""event"",""trial"",""time""
""fullscreenenter"",""1"",""9765""
","
","
","""event"",""trial"",""time""
""fullscreenenter"",""1"",""9765""
","
","","","","","","992","images/chair1.png","","","memory_trial","4","definitely_new",""
"html-keyboard-response","119","297181","0.0-18.0-0.38","6376","approach_avoid_sv1","""event"",""trial"",""time""
""fullscreenenter"",""1"",""9765""
","
","
","""event"",""trial"",""time""
""fullscreenenter"",""1"",""9765""
","
","","","","","","null","<div style=""font-size:60px;"">+</div>","null","","fixation","","",""
"memory-trial","120","298810","0.0-18.0-1.38","6376","approach_avoid_sv1","""event"",""trial"",""time""
""fullscreenenter"",""1"",""9765""
","
","
","""event"",""trial"",""time""
""fullscreenenter"",""1"",""9765""
","
","","","","","","625.6999999880791","images/plane4.png","","","memory_trial","4","definitely_new",""
"html-keyboard-response","121","299311","0.0-18.0-0.39","6376","approach_avoid_sv1","""event"",""trial"",""time""
""fullscreenenter"",""1"",""9765""
","
","
","""event"",""trial"",""time""
""fullscreenenter"",""1"",""9765""
","
","","","","","","null","<div style=""font-size:60px;"">+</div>","null","","fixation","","",""
"memory-trial","122","301270","0.0-18.0-1.39","6376","approach_avoid_sv1","""event"",""trial"",""time""
""fullscreenenter"",""1"",""9765""
","
","
","""event"",""trial"",""time""
""fullscreenenter"",""1"",""9765""
","
","","","","","","957.0999999642372","images/boat2.png","","","memory_trial","1","definitely_old",""
"html-keyboard-response","123","301771","0.0-18.0-0.40","6376","approach_avoid_sv1","""event"",""trial"",""time""
""fullscreenenter"",""1"",""9765""
","
","
","""event"",""trial"",""time""
""fullscreenenter"",""1"",""9765""
","
","","","","","","null","<div style=""font-size:60px;"">+</div>","null","","fixation","","",""
"memory-trial","124","304363","0.0-18.0-1.40","6376","approach_avoid_sv1","""event"",""trial"",""time""
""fullscreenenter"",""1"",""9765""
","
","
","""event"",""trial"",""time""
""fullscreenenter"",""1"",""9765""
","
","","","","","","1589.699999988079","images/rabbit7.png","","","memory_trial","1","definitely_old",""
"html-keyboard-response","125","304865","0.0-18.0-0.41","6376","approach_avoid_sv1","""event"",""trial"",""time""
""fullscreenenter"",""1"",""9765""
","
","
","""event"",""trial"",""time""
""fullscreenenter"",""1"",""9765""
","
","","","","","","null","<div style=""font-size:60px;"">+</div>","null","","fixation","","",""
"memory-trial","126","307628","0.0-18.0-1.41","6376","approach_avoid_sv1","""event"",""trial"",""time""
""fullscreenenter"",""1"",""9765""
","
","
","""event"",""trial"",""time""
""fullscreenenter"",""1"",""9765""
","
","","","","","","1759.699999988079","images/goat4.png","","","memory_trial","3","maybe_new",""
"html-button-response","127","309811","0.0-18.0-2.41-0.41","6376","approach_avoid_sv1","""event"",""trial"",""time""
""fullscreenenter"",""1"",""9765""
","
","
","""event"",""trial"",""time""
""fullscreenenter"",""1"",""9765""
","
","","","","","","2183","<p> Take a break! </p><p> Click the button to continue. </p>","0","","break","","",""
"html-keyboard-response","128","310313","0.0-18.0-0.42","6376","approach_avoid_sv1","""event"",""trial"",""time""
""fullscreenenter"",""1"",""9765""
","
","
","""event"",""trial"",""time""
""fullscreenenter"",""1"",""9765""
","
","","","","","","null","<div style=""font-size:60px;"">+</div>","null","","fixation","","",""
"memory-trial","129","314111","0.0-18.0-1.42","6376","approach_avoid_sv1","""event"",""trial"",""time""
""fullscreenenter"",""1"",""9765""
","
","
","""event"",""trial"",""time""
""fullscreenenter"",""1"",""9765""
","
","","","","","","2796.199999988079","images/rabbit6.png","","","memory_trial","3","maybe_new",""
"html-keyboard-response","130","314613","0.0-18.0-0.43","6376","approach_avoid_sv1","""event"",""trial"",""time""
""fullscreenenter"",""1"",""9765""
","
","
","""event"",""trial"",""time""
""fullscreenenter"",""1"",""9765""
","
","","","","","","null","<div style=""font-size:60px;"">+</div>","null","","fixation","","",""
"memory-trial","131","317812","0.0-18.0-1.43","6376","approach_avoid_sv1","""event"",""trial"",""time""
""fullscreenenter"",""1"",""9765""
","
","
","""event"",""trial"",""time""
""fullscreenenter"",""1"",""9765""
","
","","","","","","2196.899999976158","images/banana4.png","","","memory_trial","2","maybe_old",""
"html-keyboard-response","132","318313","0.0-18.0-0.44","6376","approach_avoid_sv1","""event"",""trial"",""time""
""fullscreenenter"",""1"",""9765""
","
","
","""event"",""trial"",""time""
""fullscreenenter"",""1"",""9765""
","
","","","","","","null","<div style=""font-size:60px;"">+</div>","null","","fixation","","",""
"memory-trial","133","321143","0.0-18.0-1.44","6376","approach_avoid_sv1","""event"",""trial"",""time""
""fullscreenenter"",""1"",""9765""
","
","
","""event"",""trial"",""time""
""fullscreenenter"",""1"",""9765""
","
","","","","","","1827.4000000357628","images/train3.png","","","memory_trial","2","maybe_old",""
"html-keyboard-response","134","321644","0.0-18.0-0.45","6376","approach_avoid_sv1","""event"",""trial"",""time""
""fullscreenenter"",""1"",""9765""
","
","
","""event"",""trial"",""time""
""fullscreenenter"",""1"",""9765""
","
","","","","","","null","<div style=""font-size:60px;"">+</div>","null","","fixation","","",""
"memory-trial","135","323659","0.0-18.0-1.45","6376","approach_avoid_sv1","""event"",""trial"",""time""
""fullscreenenter"",""1"",""9765""
","
","
","""event"",""trial"",""time""
""fullscreenenter"",""1"",""9765""
","
","","","","","","1012.0999999642372","images/bed5.png","","","memory_trial","1","definitely_old",""
"html-keyboard-response","136","324160","0.0-18.0-0.46","6376","approach_avoid_sv1","""event"",""trial"",""time""
""fullscreenenter"",""1"",""9765""
","
","
","""event"",""trial"",""time""
""fullscreenenter"",""1"",""9765""
","
","","","","","","null","<div style=""font-size:60px;"">+</div>","null","","fixation","","",""
"memory-trial","137","326143","0.0-18.0-1.46","6376","approach_avoid_sv1","""event"",""trial"",""time""
""fullscreenenter"",""1"",""9765""
","
","
","""event"",""trial"",""time""
""fullscreenenter"",""1"",""9765""
","
","","","","","","981.3000000119209","images/boat8.png","","","memory_trial","1","definitely_old",""
"html-keyboard-response","138","326645","0.0-18.0-0.47","6376","approach_avoid_sv1","""event"",""trial"",""time""
""fullscreenenter"",""1"",""9765""
","
","
","""event"",""trial"",""time""
""fullscreenenter"",""1"",""9765""
","
","","","","","","null","<div style=""font-size:60px;"">+</div>","null","","fixation","","",""
"memory-trial","139","329112","0.0-18.0-1.47","6376","approach_avoid_sv1","""event"",""trial"",""time""
""fullscreenenter"",""1"",""9765""
","
","
","""event"",""trial"",""time""
""fullscreenenter"",""1"",""9765""
","
","","","","","","1463.6000000238419","images/truck5.png","","","memory_trial","4","definitely_new",""
"html-keyboard-response","140","329613","0.0-18.0-0.48","6376","approach_avoid_sv1","""event"",""trial"",""time""
""fullscreenenter"",""1"",""9765""
","
","
","""event"",""trial"",""time""
""fullscreenenter"",""1"",""9765""
","
","","","","","","null","<div style=""font-size:60px;"">+</div>","null","","fixation","","",""
"memory-trial","141","333348","0.0-18.0-1.48","6376","approach_avoid_sv1","""event"",""trial"",""time""
""fullscreenenter"",""1"",""9765""
","
","
","""event"",""trial"",""time""
""fullscreenenter"",""1"",""9765""
","
","","","","","","2733.300000011921","images/flower2.png","","","memory_trial","3","maybe_new",""
"html-keyboard-response","142","333849","0.0-18.0-0.49","6376","approach_avoid_sv1","""event"",""trial"",""time""
""fullscreenenter"",""1"",""9765""
","
","
","""event"",""trial"",""time""
""fullscreenenter"",""1"",""9765""
","
","","","","","","null","<div style=""font-size:60px;"">+</div>","null","","fixation","","",""
"memory-trial","143","335968","0.0-18.0-1.49","6376","approach_avoid_sv1","""event"",""trial"",""time""
""fullscreenenter"",""1"",""9765""
","
","
","""event"",""trial"",""time""
""fullscreenenter"",""1"",""9765""
","
","","","","","","1116.300000011921","images/apple5.png","","","memory_trial","4","definitely_new",""
"html-keyboard-response","144","336469","0.0-18.0-0.50","6376","approach_avoid_sv1","""event"",""trial"",""time""
""fullscreenenter"",""1"",""9765""
","
","
","""event"",""trial"",""time""
""fullscreenenter"",""1"",""9765""
","
","","","","","","null","<div style=""font-size:60px;"">+</div>","null","","fixation","","",""
"memory-trial","145","339039","0.0-18.0-1.50","6376","approach_avoid_sv1","""event"",""trial"",""time""
""fullscreenenter"",""1"",""9765""
","
","
","""event"",""trial"",""time""
""fullscreenenter"",""1"",""9765""
","
","","","","","","1568","images/bush5.png","","","memory_trial","4","definitely_new",""
"html-keyboard-response","146","339539","0.0-18.0-0.51","6376","approach_avoid_sv1","""event"",""trial"",""time""
""fullscreenenter"",""1"",""9765""
","
","
","""event"",""trial"",""time""
""fullscreenenter"",""1"",""9765""
","
","","","","","","null","<div style=""font-size:60px;"">+</div>","null","","fixation","","",""
"memory-trial","147","342741","0.0-18.0-1.51","6376","approach_avoid_sv1","""event"",""trial"",""time""
""fullscreenenter"",""1"",""9765""
","
","
","""event"",""trial"",""time""
""fullscreenenter"",""1"",""9765""
","
","","","","","","2199.199999988079","images/orange6.png","","","memory_trial","4","definitely_new",""
"html-keyboard-response","148","343243","0.0-18.0-0.52","6376","approach_avoid_sv1","""event"",""trial"",""time""
""fullscreenenter"",""1"",""9765""
","
","
","""event"",""trial"",""time""
""fullscreenenter"",""1"",""9765""
","
","","","","","","null","<div style=""font-size:60px;"">+</div>","null","","fixation","","",""
"memory-trial","149","346392","0.0-18.0-1.52","6376","approach_avoid_sv1","""event"",""trial"",""time""
""fullscreenenter"",""1"",""9765""
","
","
","""event"",""trial"",""time""
""fullscreenenter"",""1"",""9765""
","
","","","","","","2147.2999999523163","images/goat5.png","","","memory_trial","3","maybe_new",""
"html-keyboard-response","150","346894","0.0-18.0-0.53","6376","approach_avoid_sv1","""event"",""trial"",""time""
""fullscreenenter"",""1"",""9765""
","
","
","""event"",""trial"",""time""
""fullscreenenter"",""1"",""9765""
","
","","","","","","null","<div style=""font-size:60px;"">+</div>","null","","fixation","","",""
"memory-trial","151","349153","0.0-18.0-1.53","6376","approach_avoid_sv1","""event"",""trial"",""time""
""fullscreenenter"",""1"",""9765""
","
","
","""event"",""trial"",""time""
""fullscreenenter"",""1"",""9765""
","
","","","","","","1257.5999999642372","images/horse4.png","","","memory_trial","4","definitely_new",""
"html-keyboard-response","152","349654","0.0-18.0-0.54","6376","approach_avoid_sv1","""event"",""trial"",""time""
""fullscreenenter"",""1"",""9765""
","
","
","""event"",""trial"",""time""
""fullscreenenter"",""1"",""9765""
","
","","","","","","null","<div style=""font-size:60px;"">+</div>","null","","fixation","","",""
"memory-trial","153","352516","0.0-18.0-1.54","6376","approach_avoid_sv1","""event"",""trial"",""time""
""fullscreenenter"",""1"",""9765""
","
","
","""event"",""trial"",""time""
""fullscreenenter"",""1"",""9765""
","
","","","","","","1858.0999999642372","images/horse6.png","","","memory_trial","4","definitely_new",""
"html-keyboard-response","154","353018","0.0-18.0-0.55","6376","approach_avoid_sv1","""event"",""trial"",""time""
""fullscreenenter"",""1"",""9765""
","
","
","""event"",""trial"",""time""
""fullscreenenter"",""1"",""9765""
","
","","","","","","null","<div style=""font-size:60px;"">+</div>","null","","fixation","","",""
"memory-trial","155","356002","0.0-18.0-1.55","6376","approach_avoid_sv1","""event"",""trial"",""time""
""fullscreenenter"",""1"",""9765""
","
","
","""event"",""trial"",""time""
""fullscreenenter"",""1"",""9765""
","
","","","","","","1982.300000011921","images/sheep8.png","","","memory_trial","3","maybe_new",""
"html-keyboard-response","156","356503","0.0-18.0-0.56","6376","approach_avoid_sv1","""event"",""trial"",""time""
""fullscreenenter"",""1"",""9765""
","
","
","""event"",""trial"",""time""
""fullscreenenter"",""1"",""9765""
","
","","","","","","null","<div style=""font-size:60px;"">+</div>","null","","fixation","","",""
"memory-trial","157","358716","0.0-18.0-1.56","6376","approach_avoid_sv1","""event"",""trial"",""time""
""fullscreenenter"",""1"",""9765""
","
","
","""event"",""trial"",""time""
""fullscreenenter"",""1"",""9765""
","
","","","","","","1210.699999988079","images/bed3.png","","","memory_trial","4","definitely_new",""
"html-keyboard-response","158","359218","0.0-18.0-0.57","6376","approach_avoid_sv1","""event"",""trial"",""time""
""fullscreenenter"",""1"",""9765""
","
","
","""event"",""trial"",""time""
""fullscreenenter"",""1"",""9765""
","
","","","","","","null","<div style=""font-size:60px;"">+</div>","null","","fixation","","",""
"memory-trial","159","362130","0.0-18.0-1.57","6376","approach_avoid_sv1","""event"",""trial"",""time""
""fullscreenenter"",""1"",""9765""
","
","
","""event"",""trial"",""time""
""fullscreenenter"",""1"",""9765""
","
","","","","","","1910","images/chair2.png","","","memory_trial","2","maybe_old",""
"html-keyboard-response","160","362631","0.0-18.0-0.58","6376","approach_avoid_sv1","""event"",""trial"",""time""
""fullscreenenter"",""1"",""9765""
","
","
","""event"",""trial"",""time""
""fullscreenenter"",""1"",""9765""
","
","","","","","","null","<div style=""font-size:60px;"">+</div>","null","","fixation","","",""
"memory-trial","161","365835","0.0-18.0-1.58","6376","approach_avoid_sv1","""event"",""trial"",""time""
""fullscreenenter"",""1"",""9765""
","
","
","""event"",""trial"",""time""
""fullscreenenter"",""1"",""9765""
","
","","","","","","2201.800000011921","images/bush6.png","","","memory_trial","4","definitely_new",""
"html-keyboard-response","162","366336","0.0-18.0-0.59","6376","approach_avoid_sv1","""event"",""trial"",""time""
""fullscreenenter"",""1"",""9765""
","
","
","""event"",""trial"",""time""
""fullscreenenter"",""1"",""9765""
","
","","","","","","null","<div style=""font-size:60px;"">+</div>","null","","fixation","","",""
"memory-trial","163","369745","0.0-18.0-1.59","6376","approach_avoid_sv1","""event"",""trial"",""time""
""fullscreenenter"",""1"",""9765""
","
","
","""event"",""trial"",""time""
""fullscreenenter"",""1"",""9765""
","
","","","","","","2407","images/horse5.png","","","memory_trial","4","definitely_new",""
"html-keyboard-response","164","370247","0.0-18.0-0.60","6376","approach_avoid_sv1","""event"",""trial"",""time""
""fullscreenenter"",""1"",""9765""
","
","
","""event"",""trial"",""time""
""fullscreenenter"",""1"",""9765""
","
","","","","","","null","<div style=""font-size:60px;"">+</div>","null","","fixation","","",""
"memory-trial","165","372331","0.0-18.0-1.60","6376","approach_avoid_sv1","""event"",""trial"",""time""
""fullscreenenter"",""1"",""9765""
","
","
","""event"",""trial"",""time""
""fullscreenenter"",""1"",""9765""
","
","","","","","","1082.4000000357628","images/goat6.png","","","memory_trial","4","definitely_new",""
"html-keyboard-response","166","372832","0.0-18.0-0.61","6376","approach_avoid_sv1","""event"",""trial"",""time""
""fullscreenenter"",""1"",""9765""
","
","
","""event"",""trial"",""time""
""fullscreenenter"",""1"",""9765""
","
","","","","","","null","<div style=""font-size:60px;"">+</div>","null","","fixation","","",""
"memory-trial","167","374710","0.0-18.0-1.61","6376","approach_avoid_sv1","""event"",""trial"",""time""
""fullscreenenter"",""1"",""9765""
","
","
","""event"",""trial"",""time""
""fullscreenenter"",""1"",""9765""
","
","","","","","","876.1999999880791","images/table1.png","","","memory_trial","1","definitely_old",""
"html-keyboard-response","168","375212","0.0-18.0-0.62","6376","approach_avoid_sv1","""event"",""trial"",""time""
""fullscreenenter"",""1"",""9765""
","
","
","""event"",""trial"",""time""
""fullscreenenter"",""1"",""9765""
","
","","","","","","null","<div style=""font-size:60px;"">+</div>","null","","fixation","","",""
"memory-trial","169","377475","0.0-18.0-1.62","6376","approach_avoid_sv1","""event"",""trial"",""time""
""fullscreenenter"",""1"",""9765""
","
","
","""event"",""trial"",""time""
""fullscreenenter"",""1"",""9765""
","
","","","","","","1260","images/straw6.png","","","memory_trial","1","definitely_old",""
"html-keyboard-response","170","377977","0.0-18.0-0.63","6376","approach_avoid_sv1","""event"",""trial"",""time""
""fullscreenenter"",""1"",""9765""
","
","
","""event"",""trial"",""time""
""fullscreenenter"",""1"",""9765""
","
","","","","","","null","<div style=""font-size:60px;"">+</div>","null","","fixation","","",""
"memory-trial","171","381000","0.0-18.0-1.63","6376","approach_avoid_sv1","""event"",""trial"",""time""
""fullscreenenter"",""1"",""9765""
","
","
","""event"",""trial"",""time""
""fullscreenenter"",""1"",""9765""
","
","","","","","","2021.4000000357628","images/cow7.png","","","memory_trial","4","definitely_new",""
"html-keyboard-response","172","381501","0.0-18.0-0.64","6376","approach_avoid_sv1","""event"",""trial"",""time""
""fullscreenenter"",""1"",""9765""
","
","
","""event"",""trial"",""time""
""fullscreenenter"",""1"",""9765""
","
","","","","","","null","<div style=""font-size:60px;"">+</div>","null","","fixation","","",""
"memory-trial","173","383217","0.0-18.0-1.64","6376","approach_avoid_sv1","""event"",""trial"",""time""
""fullscreenenter"",""1"",""9765""
","
","
","""event"",""trial"",""time""
""fullscreenenter"",""1"",""9765""
","
","","","","","","714","images/dog5.png","","","memory_trial","4","definitely_new",""
"html-keyboard-response","174","383718","0.0-18.0-0.65","6376","approach_avoid_sv1","""event"",""trial"",""time""
""fullscreenenter"",""1"",""9765""
","
","
","""event"",""trial"",""time""
""fullscreenenter"",""1"",""9765""
","
","","","","","","null","<div style=""font-size:60px;"">+</div>","null","","fixation","","",""
"memory-trial","175","386225","0.0-18.0-1.65","6376","approach_avoid_sv1","""event"",""trial"",""time""
""fullscreenenter"",""1"",""9765""
","
","
","""event"",""trial"",""time""
""fullscreenenter"",""1"",""9765""
","
","","","","","","1504.199999988079","images/flower5.png","","","memory_trial","4","definitely_new",""
"html-keyboard-response","176","386726","0.0-18.0-0.66","6376","approach_avoid_sv1","""event"",""trial"",""time""
""fullscreenenter"",""1"",""9765""
","
","
","""event"",""trial"",""time""
""fullscreenenter"",""1"",""9765""
","
","","","","","","null","<div style=""font-size:60px;"">+</div>","null","","fixation","","",""
"memory-trial","177","388722","0.0-18.0-1.66","6376","approach_avoid_sv1","""event"",""trial"",""time""
""fullscreenenter"",""1"",""9765""
","
","
","""event"",""trial"",""time""
""fullscreenenter"",""1"",""9765""
","
","","","","","","994.8000000119209","images/horse7.png","","","memory_trial","4","definitely_new",""
"html-keyboard-response","178","389223","0.0-18.0-0.67","6376","approach_avoid_sv1","""event"",""trial"",""time""
""fullscreenenter"",""1"",""9765""
","
","
","""event"",""trial"",""time""
""fullscreenenter"",""1"",""9765""
","
","","","","","","null","<div style=""font-size:60px;"">+</div>","null","","fixation","","",""
"memory-trial","179","391597","0.0-18.0-1.67","6376","approach_avoid_sv1","""event"",""trial"",""time""
""fullscreenenter"",""1"",""9765""
","
","
","""event"",""trial"",""time""
""fullscreenenter"",""1"",""9765""
","
","","","","","","1371.3999999761581","images/apple4.png","","","memory_trial","4","definitely_new",""
"html-keyboard-response","180","392098","0.0-18.0-0.68","6376","approach_avoid_sv1","""event"",""trial"",""time""
""fullscreenenter"",""1"",""9765""
","
","
","""event"",""trial"",""time""
""fullscreenenter"",""1"",""9765""
","
","","","","","","null","<div style=""font-size:60px;"">+</div>","null","","fixation","","",""
"memory-trial","181","394602","0.0-18.0-1.68","6376","approach_avoid_sv1","""event"",""trial"",""time""
""fullscreenenter"",""1"",""9765""
","
","
","""event"",""trial"",""time""
""fullscreenenter"",""1"",""9765""
","
","","","","","","1501","images/cat8.png","","","memory_trial","1","definitely_old",""
"html-keyboard-response","182","395103","0.0-18.0-0.69","6376","approach_avoid_sv1","""event"",""trial"",""time""
""fullscreenenter"",""1"",""9765""
","
","
","""event"",""trial"",""time""
""fullscreenenter"",""1"",""9765""
","
","","","","","","null","<div style=""font-size:60px;"">+</div>","null","","fixation","","",""
"memory-trial","183","397199","0.0-18.0-1.69","6376","approach_avoid_sv1","""event"",""trial"",""time""
""fullscreenenter"",""1"",""9765""
","
","
","""event"",""trial"",""time""
""fullscreenenter"",""1"",""9765""
","
","","","","","","1094.5","images/bed1.png","","","memory_trial","1","definitely_old",""
"html-keyboard-response","184","397700","0.0-18.0-0.70","6376","approach_avoid_sv1","""event"",""trial"",""time""
""fullscreenenter"",""1"",""9765""
","
","
","""event"",""trial"",""time""
""fullscreenenter"",""1"",""9765""
","
","","","","","","null","<div style=""font-size:60px;"">+</div>","null","","fixation","","",""
"memory-trial","185","400353","0.0-18.0-1.70","6376","approach_avoid_sv1","""event"",""trial"",""time""
""fullscreenenter"",""1"",""9765""
","
","
","""event"",""trial"",""time""
""fullscreenenter"",""1"",""9765""
","
","","","","","","1650.300000011921","images/cat3.png","","","memory_trial","4","definitely_new",""
"html-keyboard-response","186","400855","0.0-18.0-0.71","6376","approach_avoid_sv1","""event"",""trial"",""time""
""fullscreenenter"",""1"",""9765""
","
","
","""event"",""trial"",""time""
""fullscreenenter"",""1"",""9765""
","
","","","","","","null","<div style=""font-size:60px;"">+</div>","null","","fixation","","",""
"memory-trial","187","403116","0.0-18.0-1.71","6376","approach_avoid_sv1","""event"",""trial"",""time""
""fullscreenenter"",""1"",""9765""
","
","
","""event"",""trial"",""time""
""fullscreenenter"",""1"",""9765""
","
","","","","","","1258.300000011921","images/sheep7.png","","","memory_trial","1","definitely_old",""
"html-keyboard-response","188","403617","0.0-18.0-0.72","6376","approach_avoid_sv1","""event"",""trial"",""time""
""fullscreenenter"",""1"",""9765""
","
","
","""event"",""trial"",""time""
""fullscreenenter"",""1"",""9765""
","
","","","","","","null","<div style=""font-size:60px;"">+</div>","null","","fixation","","",""
"memory-trial","189","406075","0.0-18.0-1.72","6376","approach_avoid_sv1","""event"",""trial"",""time""
""fullscreenenter"",""1"",""9765""
","
","
","""event"",""trial"",""time""
""fullscreenenter"",""1"",""9765""
","
","","","","","","1456.300000011921","images/bed7.png","","","memory_trial","1","definitely_old",""
"html-keyboard-response","190","406576","0.0-18.0-0.73","6376","approach_avoid_sv1","""event"",""trial"",""time""
""fullscreenenter"",""1"",""9765""
","
","
","""event"",""trial"",""time""
""fullscreenenter"",""1"",""9765""
","
","","","","","","null","<div style=""font-size:60px;"">+</div>","null","","fixation","","",""
"memory-trial","191","409131","0.0-18.0-1.73","6376","approach_avoid_sv1","""event"",""trial"",""time""
""fullscreenenter"",""1"",""9765""
","
","
","""event"",""trial"",""time""
""fullscreenenter"",""1"",""9765""
","
","","","","","","1554","images/orange3.png","","","memory_trial","1","definitely_old",""
"html-keyboard-response","192","409633","0.0-18.0-0.74","6376","approach_avoid_sv1","""event"",""trial"",""time""
""fullscreenenter"",""1"",""9765""
","
","
","""event"",""trial"",""time""
""fullscreenenter"",""1"",""9765""
","
","","","","","","null","<div style=""font-size:60px;"">+</div>","null","","fixation","","",""
"memory-trial","193","413299","0.0-18.0-1.74","6376","approach_avoid_sv1","""event"",""trial"",""time""
""fullscreenenter"",""1"",""9765""
","
","
","""event"",""trial"",""time""
""fullscreenenter"",""1"",""9765""
","
","","","","","","2664.199999988079","images/boat7.png","","","memory_trial","3","maybe_new",""
"html-keyboard-response","194","413800","0.0-18.0-0.75","6376","approach_avoid_sv1","""event"",""trial"",""time""
""fullscreenenter"",""1"",""9765""
","
","
","""event"",""trial"",""time""
""fullscreenenter"",""1"",""9765""
","
","","","","","","null","<div style=""font-size:60px;"">+</div>","null","","fixation","","",""
"memory-trial","195","415757","0.0-18.0-1.75","6376","approach_avoid_sv1","""event"",""trial"",""time""
""fullscreenenter"",""1"",""9765""
","
","
","""event"",""trial"",""time""
""fullscreenenter"",""1"",""9765""
","
","","","","","","944.6999999880791","images/apple1.png","","","memory_trial","4","definitely_new",""
"html-keyboard-response","196","416270","0.0-18.0-0.76","6376","approach_avoid_sv1","""event"",""trial"",""time""
""fullscreenenter"",""1"",""9765""
","
","
","""event"",""trial"",""time""
""fullscreenenter"",""1"",""9765""
","
","","","","","","null","<div style=""font-size:60px;"">+</div>","null","","fixation","","",""
"memory-trial","197","418983","0.0-18.0-1.76","6376","approach_avoid_sv1","""event"",""trial"",""time""
""fullscreenenter"",""1"",""9765""
","
","
","""event"",""trial"",""time""
""fullscreenenter"",""1"",""9765""
","
","","","","","","1710.5","images/sheep5.png","","","memory_trial","3","maybe_new",""
"html-keyboard-response","198","419484","0.0-18.0-0.77","6376","approach_avoid_sv1","""event"",""trial"",""time""
""fullscreenenter"",""1"",""9765""
","
","
","""event"",""trial"",""time""
""fullscreenenter"",""1"",""9765""
","
","","","","","","null","<div style=""font-size:60px;"">+</div>","null","","fixation","","",""
"memory-trial","199","421899","0.0-18.0-1.77","6376","approach_avoid_sv1","""event"",""trial"",""time""
""fullscreenenter"",""1"",""9765""
","
","
","""event"",""trial"",""time""
""fullscreenenter"",""1"",""9765""
","
","","","","","","1412.9000000357628","images/rabbit1.png","","","memory_trial","1","definitely_old",""
"html-keyboard-response","200","422401","0.0-18.0-0.78","6376","approach_avoid_sv1","""event"",""trial"",""time""
""fullscreenenter"",""1"",""9765""
","
","
","""event"",""trial"",""time""
""fullscreenenter"",""1"",""9765""
","
","","","","","","null","<div style=""font-size:60px;"">+</div>","null","","fixation","","",""
"memory-trial","201","426129","0.0-18.0-1.78","6376","approach_avoid_sv1","""event"",""trial"",""time""
""fullscreenenter"",""1"",""9765""
","
","
","""event"",""trial"",""time""
""fullscreenenter"",""1"",""9765""
","
","","","","","","2725","images/dog7.png","","","memory_trial","4","definitely_new",""
"html-keyboard-response","202","426631","0.0-18.0-0.79","6376","approach_avoid_sv1","""event"",""trial"",""time""
""fullscreenenter"",""1"",""9765""
","
","
","""event"",""trial"",""time""
""fullscreenenter"",""1"",""9765""
","
","","","","","","null","<div style=""font-size:60px;"">+</div>","null","","fixation","","",""
"memory-trial","203","430749","0.0-18.0-1.79","6376","approach_avoid_sv1","""event"",""trial"",""time""
""fullscreenenter"",""1"",""9765""
","
","
","""event"",""trial"",""time""
""fullscreenenter"",""1"",""9765""
","
","","","","","","3115.199999988079","images/sofa1.png","","","memory_trial","3","maybe_new",""
"html-keyboard-response","204","431251","0.0-18.0-0.80","6376","approach_avoid_sv1","""event"",""trial"",""time""
""fullscreenenter"",""1"",""9765""
","
","
","""event"",""trial"",""time""
""fullscreenenter"",""1"",""9765""
","
","","","","","","null","<div style=""font-size:60px;"">+</div>","null","","fixation","","",""
"memory-trial","205","433962","0.0-18.0-1.80","6376","approach_avoid_sv1","""event"",""trial"",""time""
""fullscreenenter"",""1"",""9765""
","
","
","""event"",""trial"",""time""
""fullscreenenter"",""1"",""9765""
","
","","","","","","1708.5999999642372","images/train2.png","","","memory_trial","3","maybe_new",""
"html-keyboard-response","206","434463","0.0-18.0-0.81","6376","approach_avoid_sv1","""event"",""trial"",""time""
""fullscreenenter"",""1"",""9765""
","
","
","""event"",""trial"",""time""
""fullscreenenter"",""1"",""9765""
","
","","","","","","null","<div style=""font-size:60px;"">+</div>","null","","fixation","","",""
"memory-trial","207","437140","0.0-18.0-1.81","6376","approach_avoid_sv1","""event"",""trial"",""time""
""fullscreenenter"",""1"",""9765""
","
","
","""event"",""trial"",""time""
""fullscreenenter"",""1"",""9765""
","
","","","","","","1675.2999999523163","images/bush4.png","","","memory_trial","1","definitely_old",""
"html-keyboard-response","208","437643","0.0-18.0-0.82","6376","approach_avoid_sv1","""event"",""trial"",""time""
""fullscreenenter"",""1"",""9765""
","
","
","""event"",""trial"",""time""
""fullscreenenter"",""1"",""9765""
","
","","","","","","null","<div style=""font-size:60px;"">+</div>","null","","fixation","","",""
"memory-trial","209","439969","0.0-18.0-1.82","6376","approach_avoid_sv1","""event"",""trial"",""time""
""fullscreenenter"",""1"",""9765""
","
","
","""event"",""trial"",""time""
""fullscreenenter"",""1"",""9765""
","
","","","","","","1324.199999988079","images/bush3.png","","","memory_trial","1","definitely_old",""
"html-keyboard-response","210","440472","0.0-18.0-0.83","6376","approach_avoid_sv1","""event"",""trial"",""time""
""fullscreenenter"",""1"",""9765""
","
","
","""event"",""trial"",""time""
""fullscreenenter"",""1"",""9765""
","
","","","","","","null","<div style=""font-size:60px;"">+</div>","null","","fixation","","",""
"memory-trial","211","443219","0.0-18.0-1.83","6376","approach_avoid_sv1","""event"",""trial"",""time""
""fullscreenenter"",""1"",""9765""
","
","
","""event"",""trial"",""time""
""fullscreenenter"",""1"",""9765""
","
","","","","","","1746","images/bed4.png","","","memory_trial","2","maybe_old",""
"html-keyboard-response","212","443721","0.0-18.0-0.84","6376","approach_avoid_sv1","""event"",""trial"",""time""
""fullscreenenter"",""1"",""9765""
","
","
","""event"",""trial"",""time""
""fullscreenenter"",""1"",""9765""
","
","","","","","","null","<div style=""font-size:60px;"">+</div>","null","","fixation","","",""
"memory-trial","213","447444","0.0-18.0-1.84","6376","approach_avoid_sv1","""event"",""trial"",""time""
""fullscreenenter"",""1"",""9765""
","
","
","""event"",""trial"",""time""
""fullscreenenter"",""1"",""9765""
","
","","","","","","2720.7999999523163","images/rodent4.png","","","memory_trial","2","maybe_old",""
"html-keyboard-response","214","447944","0.0-18.0-0.85","6376","approach_avoid_sv1","""event"",""trial"",""time""
""fullscreenenter"",""1"",""9765""
","
","
","""event"",""trial"",""time""
""fullscreenenter"",""1"",""9765""
","
","","","","","","null","<div style=""font-size:60px;"">+</div>","null","","fixation","","",""
"memory-trial","215","450307","0.0-18.0-1.85","6376","approach_avoid_sv1","""event"",""trial"",""time""
""fullscreenenter"",""1"",""9765""
","
","
","""event"",""trial"",""time""
""fullscreenenter"",""1"",""9765""
","
","","","","","","1360.1000000238419","images/goat2.png","","","memory_trial","1","definitely_old",""
"html-keyboard-response","216","450809","0.0-18.0-0.86","6376","approach_avoid_sv1","""event"",""trial"",""time""
""fullscreenenter"",""1"",""9765""
","
","
","""event"",""trial"",""time""
""fullscreenenter"",""1"",""9765""
","
","","","","","","null","<div style=""font-size:60px;"">+</div>","null","","fixation","","",""
"memory-trial","217","453318","0.0-18.0-1.86","6376","approach_avoid_sv1","""event"",""trial"",""time""
""fullscreenenter"",""1"",""9765""
","
","
","""event"",""trial"",""time""
""fullscreenenter"",""1"",""9765""
","
","","","","","","1507.3999999761581","images/straw4.png","","","memory_trial","3","maybe_new",""
"html-keyboard-response","218","453819","0.0-18.0-0.87","6376","approach_avoid_sv1","""event"",""trial"",""time""
""fullscreenenter"",""1"",""9765""
","
","
","""event"",""trial"",""time""
""fullscreenenter"",""1"",""9765""
","
","","","","","","null","<div style=""font-size:60px;"">+</div>","null","","fixation","","",""
"memory-trial","219","455968","0.0-18.0-1.87","6376","approach_avoid_sv1","""event"",""trial"",""time""
""fullscreenenter"",""1"",""9765""
","
","
","""event"",""trial"",""time""
""fullscreenenter"",""1"",""9765""
","
","","","","","","1145.4000000357628","images/truck2.png","","","memory_trial","1","definitely_old",""
"html-keyboard-response","220","456470","0.0-18.0-0.88","6376","approach_avoid_sv1","""event"",""trial"",""time""
""fullscreenenter"",""1"",""9765""
","
","
","""event"",""trial"",""time""
""fullscreenenter"",""1"",""9765""
","
","","","","","","null","<div style=""font-size:60px;"">+</div>","null","","fixation","","",""
"memory-trial","221","459382","0.0-18.0-1.88","6376","approach_avoid_sv1","""event"",""trial"",""time""
""fullscreenenter"",""1"",""9765""
","
","
","""event"",""trial"",""time""
""fullscreenenter"",""1"",""9765""
","
","","","","","","1910.5","images/orange5.png","","","memory_trial","1","definitely_old",""
"html-keyboard-response","222","459883","0.0-18.0-0.89","6376","approach_avoid_sv1","""event"",""trial"",""time""
""fullscreenenter"",""1"",""9765""
","
","
","""event"",""trial"",""time""
""fullscreenenter"",""1"",""9765""
","
","","","","","","null","<div style=""font-size:60px;"">+</div>","null","","fixation","","",""
"memory-trial","223","462198","0.0-18.0-1.89","6376","approach_avoid_sv1","""event"",""trial"",""time""
""fullscreenenter"",""1"",""9765""
","
","
","""event"",""trial"",""time""
""fullscreenenter"",""1"",""9765""
","
","","","","","","1312.300000011921","images/plane6.png","","","memory_trial","4","definitely_new",""
"html-keyboard-response","224","462700","0.0-18.0-0.90","6376","approach_avoid_sv1","""event"",""trial"",""time""
""fullscreenenter"",""1"",""9765""
","
","
","""event"",""trial"",""time""
""fullscreenenter"",""1"",""9765""
","
","","","","","","null","<div style=""font-size:60px;"">+</div>","null","","fixation","","",""
"memory-trial","225","464427","0.0-18.0-1.90","6376","approach_avoid_sv1","""event"",""trial"",""time""
""fullscreenenter"",""1"",""9765""
","
","
","""event"",""trial"",""time""
""fullscreenenter"",""1"",""9765""
","
","","","","","","725.3999999761581","images/cactus1.png","","","memory_trial","4","definitely_new",""
"html-keyboard-response","226","464928","0.0-18.0-0.91","6376","approach_avoid_sv1","""event"",""trial"",""time""
""fullscreenenter"",""1"",""9765""
","
","
","""event"",""trial"",""time""
""fullscreenenter"",""1"",""9765""
","
","","","","","","null","<div style=""font-size:60px;"">+</div>","null","","fixation","","",""
"memory-trial","227","467420","0.0-18.0-1.91","6376","approach_avoid_sv1","""event"",""trial"",""time""
""fullscreenenter"",""1"",""9765""
","
","
","""event"",""trial"",""time""
""fullscreenenter"",""1"",""9765""
","
","","","","","","1489","images/flower6.png","","","memory_trial","2","maybe_old",""
"html-button-response","228","497123","0.0-18.0-2.91-0.91","6376","approach_avoid_sv1","""event"",""trial"",""time""
""fullscreenenter"",""1"",""9765""
","
","
","""event"",""trial"",""time""
""fullscreenenter"",""1"",""9765""
","
","","","","","","29700.899999976158","<p> Take a break! </p><p> Click the button to continue. </p>","0","","break","","",""
"html-keyboard-response","229","497625","0.0-18.0-0.92","6376","approach_avoid_sv1","""event"",""trial"",""time""
""fullscreenenter"",""1"",""9765""
","
","
","""event"",""trial"",""time""
""fullscreenenter"",""1"",""9765""
","
","","","","","","null","<div style=""font-size:60px;"">+</div>","null","","fixation","","",""
"memory-trial","230","501072","0.0-18.0-1.92","6376","approach_avoid_sv1","""event"",""trial"",""time""
""fullscreenenter"",""1"",""9765""
","
","
","""event"",""trial"",""time""
""fullscreenenter"",""1"",""9765""
","
","","","","","","2443.2999999523163","images/tree7.png","","","memory_trial","3","maybe_new",""
"html-keyboard-response","231","501573","0.0-18.0-0.93","6376","approach_avoid_sv1","""event"",""trial"",""time""
""fullscreenenter"",""1"",""9765""
","
","
","""event"",""trial"",""time""
""fullscreenenter"",""1"",""9765""
","
","","","","","","null","<div style=""font-size:60px;"">+</div>","null","","fixation","","",""
"memory-trial","232","505324","0.0-18.0-1.93","6376","approach_avoid_sv1","""event"",""trial"",""time""
""fullscreenenter"",""1"",""9765""
","
","
","""event"",""trial"",""time""
""fullscreenenter"",""1"",""9765""
","
","","","","","","2748.300000011921","images/banana8.png","","","memory_trial","3","maybe_new",""
"html-keyboard-response","233","505825","0.0-18.0-0.94","6376","approach_avoid_sv1","""event"",""trial"",""time""
""fullscreenenter"",""1"",""9765""
","
","
","""event"",""trial"",""time""
""fullscreenenter"",""1"",""9765""
","
","","","","","","null","<div style=""font-size:60px;"">+</div>","null","","fixation","","",""
"memory-trial","234","508118","0.0-18.0-1.94","6376","approach_avoid_sv1","""event"",""trial"",""time""
""fullscreenenter"",""1"",""9765""
","
","
","""event"",""trial"",""time""
""fullscreenenter"",""1"",""9765""
","
","","","","","","1290.800000011921","images/table8.png","","","memory_trial","3","maybe_new",""
"html-keyboard-response","235","508619","0.0-18.0-0.95","6376","approach_avoid_sv1","""event"",""trial"",""time""
""fullscreenenter"",""1"",""9765""
","
","
","""event"",""trial"",""time""
""fullscreenenter"",""1"",""9765""
","
","","","","","","null","<div style=""font-size:60px;"">+</div>","null","","fixation","","",""
"memory-trial","236","511146","0.0-18.0-1.95","6376","approach_avoid_sv1","""event"",""trial"",""time""
""fullscreenenter"",""1"",""9765""
","
","
","""event"",""trial"",""time""
""fullscreenenter"",""1"",""9765""
","
","","","","","","1525.2999999523163","images/tree3.png","","","memory_trial","2","maybe_old",""
"html-keyboard-response","237","511648","0.0-18.0-0.96","6376","approach_avoid_sv1","""event"",""trial"",""time""
""fullscreenenter"",""1"",""9765""
","
","
","""event"",""trial"",""time""
""fullscreenenter"",""1"",""9765""
","
","","","","","","null","<div style=""font-size:60px;"">+</div>","null","","fixation","","",""
"memory-trial","238","513804","0.0-18.0-1.96","6376","approach_avoid_sv1","""event"",""trial"",""time""
""fullscreenenter"",""1"",""9765""
","
","
","""event"",""trial"",""time""
""fullscreenenter"",""1"",""9765""
","
","","","","","","1154.800000011921","images/cow5.png","","","memory_trial","4","definitely_new",""
"html-keyboard-response","239","514306","0.0-18.0-0.97","6376","approach_avoid_sv1","""event"",""trial"",""time""
""fullscreenenter"",""1"",""9765""
","
","
","""event"",""trial"",""time""
""fullscreenenter"",""1"",""9765""
","
","","","","","","null","<div style=""font-size:60px;"">+</div>","null","","fixation","","",""
"memory-trial","240","516135","0.0-18.0-1.97","6376","approach_avoid_sv1","""event"",""trial"",""time""
""fullscreenenter"",""1"",""9765""
","
","
","""event"",""trial"",""time""
""fullscreenenter"",""1"",""9765""
","
","","","","","","826.3999999761581","images/plane1.png","","","memory_trial","4","definitely_new",""
"html-keyboard-response","241","516636","0.0-18.0-0.98","6376","approach_avoid_sv1","""event"",""trial"",""time""
""fullscreenenter"",""1"",""9765""
","
","
","""event"",""trial"",""time""
""fullscreenenter"",""1"",""9765""
","
","","","","","","null","<div style=""font-size:60px;"">+</div>","null","","fixation","","",""
"memory-trial","242","518738","0.0-18.0-1.98","6376","approach_avoid_sv1","""event"",""trial"",""time""
""fullscreenenter"",""1"",""9765""
","
","
","""event"",""trial"",""time""
""fullscreenenter"",""1"",""9765""
","
","","","","","","1099.6000000238419","images/cat1.png","","","memory_trial","4","definitely_new",""
"html-keyboard-response","243","519240","0.0-18.0-0.99","6376","approach_avoid_sv1","""event"",""trial"",""time""
""fullscreenenter"",""1"",""9765""
","
","
","""event"",""trial"",""time""
""fullscreenenter"",""1"",""9765""
","
","","","","","","null","<div style=""font-size:60px;"">+</div>","null","","fixation","","",""
"memory-trial","244","521650","0.0-18.0-1.99","6376","approach_avoid_sv1","""event"",""trial"",""time""
""fullscreenenter"",""1"",""9765""
","
","
","""event"",""trial"",""time""
""fullscreenenter"",""1"",""9765""
","
","","","","","","1401.0999999642372","images/orange2.png","","","memory_trial","2","maybe_old",""
"html-keyboard-response","245","522152","0.0-18.0-0.100","6376","approach_avoid_sv1","""event"",""trial"",""time""
""fullscreenenter"",""1"",""9765""
","
","
","""event"",""trial"",""time""
""fullscreenenter"",""1"",""9765""
","
","","","","","","null","<div style=""font-size:60px;"">+</div>","null","","fixation","","",""
"memory-trial","246","524206","0.0-18.0-1.100","6376","approach_avoid_sv1","""event"",""trial"",""time""
""fullscreenenter"",""1"",""9765""
","
","
","""event"",""trial"",""time""
""fullscreenenter"",""1"",""9765""
","
","","","","","","1051.300000011921","images/flower3.png","","","memory_trial","4","definitely_new",""
"html-keyboard-response","247","524707","0.0-18.0-0.101","6376","approach_avoid_sv1","""event"",""trial"",""time""
""fullscreenenter"",""1"",""9765""
","
","
","""event"",""trial"",""time""
""fullscreenenter"",""1"",""9765""
","
","","","","","","null","<div style=""font-size:60px;"">+</div>","null","","fixation","","",""
"memory-trial","248","527342","0.0-18.0-1.101","6376","approach_avoid_sv1","""event"",""trial"",""time""
""fullscreenenter"",""1"",""9765""
","
","
","""event"",""trial"",""time""
""fullscreenenter"",""1"",""9765""
","
","","","","","","1632.7999999523163","images/horse3.png","","","memory_trial","2","maybe_old",""
"html-keyboard-response","249","527843","0.0-18.0-0.102","6376","approach_avoid_sv1","""event"",""trial"",""time""
""fullscreenenter"",""1"",""9765""
","
","
","""event"",""trial"",""time""
""fullscreenenter"",""1"",""9765""
","
","","","","","","null","<div style=""font-size:60px;"">+</div>","null","","fixation","","",""
"memory-trial","250","530326","0.0-18.0-1.102","6376","approach_avoid_sv1","""event"",""trial"",""time""
""fullscreenenter"",""1"",""9765""
","
","
","""event"",""trial"",""time""
""fullscreenenter"",""1"",""9765""
","
","","","","","","1479.800000011921","images/flower4.png","","","memory_trial","2","maybe_old",""
"html-keyboard-response","251","530827","0.0-18.0-0.103","6376","approach_avoid_sv1","""event"",""trial"",""time""
""fullscreenenter"",""1"",""9765""
","
","
","""event"",""trial"",""time""
""fullscreenenter"",""1"",""9765""
","
","","","","","","null","<div style=""font-size:60px;"">+</div>","null","","fixation","","",""
"memory-trial","252","533264","0.0-18.0-1.103","6376","approach_avoid_sv1","""event"",""trial"",""time""
""fullscreenenter"",""1"",""9765""
","
","
","""event"",""trial"",""time""
""fullscreenenter"",""1"",""9765""
","
","","","","","","1434.199999988079","images/sheep3.png","","","memory_trial","4","definitely_new",""
"html-keyboard-response","253","533765","0.0-18.0-0.104","6376","approach_avoid_sv1","""event"",""trial"",""time""
""fullscreenenter"",""1"",""9765""
","
","
","""event"",""trial"",""time""
""fullscreenenter"",""1"",""9765""
","
","","","","","","null","<div style=""font-size:60px;"">+</div>","null","","fixation","","",""
"memory-trial","254","535534","0.0-18.0-1.104","6376","approach_avoid_sv1","""event"",""trial"",""time""
""fullscreenenter"",""1"",""9765""
","
","
","""event"",""trial"",""time""
""fullscreenenter"",""1"",""9765""
","
","","","","","","766.7000000476837","images/table7.png","","","memory_trial","1","definitely_old",""
"html-keyboard-response","255","536036","0.0-18.0-0.105","6376","approach_avoid_sv1","""event"",""trial"",""time""
""fullscreenenter"",""1"",""9765""
","
","
","""event"",""trial"",""time""
""fullscreenenter"",""1"",""9765""
","
","","","","","","null","<div style=""font-size:60px;"">+</div>","null","","fixation","","",""
"memory-trial","256","540863","0.0-18.0-1.105","6376","approach_avoid_sv1","""event"",""trial"",""time""
""fullscreenenter"",""1"",""9765""
","
","
","""event"",""trial"",""time""
""fullscreenenter"",""1"",""9765""
","
","","","","","","3824.899999976158","images/cat5.png","","","memory_trial","4","definitely_new",""
"html-keyboard-response","257","541364","0.0-18.0-0.106","6376","approach_avoid_sv1","""event"",""trial"",""time""
""fullscreenenter"",""1"",""9765""
","
","
","""event"",""trial"",""time""
""fullscreenenter"",""1"",""9765""
","
","","","","","","null","<div style=""font-size:60px;"">+</div>","null","","fixation","","",""
"memory-trial","258","543874","0.0-18.0-1.106","6376","approach_avoid_sv1","""event"",""trial"",""time""
""fullscreenenter"",""1"",""9765""
","
","
","""event"",""trial"",""time""
""fullscreenenter"",""1"",""9765""
","
","","","","","","1506.699999988079","images/orange4.png","","","memory_trial","3","maybe_new",""
"html-keyboard-response","259","544375","0.0-18.0-0.107","6376","approach_avoid_sv1","""event"",""trial"",""time""
""fullscreenenter"",""1"",""9765""
","
","
","""event"",""trial"",""time""
""fullscreenenter"",""1"",""9765""
","
","","","","","","null","<div style=""font-size:60px;"">+</div>","null","","fixation","","",""
"memory-trial","260","546482","0.0-18.0-1.107","6376","approach_avoid_sv1","""event"",""trial"",""time""
""fullscreenenter"",""1"",""9765""
","
","
","""event"",""trial"",""time""
""fullscreenenter"",""1"",""9765""
","
","","","","","","1103.9000000357628","images/truck3.png","","","memory_trial","4","definitely_new",""
"html-keyboard-response","261","546984","0.0-18.0-0.108","6376","approach_avoid_sv1","""event"",""trial"",""time""
""fullscreenenter"",""1"",""9765""
","
","
","""event"",""trial"",""time""
""fullscreenenter"",""1"",""9765""
","
","","","","","","null","<div style=""font-size:60px;"">+</div>","null","","fixation","","",""
"memory-trial","262","549307","0.0-18.0-1.108","6376","approach_avoid_sv1","""event"",""trial"",""time""
""fullscreenenter"",""1"",""9765""
","
","
","""event"",""trial"",""time""
""fullscreenenter"",""1"",""9765""
","
","","","","","","1320.1000000238419","images/rodent1.png","","","memory_trial","2","maybe_old",""
"html-keyboard-response","263","549809","0.0-18.0-0.109","6376","approach_avoid_sv1","""event"",""trial"",""time""
""fullscreenenter"",""1"",""9765""
","
","
","""event"",""trial"",""time""
""fullscreenenter"",""1"",""9765""
","
","","","","","","null","<div style=""font-size:60px;"">+</div>","null","","fixation","","",""
"memory-trial","264","552223","0.0-18.0-1.109","6376","approach_avoid_sv1","""event"",""trial"",""time""
""fullscreenenter"",""1"",""9765""
","
","
","""event"",""trial"",""time""
""fullscreenenter"",""1"",""9765""
","
","","","","","","1410.800000011921","images/dog2.png","","","memory_trial","4","definitely_new",""
"html-keyboard-response","265","552725","0.0-18.0-0.110","6376","approach_avoid_sv1","""event"",""trial"",""time""
""fullscreenenter"",""1"",""9765""
","
","
","""event"",""trial"",""time""
""fullscreenenter"",""1"",""9765""
","
","","","","","","null","<div style=""font-size:60px;"">+</div>","null","","fixation","","",""
"memory-trial","266","554519","0.0-18.0-1.110","6376","approach_avoid_sv1","""event"",""trial"",""time""
""fullscreenenter"",""1"",""9765""
","
","
","""event"",""trial"",""time""
""fullscreenenter"",""1"",""9765""
","
","","","","","","792.1999999880791","images/dog3.png","","","memory_trial","4","definitely_new",""
"html-keyboard-response","267","555021","0.0-18.0-0.111","6376","approach_avoid_sv1","""event"",""trial"",""time""
""fullscreenenter"",""1"",""9765""
","
","
","""event"",""trial"",""time""
""fullscreenenter"",""1"",""9765""
","
","","","","","","null","<div style=""font-size:60px;"">+</div>","null","","fixation","","",""
"memory-trial","268","557551","0.0-18.0-1.111","6376","approach_avoid_sv1","""event"",""trial"",""time""
""fullscreenenter"",""1"",""9765""
","
","
","""event"",""trial"",""time""
""fullscreenenter"",""1"",""9765""
","
","","","","","","1527.800000011921","images/orange8.png","","","memory_trial","1","definitely_old",""
"html-keyboard-response","269","558053","0.0-18.0-0.112","6376","approach_avoid_sv1","""event"",""trial"",""time""
""fullscreenenter"",""1"",""9765""
","
","
","""event"",""trial"",""time""
""fullscreenenter"",""1"",""9765""
","
","","","","","","null","<div style=""font-size:60px;"">+</div>","null","","fixation","","",""
"memory-trial","270","560287","0.0-18.0-1.112","6376","approach_avoid_sv1","""event"",""trial"",""time""
""fullscreenenter"",""1"",""9765""
","
","
","""event"",""trial"",""time""
""fullscreenenter"",""1"",""9765""
","
","","","","","","1232.199999988079","images/banana6.png","","","memory_trial","1","definitely_old",""
"html-keyboard-response","271","560789","0.0-18.0-0.113","6376","approach_avoid_sv1","""event"",""trial"",""time""
""fullscreenenter"",""1"",""9765""
","
","
","""event"",""trial"",""time""
""fullscreenenter"",""1"",""9765""
","
","","","","","","null","<div style=""font-size:60px;"">+</div>","null","","fixation","","",""
"memory-trial","272","563656","0.0-18.0-1.113","6376","approach_avoid_sv1","""event"",""trial"",""time""
""fullscreenenter"",""1"",""9765""
","
","
","""event"",""trial"",""time""
""fullscreenenter"",""1"",""9765""
","
","","","","","","1864.8999999761581","images/chair7.png","","","memory_trial","4","definitely_new",""
"html-keyboard-response","273","564157","0.0-18.0-0.114","6376","approach_avoid_sv1","""event"",""trial"",""time""
""fullscreenenter"",""1"",""9765""
","
","
","""event"",""trial"",""time""
""fullscreenenter"",""1"",""9765""
","
","","","","","","null","<div style=""font-size:60px;"">+</div>","null","","fixation","","",""
"memory-trial","274","567199","0.0-18.0-1.114","6376","approach_avoid_sv1","""event"",""trial"",""time""
""fullscreenenter"",""1"",""9765""
","
","
","""event"",""trial"",""time""
""fullscreenenter"",""1"",""9765""
","
","","","","","","2039.199999988079","images/banana5.png","","","memory_trial","2","maybe_old",""
"html-keyboard-response","275","567700","0.0-18.0-0.115","6376","approach_avoid_sv1","""event"",""trial"",""time""
""fullscreenenter"",""1"",""9765""
","
","
","""event"",""trial"",""time""
""fullscreenenter"",""1"",""9765""
","
","","","","","","null","<div style=""font-size:60px;"">+</div>","null","","fixation","","",""
"memory-trial","276","570369","0.0-18.0-1.115","6376","approach_avoid_sv1","""event"",""trial"",""time""
""fullscreenenter"",""1"",""9765""
","
","
","""event"",""trial"",""time""
""fullscreenenter"",""1"",""9765""
","
","","","","","","1666.699999988079","images/table2.png","","","memory_trial","4","definitely_new",""
"html-keyboard-response","277","570869","0.0-18.0-0.116","6376","approach_avoid_sv1","""event"",""trial"",""time""
""fullscreenenter"",""1"",""9765""
","
","
","""event"",""trial"",""time""
""fullscreenenter"",""1"",""9765""
","
","","","","","","null","<div style=""font-size:60px;"">+</div>","null","","fixation","","",""
"memory-trial","278","574389","0.0-18.0-1.116","6376","approach_avoid_sv1","""event"",""trial"",""time""
""fullscreenenter"",""1"",""9765""
","
","
","""event"",""trial"",""time""
""fullscreenenter"",""1"",""9765""
","
","","","","","","2517.400000035763","images/train6.png","","","memory_trial","2","maybe_old",""
"html-keyboard-response","279","574891","0.0-18.0-0.117","6376","approach_avoid_sv1","""event"",""trial"",""time""
""fullscreenenter"",""1"",""9765""
","
","
","""event"",""trial"",""time""
""fullscreenenter"",""1"",""9765""
","
","","","","","","null","<div style=""font-size:60px;"">+</div>","null","","fixation","","",""
"memory-trial","280","577121","0.0-18.0-1.117","6376","approach_avoid_sv1","""event"",""trial"",""time""
""fullscreenenter"",""1"",""9765""
","
","
","""event"",""trial"",""time""
""fullscreenenter"",""1"",""9765""
","
","","","","","","1229.1000000238419","images/apple7.png","","","memory_trial","4","definitely_new",""
"html-keyboard-response","281","577623","0.0-18.0-0.118","6376","approach_avoid_sv1","""event"",""trial"",""time""
""fullscreenenter"",""1"",""9765""
","
","
","""event"",""trial"",""time""
""fullscreenenter"",""1"",""9765""
","
","","","","","","null","<div style=""font-size:60px;"">+</div>","null","","fixation","","",""
"memory-trial","282","579716","0.0-18.0-1.118","6376","approach_avoid_sv1","""event"",""trial"",""time""
""fullscreenenter"",""1"",""9765""
","
","
","""event"",""trial"",""time""
""fullscreenenter"",""1"",""9765""
","
","","","","","","1091.5","images/sofa4.png","","","memory_trial","4","definitely_new",""
"html-keyboard-response","283","580217","0.0-18.0-0.119","6376","approach_avoid_sv1","""event"",""trial"",""time""
""fullscreenenter"",""1"",""9765""
","
","
","""event"",""trial"",""time""
""fullscreenenter"",""1"",""9765""
","
","","","","","","null","<div style=""font-size:60px;"">+</div>","null","","fixation","","",""
"memory-trial","284","583503","0.0-18.0-1.119","6376","approach_avoid_sv1","""event"",""trial"",""time""
""fullscreenenter"",""1"",""9765""
","
","
","""event"",""trial"",""time""
""fullscreenenter"",""1"",""9765""
","
","","","","","","2284.300000011921","images/goat7.png","","","memory_trial","3","maybe_new",""
"html-keyboard-response","285","584008","0.0-18.0-0.120","6376","approach_avoid_sv1","""event"",""trial"",""time""
""fullscreenenter"",""1"",""9765""
","
","
","""event"",""trial"",""time""
""fullscreenenter"",""1"",""9765""
","
","","","","","","null","<div style=""font-size:60px;"">+</div>","null","","fixation","","",""
"memory-trial","286","586698","0.0-18.0-1.120","6376","approach_avoid_sv1","""event"",""trial"",""time""
""fullscreenenter"",""1"",""9765""
","
","
","""event"",""trial"",""time""
""fullscreenenter"",""1"",""9765""
","
","","","","","","1687.8999999761581","images/cow8.png","","","memory_trial","4","definitely_new",""
"html-keyboard-response","287","587198","0.0-18.0-0.121","6376","approach_avoid_sv1","""event"",""trial"",""time""
""fullscreenenter"",""1"",""9765""
","
","
","""event"",""trial"",""time""
""fullscreenenter"",""1"",""9765""
","
","","","","","","null","<div style=""font-size:60px;"">+</div>","null","","fixation","","",""
"memory-trial","288","590118","0.0-18.0-1.121","6376","approach_avoid_sv1","""event"",""trial"",""time""
""fullscreenenter"",""1"",""9765""
","
","
","""event"",""trial"",""time""
""fullscreenenter"",""1"",""9765""
","
","","","","","","1917","images/rabbit5.png","","","memory_trial","4","definitely_new",""
"html-keyboard-response","289","590620","0.0-18.0-0.122","6376","approach_avoid_sv1","""event"",""trial"",""time""
""fullscreenenter"",""1"",""9765""
","
","
","""event"",""trial"",""time""
""fullscreenenter"",""1"",""9765""
","
","","","","","","null","<div style=""font-size:60px;"">+</div>","null","","fixation","","",""
"memory-trial","290","592421","0.0-18.0-1.122","6376","approach_avoid_sv1","""event"",""trial"",""time""
""fullscreenenter"",""1"",""9765""
","
","
","""event"",""trial"",""time""
""fullscreenenter"",""1"",""9765""
","
","","","","","","798.3000000119209","images/plane5.png","","","memory_trial","4","definitely_new",""
"html-keyboard-response","291","592923","0.0-18.0-0.123","6376","approach_avoid_sv1","""event"",""trial"",""time""
""fullscreenenter"",""1"",""9765""
","
","
","""event"",""trial"",""time""
""fullscreenenter"",""1"",""9765""
","
","","","","","","null","<div style=""font-size:60px;"">+</div>","null","","fixation","","",""
"memory-trial","292","597649","0.0-18.0-1.123","6376","approach_avoid_sv1","""event"",""trial"",""time""
""fullscreenenter"",""1"",""9765""
","
","
","""event"",""trial"",""time""
""fullscreenenter"",""1"",""9765""
","
","","","","","","3723.800000011921","images/rodent8.png","","","memory_trial","4","definitely_new",""
"html-keyboard-response","293","598151","0.0-18.0-0.124","6376","approach_avoid_sv1","""event"",""trial"",""time""
""fullscreenenter"",""1"",""9765""
","
","
","""event"",""trial"",""time""
""fullscreenenter"",""1"",""9765""
","
","","","","","","null","<div style=""font-size:60px;"">+</div>","null","","fixation","","",""
"memory-trial","294","600621","0.0-18.0-1.124","6376","approach_avoid_sv1","""event"",""trial"",""time""
""fullscreenenter"",""1"",""9765""
","
","
","""event"",""trial"",""time""
""fullscreenenter"",""1"",""9765""
","
","","","","","","1467.300000011921","images/sofa8.png","","","memory_trial","2","maybe_old",""
"html-keyboard-response","295","601121","0.0-18.0-0.125","6376","approach_avoid_sv1","""event"",""trial"",""time""
""fullscreenenter"",""1"",""9765""
","
","
","""event"",""trial"",""time""
""fullscreenenter"",""1"",""9765""
","
","","","","","","null","<div style=""font-size:60px;"">+</div>","null","","fixation","","",""
"memory-trial","296","605033","0.0-18.0-1.125","6376","approach_avoid_sv1","""event"",""trial"",""time""
""fullscreenenter"",""1"",""9765""
","
","
","""event"",""trial"",""time""
""fullscreenenter"",""1"",""9765""
","
","","","","","","2909.199999988079","images/bed6.png","","","memory_trial","3","maybe_new",""
"html-keyboard-response","297","605535","0.0-18.0-0.126","6376","approach_avoid_sv1","""event"",""trial"",""time""
""fullscreenenter"",""1"",""9765""
","
","
","""event"",""trial"",""time""
""fullscreenenter"",""1"",""9765""
","
