"trial_type","trial_index","time_elapsed","internal_node_id","subject_id","task_version","interactions","blur_events","focus_events","fullscreenenter_events","fullscreenexit_events","success","timeout","failed_images","failed_audio","failed_video","rt","stimulus","response","button_pressed","task_part","key_press","answer","correct"
"pavlovia","0","3","0.0-0.0","5644","approach_avoid_sv1","""event"",""trial"",""time""
""fullscreenenter"",""1"",""2273""
","
","
","""event"",""trial"",""time""
""fullscreenenter"",""1"",""2273""
","
","","","","","","","","","","","","",""
"fullscreen","1","3191","0.0-1.0","5644","approach_avoid_sv1","""event"",""trial"",""time""
""fullscreenenter"",""1"",""2273""
","
","
","""event"",""trial"",""time""
""fullscreenenter"",""1"",""2273""
","
","true","","","","","","","","","","","",""
"preload","2","6332","0.0-2.0","5644","approach_avoid_sv1","""event"",""trial"",""time""
""fullscreenenter"",""1"",""2273""
","
","
","""event"",""trial"",""time""
""fullscreenenter"",""1"",""2273""
","
","true","false","[]","[]","[]","","","","","","","",""
"preload","3","16707","0.0-3.0","5644","approach_avoid_sv1","""event"",""trial"",""time""
""fullscreenenter"",""1"",""2273""
","
","
","""event"",""trial"",""time""
""fullscreenenter"",""1"",""2273""
","
","true","false","[]","[]","[]","","","","","","","",""
"preload","4","17243","0.0-4.0","5644","approach_avoid_sv1","""event"",""trial"",""time""
""fullscreenenter"",""1"",""2273""
","
","
","""event"",""trial"",""time""
""fullscreenenter"",""1"",""2273""
","
","true","false","[]","[]","[]","","","","","","","",""
"audio-keyboard-response","5","18081","0.0-5.0","5644","approach_avoid_sv1","""event"",""trial"",""time""
""fullscreenenter"",""1"",""2273""
","
","
","""event"",""trial"",""time""
""fullscreenenter"",""1"",""2273""
","
","","","","","","829.3333333333334","audio/beep_loop.wav"," ","","","","",""
"audio-button-response","6","22604","0.0-6.0","5644","approach_avoid_sv1","""event"",""trial"",""time""
""fullscreenenter"",""1"",""2273""
","
","
","""event"",""trial"",""time""
""fullscreenenter"",""1"",""2273""
","
","","","","","","4520","audio/turtle.wav","0","","","","",""
"audio-button-response","7","24668","0.0-7.0","5644","approach_avoid_sv1","""event"",""trial"",""time""
""fullscreenenter"",""1"",""2273""
","
","
","""event"",""trial"",""time""
""fullscreenenter"",""1"",""2273""
","
","","","","","","1048","audio/shark.wav","2","","","","",""
"preload","8","36520","0.0-8.0","5644","approach_avoid_sv1","""event"",""trial"",""time""
""fullscreenenter"",""1"",""2273""
","
","
","""event"",""trial"",""time""
""fullscreenenter"",""1"",""2273""
","
","true","false","[]","[]","[]","","","","","","","",""
"learning-instructions","9","43236","0.0-9.0-0.0","5644","approach_avoid_sv1","""event"",""trial"",""time""
""fullscreenenter"",""1"",""2273""
","
","
","""event"",""trial"",""time""
""fullscreenenter"",""1"",""2273""
","
","","","","","","2241.5","<p> Welcome back! </p><p> Last week, you had to make choices about lots of different items.  </p>","","0","instructions","","",""
"learning-instructions","10","48960","0.0-9.0-0.1","5644","approach_avoid_sv1","""event"",""trial"",""time""
""fullscreenenter"",""1"",""2273""
","
","
","""event"",""trial"",""time""
""fullscreenenter"",""1"",""2273""
","
","","","","","","1604.6999998092651","<p> Today, we are going to ask you to try to remember all the items. </p>","","0","instructions","","",""
"learning-instructions","11","60055","0.0-9.0-0.2","5644","approach_avoid_sv1","""event"",""trial"",""time""
""fullscreenenter"",""1"",""2273""
","
","
","""event"",""trial"",""time""
""fullscreenenter"",""1"",""2273""
","
","","","","","","952","<p> On every trial, you will see an image. </p><p> The image may be an OLD image you saw during the games last week or it may be a NEW image that was not presented. </p>","","0","instructions","","",""
"learning-instructions","12","69722","0.0-9.0-0.3","5644","approach_avoid_sv1","""event"",""trial"",""time""
""fullscreenenter"",""1"",""2273""
","
","
","""event"",""trial"",""time""
""fullscreenenter"",""1"",""2273""
","
","","","","","","1158.5","<p> You need to select whether the image is:  </p><p>  'Definitely old', 'Maybe old', 'Maybe new', or 'Definitely new.'  </p><div class=""mem-choice-instructions-grid""><div class=""choice-option"" id=""choice-option-1"" ><img src=""images/definitely_old_1.png"" id=""choice-option-img-1"" class=""choice-option-img"" stage=""1""></div><div class=""choice-option"" id=""choice-option-2"" ><img src=""images/maybe_old_1.png"" id=""choice-option-img-2"" class=""choice-option-img"" stage=""1""></div><div class=""choice-option"" id=""choice-option-3"" ><img src=""images/maybe_new_1.png"" id=""choice-option-img-3"" class=""choice-option-img"" stage=""1""></div><div class=""choice-option"" id=""choice-option-4"" > <img src=""images/definitely_new_1.png"" id=""choice-option-img-4"" class=""choice-option-img"" stage=""1""></div></div>","","0","instructions","","",""
"learning-instructions","13","76800","0.0-9.0-0.4","5644","approach_avoid_sv1","""event"",""trial"",""time""
""fullscreenenter"",""1"",""2273""
","
","
","""event"",""trial"",""time""
""fullscreenenter"",""1"",""2273""
","
","","","","","","546","<p> You should use the 1, 2, 3, and 4 keys to make your responses.  </p><div class=""mem-choice-instructions-grid""><div class=""choice-option"" id=""choice-option-1"" ><img src=""images/definitely_old.png"" id=""choice-option-img-1"" class=""choice-option-img"" stage=""1""></div><div class=""choice-option"" id=""choice-option-2"" ><img src=""images/maybe_old.png"" id=""choice-option-img-2"" class=""choice-option-img"" stage=""1""></div><div class=""choice-option"" id=""choice-option-3"" ><img src=""images/maybe_new.png"" id=""choice-option-img-3"" class=""choice-option-img"" stage=""1""></div><div class=""choice-option"" id=""choice-option-4"" > <img src=""images/definitely_new.png"" id=""choice-option-img-4"" class=""choice-option-img"" stage=""1""></div></div>","","0","instructions","","",""
"learning-instructions","14","84280","0.0-9.0-0.5","5644","approach_avoid_sv1","""event"",""trial"",""time""
""fullscreenenter"",""1"",""2273""
","
","
","""event"",""trial"",""time""
""fullscreenenter"",""1"",""2273""
","
","","","","","","1137.4000000953674","<p> You will have 10 seconds to make each response.  </p><p>  Make sure to respond before time runs out! </p>","","0","instructions","","",""
"learning-instructions","15","92270","0.0-9.0-0.6","5644","approach_avoid_sv1","""event"",""trial"",""time""
""fullscreenenter"",""1"",""2273""
","
","
","""event"",""trial"",""time""
""fullscreenenter"",""1"",""2273""
","
","","","","","","917.1999998092651","<p> Today, you will see each image ONCE only.  </p><p>  That means none of the images will repeat. </p>","","0","instructions","","",""
"learning-instructions","16","108486","0.0-9.0-0.7","5644","approach_avoid_sv1","""event"",""trial"",""time""
""fullscreenenter"",""1"",""2273""
","
","
","""event"",""trial"",""time""
""fullscreenenter"",""1"",""2273""
","
","","","","","","3543.2000000476837","<p> Before you play the real game, it is time to practice. </p><p>  Just like in the real game, some of the images in the practice will be ones you have seen before. </p><p>  Others will be entirely new. </p>","","0","instructions","","",""
"html-button-response","17","109854","0.0-10.0","5644","approach_avoid_sv1","""event"",""trial"",""time""
""fullscreenenter"",""1"",""2273""
","
","
","""event"",""trial"",""time""
""fullscreenenter"",""1"",""2273""
","
","","","","","","1257.4000000953674","<p> Ready to practice? </p><p> Remember, use the 1, 2, 3, and 4 keys to make your responses. </p>","0","","instructions","","",""
"html-keyboard-response","18","110469","0.0-11.0-0.0","5644","approach_avoid_sv1","""event"",""trial"",""time""
""fullscreenenter"",""1"",""2273""
","
","
","""event"",""trial"",""time""
""fullscreenenter"",""1"",""2273""
","
","","","","","","null","<div style=""font-size:60px;"">+</div>","null","","fixation","","",""
"memory-trial","19","113233","0.0-11.0-1.0","5644","approach_avoid_sv1","""event"",""trial"",""time""
""fullscreenenter"",""1"",""2273""
","
","
","""event"",""trial"",""time""
""fullscreenenter"",""1"",""2273""
","
","","","","","","1746.2000000476837","images/ball1.png","","","practice","3","maybe_new",""
"html-keyboard-response","20","113750","0.0-11.0-0.1","5644","approach_avoid_sv1","""event"",""trial"",""time""
""fullscreenenter"",""1"",""2273""
","
","
","""event"",""trial"",""time""
""fullscreenenter"",""1"",""2273""
","
","","","","","","null","<div style=""font-size:60px;"">+</div>","null","","fixation","","",""
"memory-trial","21","116673","0.0-11.0-1.1","5644","approach_avoid_sv1","""event"",""trial"",""time""
""fullscreenenter"",""1"",""2273""
","
","
","""event"",""trial"",""time""
""fullscreenenter"",""1"",""2273""
","
","","","","","","1900.5999999046326","images/ball3.png","","","practice","4","definitely_new",""
"html-keyboard-response","22","117179","0.0-11.0-0.2","5644","approach_avoid_sv1","""event"",""trial"",""time""
""fullscreenenter"",""1"",""2273""
","
","
","""event"",""trial"",""time""
""fullscreenenter"",""1"",""2273""
","
","","","","","","null","<div style=""font-size:60px;"">+</div>","null","","fixation","","",""
"memory-trial","23","119771","0.0-11.0-1.2","5644","approach_avoid_sv1","""event"",""trial"",""time""
""fullscreenenter"",""1"",""2273""
","
","
","""event"",""trial"",""time""
""fullscreenenter"",""1"",""2273""
","
","","","","","","1583.7000000476837","images/racket3.png","","","practice","1","definitely_old",""
"html-keyboard-response","24","120282","0.0-11.0-0.3","5644","approach_avoid_sv1","""event"",""trial"",""time""
""fullscreenenter"",""1"",""2273""
","
","
","""event"",""trial"",""time""
""fullscreenenter"",""1"",""2273""
","
","","","","","","null","<div style=""font-size:60px;"">+</div>","null","","fixation","","",""
"memory-trial","25","122166","0.0-11.0-1.3","5644","approach_avoid_sv1","""event"",""trial"",""time""
""fullscreenenter"",""1"",""2273""
","
","
","""event"",""trial"",""time""
""fullscreenenter"",""1"",""2273""
","
","","","","","","864.2999999523163","images/racket2.png","","","practice","1","definitely_old",""
"html-keyboard-response","26","122679","0.0-11.0-0.4","5644","approach_avoid_sv1","""event"",""trial"",""time""
""fullscreenenter"",""1"",""2273""
","
","
","""event"",""trial"",""time""
""fullscreenenter"",""1"",""2273""
","
","","","","","","null","<div style=""font-size:60px;"">+</div>","null","","fixation","","",""
"memory-trial","27","124833","0.0-11.0-1.4","5644","approach_avoid_sv1","""event"",""trial"",""time""
""fullscreenenter"",""1"",""2273""
","
","
","""event"",""trial"",""time""
""fullscreenenter"",""1"",""2273""
","
","","","","","","1134.7999999523163","images/ball2.png","","","practice","1","definitely_old",""
"html-keyboard-response","28","125348","0.0-11.0-0.5","5644","approach_avoid_sv1","""event"",""trial"",""time""
""fullscreenenter"",""1"",""2273""
","
","
","""event"",""trial"",""time""
""fullscreenenter"",""1"",""2273""
","
","","","","","","null","<div style=""font-size:60px;"">+</div>","null","","fixation","","",""
"memory-trial","29","127702","0.0-11.0-1.5","5644","approach_avoid_sv1","""event"",""trial"",""time""
""fullscreenenter"",""1"",""2273""
","
","
","""event"",""trial"",""time""
""fullscreenenter"",""1"",""2273""
","
","","","","","","1340.2000000476837","images/racket5.png","","","practice","4","definitely_new",""
"html-keyboard-response","30","128218","0.0-11.0-0.6","5644","approach_avoid_sv1","""event"",""trial"",""time""
""fullscreenenter"",""1"",""2273""
","
","
","""event"",""trial"",""time""
""fullscreenenter"",""1"",""2273""
","
","","","","","","null","<div style=""font-size:60px;"">+</div>","null","","fixation","","",""
"memory-trial","31","130358","0.0-11.0-1.6","5644","approach_avoid_sv1","""event"",""trial"",""time""
""fullscreenenter"",""1"",""2273""
","
","
","""event"",""trial"",""time""
""fullscreenenter"",""1"",""2273""
","
","","","","","","1120.5","images/racket1.png","","","practice","1","definitely_old",""
"html-keyboard-response","32","130874","0.0-11.0-0.7","5644","approach_avoid_sv1","""event"",""trial"",""time""
""fullscreenenter"",""1"",""2273""
","
","
","""event"",""trial"",""time""
""fullscreenenter"",""1"",""2273""
","
","","","","","","null","<div style=""font-size:60px;"">+</div>","null","","fixation","","",""
"memory-trial","33","133484","0.0-11.0-1.7","5644","approach_avoid_sv1","""event"",""trial"",""time""
""fullscreenenter"",""1"",""2273""
","
","
","""event"",""trial"",""time""
""fullscreenenter"",""1"",""2273""
","
","","","","","","1597.5999999046326","images/ball5.png","","","practice","4","definitely_new",""
"learning-instructions","34","142901","0.0-12.0-0.0","5644","approach_avoid_sv1","""event"",""trial"",""time""
""fullscreenenter"",""1"",""2273""
","
","
","""event"",""trial"",""time""
""fullscreenenter"",""1"",""2273""
","
","","","","","","2106.5","<p> Great! You have completed the practice. </p><p> Before you start, we're going to ask you a few questions about how the game works.  </p>","","0","instructions","","",""
"preload","35","146691","0.0-13.0","5644","approach_avoid_sv1","""event"",""trial"",""time""
""fullscreenenter"",""1"",""2273""
","
","
","""event"",""trial"",""time""
""fullscreenenter"",""1"",""2273""
","
","true","false","[]","[]","[]","","","","","","","",""
"comp-q","36","153208","0.0-14.0-0.0","5644","approach_avoid_sv1","""event"",""trial"",""time""
""fullscreenenter"",""1"",""2273""
","
","
","""event"",""trial"",""time""
""fullscreenenter"",""1"",""2273""
","
","","","","","","685.6000001430511","<p> <b> True or False? </b> </p><p> In this game, you will only see each image once. </p>","","0","comp_question","","","true"
"comp-q","37","160365","0.0-14.0-1.0","5644","approach_avoid_sv1","""event"",""trial"",""time""
""fullscreenenter"",""1"",""2273""
","
","
","""event"",""trial"",""time""
""fullscreenenter"",""1"",""2273""
","
","","","","","","800","<p> <b> That's right! </b> You will see many different images <i> one time each </i> in this game. </p>","","0","comp_answer","","",""
"comp-q","38","165827","0.0-15.0-0.0","5644","approach_avoid_sv1","""event"",""trial"",""time""
""fullscreenenter"",""1"",""2273""
","
","
","""event"",""trial"",""time""
""fullscreenenter"",""1"",""2273""
","
","","","","","","434.39999985694885","<p> <b> True or False? </b> </p><p> You should use the mouse and click to make your response. </p>","","1","comp_question","","","true"
"comp-q","39","173490","0.0-15.0-1.0","5644","approach_avoid_sv1","""event"",""trial"",""time""
""fullscreenenter"",""1"",""2273""
","
","
","""event"",""trial"",""time""
""fullscreenenter"",""1"",""2273""
","
","","","","","","1157.1999998092651","<p><b> That's right! </b> You should use the '1', '2', '3', and '4' keys to make your response. </p>","","0","comp_answer","","",""
"comp-q","40","179963","0.0-16.0-0.0","5644","approach_avoid_sv1","""event"",""trial"",""time""
""fullscreenenter"",""1"",""2273""
","
","
","""event"",""trial"",""time""
""fullscreenenter"",""1"",""2273""
","
","","","","","","771.2000000476837","<p> <b> True or False? </b> </p><p> You will have as much time as you want to make each choice. </p>","","1","comp_question","","","true"
"comp-q","41","185296","0.0-16.0-1.0","5644","approach_avoid_sv1","""event"",""trial"",""time""
""fullscreenenter"",""1"",""2273""
","
","
","""event"",""trial"",""time""
""fullscreenenter"",""1"",""2273""
","
","","","","","","643.0999999046326","<p> <b> That's right! </b> You will only have 10 seconds to make each choice. </p>","","0","comp_answer","","",""
"learning-instructions","42","195385","0.0-17.0","5644","approach_avoid_sv1","""event"",""trial"",""time""
""fullscreenenter"",""1"",""2273""
","
","
","""event"",""trial"",""time""
""fullscreenenter"",""1"",""2273""
","
","","","","","","1411.0999999046326","<p> Great! You are now ready to begin the game. </p><p> Remember, use the 1, 2, 3, and 4 keys to make your responses. </p>","","0","instructions","","",""
"html-keyboard-response","43","196002","0.0-18.0-0.0","5644","approach_avoid_sv1","""event"",""trial"",""time""
""fullscreenenter"",""1"",""2273""
","
","
","""event"",""trial"",""time""
""fullscreenenter"",""1"",""2273""
","
","","","","","","null","<div style=""font-size:60px;"">+</div>","null","","fixation","","",""
"memory-trial","44","198422","0.0-18.0-1.0","5644","approach_avoid_sv1","""event"",""trial"",""time""
""fullscreenenter"",""1"",""2273""
","
","
","""event"",""trial"",""time""
""fullscreenenter"",""1"",""2273""
","
","","","","","","1408.3999998569489","images/truck2.png","","","memory_trial","1","definitely_old",""
"html-keyboard-response","45","198938","0.0-18.0-0.1","5644","approach_avoid_sv1","""event"",""trial"",""time""
""fullscreenenter"",""1"",""2273""
","
","
","""event"",""trial"",""time""
""fullscreenenter"",""1"",""2273""
","
","","","","","","null","<div style=""font-size:60px;"">+</div>","null","","fixation","","",""
"memory-trial","46","201735","0.0-18.0-1.1","5644","approach_avoid_sv1","""event"",""trial"",""time""
""fullscreenenter"",""1"",""2273""
","
","
","""event"",""trial"",""time""
""fullscreenenter"",""1"",""2273""
","
","","","","","","1777","images/train4.png","","","memory_trial","1","definitely_old",""
"html-keyboard-response","47","202250","0.0-18.0-0.2","5644","approach_avoid_sv1","""event"",""trial"",""time""
""fullscreenenter"",""1"",""2273""
","
","
","""event"",""trial"",""time""
""fullscreenenter"",""1"",""2273""
","
","","","","","","null","<div style=""font-size:60px;"">+</div>","null","","fixation","","",""
"memory-trial","48","205999","0.0-18.0-1.2","5644","approach_avoid_sv1","""event"",""trial"",""time""
""fullscreenenter"",""1"",""2273""
","
","
","""event"",""trial"",""time""
""fullscreenenter"",""1"",""2273""
","
","","","","","","2725.7000000476837","images/tree8.png","","","memory_trial","3","maybe_new",""
"html-keyboard-response","49","206515","0.0-18.0-0.3","5644","approach_avoid_sv1","""event"",""trial"",""time""
""fullscreenenter"",""1"",""2273""
","
","
","""event"",""trial"",""time""
""fullscreenenter"",""1"",""2273""
","
","","","","","","null","<div style=""font-size:60px;"">+</div>","null","","fixation","","",""
"memory-trial","50","209782","0.0-18.0-1.3","5644","approach_avoid_sv1","""event"",""trial"",""time""
""fullscreenenter"",""1"",""2273""
","
","
","""event"",""trial"",""time""
""fullscreenenter"",""1"",""2273""
","
","","","","","","2250.7999999523163","images/apple7.png","","","memory_trial","4","definitely_new",""
"html-keyboard-response","51","210299","0.0-18.0-0.4","5644","approach_avoid_sv1","""event"",""trial"",""time""
""fullscreenenter"",""1"",""2273""
","
","
","""event"",""trial"",""time""
""fullscreenenter"",""1"",""2273""
","
","","","","","","null","<div style=""font-size:60px;"">+</div>","null","","fixation","","",""
"memory-trial","52","212501","0.0-18.0-1.4","5644","approach_avoid_sv1","""event"",""trial"",""time""
""fullscreenenter"",""1"",""2273""
","
","
","""event"",""trial"",""time""
""fullscreenenter"",""1"",""2273""
","
","","","","","","1191.7000000476837","images/bed6.png","","","memory_trial","4","definitely_new",""
"html-keyboard-response","53","213017","0.0-18.0-0.5","5644","approach_avoid_sv1","""event"",""trial"",""time""
""fullscreenenter"",""1"",""2273""
","
","
","""event"",""trial"",""time""
""fullscreenenter"",""1"",""2273""
","
","","","","","","null","<div style=""font-size:60px;"">+</div>","null","","fixation","","",""
"memory-trial","54","215101","0.0-18.0-1.5","5644","approach_avoid_sv1","""event"",""trial"",""time""
""fullscreenenter"",""1"",""2273""
","
","
","""event"",""trial"",""time""
""fullscreenenter"",""1"",""2273""
","
","","","","","","1056.8999998569489","images/apple8.png","","","memory_trial","4","definitely_new",""
"html-keyboard-response","55","215610","0.0-18.0-0.6","5644","approach_avoid_sv1","""event"",""trial"",""time""
""fullscreenenter"",""1"",""2273""
","
","
","""event"",""trial"",""time""
""fullscreenenter"",""1"",""2273""
","
","","","","","","null","<div style=""font-size:60px;"">+</div>","null","","fixation","","",""
"memory-trial","56","217798","0.0-18.0-1.6","5644","approach_avoid_sv1","""event"",""trial"",""time""
""fullscreenenter"",""1"",""2273""
","
","
","""event"",""trial"",""time""
""fullscreenenter"",""1"",""2273""
","
","","","","","","1169.1000001430511","images/cat1.png","","","memory_trial","4","definitely_new",""
"html-keyboard-response","57","218312","0.0-18.0-0.7","5644","approach_avoid_sv1","""event"",""trial"",""time""
""fullscreenenter"",""1"",""2273""
","
","
","""event"",""trial"",""time""
""fullscreenenter"",""1"",""2273""
","
","","","","","","null","<div style=""font-size:60px;"">+</div>","null","","fixation","","",""
"memory-trial","58","220221","0.0-18.0-1.7","5644","approach_avoid_sv1","""event"",""trial"",""time""
""fullscreenenter"",""1"",""2273""
","
","
","""event"",""trial"",""time""
""fullscreenenter"",""1"",""2273""
","
","","","","","","899","images/horse4.png","","","memory_trial","4","definitely_new",""
"html-keyboard-response","59","220736","0.0-18.0-0.8","5644","approach_avoid_sv1","""event"",""trial"",""time""
""fullscreenenter"",""1"",""2273""
","
","
","""event"",""trial"",""time""
""fullscreenenter"",""1"",""2273""
","
","","","","","","null","<div style=""font-size:60px;"">+</div>","null","","fixation","","",""
"memory-trial","60","222940","0.0-18.0-1.8","5644","approach_avoid_sv1","""event"",""trial"",""time""
""fullscreenenter"",""1"",""2273""
","
","
","""event"",""trial"",""time""
""fullscreenenter"",""1"",""2273""
","
","","","","","","1193.7999999523163","images/straw6.png","","","memory_trial","1","definitely_old",""
"html-keyboard-response","61","223452","0.0-18.0-0.9","5644","approach_avoid_sv1","""event"",""trial"",""time""
""fullscreenenter"",""1"",""2273""
","
","
","""event"",""trial"",""time""
""fullscreenenter"",""1"",""2273""
","
","","","","","","null","<div style=""font-size:60px;"">+</div>","null","","fixation","","",""
"memory-trial","62","225732","0.0-18.0-1.9","5644","approach_avoid_sv1","""event"",""trial"",""time""
""fullscreenenter"",""1"",""2273""
","
","
","""event"",""trial"",""time""
""fullscreenenter"",""1"",""2273""
","
","","","","","","1269.7000000476837","images/flower6.png","","","memory_trial","1","definitely_old",""
"html-keyboard-response","63","226249","0.0-18.0-0.10","5644","approach_avoid_sv1","""event"",""trial"",""time""
""fullscreenenter"",""1"",""2273""
","
","
","""event"",""trial"",""time""
""fullscreenenter"",""1"",""2273""
","
","","","","","","null","<div style=""font-size:60px;"">+</div>","null","","fixation","","",""
"memory-trial","64","228179","0.0-18.0-1.10","5644","approach_avoid_sv1","""event"",""trial"",""time""
""fullscreenenter"",""1"",""2273""
","
","
","""event"",""trial"",""time""
""fullscreenenter"",""1"",""2273""
","
","","","","","","922","images/sofa2.png","","","memory_trial","1","definitely_old",""
"html-keyboard-response","65","228686","0.0-18.0-0.11","5644","approach_avoid_sv1","""event"",""trial"",""time""
""fullscreenenter"",""1"",""2273""
","
","
","""event"",""trial"",""time""
""fullscreenenter"",""1"",""2273""
","
","","","","","","null","<div style=""font-size:60px;"">+</div>","null","","fixation","","",""
"memory-trial","66","231299","0.0-18.0-1.11","5644","approach_avoid_sv1","""event"",""trial"",""time""
""fullscreenenter"",""1"",""2273""
","
","
","""event"",""trial"",""time""
""fullscreenenter"",""1"",""2273""
","
","","","","","","1604.5","images/dog5.png","","","memory_trial","4","definitely_new",""
"html-keyboard-response","67","231807","0.0-18.0-0.12","5644","approach_avoid_sv1","""event"",""trial"",""time""
""fullscreenenter"",""1"",""2273""
","
","
","""event"",""trial"",""time""
""fullscreenenter"",""1"",""2273""
","
","","","","","","null","<div style=""font-size:60px;"">+</div>","null","","fixation","","",""
"memory-trial","68","233723","0.0-18.0-1.12","5644","approach_avoid_sv1","""event"",""trial"",""time""
""fullscreenenter"",""1"",""2273""
","
","
","""event"",""trial"",""time""
""fullscreenenter"",""1"",""2273""
","
","","","","","","893.4000000953674","images/cactus5.png","","","memory_trial","4","definitely_new",""
"html-keyboard-response","69","234227","0.0-18.0-0.13","5644","approach_avoid_sv1","""event"",""trial"",""time""
""fullscreenenter"",""1"",""2273""
","
","
","""event"",""trial"",""time""
""fullscreenenter"",""1"",""2273""
","
","","","","","","null","<div style=""font-size:60px;"">+</div>","null","","fixation","","",""
"memory-trial","70","236235","0.0-18.0-1.13","5644","approach_avoid_sv1","""event"",""trial"",""time""
""fullscreenenter"",""1"",""2273""
","
","
","""event"",""trial"",""time""
""fullscreenenter"",""1"",""2273""
","
","","","","","","998.2999999523163","images/apple4.png","","","memory_trial","4","definitely_new",""
"html-keyboard-response","71","236740","0.0-18.0-0.14","5644","approach_avoid_sv1","""event"",""trial"",""time""
""fullscreenenter"",""1"",""2273""
","
","
","""event"",""trial"",""time""
""fullscreenenter"",""1"",""2273""
","
","","","","","","null","<div style=""font-size:60px;"">+</div>","null","","fixation","","",""
"memory-trial","72","238653","0.0-18.0-1.14","5644","approach_avoid_sv1","""event"",""trial"",""time""
""fullscreenenter"",""1"",""2273""
","
","
","""event"",""trial"",""time""
""fullscreenenter"",""1"",""2273""
","
","","","","","","892.2999999523163","images/cat3.png","","","memory_trial","4","definitely_new",""
"html-keyboard-response","73","239155","0.0-18.0-0.15","5644","approach_avoid_sv1","""event"",""trial"",""time""
""fullscreenenter"",""1"",""2273""
","
","
","""event"",""trial"",""time""
""fullscreenenter"",""1"",""2273""
","
","","","","","","null","<div style=""font-size:60px;"">+</div>","null","","fixation","","",""
"memory-trial","74","241003","0.0-18.0-1.15","5644","approach_avoid_sv1","""event"",""trial"",""time""
""fullscreenenter"",""1"",""2273""
","
","
","""event"",""trial"",""time""
""fullscreenenter"",""1"",""2273""
","
","","","","","","839.7000000476837","images/bush2.png","","","memory_trial","4","definitely_new",""
"html-keyboard-response","75","241511","0.0-18.0-0.16","5644","approach_avoid_sv1","""event"",""trial"",""time""
""fullscreenenter"",""1"",""2273""
","
","
","""event"",""trial"",""time""
""fullscreenenter"",""1"",""2273""
","
","","","","","","null","<div style=""font-size:60px;"">+</div>","null","","fixation","","",""
"memory-trial","76","244547","0.0-18.0-1.16","5644","approach_avoid_sv1","""event"",""trial"",""time""
""fullscreenenter"",""1"",""2273""
","
","
","""event"",""trial"",""time""
""fullscreenenter"",""1"",""2273""
","
","","","","","","2030.4000000953674","images/chair5.png","","","memory_trial","2","maybe_old",""
"html-keyboard-response","77","245051","0.0-18.0-0.17","5644","approach_avoid_sv1","""event"",""trial"",""time""
""fullscreenenter"",""1"",""2273""
","
","
","""event"",""trial"",""time""
""fullscreenenter"",""1"",""2273""
","
","","","","","","null","<div style=""font-size:60px;"">+</div>","null","","fixation","","",""
"memory-trial","78","248635","0.0-18.0-1.17","5644","approach_avoid_sv1","""event"",""trial"",""time""
""fullscreenenter"",""1"",""2273""
","
","
","""event"",""trial"",""time""
""fullscreenenter"",""1"",""2273""
","
","","","","","","2572.0999999046326","images/orange1.png","","","memory_trial","3","maybe_new",""
"html-keyboard-response","79","249140","0.0-18.0-0.18","5644","approach_avoid_sv1","""event"",""trial"",""time""
""fullscreenenter"",""1"",""2273""
","
","
","""event"",""trial"",""time""
""fullscreenenter"",""1"",""2273""
","
","","","","","","null","<div style=""font-size:60px;"">+</div>","null","","fixation","","",""
"memory-trial","80","251412","0.0-18.0-1.18","5644","approach_avoid_sv1","""event"",""trial"",""time""
""fullscreenenter"",""1"",""2273""
","
","
","""event"",""trial"",""time""
""fullscreenenter"",""1"",""2273""
","
","","","","","","1258.5","images/rodent5.png","","","memory_trial","1","definitely_old",""
"html-keyboard-response","81","251916","0.0-18.0-0.19","5644","approach_avoid_sv1","""event"",""trial"",""time""
""fullscreenenter"",""1"",""2273""
","
","
","""event"",""trial"",""time""
""fullscreenenter"",""1"",""2273""
","
","","","","","","null","<div style=""font-size:60px;"">+</div>","null","","fixation","","",""
"memory-trial","82","254947","0.0-18.0-1.19","5644","approach_avoid_sv1","""event"",""trial"",""time""
""fullscreenenter"",""1"",""2273""
","
","
","""event"",""trial"",""time""
""fullscreenenter"",""1"",""2273""
","
","","","","","","2022","images/plane8.png","","","memory_trial","2","maybe_old",""
"html-keyboard-response","83","255451","0.0-18.0-0.20","5644","approach_avoid_sv1","""event"",""trial"",""time""
""fullscreenenter"",""1"",""2273""
","
","
","""event"",""trial"",""time""
""fullscreenenter"",""1"",""2273""
","
","","","","","","null","<div style=""font-size:60px;"">+</div>","null","","fixation","","",""
"memory-trial","84","257988","0.0-18.0-1.20","5644","approach_avoid_sv1","""event"",""trial"",""time""
""fullscreenenter"",""1"",""2273""
","
","
","""event"",""trial"",""time""
""fullscreenenter"",""1"",""2273""
","
","","","","","","1525.7999999523163","images/tree1.png","","","memory_trial","2","maybe_old",""
"html-keyboard-response","85","258491","0.0-18.0-0.21","5644","approach_avoid_sv1","""event"",""trial"",""time""
""fullscreenenter"",""1"",""2273""
","
","
","""event"",""trial"",""time""
""fullscreenenter"",""1"",""2273""
","
","","","","","","null","<div style=""font-size:60px;"">+</div>","null","","fixation","","",""
"memory-trial","86","260971","0.0-18.0-1.21","5644","approach_avoid_sv1","""event"",""trial"",""time""
""fullscreenenter"",""1"",""2273""
","
","
","""event"",""trial"",""time""
""fullscreenenter"",""1"",""2273""
","
","","","","","","1462","images/cow4.png","","","memory_trial","3","maybe_new",""
"html-keyboard-response","87","261486","0.0-18.0-0.22","5644","approach_avoid_sv1","""event"",""trial"",""time""
""fullscreenenter"",""1"",""2273""
","
","
","""event"",""trial"",""time""
""fullscreenenter"",""1"",""2273""
","
","","","","","","null","<div style=""font-size:60px;"">+</div>","null","","fixation","","",""
"memory-trial","88","263778","0.0-18.0-1.22","5644","approach_avoid_sv1","""event"",""trial"",""time""
""fullscreenenter"",""1"",""2273""
","
","
","""event"",""trial"",""time""
""fullscreenenter"",""1"",""2273""
","
","","","","","","1264.5999999046326","images/chair2.png","","","memory_trial","2","maybe_old",""
"html-keyboard-response","89","264288","0.0-18.0-0.23","5644","approach_avoid_sv1","""event"",""trial"",""time""
""fullscreenenter"",""1"",""2273""
","
","
","""event"",""trial"",""time""
""fullscreenenter"",""1"",""2273""
","
","","","","","","null","<div style=""font-size:60px;"">+</div>","null","","fixation","","",""
"memory-trial","90","266668","0.0-18.0-1.23","5644","approach_avoid_sv1","""event"",""trial"",""time""
""fullscreenenter"",""1"",""2273""
","
","
","""event"",""trial"",""time""
""fullscreenenter"",""1"",""2273""
","
","","","","","","1368.5999999046326","images/truck8.png","","","memory_trial","4","definitely_new",""
"html-keyboard-response","91","267174","0.0-18.0-0.24","5644","approach_avoid_sv1","""event"",""trial"",""time""
""fullscreenenter"",""1"",""2273""
","
","
","""event"",""trial"",""time""
""fullscreenenter"",""1"",""2273""
","
","","","","","","null","<div style=""font-size:60px;"">+</div>","null","","fixation","","",""
"memory-trial","92","269476","0.0-18.0-1.24","5644","approach_avoid_sv1","""event"",""trial"",""time""
""fullscreenenter"",""1"",""2273""
","
","
","""event"",""trial"",""time""
""fullscreenenter"",""1"",""2273""
","
","","","","","","1290.7000000476837","images/cow6.png","","","memory_trial","3","maybe_new",""
"html-keyboard-response","93","269979","0.0-18.0-0.25","5644","approach_avoid_sv1","""event"",""trial"",""time""
""fullscreenenter"",""1"",""2273""
","
","
","""event"",""trial"",""time""
""fullscreenenter"",""1"",""2273""
","
","","","","","","null","<div style=""font-size:60px;"">+</div>","null","","fixation","","",""
"memory-trial","94","273139","0.0-18.0-1.25","5644","approach_avoid_sv1","""event"",""trial"",""time""
""fullscreenenter"",""1"",""2273""
","
","
","""event"",""trial"",""time""
""fullscreenenter"",""1"",""2273""
","
","","","","","","2151.100000143051","images/tree3.png","","","memory_trial","2","maybe_old",""
"html-keyboard-response","95","273644","0.0-18.0-0.26","5644","approach_avoid_sv1","""event"",""trial"",""time""
""fullscreenenter"",""1"",""2273""
","
","
","""event"",""trial"",""time""
""fullscreenenter"",""1"",""2273""
","
","","","","","","null","<div style=""font-size:60px;"">+</div>","null","","fixation","","",""
"memory-trial","96","276139","0.0-18.0-1.26","5644","approach_avoid_sv1","""event"",""trial"",""time""
""fullscreenenter"",""1"",""2273""
","
","
","""event"",""trial"",""time""
""fullscreenenter"",""1"",""2273""
","
","","","","","","1481.5999999046326","images/boat3.png","","","memory_trial","1","definitely_old",""
"html-keyboard-response","97","276642","0.0-18.0-0.27","5644","approach_avoid_sv1","""event"",""trial"",""time""
""fullscreenenter"",""1"",""2273""
","
","
","""event"",""trial"",""time""
""fullscreenenter"",""1"",""2273""
","
","","","","","","null","<div style=""font-size:60px;"">+</div>","null","","fixation","","",""
"memory-trial","98","278636","0.0-18.0-1.27","5644","approach_avoid_sv1","""event"",""trial"",""time""
""fullscreenenter"",""1"",""2273""
","
","
","""event"",""trial"",""time""
""fullscreenenter"",""1"",""2273""
","
","","","","","","984.4000000953674","images/apple3.png","","","memory_trial","1","definitely_old",""
"html-keyboard-response","99","279140","0.0-18.0-0.28","5644","approach_avoid_sv1","""event"",""trial"",""time""
""fullscreenenter"",""1"",""2273""
","
","
","""event"",""trial"",""time""
""fullscreenenter"",""1"",""2273""
","
","","","","","","null","<div style=""font-size:60px;"">+</div>","null","","fixation","","",""
"memory-trial","100","281091","0.0-18.0-1.28","5644","approach_avoid_sv1","""event"",""trial"",""time""
""fullscreenenter"",""1"",""2273""
","
","
","""event"",""trial"",""time""
""fullscreenenter"",""1"",""2273""
","
","","","","","","941.2999999523163","images/chair6.png","","","memory_trial","1","definitely_old",""
"html-keyboard-response","101","281594","0.0-18.0-0.29","5644","approach_avoid_sv1","""event"",""trial"",""time""
""fullscreenenter"",""1"",""2273""
","
","
","""event"",""trial"",""time""
""fullscreenenter"",""1"",""2273""
","
","","","","","","null","<div style=""font-size:60px;"">+</div>","null","","fixation","","",""
"memory-trial","102","283404","0.0-18.0-1.29","5644","approach_avoid_sv1","""event"",""trial"",""time""
""fullscreenenter"",""1"",""2273""
","
","
","""event"",""trial"",""time""
""fullscreenenter"",""1"",""2273""
","
","","","","","","799.0999999046326","images/flower4.png","","","memory_trial","1","definitely_old",""
"html-keyboard-response","103","283907","0.0-18.0-0.30","5644","approach_avoid_sv1","""event"",""trial"",""time""
""fullscreenenter"",""1"",""2273""
","
","
","""event"",""trial"",""time""
""fullscreenenter"",""1"",""2273""
","
","","","","","","null","<div style=""font-size:60px;"">+</div>","null","","fixation","","",""
"memory-trial","104","287292","0.0-18.0-1.30","5644","approach_avoid_sv1","""event"",""trial"",""time""
""fullscreenenter"",""1"",""2273""
","
","
","""event"",""trial"",""time""
""fullscreenenter"",""1"",""2273""
","
","","","","","","2373.7999999523163","images/banana6.png","","","memory_trial","1","definitely_old",""
"html-keyboard-response","105","287802","0.0-18.0-0.31","5644","approach_avoid_sv1","""event"",""trial"",""time""
""fullscreenenter"",""1"",""2273""
","
","
","""event"",""trial"",""time""
""fullscreenenter"",""1"",""2273""
","
","","","","","","null","<div style=""font-size:60px;"">+</div>","null","","fixation","","",""
"memory-trial","106","290059","0.0-18.0-1.31","5644","approach_avoid_sv1","""event"",""trial"",""time""
""fullscreenenter"",""1"",""2273""
","
","
","""event"",""trial"",""time""
""fullscreenenter"",""1"",""2273""
","
","","","","","","1248","images/cactus2.png","","","memory_trial","4","definitely_new",""
"html-keyboard-response","107","290575","0.0-18.0-0.32","5644","approach_avoid_sv1","""event"",""trial"",""time""
""fullscreenenter"",""1"",""2273""
","
","
","""event"",""trial"",""time""
""fullscreenenter"",""1"",""2273""
","
","","","","","","null","<div style=""font-size:60px;"">+</div>","null","","fixation","","",""
"memory-trial","108","293507","0.0-18.0-1.32","5644","approach_avoid_sv1","""event"",""trial"",""time""
""fullscreenenter"",""1"",""2273""
","
","
","""event"",""trial"",""time""
""fullscreenenter"",""1"",""2273""
","
","","","","","","1917.7999999523163","images/horse1.png","","","memory_trial","4","definitely_new",""
"html-keyboard-response","109","294011","0.0-18.0-0.33","5644","approach_avoid_sv1","""event"",""trial"",""time""
""fullscreenenter"",""1"",""2273""
","
","
","""event"",""trial"",""time""
""fullscreenenter"",""1"",""2273""
","
","","","","","","null","<div style=""font-size:60px;"">+</div>","null","","fixation","","",""
"memory-trial","110","295835","0.0-18.0-1.33","5644","approach_avoid_sv1","""event"",""trial"",""time""
""fullscreenenter"",""1"",""2273""
","
","
","""event"",""trial"",""time""
""fullscreenenter"",""1"",""2273""
","
","","","","","","814.2000000476837","images/bush5.png","","","memory_trial","4","definitely_new",""
"html-keyboard-response","111","296339","0.0-18.0-0.34","5644","approach_avoid_sv1","""event"",""trial"",""time""
""fullscreenenter"",""1"",""2273""
","
","
","""event"",""trial"",""time""
""fullscreenenter"",""1"",""2273""
","
","","","","","","null","<div style=""font-size:60px;"">+</div>","null","","fixation","","",""
"memory-trial","112","298758","0.0-18.0-1.34","5644","approach_avoid_sv1","""event"",""trial"",""time""
""fullscreenenter"",""1"",""2273""
","
","
","""event"",""trial"",""time""
""fullscreenenter"",""1"",""2273""
","
","","","","","","1408.5999999046326","images/chair1.png","","","memory_trial","3","maybe_new",""
"html-keyboard-response","113","299278","0.0-18.0-0.35","5644","approach_avoid_sv1","""event"",""trial"",""time""
""fullscreenenter"",""1"",""2273""
","
","
","""event"",""trial"",""time""
""fullscreenenter"",""1"",""2273""
","
","","","","","","null","<div style=""font-size:60px;"">+</div>","null","","fixation","","",""
"memory-trial","114","301276","0.0-18.0-1.35","5644","approach_avoid_sv1","""event"",""trial"",""time""
""fullscreenenter"",""1"",""2273""
","
","
","""event"",""trial"",""time""
""fullscreenenter"",""1"",""2273""
","
","","","","","","988.5999999046326","images/train3.png","","","memory_trial","4","definitely_new",""
"html-keyboard-response","115","301791","0.0-18.0-0.36","5644","approach_avoid_sv1","""event"",""trial"",""time""
""fullscreenenter"",""1"",""2273""
","
","
","""event"",""trial"",""time""
""fullscreenenter"",""1"",""2273""
","
","","","","","","null","<div style=""font-size:60px;"">+</div>","null","","fixation","","",""
"memory-trial","116","304513","0.0-18.0-1.36","5644","approach_avoid_sv1","""event"",""trial"",""time""
""fullscreenenter"",""1"",""2273""
","
","
","""event"",""trial"",""time""
""fullscreenenter"",""1"",""2273""
","
","","","","","","1713.8000001907349","images/tree2.png","","","memory_trial","2","maybe_old",""
"html-keyboard-response","117","305019","0.0-18.0-0.37","5644","approach_avoid_sv1","""event"",""trial"",""time""
""fullscreenenter"",""1"",""2273""
","
","
","""event"",""trial"",""time""
""fullscreenenter"",""1"",""2273""
","
","","","","","","null","<div style=""font-size:60px;"">+</div>","null","","fixation","","",""
"memory-trial","118","307180","0.0-18.0-1.37","5644","approach_avoid_sv1","""event"",""trial"",""time""
""fullscreenenter"",""1"",""2273""
","
","
","""event"",""trial"",""time""
""fullscreenenter"",""1"",""2273""
","
","","","","","","1149.4000000953674","images/orange4.png","","","memory_trial","4","definitely_new",""
"html-keyboard-response","119","307699","0.0-18.0-0.38","5644","approach_avoid_sv1","""event"",""trial"",""time""
""fullscreenenter"",""1"",""2273""
","
","
","""event"",""trial"",""time""
""fullscreenenter"",""1"",""2273""
","
","","","","","","null","<div style=""font-size:60px;"">+</div>","null","","fixation","","",""
"memory-trial","120","310027","0.0-18.0-1.38","5644","approach_avoid_sv1","""event"",""trial"",""time""
""fullscreenenter"",""1"",""2273""
","
","
","""event"",""trial"",""time""
""fullscreenenter"",""1"",""2273""
","
","","","","","","1315.7000000476837","images/orange7.png","","","memory_trial","4","definitely_new",""
"html-keyboard-response","121","310531","0.0-18.0-0.39","5644","approach_avoid_sv1","""event"",""trial"",""time""
""fullscreenenter"",""1"",""2273""
","
","
","""event"",""trial"",""time""
""fullscreenenter"",""1"",""2273""
","
","","","","","","null","<div style=""font-size:60px;"">+</div>","null","","fixation","","",""
"memory-trial","122","312971","0.0-18.0-1.39","5644","approach_avoid_sv1","""event"",""trial"",""time""
""fullscreenenter"",""1"",""2273""
","
","
","""event"",""trial"",""time""
""fullscreenenter"",""1"",""2273""
","
","","","","","","1423.4000000953674","images/sheep6.png","","","memory_trial","1","definitely_old",""
"html-keyboard-response","123","313476","0.0-18.0-0.40","5644","approach_avoid_sv1","""event"",""trial"",""time""
""fullscreenenter"",""1"",""2273""
","
","
","""event"",""trial"",""time""
""fullscreenenter"",""1"",""2273""
","
","","","","","","null","<div style=""font-size:60px;"">+</div>","null","","fixation","","",""
"memory-trial","124","315292","0.0-18.0-1.40","5644","approach_avoid_sv1","""event"",""trial"",""time""
""fullscreenenter"",""1"",""2273""
","
","
","""event"",""trial"",""time""
""fullscreenenter"",""1"",""2273""
","
","","","","","","803.6000001430511","images/sheep3.png","","","memory_trial","1","definitely_old",""
"html-keyboard-response","125","315796","0.0-18.0-0.41","5644","approach_avoid_sv1","""event"",""trial"",""time""
""fullscreenenter"",""1"",""2273""
","
","
","""event"",""trial"",""time""
""fullscreenenter"",""1"",""2273""
","
","","","","","","null","<div style=""font-size:60px;"">+</div>","null","","fixation","","",""
"memory-trial","126","318275","0.0-18.0-1.41","5644","approach_avoid_sv1","""event"",""trial"",""time""
""fullscreenenter"",""1"",""2273""
","
","
","""event"",""trial"",""time""
""fullscreenenter"",""1"",""2273""
","
","","","","","","1470.2000000476837","images/banana8.png","","","memory_trial","3","maybe_new",""
"html-button-response","127","321271","0.0-18.0-2.41-0.41","5644","approach_avoid_sv1","""event"",""trial"",""time""
""fullscreenenter"",""1"",""2273""
","
","
","""event"",""trial"",""time""
""fullscreenenter"",""1"",""2273""
","
","","","","","","2994.2999999523163","<p> Take a break! </p><p> Click the button to continue. </p>","0","","break","","",""
"html-keyboard-response","128","321779","0.0-18.0-0.42","5644","approach_avoid_sv1","""event"",""trial"",""time""
""fullscreenenter"",""1"",""2273""
","
","
","""event"",""trial"",""time""
""fullscreenenter"",""1"",""2273""
","
","","","","","","null","<div style=""font-size:60px;"">+</div>","null","","fixation","","",""
"memory-trial","129","323915","0.0-18.0-1.42","5644","approach_avoid_sv1","""event"",""trial"",""time""
""fullscreenenter"",""1"",""2273""
","
","
","""event"",""trial"",""time""
""fullscreenenter"",""1"",""2273""
","
","","","","","","1125.8999998569489","images/boat5.png","","","memory_trial","1","definitely_old",""
"html-keyboard-response","130","324420","0.0-18.0-0.43","5644","approach_avoid_sv1","""event"",""trial"",""time""
""fullscreenenter"",""1"",""2273""
","
","
","""event"",""trial"",""time""
""fullscreenenter"",""1"",""2273""
","
","","","","","","null","<div style=""font-size:60px;"">+</div>","null","","fixation","","",""
"memory-trial","131","327107","0.0-18.0-1.43","5644","approach_avoid_sv1","""event"",""trial"",""time""
""fullscreenenter"",""1"",""2273""
","
","
","""event"",""trial"",""time""
""fullscreenenter"",""1"",""2273""
","
","","","","","","1681.5","images/rabbit2.png","","","memory_trial","1","definitely_old",""
"html-keyboard-response","132","327611","0.0-18.0-0.44","5644","approach_avoid_sv1","""event"",""trial"",""time""
""fullscreenenter"",""1"",""2273""
","
","
","""event"",""trial"",""time""
""fullscreenenter"",""1"",""2273""
","
","","","","","","null","<div style=""font-size:60px;"">+</div>","null","","fixation","","",""
"memory-trial","133","329884","0.0-18.0-1.44","5644","approach_avoid_sv1","""event"",""trial"",""time""
""fullscreenenter"",""1"",""2273""
","
","
","""event"",""trial"",""time""
""fullscreenenter"",""1"",""2273""
","
","","","","","","1253.3000001907349","images/horse8.png","","","memory_trial","4","definitely_new",""
"html-keyboard-response","134","330389","0.0-18.0-0.45","5644","approach_avoid_sv1","""event"",""trial"",""time""
""fullscreenenter"",""1"",""2273""
","
","
","""event"",""trial"",""time""
""fullscreenenter"",""1"",""2273""
","
","","","","","","null","<div style=""font-size:60px;"">+</div>","null","","fixation","","",""
"memory-trial","135","333371","0.0-18.0-1.45","5644","approach_avoid_sv1","""event"",""trial"",""time""
""fullscreenenter"",""1"",""2273""
","
","
","""event"",""trial"",""time""
""fullscreenenter"",""1"",""2273""
","
","","","","","","1972.5999999046326","images/train5.png","","","memory_trial","3","maybe_new",""
"html-keyboard-response","136","333875","0.0-18.0-0.46","5644","approach_avoid_sv1","""event"",""trial"",""time""
""fullscreenenter"",""1"",""2273""
","
","
","""event"",""trial"",""time""
""fullscreenenter"",""1"",""2273""
","
","","","","","","null","<div style=""font-size:60px;"">+</div>","null","","fixation","","",""
"memory-trial","137","335972","0.0-18.0-1.46","5644","approach_avoid_sv1","""event"",""trial"",""time""
""fullscreenenter"",""1"",""2273""
","
","
","""event"",""trial"",""time""
""fullscreenenter"",""1"",""2273""
","
","","","","","","1086.2000000476837","images/flower8.png","","","memory_trial","1","definitely_old",""
"html-keyboard-response","138","336475","0.0-18.0-0.47","5644","approach_avoid_sv1","""event"",""trial"",""time""
""fullscreenenter"",""1"",""2273""
","
","
","""event"",""trial"",""time""
""fullscreenenter"",""1"",""2273""
","
","","","","","","null","<div style=""font-size:60px;"">+</div>","null","","fixation","","",""
"memory-trial","139","339051","0.0-18.0-1.47","5644","approach_avoid_sv1","""event"",""trial"",""time""
""fullscreenenter"",""1"",""2273""
","
","
","""event"",""trial"",""time""
""fullscreenenter"",""1"",""2273""
","
","","","","","","1573.1000001430511","images/rabbit5.png","","","memory_trial","4","definitely_new",""
"html-keyboard-response","140","339555","0.0-18.0-0.48","5644","approach_avoid_sv1","""event"",""trial"",""time""
""fullscreenenter"",""1"",""2273""
","
","
","""event"",""trial"",""time""
""fullscreenenter"",""1"",""2273""
","
","","","","","","null","<div style=""font-size:60px;"">+</div>","null","","fixation","","",""
"memory-trial","141","342444","0.0-18.0-1.48","5644","approach_avoid_sv1","""event"",""trial"",""time""
""fullscreenenter"",""1"",""2273""
","
","
","""event"",""trial"",""time""
""fullscreenenter"",""1"",""2273""
","
","","","","","","1878.7000000476837","images/plane7.png","","","memory_trial","3","maybe_new",""
"html-keyboard-response","142","342950","0.0-18.0-0.49","5644","approach_avoid_sv1","""event"",""trial"",""time""
""fullscreenenter"",""1"",""2273""
","
","
","""event"",""trial"",""time""
""fullscreenenter"",""1"",""2273""
","
","","","","","","null","<div style=""font-size:60px;"">+</div>","null","","fixation","","",""
"memory-trial","143","345820","0.0-18.0-1.49","5644","approach_avoid_sv1","""event"",""trial"",""time""
""fullscreenenter"",""1"",""2273""
","
","
","""event"",""trial"",""time""
""fullscreenenter"",""1"",""2273""
","
","","","","","","1866.5","images/table2.png","","","memory_trial","2","maybe_old",""
"html-keyboard-response","144","346323","0.0-18.0-0.50","5644","approach_avoid_sv1","""event"",""trial"",""time""
""fullscreenenter"",""1"",""2273""
","
","
","""event"",""trial"",""time""
""fullscreenenter"",""1"",""2273""
","
","","","","","","null","<div style=""font-size:60px;"">+</div>","null","","fixation","","",""
"memory-trial","145","348947","0.0-18.0-1.50","5644","approach_avoid_sv1","""event"",""trial"",""time""
""fullscreenenter"",""1"",""2273""
","
","
","""event"",""trial"",""time""
""fullscreenenter"",""1"",""2273""
","
","","","","","","1617.4000000953674","images/chair7.png","","","memory_trial","3","maybe_new",""
"html-keyboard-response","146","349451","0.0-18.0-0.51","5644","approach_avoid_sv1","""event"",""trial"",""time""
""fullscreenenter"",""1"",""2273""
","
","
","""event"",""trial"",""time""
""fullscreenenter"",""1"",""2273""
","
","","","","","","null","<div style=""font-size:60px;"">+</div>","null","","fixation","","",""
"memory-trial","147","351371","0.0-18.0-1.51","5644","approach_avoid_sv1","""event"",""trial"",""time""
""fullscreenenter"",""1"",""2273""
","
","
","""event"",""trial"",""time""
""fullscreenenter"",""1"",""2273""
","
","","","","","","913.1000001430511","images/apple6.png","","","memory_trial","3","maybe_new",""
"html-keyboard-response","148","351875","0.0-18.0-0.52","5644","approach_avoid_sv1","""event"",""trial"",""time""
""fullscreenenter"",""1"",""2273""
","
","
","""event"",""trial"",""time""
""fullscreenenter"",""1"",""2273""
","
","","","","","","null","<div style=""font-size:60px;"">+</div>","null","","fixation","","",""
"memory-trial","149","353803","0.0-18.0-1.52","5644","approach_avoid_sv1","""event"",""trial"",""time""
""fullscreenenter"",""1"",""2273""
","
","
","""event"",""trial"",""time""
""fullscreenenter"",""1"",""2273""
","
","","","","","","919.5","images/cat2.png","","","memory_trial","1","definitely_old",""
"html-keyboard-response","150","354308","0.0-18.0-0.53","5644","approach_avoid_sv1","""event"",""trial"",""time""
""fullscreenenter"",""1"",""2273""
","
","
","""event"",""trial"",""time""
""fullscreenenter"",""1"",""2273""
","
","","","","","","null","<div style=""font-size:60px;"">+</div>","null","","fixation","","",""
"memory-trial","151","356075","0.0-18.0-1.53","5644","approach_avoid_sv1","""event"",""trial"",""time""
""fullscreenenter"",""1"",""2273""
","
","
","""event"",""trial"",""time""
""fullscreenenter"",""1"",""2273""
","
","","","","","","757","images/cat8.png","","","memory_trial","1","definitely_old",""
"html-keyboard-response","152","356580","0.0-18.0-0.54","5644","approach_avoid_sv1","""event"",""trial"",""time""
""fullscreenenter"",""1"",""2273""
","
","
","""event"",""trial"",""time""
""fullscreenenter"",""1"",""2273""
","
","","","","","","null","<div style=""font-size:60px;"">+</div>","null","","fixation","","",""
"memory-trial","153","358972","0.0-18.0-1.54","5644","approach_avoid_sv1","""event"",""trial"",""time""
""fullscreenenter"",""1"",""2273""
","
","
","""event"",""trial"",""time""
""fullscreenenter"",""1"",""2273""
","
","","","","","","1378.7999999523163","images/plane3.png","","","memory_trial","3","maybe_new",""
"html-keyboard-response","154","359475","0.0-18.0-0.55","5644","approach_avoid_sv1","""event"",""trial"",""time""
""fullscreenenter"",""1"",""2273""
","
","
","""event"",""trial"",""time""
""fullscreenenter"",""1"",""2273""
","
","","","","","","null","<div style=""font-size:60px;"">+</div>","null","","fixation","","",""
"memory-trial","155","362275","0.0-18.0-1.55","5644","approach_avoid_sv1","""event"",""trial"",""time""
""fullscreenenter"",""1"",""2273""
","
","
","""event"",""trial"",""time""
""fullscreenenter"",""1"",""2273""
","
","","","","","","1789.9000000953674","images/bed4.png","","","memory_trial","3","maybe_new",""
"html-keyboard-response","156","362788","0.0-18.0-0.56","5644","approach_avoid_sv1","""event"",""trial"",""time""
""fullscreenenter"",""1"",""2273""
","
","
","""event"",""trial"",""time""
""fullscreenenter"",""1"",""2273""
","
","","","","","","null","<div style=""font-size:60px;"">+</div>","null","","fixation","","",""
"memory-trial","157","364620","0.0-18.0-1.56","5644","approach_avoid_sv1","""event"",""trial"",""time""
""fullscreenenter"",""1"",""2273""
","
","
","""event"",""trial"",""time""
""fullscreenenter"",""1"",""2273""
","
","","","","","","820.2999999523163","images/dog6.png","","","memory_trial","4","definitely_new",""
"html-keyboard-response","158","365123","0.0-18.0-0.57","5644","approach_avoid_sv1","""event"",""trial"",""time""
""fullscreenenter"",""1"",""2273""
","
","
","""event"",""trial"",""time""
""fullscreenenter"",""1"",""2273""
","
","","","","","","null","<div style=""font-size:60px;"">+</div>","null","","fixation","","",""
"memory-trial","159","366819","0.0-18.0-1.57","5644","approach_avoid_sv1","""event"",""trial"",""time""
""fullscreenenter"",""1"",""2273""
","
","
","""event"",""trial"",""time""
""fullscreenenter"",""1"",""2273""
","
","","","","","","687","images/bed7.png","","","memory_trial","4","definitely_new",""
"html-keyboard-response","160","367324","0.0-18.0-0.58","5644","approach_avoid_sv1","""event"",""trial"",""time""
""fullscreenenter"",""1"",""2273""
","
","
","""event"",""trial"",""time""
""fullscreenenter"",""1"",""2273""
","
","","","","","","null","<div style=""font-size:60px;"">+</div>","null","","fixation","","",""
"memory-trial","161","369083","0.0-18.0-1.58","5644","approach_avoid_sv1","""event"",""trial"",""time""
""fullscreenenter"",""1"",""2273""
","
","
","""event"",""trial"",""time""
""fullscreenenter"",""1"",""2273""
","
","","","","","","753","images/tree5.png","","","memory_trial","4","definitely_new",""
"html-keyboard-response","162","369594","0.0-18.0-0.59","5644","approach_avoid_sv1","""event"",""trial"",""time""
""fullscreenenter"",""1"",""2273""
","
","
","""event"",""trial"",""time""
""fullscreenenter"",""1"",""2273""
","
","","","","","","null","<div style=""font-size:60px;"">+</div>","null","","fixation","","",""
"memory-trial","163","372076","0.0-18.0-1.59","5644","approach_avoid_sv1","""event"",""trial"",""time""
""fullscreenenter"",""1"",""2273""
","
","
","""event"",""trial"",""time""
""fullscreenenter"",""1"",""2273""
","
","","","","","","1472.2000000476837","images/plane1.png","","","memory_trial","1","definitely_old",""
"html-keyboard-response","164","372580","0.0-18.0-0.60","5644","approach_avoid_sv1","""event"",""trial"",""time""
""fullscreenenter"",""1"",""2273""
","
","
","""event"",""trial"",""time""
""fullscreenenter"",""1"",""2273""
","
","","","","","","null","<div style=""font-size:60px;"">+</div>","null","","fixation","","",""
"memory-trial","165","375300","0.0-18.0-1.60","5644","approach_avoid_sv1","""event"",""trial"",""time""
""fullscreenenter"",""1"",""2273""
","
","
","""event"",""trial"",""time""
""fullscreenenter"",""1"",""2273""
","
","","","","","","1710.1000001430511","images/truck4.png","","","memory_trial","4","definitely_new",""
"html-keyboard-response","166","375804","0.0-18.0-0.61","5644","approach_avoid_sv1","""event"",""trial"",""time""
""fullscreenenter"",""1"",""2273""
","
","
","""event"",""trial"",""time""
""fullscreenenter"",""1"",""2273""
","
","","","","","","null","<div style=""font-size:60px;"">+</div>","null","","fixation","","",""
"memory-trial","167","377756","0.0-18.0-1.61","5644","approach_avoid_sv1","""event"",""trial"",""time""
""fullscreenenter"",""1"",""2273""
","
","
","""event"",""trial"",""time""
""fullscreenenter"",""1"",""2273""
","
","","","","","","941.3999998569489","images/dog3.png","","","memory_trial","4","definitely_new",""
"html-keyboard-response","168","378260","0.0-18.0-0.62","5644","approach_avoid_sv1","""event"",""trial"",""time""
""fullscreenenter"",""1"",""2273""
","
","
","""event"",""trial"",""time""
""fullscreenenter"",""1"",""2273""
","
","","","","","","null","<div style=""font-size:60px;"">+</div>","null","","fixation","","",""
"memory-trial","169","380155","0.0-18.0-1.62","5644","approach_avoid_sv1","""event"",""trial"",""time""
""fullscreenenter"",""1"",""2273""
","
","
","""event"",""trial"",""time""
""fullscreenenter"",""1"",""2273""
","
","","","","","","886.2000000476837","images/bed1.png","","","memory_trial","4","definitely_new",""
"html-keyboard-response","170","380659","0.0-18.0-0.63","5644","approach_avoid_sv1","""event"",""trial"",""time""
""fullscreenenter"",""1"",""2273""
","
","
","""event"",""trial"",""time""
""fullscreenenter"",""1"",""2273""
","
","","","","","","null","<div style=""font-size:60px;"">+</div>","null","","fixation","","",""
"memory-trial","171","384211","0.0-18.0-1.63","5644","approach_avoid_sv1","""event"",""trial"",""time""
""fullscreenenter"",""1"",""2273""
","
","
","""event"",""trial"",""time""
""fullscreenenter"",""1"",""2273""
","
","","","","","","2542.5999999046326","images/straw2.png","","","memory_trial","3","maybe_new",""
"html-keyboard-response","172","384721","0.0-18.0-0.64","5644","approach_avoid_sv1","""event"",""trial"",""time""
""fullscreenenter"",""1"",""2273""
","
","
","""event"",""trial"",""time""
""fullscreenenter"",""1"",""2273""
","
","","","","","","null","<div style=""font-size:60px;"">+</div>","null","","fixation","","",""
"memory-trial","173","386821","0.0-18.0-1.64","5644","approach_avoid_sv1","""event"",""trial"",""time""
""fullscreenenter"",""1"",""2273""
","
","
","""event"",""trial"",""time""
""fullscreenenter"",""1"",""2273""
","
","","","","","","1083","images/cow5.png","","","memory_trial","3","maybe_new",""
"html-keyboard-response","174","387324","0.0-18.0-0.65","5644","approach_avoid_sv1","""event"",""trial"",""time""
""fullscreenenter"",""1"",""2273""
","
","
","""event"",""trial"",""time""
""fullscreenenter"",""1"",""2273""
","
","","","","","","null","<div style=""font-size:60px;"">+</div>","null","","fixation","","",""
"memory-trial","175","389940","0.0-18.0-1.65","5644","approach_avoid_sv1","""event"",""trial"",""time""
""fullscreenenter"",""1"",""2273""
","
","
","""event"",""trial"",""time""
""fullscreenenter"",""1"",""2273""
","
","","","","","","1608.8999998569489","images/cow1.png","","","memory_trial","1","definitely_old",""
"html-keyboard-response","176","390443","0.0-18.0-0.66","5644","approach_avoid_sv1","""event"",""trial"",""time""
""fullscreenenter"",""1"",""2273""
","
","
","""event"",""trial"",""time""
""fullscreenenter"",""1"",""2273""
","
","","","","","","null","<div style=""font-size:60px;"">+</div>","null","","fixation","","",""
"memory-trial","177","393180","0.0-18.0-1.66","5644","approach_avoid_sv1","""event"",""trial"",""time""
""fullscreenenter"",""1"",""2273""
","
","
","""event"",""trial"",""time""
""fullscreenenter"",""1"",""2273""
","
","","","","","","1724.2999999523163","images/table8.png","","","memory_trial","1","definitely_old",""
"html-keyboard-response","178","393683","0.0-18.0-0.67","5644","approach_avoid_sv1","""event"",""trial"",""time""
""fullscreenenter"",""1"",""2273""
","
","
","""event"",""trial"",""time""
""fullscreenenter"",""1"",""2273""
","
","","","","","","null","<div style=""font-size:60px;"">+</div>","null","","fixation","","",""
"memory-trial","179","396537","0.0-18.0-1.67","5644","approach_avoid_sv1","""event"",""trial"",""time""
""fullscreenenter"",""1"",""2273""
","
","
","""event"",""trial"",""time""
""fullscreenenter"",""1"",""2273""
","
","","","","","","1830.5999999046326","images/rodent8.png","","","memory_trial","2","maybe_old",""
"html-keyboard-response","180","397043","0.0-18.0-0.68","5644","approach_avoid_sv1","""event"",""trial"",""time""
""fullscreenenter"",""1"",""2273""
","
","
","""event"",""trial"",""time""
""fullscreenenter"",""1"",""2273""
","
","","","","","","null","<div style=""font-size:60px;"">+</div>","null","","fixation","","",""
"memory-trial","181","399284","0.0-18.0-1.68","5644","approach_avoid_sv1","""event"",""trial"",""time""
""fullscreenenter"",""1"",""2273""
","
","
","""event"",""trial"",""time""
""fullscreenenter"",""1"",""2273""
","
","","","","","","1236.2999999523163","images/horse3.png","","","memory_trial","4","definitely_new",""
"html-keyboard-response","182","399787","0.0-18.0-0.69","5644","approach_avoid_sv1","""event"",""trial"",""time""
""fullscreenenter"",""1"",""2273""
","
","
","""event"",""trial"",""time""
""fullscreenenter"",""1"",""2273""
","
","","","","","","null","<div style=""font-size:60px;"">+</div>","null","","fixation","","",""
"memory-trial","183","402931","0.0-18.0-1.69","5644","approach_avoid_sv1","""event"",""trial"",""time""
""fullscreenenter"",""1"",""2273""
","
","
","""event"",""trial"",""time""
""fullscreenenter"",""1"",""2273""
","
","","","","","","2134.2000000476837","images/cat4.png","","","memory_trial","1","definitely_old",""
"html-keyboard-response","184","403435","0.0-18.0-0.70","5644","approach_avoid_sv1","""event"",""trial"",""time""
""fullscreenenter"",""1"",""2273""
","
","
","""event"",""trial"",""time""
""fullscreenenter"",""1"",""2273""
","
","","","","","","null","<div style=""font-size:60px;"">+</div>","null","","fixation","","",""
"memory-trial","185","405308","0.0-18.0-1.70","5644","approach_avoid_sv1","""event"",""trial"",""time""
""fullscreenenter"",""1"",""2273""
","
","
","""event"",""trial"",""time""
""fullscreenenter"",""1"",""2273""
","
","","","","","","862.2000000476837","images/bed3.png","","","memory_trial","4","definitely_new",""
"html-keyboard-response","186","405811","0.0-18.0-0.71","5644","approach_avoid_sv1","""event"",""trial"",""time""
""fullscreenenter"",""1"",""2273""
","
","
","""event"",""trial"",""time""
""fullscreenenter"",""1"",""2273""
","
","","","","","","null","<div style=""font-size:60px;"">+</div>","null","","fixation","","",""
"memory-trial","187","408451","0.0-18.0-1.71","5644","approach_avoid_sv1","""event"",""trial"",""time""
""fullscreenenter"",""1"",""2273""
","
","
","""event"",""trial"",""time""
""fullscreenenter"",""1"",""2273""
","
","","","","","","1636.5999999046326","images/sheep2.png","","","memory_trial","3","maybe_new",""
"html-keyboard-response","188","408958","0.0-18.0-0.72","5644","approach_avoid_sv1","""event"",""trial"",""time""
""fullscreenenter"",""1"",""2273""
","
","
","""event"",""trial"",""time""
""fullscreenenter"",""1"",""2273""
","
","","","","","","null","<div style=""font-size:60px;"">+</div>","null","","fixation","","",""
"memory-trial","189","412388","0.0-18.0-1.72","5644","approach_avoid_sv1","""event"",""trial"",""time""
""fullscreenenter"",""1"",""2273""
","
","
","""event"",""trial"",""time""
""fullscreenenter"",""1"",""2273""
","
","","","","","","2420.4000000953674","images/tree6.png","","","memory_trial","2","maybe_old",""
"html-keyboard-response","190","412903","0.0-18.0-0.73","5644","approach_avoid_sv1","""event"",""trial"",""time""
""fullscreenenter"",""1"",""2273""
","
","
","""event"",""trial"",""time""
""fullscreenenter"",""1"",""2273""
","
","","","","","","null","<div style=""font-size:60px;"">+</div>","null","","fixation","","",""
"memory-trial","191","415934","0.0-18.0-1.73","5644","approach_avoid_sv1","""event"",""trial"",""time""
""fullscreenenter"",""1"",""2273""
","
","
","""event"",""trial"",""time""
""fullscreenenter"",""1"",""2273""
","
","","","","","","2019.7000000476837","images/flower2.png","","","memory_trial","4","definitely_new",""
"html-keyboard-response","192","416443","0.0-18.0-0.74","5644","approach_avoid_sv1","""event"",""trial"",""time""
""fullscreenenter"",""1"",""2273""
","
","
","""event"",""trial"",""time""
""fullscreenenter"",""1"",""2273""
","
","","","","","","null","<div style=""font-size:60px;"">+</div>","null","","fixation","","",""
"memory-trial","193","418828","0.0-18.0-1.74","5644","approach_avoid_sv1","""event"",""trial"",""time""
""fullscreenenter"",""1"",""2273""
","
","
","""event"",""trial"",""time""
""fullscreenenter"",""1"",""2273""
","
","","","","","","1374.7000000476837","images/sheep7.png","","","memory_trial","3","maybe_new",""
"html-keyboard-response","194","419331","0.0-18.0-0.75","5644","approach_avoid_sv1","""event"",""trial"",""time""
""fullscreenenter"",""1"",""2273""
","
","
","""event"",""trial"",""time""
""fullscreenenter"",""1"",""2273""
","
","","","","","","null","<div style=""font-size:60px;"">+</div>","null","","fixation","","",""
"memory-trial","195","421475","0.0-18.0-1.75","5644","approach_avoid_sv1","""event"",""trial"",""time""
""fullscreenenter"",""1"",""2273""
","
","
","""event"",""trial"",""time""
""fullscreenenter"",""1"",""2273""
","
","","","","","","1138.7999999523163","images/truck7.png","","","memory_trial","4","definitely_new",""
"html-keyboard-response","196","421980","0.0-18.0-0.76","5644","approach_avoid_sv1","""event"",""trial"",""time""
""fullscreenenter"",""1"",""2273""
","
","
","""event"",""trial"",""time""
""fullscreenenter"",""1"",""2273""
","
","","","","","","null","<div style=""font-size:60px;"">+</div>","null","","fixation","","",""
"memory-trial","197","423980","0.0-18.0-1.76","5644","approach_avoid_sv1","""event"",""trial"",""time""
""fullscreenenter"",""1"",""2273""
","
","
","""event"",""trial"",""time""
""fullscreenenter"",""1"",""2273""
","
","","","","","","991.8999998569489","images/train2.png","","","memory_trial","1","definitely_old",""
"html-keyboard-response","198","424483","0.0-18.0-0.77","5644","approach_avoid_sv1","""event"",""trial"",""time""
""fullscreenenter"",""1"",""2273""
","
","
","""event"",""trial"",""time""
""fullscreenenter"",""1"",""2273""
","
","","","","","","null","<div style=""font-size:60px;"">+</div>","null","","fixation","","",""
"memory-trial","199","426943","0.0-18.0-1.77","5644","approach_avoid_sv1","""event"",""trial"",""time""
""fullscreenenter"",""1"",""2273""
","
","
","""event"",""trial"",""time""
""fullscreenenter"",""1"",""2273""
","
","","","","","","1450.2000000476837","images/train6.png","","","memory_trial","4","definitely_new",""
"html-keyboard-response","200","427452","0.0-18.0-0.78","5644","approach_avoid_sv1","""event"",""trial"",""time""
""fullscreenenter"",""1"",""2273""
","
","
","""event"",""trial"",""time""
""fullscreenenter"",""1"",""2273""
","
","","","","","","null","<div style=""font-size:60px;"">+</div>","null","","fixation","","",""
"memory-trial","201","430084","0.0-18.0-1.78","5644","approach_avoid_sv1","""event"",""trial"",""time""
""fullscreenenter"",""1"",""2273""
","
","
","""event"",""trial"",""time""
""fullscreenenter"",""1"",""2273""
","
","","","","","","1625.8999998569489","images/rodent6.png","","","memory_trial","1","definitely_old",""
"html-keyboard-response","202","430587","0.0-18.0-0.79","5644","approach_avoid_sv1","""event"",""trial"",""time""
""fullscreenenter"",""1"",""2273""
","
","
","""event"",""trial"",""time""
""fullscreenenter"",""1"",""2273""
","
","","","","","","null","<div style=""font-size:60px;"">+</div>","null","","fixation","","",""
"memory-trial","203","432499","0.0-18.0-1.79","5644","approach_avoid_sv1","""event"",""trial"",""time""
""fullscreenenter"",""1"",""2273""
","
","
","""event"",""trial"",""time""
""fullscreenenter"",""1"",""2273""
","
","","","","","","910.2000000476837","images/flower3.png","","","memory_trial","1","definitely_old",""
"html-keyboard-response","204","433003","0.0-18.0-0.80","5644","approach_avoid_sv1","""event"",""trial"",""time""
""fullscreenenter"",""1"",""2273""
","
","
","""event"",""trial"",""time""
""fullscreenenter"",""1"",""2273""
","
","","","","","","null","<div style=""font-size:60px;"">+</div>","null","","fixation","","",""
"memory-trial","205","435114","0.0-18.0-1.80","5644","approach_avoid_sv1","""event"",""trial"",""time""
""fullscreenenter"",""1"",""2273""
","
","
","""event"",""trial"",""time""
""fullscreenenter"",""1"",""2273""
","
","","","","","","1101.9000000953674","images/rabbit3.png","","","memory_trial","3","maybe_new",""
"html-keyboard-response","206","435619","0.0-18.0-0.81","5644","approach_avoid_sv1","""event"",""trial"",""time""
""fullscreenenter"",""1"",""2273""
","
","
","""event"",""trial"",""time""
""fullscreenenter"",""1"",""2273""
","
","","","","","","null","<div style=""font-size:60px;"">+</div>","null","","fixation","","",""
"memory-trial","207","438357","0.0-18.0-1.81","5644","approach_avoid_sv1","""event"",""trial"",""time""
""fullscreenenter"",""1"",""2273""
","
","
","""event"",""trial"",""time""
""fullscreenenter"",""1"",""2273""
","
","","","","","","1732.2000000476837","images/plane4.png","","","memory_trial","3","maybe_new",""
"html-keyboard-response","208","438859","0.0-18.0-0.82","5644","approach_avoid_sv1","""event"",""trial"",""time""
""fullscreenenter"",""1"",""2273""
","
","
","""event"",""trial"",""time""
""fullscreenenter"",""1"",""2273""
","
","","","","","","null","<div style=""font-size:60px;"">+</div>","null","","fixation","","",""
"memory-trial","209","441363","0.0-18.0-1.82","5644","approach_avoid_sv1","""event"",""trial"",""time""
""fullscreenenter"",""1"",""2273""
","
","
","""event"",""trial"",""time""
""fullscreenenter"",""1"",""2273""
","
","","","","","","1502","images/straw1.png","","","memory_trial","1","definitely_old",""
"html-keyboard-response","210","441868","0.0-18.0-0.83","5644","approach_avoid_sv1","""event"",""trial"",""time""
""fullscreenenter"",""1"",""2273""
","
","
","""event"",""trial"",""time""
""fullscreenenter"",""1"",""2273""
","
","","","","","","null","<div style=""font-size:60px;"">+</div>","null","","fixation","","",""
"memory-trial","211","443901","0.0-18.0-1.83","5644","approach_avoid_sv1","""event"",""trial"",""time""
""fullscreenenter"",""1"",""2273""
","
","
","""event"",""trial"",""time""
""fullscreenenter"",""1"",""2273""
","
","","","","","","1029.5","images/boat8.png","","","memory_trial","4","definitely_new",""
"html-keyboard-response","212","444403","0.0-18.0-0.84","5644","approach_avoid_sv1","""event"",""trial"",""time""
""fullscreenenter"",""1"",""2273""
","
","
","""event"",""trial"",""time""
""fullscreenenter"",""1"",""2273""
","
","","","","","","null","<div style=""font-size:60px;"">+</div>","null","","fixation","","",""
"memory-trial","213","447459","0.0-18.0-1.84","5644","approach_avoid_sv1","""event"",""trial"",""time""
""fullscreenenter"",""1"",""2273""
","
","
","""event"",""trial"",""time""
""fullscreenenter"",""1"",""2273""
","
","","","","","","2048.5","images/rodent7.png","","","memory_trial","3","maybe_new",""
"html-keyboard-response","214","447963","0.0-18.0-0.85","5644","approach_avoid_sv1","""event"",""trial"",""time""
""fullscreenenter"",""1"",""2273""
","
","
","""event"",""trial"",""time""
""fullscreenenter"",""1"",""2273""
","
","","","","","","null","<div style=""font-size:60px;"">+</div>","null","","fixation","","",""
"memory-trial","215","450005","0.0-18.0-1.85","5644","approach_avoid_sv1","""event"",""trial"",""time""
""fullscreenenter"",""1"",""2273""
","
","
","""event"",""trial"",""time""
""fullscreenenter"",""1"",""2273""
","
","","","","","","1024.7999999523163","images/horse6.png","","","memory_trial","4","definitely_new",""
"html-keyboard-response","216","450516","0.0-18.0-0.86","5644","approach_avoid_sv1","""event"",""trial"",""time""
""fullscreenenter"",""1"",""2273""
","
","
","""event"",""trial"",""time""
""fullscreenenter"",""1"",""2273""
","
","","","","","","null","<div style=""font-size:60px;"">+</div>","null","","fixation","","",""
"memory-trial","217","453160","0.0-18.0-1.86","5644","approach_avoid_sv1","""event"",""trial"",""time""
""fullscreenenter"",""1"",""2273""
","
","
","""event"",""trial"",""time""
""fullscreenenter"",""1"",""2273""
","
","","","","","","1621.9000000953674","images/orange8.png","","","memory_trial","2","maybe_old",""
"html-keyboard-response","218","453667","0.0-18.0-0.87","5644","approach_avoid_sv1","""event"",""trial"",""time""
""fullscreenenter"",""1"",""2273""
","
","
","""event"",""trial"",""time""
""fullscreenenter"",""1"",""2273""
","
","","","","","","null","<div style=""font-size:60px;"">+</div>","null","","fixation","","",""
"memory-trial","219","455580","0.0-18.0-1.87","5644","approach_avoid_sv1","""event"",""trial"",""time""
""fullscreenenter"",""1"",""2273""
","
","
","""event"",""trial"",""time""
""fullscreenenter"",""1"",""2273""
","
","","","","","","907.5","images/rabbit6.png","","","memory_trial","1","definitely_old",""
"html-keyboard-response","220","456084","0.0-18.0-0.88","5644","approach_avoid_sv1","""event"",""trial"",""time""
""fullscreenenter"",""1"",""2273""
","
","
","""event"",""trial"",""time""
""fullscreenenter"",""1"",""2273""
","
","","","","","","null","<div style=""font-size:60px;"">+</div>","null","","fixation","","",""
"memory-trial","221","458420","0.0-18.0-1.88","5644","approach_avoid_sv1","""event"",""trial"",""time""
""fullscreenenter"",""1"",""2273""
","
","
","""event"",""trial"",""time""
""fullscreenenter"",""1"",""2273""
","
","","","","","","1325.5","images/banana4.png","","","memory_trial","2","maybe_old",""
"html-keyboard-response","222","458929","0.0-18.0-0.89","5644","approach_avoid_sv1","""event"",""trial"",""time""
""fullscreenenter"",""1"",""2273""
","
","
","""event"",""trial"",""time""
""fullscreenenter"",""1"",""2273""
","
","","","","","","null","<div style=""font-size:60px;"">+</div>","null","","fixation","","",""
"memory-trial","223","461147","0.0-18.0-1.89","5644","approach_avoid_sv1","""event"",""trial"",""time""
""fullscreenenter"",""1"",""2273""
","
","
","""event"",""trial"",""time""
""fullscreenenter"",""1"",""2273""
","
","","","","","","1208.4000000953674","images/cow8.png","","","memory_trial","1","definitely_old",""
"html-keyboard-response","224","461652","0.0-18.0-0.90","5644","approach_avoid_sv1","""event"",""trial"",""time""
""fullscreenenter"",""1"",""2273""
","
","
","""event"",""trial"",""time""
""fullscreenenter"",""1"",""2273""
","
","","","","","","null","<div style=""font-size:60px;"">+</div>","null","","fixation","","",""
"memory-trial","225","463515","0.0-18.0-1.90","5644","approach_avoid_sv1","""event"",""trial"",""time""
""fullscreenenter"",""1"",""2273""
","
","
","""event"",""trial"",""time""
""fullscreenenter"",""1"",""2273""
","
","","","","","","858.5","images/train8.png","","","memory_trial","4","definitely_new",""
"html-keyboard-response","226","464019","0.0-18.0-0.91","5644","approach_avoid_sv1","""event"",""trial"",""time""
""fullscreenenter"",""1"",""2273""
","
","
","""event"",""trial"",""time""
""fullscreenenter"",""1"",""2273""
","
","","","","","","null","<div style=""font-size:60px;"">+</div>","null","","fixation","","",""
"memory-trial","227","466564","0.0-18.0-1.91","5644","approach_avoid_sv1","""event"",""trial"",""time""
""fullscreenenter"",""1"",""2273""
","
","
","""event"",""trial"",""time""
""fullscreenenter"",""1"",""2273""
","
","","","","","","1542.7000000476837","images/train1.png","","","memory_trial","4","definitely_new",""
"html-button-response","228","469274","0.0-18.0-2.91-0.91","5644","approach_avoid_sv1","""event"",""trial"",""time""
""fullscreenenter"",""1"",""2273""
","
","
","""event"",""trial"",""time""
""fullscreenenter"",""1"",""2273""
","
","","","","","","2710","<p> Take a break! </p><p> Click the button to continue. </p>","0","","break","","",""
"html-keyboard-response","229","469779","0.0-18.0-0.92","5644","approach_avoid_sv1","""event"",""trial"",""time""
""fullscreenenter"",""1"",""2273""
","
","
","""event"",""trial"",""time""
""fullscreenenter"",""1"",""2273""
","
","","","","","","null","<div style=""font-size:60px;"">+</div>","null","","fixation","","",""
"memory-trial","230","471940","0.0-18.0-1.92","5644","approach_avoid_sv1","""event"",""trial"",""time""
""fullscreenenter"",""1"",""2273""
","
","
","""event"",""trial"",""time""
""fullscreenenter"",""1"",""2273""
","
","","","","","","1148.8999998569489","images/orange5.png","","","memory_trial","4","definitely_new",""
"html-keyboard-response","231","472449","0.0-18.0-0.93","5644","approach_avoid_sv1","""event"",""trial"",""time""
""fullscreenenter"",""1"",""2273""
","
","
","""event"",""trial"",""time""
""fullscreenenter"",""1"",""2273""
","
","","","","","","null","<div style=""font-size:60px;"">+</div>","null","","fixation","","",""
"memory-trial","232","474067","0.0-18.0-1.93","5644","approach_avoid_sv1","""event"",""trial"",""time""
""fullscreenenter"",""1"",""2273""
","
","
","""event"",""trial"",""time""
""fullscreenenter"",""1"",""2273""
","
","","","","","","609.6000001430511","images/bed8.png","","","memory_trial","4","definitely_new",""
"html-keyboard-response","233","474571","0.0-18.0-0.94","5644","approach_avoid_sv1","""event"",""trial"",""time""
""fullscreenenter"",""1"",""2273""
","
","
","""event"",""trial"",""time""
""fullscreenenter"",""1"",""2273""
","
","","","","","","null","<div style=""font-size:60px;"">+</div>","null","","fixation","","",""
"memory-trial","234","476789","0.0-18.0-1.94","5644","approach_avoid_sv1","""event"",""trial"",""time""
""fullscreenenter"",""1"",""2273""
","
","
","""event"",""trial"",""time""
""fullscreenenter"",""1"",""2273""
","
","","","","","","1206.2999999523163","images/goat1.png","","","memory_trial","1","definitely_old",""
"html-keyboard-response","235","477307","0.0-18.0-0.95","5644","approach_avoid_sv1","""event"",""trial"",""time""
""fullscreenenter"",""1"",""2273""
","
","
","""event"",""trial"",""time""
""fullscreenenter"",""1"",""2273""
","
","","","","","","null","<div style=""font-size:60px;"">+</div>","null","","fixation","","",""
"memory-trial","236","479468","0.0-18.0-1.95","5644","approach_avoid_sv1","""event"",""trial"",""time""
""fullscreenenter"",""1"",""2273""
","
","
","""event"",""trial"",""time""
""fullscreenenter"",""1"",""2273""
","
","","","","","","1158.1999998092651","images/sheep5.png","","","memory_trial","2","maybe_old",""
"html-keyboard-response","237","479971","0.0-18.0-0.96","5644","approach_avoid_sv1","""event"",""trial"",""time""
""fullscreenenter"",""1"",""2273""
","
","
","""event"",""trial"",""time""
""fullscreenenter"",""1"",""2273""
","
","","","","","","null","<div style=""font-size:60px;"">+</div>","null","","fixation","","",""
"memory-trial","238","481715","0.0-18.0-1.96","5644","approach_avoid_sv1","""event"",""trial"",""time""
""fullscreenenter"",""1"",""2273""
","
","
","""event"",""trial"",""time""
""fullscreenenter"",""1"",""2273""
","
","","","","","","742","images/orange3.png","","","memory_trial","4","definitely_new",""
"html-keyboard-response","239","482220","0.0-18.0-0.97","5644","approach_avoid_sv1","""event"",""trial"",""time""
""fullscreenenter"",""1"",""2273""
","
","
","""event"",""trial"",""time""
""fullscreenenter"",""1"",""2273""
","
","","","","","","null","<div style=""font-size:60px;"">+</div>","null","","fixation","","",""
"memory-trial","240","484667","0.0-18.0-1.97","5644","approach_avoid_sv1","""event"",""trial"",""time""
""fullscreenenter"",""1"",""2273""
","
","
","""event"",""trial"",""time""
""fullscreenenter"",""1"",""2273""
","
","","","","","","1441.2999999523163","images/goat8.png","","","memory_trial","3","maybe_new",""
"html-keyboard-response","241","485171","0.0-18.0-0.98","5644","approach_avoid_sv1","""event"",""trial"",""time""
""fullscreenenter"",""1"",""2273""
","
","
","""event"",""trial"",""time""
""fullscreenenter"",""1"",""2273""
","
","","","","","","null","<div style=""font-size:60px;"">+</div>","null","","fixation","","",""
"memory-trial","242","487067","0.0-18.0-1.98","5644","approach_avoid_sv1","""event"",""trial"",""time""
""fullscreenenter"",""1"",""2273""
","
","
","""event"",""trial"",""time""
""fullscreenenter"",""1"",""2273""
","
","","","","","","885","images/cactus1.png","","","memory_trial","4","definitely_new",""
"html-keyboard-response","243","487572","0.0-18.0-0.99","5644","approach_avoid_sv1","""event"",""trial"",""time""
""fullscreenenter"",""1"",""2273""
","
","
","""event"",""trial"",""time""
""fullscreenenter"",""1"",""2273""
","
","","","","","","null","<div style=""font-size:60px;"">+</div>","null","","fixation","","",""
"memory-trial","244","489651","0.0-18.0-1.99","5644","approach_avoid_sv1","""event"",""trial"",""time""
""fullscreenenter"",""1"",""2273""
","
","
","""event"",""trial"",""time""
""fullscreenenter"",""1"",""2273""
","
","","","","","","1072.1000001430511","images/sheep1.png","","","memory_trial","1","definitely_old",""
"html-keyboard-response","245","490155","0.0-18.0-0.100","5644","approach_avoid_sv1","""event"",""trial"",""time""
""fullscreenenter"",""1"",""2273""
","
","
","""event"",""trial"",""time""
""fullscreenenter"",""1"",""2273""
","
","","","","","","null","<div style=""font-size:60px;"">+</div>","null","","fixation","","",""
"memory-trial","246","492627","0.0-18.0-1.100","5644","approach_avoid_sv1","""event"",""trial"",""time""
""fullscreenenter"",""1"",""2273""
","
","
","""event"",""trial"",""time""
""fullscreenenter"",""1"",""2273""
","
","","","","","","1469.2000000476837","images/tree4.png","","","memory_trial","4","definitely_new",""
"html-keyboard-response","247","493131","0.0-18.0-0.101","5644","approach_avoid_sv1","""event"",""trial"",""time""
""fullscreenenter"",""1"",""2273""
","
","
","""event"",""trial"",""time""
""fullscreenenter"",""1"",""2273""
","
","","","","","","null","<div style=""font-size:60px;"">+</div>","null","","fixation","","",""
"memory-trial","248","495523","0.0-18.0-1.101","5644","approach_avoid_sv1","""event"",""trial"",""time""
""fullscreenenter"",""1"",""2273""
","
","
","""event"",""trial"",""time""
""fullscreenenter"",""1"",""2273""
","
","","","","","","1385.5999999046326","images/bush8.png","","","memory_trial","4","definitely_new",""
"html-keyboard-response","249","496027","0.0-18.0-0.102","5644","approach_avoid_sv1","""event"",""trial"",""time""
""fullscreenenter"",""1"",""2273""
","
","
","""event"",""trial"",""time""
""fullscreenenter"",""1"",""2273""
","
","","","","","","null","<div style=""font-size:60px;"">+</div>","null","","fixation","","",""
"memory-trial","250","498028","0.0-18.0-1.102","5644","approach_avoid_sv1","""event"",""trial"",""time""
""fullscreenenter"",""1"",""2273""
","
","
","""event"",""trial"",""time""
""fullscreenenter"",""1"",""2273""
","
","","","","","","991.5","images/table3.png","","","memory_trial","4","definitely_new",""
"html-keyboard-response","251","498542","0.0-18.0-0.103","5644","approach_avoid_sv1","""event"",""trial"",""time""
""fullscreenenter"",""1"",""2273""
","
","
","""event"",""trial"",""time""
""fullscreenenter"",""1"",""2273""
","
","","","","","","null","<div style=""font-size:60px;"">+</div>","null","","fixation","","",""
"memory-trial","252","500860","0.0-18.0-1.103","5644","approach_avoid_sv1","""event"",""trial"",""time""
""fullscreenenter"",""1"",""2273""
","
","
","""event"",""trial"",""time""
""fullscreenenter"",""1"",""2273""
","
","","","","","","1313","images/horse5.png","","","memory_trial","4","definitely_new",""
"html-keyboard-response","253","501364","0.0-18.0-0.104","5644","approach_avoid_sv1","""event"",""trial"",""time""
""fullscreenenter"",""1"",""2273""
","
","
","""event"",""trial"",""time""
""fullscreenenter"",""1"",""2273""
","
","","","","","","null","<div style=""font-size:60px;"">+</div>","null","","fixation","","",""
"memory-trial","254","504171","0.0-18.0-1.104","5644","approach_avoid_sv1","""event"",""trial"",""time""
""fullscreenenter"",""1"",""2273""
","
","
","""event"",""trial"",""time""
""fullscreenenter"",""1"",""2273""
","
","","","","","","1799.9000000953674","images/bush6.png","","","memory_trial","2","maybe_old",""
"html-keyboard-response","255","504675","0.0-18.0-0.105","5644","approach_avoid_sv1","""event"",""trial"",""time""
""fullscreenenter"",""1"",""2273""
","
","
","""event"",""trial"",""time""
""fullscreenenter"",""1"",""2273""
","
","","","","","","null","<div style=""font-size:60px;"">+</div>","null","","fixation","","",""
"memory-trial","256","506708","0.0-18.0-1.105","5644","approach_avoid_sv1","""event"",""trial"",""time""
""fullscreenenter"",""1"",""2273""
","
","
","""event"",""trial"",""time""
""fullscreenenter"",""1"",""2273""
","
","","","","","","1022.7999999523163","images/straw5.png","","","memory_trial","1","definitely_old",""
"html-keyboard-response","257","507219","0.0-18.0-0.106","5644","approach_avoid_sv1","""event"",""trial"",""time""
""fullscreenenter"",""1"",""2273""
","
","
","""event"",""trial"",""time""
""fullscreenenter"",""1"",""2273""
","
","","","","","","null","<div style=""font-size:60px;"">+</div>","null","","fixation","","",""
"memory-trial","258","509867","0.0-18.0-1.106","5644","approach_avoid_sv1","""event"",""trial"",""time""
""fullscreenenter"",""1"",""2273""
","
","
","""event"",""trial"",""time""
""fullscreenenter"",""1"",""2273""
","
","","","","","","1632.8999998569489","images/tree7.png","","","memory_trial","3","maybe_new",""
"html-keyboard-response","259","510372","0.0-18.0-0.107","5644","approach_avoid_sv1","""event"",""trial"",""time""
""fullscreenenter"",""1"",""2273""
","
","
","""event"",""trial"",""time""
""fullscreenenter"",""1"",""2273""
","
","","","","","","null","<div style=""font-size:60px;"">+</div>","null","","fixation","","",""
"memory-trial","260","512195","0.0-18.0-1.107","5644","approach_avoid_sv1","""event"",""trial"",""time""
""fullscreenenter"",""1"",""2273""
","
","
","""event"",""trial"",""time""
""fullscreenenter"",""1"",""2273""
","
","","","","","","818.0999999046326","images/sofa8.png","","","memory_trial","4","definitely_new",""
"html-keyboard-response","261","512700","0.0-18.0-0.108","5644","approach_avoid_sv1","""event"",""trial"",""time""
""fullscreenenter"",""1"",""2273""
","
","
","""event"",""trial"",""time""
""fullscreenenter"",""1"",""2273""
","
","","","","","","null","<div style=""font-size:60px;"">+</div>","null","","fixation","","",""
"memory-trial","262","515385","0.0-18.0-1.108","5644","approach_avoid_sv1","""event"",""trial"",""time""
""fullscreenenter"",""1"",""2273""
","
","
","""event"",""trial"",""time""
""fullscreenenter"",""1"",""2273""
","
","","","","","","1674.5","images/table6.png","","","memory_trial","4","definitely_new",""
"html-keyboard-response","263","515892","0.0-18.0-0.109","5644","approach_avoid_sv1","""event"",""trial"",""time""
""fullscreenenter"",""1"",""2273""
","
","
","""event"",""trial"",""time""
""fullscreenenter"",""1"",""2273""
","
","","","","","","null","<div style=""font-size:60px;"">+</div>","null","","fixation","","",""
"memory-trial","264","517868","0.0-18.0-1.109","5644","approach_avoid_sv1","""event"",""trial"",""time""
""fullscreenenter"",""1"",""2273""
","
","
","""event"",""trial"",""time""
""fullscreenenter"",""1"",""2273""
","
","","","","","","964.5","images/goat3.png","","","memory_trial","1","definitely_old",""
"html-keyboard-response","265","518373","0.0-18.0-0.110","5644","approach_avoid_sv1","""event"",""trial"",""time""
""fullscreenenter"",""1"",""2273""
","
","
","""event"",""trial"",""time""
""fullscreenenter"",""1"",""2273""
","
","","","","","","null","<div style=""font-size:60px;"">+</div>","null","","fixation","","",""
"memory-trial","266","520204","0.0-18.0-1.110","5644","approach_avoid_sv1","""event"",""trial"",""time""
""fullscreenenter"",""1"",""2273""
","
","
","""event"",""trial"",""time""
""fullscreenenter"",""1"",""2273""
","
","","","","","","825.5","images/truck5.png","","","memory_trial","4","definitely_new",""
"html-keyboard-response","267","520707","0.0-18.0-0.111","5644","approach_avoid_sv1","""event"",""trial"",""time""
""fullscreenenter"",""1"",""2273""
","
","
","""event"",""trial"",""time""
""fullscreenenter"",""1"",""2273""
","
","","","","","","null","<div style=""font-size:60px;"">+</div>","null","","fixation","","",""
"memory-trial","268","522852","0.0-18.0-1.111","5644","approach_avoid_sv1","""event"",""trial"",""time""
""fullscreenenter"",""1"",""2273""
","
","
","""event"",""trial"",""time""
""fullscreenenter"",""1"",""2273""
","
","","","","","","1134.0999999046326","images/flower1.png","","","memory_trial","1","definitely_old",""
"html-keyboard-response","269","523355","0.0-18.0-0.112","5644","approach_avoid_sv1","""event"",""trial"",""time""
""fullscreenenter"",""1"",""2273""
","
","
","""event"",""trial"",""time""
""fullscreenenter"",""1"",""2273""
","
","","","","","","null","<div style=""font-size:60px;"">+</div>","null","","fixation","","",""
"memory-trial","270","525316","0.0-18.0-1.112","5644","approach_avoid_sv1","""event"",""trial"",""time""
""fullscreenenter"",""1"",""2273""
","
","
","""event"",""trial"",""time""
""fullscreenenter"",""1"",""2273""
","
","","","","","","953.0999999046326","images/sofa6.png","","","memory_trial","3","maybe_new",""
"html-keyboard-response","271","525820","0.0-18.0-0.113","5644","approach_avoid_sv1","""event"",""trial"",""time""
""fullscreenenter"",""1"",""2273""
","
","
","""event"",""trial"",""time""
""fullscreenenter"",""1"",""2273""
","
","","","","","","null","<div style=""font-size:60px;"">+</div>","null","","fixation","","",""
"memory-trial","272","528196","0.0-18.0-1.113","5644","approach_avoid_sv1","""event"",""trial"",""time""
""fullscreenenter"",""1"",""2273""
","
","
","""event"",""trial"",""time""
""fullscreenenter"",""1"",""2273""
","
","","","","","","1370.4000000953674","images/straw8.png","","","memory_trial","3","maybe_new",""
"html-keyboard-response","273","528699","0.0-18.0-0.114","5644","approach_avoid_sv1","""event"",""trial"",""time""
""fullscreenenter"",""1"",""2273""
","
","
","""event"",""trial"",""time""
""fullscreenenter"",""1"",""2273""
","
","","","","","","null","<div style=""font-size:60px;"">+</div>","null","","fixation","","",""
"memory-trial","274","531196","0.0-18.0-1.114","5644","approach_avoid_sv1","""event"",""trial"",""time""
""fullscreenenter"",""1"",""2273""
","
","
","""event"",""trial"",""time""
""fullscreenenter"",""1"",""2273""
","
","","","","","","1484","images/banana3.png","","","memory_trial","3","maybe_new",""
"html-keyboard-response","275","531699","0.0-18.0-0.115","5644","approach_avoid_sv1","""event"",""trial"",""time""
""fullscreenenter"",""1"",""2273""
","
","
","""event"",""trial"",""time""
""fullscreenenter"",""1"",""2273""
","
","","","","","","null","<div style=""font-size:60px;"">+</div>","null","","fixation","","",""
"memory-trial","276","533908","0.0-18.0-1.115","5644","approach_avoid_sv1","""event"",""trial"",""time""
""fullscreenenter"",""1"",""2273""
","
","
","""event"",""trial"",""time""
""fullscreenenter"",""1"",""2273""
","
","","","","","","1199.3000001907349","images/bush4.png","","","memory_trial","3","maybe_new",""
"html-keyboard-response","277","534411","0.0-18.0-0.116","5644","approach_avoid_sv1","""event"",""trial"",""time""
""fullscreenenter"",""1"",""2273""
","
","
","""event"",""trial"",""time""
""fullscreenenter"",""1"",""2273""
","
","","","","","","null","<div style=""font-size:60px;"">+</div>","null","","fixation","","",""
"memory-trial","278","536987","0.0-18.0-1.116","5644","approach_avoid_sv1","""event"",""trial"",""time""
""fullscreenenter"",""1"",""2273""
","
","
","""event"",""trial"",""time""
""fullscreenenter"",""1"",""2273""
","
","","","","","","1565.9000000953674","images/cow2.png","","","memory_trial","2","maybe_old",""
"html-keyboard-response","279","537492","0.0-18.0-0.117","5644","approach_avoid_sv1","""event"",""trial"",""time""
""fullscreenenter"",""1"",""2273""
","
","
","""event"",""trial"",""time""
""fullscreenenter"",""1"",""2273""
","
","","","","","","null","<div style=""font-size:60px;"">+</div>","null","","fixation","","",""
"memory-trial","280","540259","0.0-18.0-1.117","5644","approach_avoid_sv1","""event"",""trial"",""time""
""fullscreenenter"",""1"",""2273""
","
","
","""event"",""trial"",""time""
""fullscreenenter"",""1"",""2273""
","
","","","","","","1765.3000001907349","images/train7.png","","","memory_trial","1","definitely_old",""
"html-keyboard-response","281","540767","0.0-18.0-0.118","5644","approach_avoid_sv1","""event"",""trial"",""time""
""fullscreenenter"",""1"",""2273""
","
","
","""event"",""trial"",""time""
""fullscreenenter"",""1"",""2273""
","
","","","","","","null","<div style=""font-size:60px;"">+</div>","null","","fixation","","",""
"memory-trial","282","542820","0.0-18.0-1.118","5644","approach_avoid_sv1","""event"",""trial"",""time""
""fullscreenenter"",""1"",""2273""
","
","
","""event"",""trial"",""time""
""fullscreenenter"",""1"",""2273""
","
","","","","","","1045.2999999523163","images/orange2.png","","","memory_trial","4","definitely_new",""
"html-keyboard-response","283","543323","0.0-18.0-0.119","5644","approach_avoid_sv1","""event"",""trial"",""time""
""fullscreenenter"",""1"",""2273""
","
","
","""event"",""trial"",""time""
""fullscreenenter"",""1"",""2273""
","
","","","","","","null","<div style=""font-size:60px;"">+</div>","null","","fixation","","",""
"memory-trial","284","545471","0.0-18.0-1.119","5644","approach_avoid_sv1","""event"",""trial"",""time""
""fullscreenenter"",""1"",""2273""
","
","
","""event"",""trial"",""time""
""fullscreenenter"",""1"",""2273""
","
","","","","","","1141.7000000476837","images/goat7.png","","","memory_trial","3","maybe_new",""
"html-keyboard-response","285","545984","0.0-18.0-0.120","5644","approach_avoid_sv1","""event"",""trial"",""time""
""fullscreenenter"",""1"",""2273""
","
","
","""event"",""trial"",""time""
""fullscreenenter"",""1"",""2273""
","
","","","","","","null","<div style=""font-size:60px;"">+</div>","null","","fixation","","",""
"memory-trial","286","548060","0.0-18.0-1.120","5644","approach_avoid_sv1","""event"",""trial"",""time""
""fullscreenenter"",""1"",""2273""
","
","
","""event"",""trial"",""time""
""fullscreenenter"",""1"",""2273""
","
","","","","","","1064.8999998569489","images/rodent1.png","","","memory_trial","1","definitely_old",""
"html-keyboard-response","287","548573","0.0-18.0-0.121","5644","approach_avoid_sv1","""event"",""trial"",""time""
""fullscreenenter"",""1"",""2273""
","
","
","""event"",""trial"",""time""
""fullscreenenter"",""1"",""2273""
","
","","","","","","null","<div style=""font-size:60px;"">+</div>","null","","fixation","","",""
"memory-trial","288","551842","0.0-18.0-1.121","5644","approach_avoid_sv1","""event"",""trial"",""time""
""fullscreenenter"",""1"",""2273""
","
","
","""event"",""trial"",""time""
""fullscreenenter"",""1"",""2273""
","
","","","","","","2243.5","images/sofa5.png","","","memory_trial","2","maybe_old",""
"html-keyboard-response","289","552346","0.0-18.0-0.122","5644","approach_avoid_sv1","""event"",""trial"",""time""
""fullscreenenter"",""1"",""2273""
","
","
","""event"",""trial"",""time""
""fullscreenenter"",""1"",""2273""
","
","","","","","","null","<div style=""font-size:60px;"">+</div>","null","","fixation","","",""
"memory-trial","290","554436","0.0-18.0-1.122","5644","approach_avoid_sv1","""event"",""trial"",""time""
""fullscreenenter"",""1"",""2273""
","
","
","""event"",""trial"",""time""
""fullscreenenter"",""1"",""2273""
","
","","","","","","1079.2999999523163","images/sheep8.png","","","memory_trial","3","maybe_new",""
"html-keyboard-response","291","554949","0.0-18.0-0.123","5644","approach_avoid_sv1","""event"",""trial"",""time""
""fullscreenenter"",""1"",""2273""
","
","
","""event"",""trial"",""time""
""fullscreenenter"",""1"",""2273""
","
","","","","","","null","<div style=""font-size:60px;"">+</div>","null","","fixation","","",""
"memory-trial","292","557683","0.0-18.0-1.123","5644","approach_avoid_sv1","""event"",""trial"",""time""
""fullscreenenter"",""1"",""2273""
","
","
","""event"",""trial"",""time""
""fullscreenenter"",""1"",""2273""
","
","","","","","","1725.5","images/truck1.png","","","memory_trial","4","definitely_new",""
"html-keyboard-response","293","558187","0.0-18.0-0.124","5644","approach_avoid_sv1","""event"",""trial"",""time""
""fullscreenenter"",""1"",""2273""
","
","
","""event"",""trial"",""time""
""fullscreenenter"",""1"",""2273""
","
","","","","","","null","<div style=""font-size:60px;"">+</div>","null","","fixation","","",""
"memory-trial","294","560691","0.0-18.0-1.124","5644","approach_avoid_sv1","""event"",""trial"",""time""
""fullscreenenter"",""1"",""2273""
","
","
","""event"",""trial"",""time""
""fullscreenenter"",""1"",""2273""
","
","","","","","","1499.5","images/table4.png","","","memory_trial","1","definitely_old",""
"html-keyboard-response","295","561196","0.0-18.0-0.125","5644","approach_avoid_sv1","""event"",""trial"",""time""
""fullscreenenter"",""1"",""2273""
","
","
","""event"",""trial"",""time""
""fullscreenenter"",""1"",""2273""
","
","","","","","","null","<div style=""font-size:60px;"">+</div>","null","","fixation","","",""
"memory-trial","296","563018","0.0-18.0-1.125","5644","approach_avoid_sv1","""event"",""trial"",""time""
""fullscreenenter"",""1"",""2273""
","
","
","""event"",""trial"",""time""
""fullscreenenter"",""1"",""2273""
","
","","","","","","802.1000001430511","images/cactus7.png","","","memory_trial","4","definitely_new",""
"html-keyboard-response","297","563533","0.0-18.0-0.126","5644","approach_avoid_sv1","""event"",""trial"",""time""
""fullscreenenter"",""1"",""2273""
","
","
","""event"",""trial"",""time""
""fullscreenenter"",""1"",""2273""
","
