"trial_type","trial_index","time_elapsed","internal_node_id","subject_id","task_version","interactions","blur_events","focus_events","fullscreenenter_events","fullscreenexit_events","success","timeout","failed_images","failed_audio","failed_video","rt","stimulus","response","button_pressed","task_part","key_press","answer","correct"
"pavlovia","0","2","0.0-0.0","4466","approach_avoid_sv1","""event"",""trial"",""time""
""blur"",""1"",""4259""
""focus"",""1"",""10443""
""fullscreenenter"",""1"",""11602""
","""event"",""trial"",""time""
""blur"",""1"",""4259""
","""event"",""trial"",""time""
""focus"",""1"",""10443""
","""event"",""trial"",""time""
""fullscreenenter"",""1"",""11602""
","
","","","","","","","","","","","","",""
"fullscreen","1","12593","0.0-1.0","4466","approach_avoid_sv1","""event"",""trial"",""time""
""blur"",""1"",""4259""
""focus"",""1"",""10443""
""fullscreenenter"",""1"",""11602""
","""event"",""trial"",""time""
""blur"",""1"",""4259""
","""event"",""trial"",""time""
""focus"",""1"",""10443""
","""event"",""trial"",""time""
""fullscreenenter"",""1"",""11602""
","
","true","","","","","","","","","","","",""
"preload","2","15724","0.0-2.0","4466","approach_avoid_sv1","""event"",""trial"",""time""
""blur"",""1"",""4259""
""focus"",""1"",""10443""
""fullscreenenter"",""1"",""11602""
","""event"",""trial"",""time""
""blur"",""1"",""4259""
","""event"",""trial"",""time""
""focus"",""1"",""10443""
","""event"",""trial"",""time""
""fullscreenenter"",""1"",""11602""
","
","true","false","[]","[]","[]","","","","","","","",""
"preload","3","25123","0.0-3.0","4466","approach_avoid_sv1","""event"",""trial"",""time""
""blur"",""1"",""4259""
""focus"",""1"",""10443""
""fullscreenenter"",""1"",""11602""
","""event"",""trial"",""time""
""blur"",""1"",""4259""
","""event"",""trial"",""time""
""focus"",""1"",""10443""
","""event"",""trial"",""time""
""fullscreenenter"",""1"",""11602""
","
","true","false","[]","[]","[]","","","","","","","",""
"preload","4","25545","0.0-4.0","4466","approach_avoid_sv1","""event"",""trial"",""time""
""blur"",""1"",""4259""
""focus"",""1"",""10443""
""fullscreenenter"",""1"",""11602""
","""event"",""trial"",""time""
""blur"",""1"",""4259""
","""event"",""trial"",""time""
""focus"",""1"",""10443""
","""event"",""trial"",""time""
""fullscreenenter"",""1"",""11602""
","
","true","false","[]","[]","[]","","","","","","","",""
"audio-keyboard-response","5","28040","0.0-5.0","4466","approach_avoid_sv1","""event"",""trial"",""time""
""blur"",""1"",""4259""
""focus"",""1"",""10443""
""fullscreenenter"",""1"",""11602""
","""event"",""trial"",""time""
""blur"",""1"",""4259""
","""event"",""trial"",""time""
""focus"",""1"",""10443""
","""event"",""trial"",""time""
""fullscreenenter"",""1"",""11602""
","
","","","","","","2490.666666666667","audio/beep_loop.wav"," ","","","","",""
"audio-button-response","6","32475","0.0-6.0","4466","approach_avoid_sv1","""event"",""trial"",""time""
""blur"",""1"",""4259""
""focus"",""1"",""10443""
""fullscreenenter"",""1"",""11602""
","""event"",""trial"",""time""
""blur"",""1"",""4259""
","""event"",""trial"",""time""
""focus"",""1"",""10443""
","""event"",""trial"",""time""
""fullscreenenter"",""1"",""11602""
","
","","","","","","4432","audio/turtle.wav","0","","","","",""
"audio-button-response","7","34725","0.0-7.0","4466","approach_avoid_sv1","""event"",""trial"",""time""
""blur"",""1"",""4259""
""focus"",""1"",""10443""
""fullscreenenter"",""1"",""11602""
","""event"",""trial"",""time""
""blur"",""1"",""4259""
","""event"",""trial"",""time""
""focus"",""1"",""10443""
","""event"",""trial"",""time""
""fullscreenenter"",""1"",""11602""
","
","","","","","","1248","audio/shark.wav","2","","","","",""
"preload","8","48755","0.0-8.0","4466","approach_avoid_sv1","""event"",""trial"",""time""
""blur"",""1"",""4259""
""focus"",""1"",""10443""
""fullscreenenter"",""1"",""11602""
","""event"",""trial"",""time""
""blur"",""1"",""4259""
","""event"",""trial"",""time""
""focus"",""1"",""10443""
","""event"",""trial"",""time""
""fullscreenenter"",""1"",""11602""
","
","true","false","[]","[]","[]","","","","","","","",""
"learning-instructions","9","56591","0.0-9.0-0.0","4466","approach_avoid_sv1","""event"",""trial"",""time""
""blur"",""1"",""4259""
""focus"",""1"",""10443""
""fullscreenenter"",""1"",""11602""
","""event"",""trial"",""time""
""blur"",""1"",""4259""
","""event"",""trial"",""time""
""focus"",""1"",""10443""
","""event"",""trial"",""time""
""fullscreenenter"",""1"",""11602""
","
","","","","","","3353.5","<p> Welcome back! </p><p> Last week, you had to make choices about lots of different items.  </p>","","0","instructions","","",""
"learning-instructions","10","62557","0.0-9.0-0.1","4466","approach_avoid_sv1","""event"",""trial"",""time""
""blur"",""1"",""4259""
""focus"",""1"",""10443""
""fullscreenenter"",""1"",""11602""
","""event"",""trial"",""time""
""blur"",""1"",""4259""
","""event"",""trial"",""time""
""focus"",""1"",""10443""
","""event"",""trial"",""time""
""fullscreenenter"",""1"",""11602""
","
","","","","","","1853.8000001907349","<p> Today, we are going to ask you to try to remember all the items. </p>","","0","instructions","","",""
"learning-instructions","11","73573","0.0-9.0-0.2","4466","approach_avoid_sv1","""event"",""trial"",""time""
""blur"",""1"",""4259""
""focus"",""1"",""10443""
""fullscreenenter"",""1"",""11602""
","""event"",""trial"",""time""
""blur"",""1"",""4259""
","""event"",""trial"",""time""
""focus"",""1"",""10443""
","""event"",""trial"",""time""
""fullscreenenter"",""1"",""11602""
","
","","","","","","880.7000000476837","<p> On every trial, you will see an image. </p><p> The image may be an OLD image you saw during the games last week or it may be a NEW image that was not presented. </p>","","0","instructions","","",""
"learning-instructions","12","86441","0.0-9.0-0.3","4466","approach_avoid_sv1","""event"",""trial"",""time""
""blur"",""1"",""4259""
""focus"",""1"",""10443""
""fullscreenenter"",""1"",""11602""
","""event"",""trial"",""time""
""blur"",""1"",""4259""
","""event"",""trial"",""time""
""focus"",""1"",""10443""
","""event"",""trial"",""time""
""fullscreenenter"",""1"",""11602""
","
","","","","","","4371.100000143051","<p> You need to select whether the image is:  </p><p>  'Definitely old', 'Maybe old', 'Maybe new', or 'Definitely new.'  </p><div class=""mem-choice-instructions-grid""><div class=""choice-option"" id=""choice-option-1"" ><img src=""images/definitely_old_1.png"" id=""choice-option-img-1"" class=""choice-option-img"" stage=""1""></div><div class=""choice-option"" id=""choice-option-2"" ><img src=""images/maybe_old_1.png"" id=""choice-option-img-2"" class=""choice-option-img"" stage=""1""></div><div class=""choice-option"" id=""choice-option-3"" ><img src=""images/maybe_new_1.png"" id=""choice-option-img-3"" class=""choice-option-img"" stage=""1""></div><div class=""choice-option"" id=""choice-option-4"" > <img src=""images/definitely_new_1.png"" id=""choice-option-img-4"" class=""choice-option-img"" stage=""1""></div></div>","","0","instructions","","",""
"learning-instructions","13","94857","0.0-9.0-0.4","4466","approach_avoid_sv1","""event"",""trial"",""time""
""blur"",""1"",""4259""
""focus"",""1"",""10443""
""fullscreenenter"",""1"",""11602""
","""event"",""trial"",""time""
""blur"",""1"",""4259""
","""event"",""trial"",""time""
""focus"",""1"",""10443""
","""event"",""trial"",""time""
""fullscreenenter"",""1"",""11602""
","
","","","","","","1902.5999999046326","<p> You should use the 1, 2, 3, and 4 keys to make your responses.  </p><div class=""mem-choice-instructions-grid""><div class=""choice-option"" id=""choice-option-1"" ><img src=""images/definitely_old.png"" id=""choice-option-img-1"" class=""choice-option-img"" stage=""1""></div><div class=""choice-option"" id=""choice-option-2"" ><img src=""images/maybe_old.png"" id=""choice-option-img-2"" class=""choice-option-img"" stage=""1""></div><div class=""choice-option"" id=""choice-option-3"" ><img src=""images/maybe_new.png"" id=""choice-option-img-3"" class=""choice-option-img"" stage=""1""></div><div class=""choice-option"" id=""choice-option-4"" > <img src=""images/definitely_new.png"" id=""choice-option-img-4"" class=""choice-option-img"" stage=""1""></div></div>","","0","instructions","","",""
"learning-instructions","14","102057","0.0-9.0-0.5","4466","approach_avoid_sv1","""event"",""trial"",""time""
""blur"",""1"",""4259""
""focus"",""1"",""10443""
""fullscreenenter"",""1"",""11602""
","""event"",""trial"",""time""
""blur"",""1"",""4259""
","""event"",""trial"",""time""
""focus"",""1"",""10443""
","""event"",""trial"",""time""
""fullscreenenter"",""1"",""11602""
","
","","","","","","873.8999998569489","<p> You will have 10 seconds to make each response.  </p><p>  Make sure to respond before time runs out! </p>","","0","instructions","","",""
"learning-instructions","15","110040","0.0-9.0-0.6","4466","approach_avoid_sv1","""event"",""trial"",""time""
""blur"",""1"",""4259""
""focus"",""1"",""10443""
""fullscreenenter"",""1"",""11602""
","""event"",""trial"",""time""
""blur"",""1"",""4259""
","""event"",""trial"",""time""
""focus"",""1"",""10443""
","""event"",""trial"",""time""
""fullscreenenter"",""1"",""11602""
","
","","","","","","910.7000000476837","<p> Today, you will see each image ONCE only.  </p><p>  That means none of the images will repeat. </p>","","0","instructions","","",""
"learning-instructions","16","123524","0.0-9.0-0.7","4466","approach_avoid_sv1","""event"",""trial"",""time""
""blur"",""1"",""4259""
""focus"",""1"",""10443""
""fullscreenenter"",""1"",""11602""
","""event"",""trial"",""time""
""blur"",""1"",""4259""
","""event"",""trial"",""time""
""focus"",""1"",""10443""
","""event"",""trial"",""time""
""fullscreenenter"",""1"",""11602""
","
","","","","","","821.2000000476837","<p> Before you play the real game, it is time to practice. </p><p>  Just like in the real game, some of the images in the practice will be ones you have seen before. </p><p>  Others will be entirely new. </p>","","0","instructions","","",""
"html-button-response","17","126107","0.0-10.0","4466","approach_avoid_sv1","""event"",""trial"",""time""
""blur"",""1"",""4259""
""focus"",""1"",""10443""
""fullscreenenter"",""1"",""11602""
","""event"",""trial"",""time""
""blur"",""1"",""4259""
","""event"",""trial"",""time""
""focus"",""1"",""10443""
","""event"",""trial"",""time""
""fullscreenenter"",""1"",""11602""
","
","","","","","","2478.0999999046326","<p> Ready to practice? </p><p> Remember, use the 1, 2, 3, and 4 keys to make your responses. </p>","0","","instructions","","",""
"html-keyboard-response","18","126711","0.0-11.0-0.0","4466","approach_avoid_sv1","""event"",""trial"",""time""
""blur"",""1"",""4259""
""focus"",""1"",""10443""
""fullscreenenter"",""1"",""11602""
","""event"",""trial"",""time""
""blur"",""1"",""4259""
","""event"",""trial"",""time""
""focus"",""1"",""10443""
","""event"",""trial"",""time""
""fullscreenenter"",""1"",""11602""
","
","","","","","","null","<div style=""font-size:60px;"">+</div>","null","","fixation","","",""
"memory-trial","19","130277","0.0-11.0-1.0","4466","approach_avoid_sv1","""event"",""trial"",""time""
""blur"",""1"",""4259""
""focus"",""1"",""10443""
""fullscreenenter"",""1"",""11602""
","""event"",""trial"",""time""
""blur"",""1"",""4259""
","""event"",""trial"",""time""
""focus"",""1"",""10443""
","""event"",""trial"",""time""
""fullscreenenter"",""1"",""11602""
","
","","","","","","2557.7999999523163","images/racket1.png","","","practice","1","definitely_old",""
"html-keyboard-response","20","130779","0.0-11.0-0.1","4466","approach_avoid_sv1","""event"",""trial"",""time""
""blur"",""1"",""4259""
""focus"",""1"",""10443""
""fullscreenenter"",""1"",""11602""
","""event"",""trial"",""time""
""blur"",""1"",""4259""
","""event"",""trial"",""time""
""focus"",""1"",""10443""
","""event"",""trial"",""time""
""fullscreenenter"",""1"",""11602""
","
","","","","","","null","<div style=""font-size:60px;"">+</div>","null","","fixation","","",""
"memory-trial","21","134910","0.0-11.0-1.1","4466","approach_avoid_sv1","""event"",""trial"",""time""
""blur"",""1"",""4259""
""focus"",""1"",""10443""
""fullscreenenter"",""1"",""11602""
","""event"",""trial"",""time""
""blur"",""1"",""4259""
","""event"",""trial"",""time""
""focus"",""1"",""10443""
","""event"",""trial"",""time""
""fullscreenenter"",""1"",""11602""
","
","","","","","","3127","images/ball3.png","","","practice","3","maybe_new",""
"html-keyboard-response","22","135413","0.0-11.0-0.2","4466","approach_avoid_sv1","""event"",""trial"",""time""
""blur"",""1"",""4259""
""focus"",""1"",""10443""
""fullscreenenter"",""1"",""11602""
","""event"",""trial"",""time""
""blur"",""1"",""4259""
","""event"",""trial"",""time""
""focus"",""1"",""10443""
","""event"",""trial"",""time""
""fullscreenenter"",""1"",""11602""
","
","","","","","","null","<div style=""font-size:60px;"">+</div>","null","","fixation","","",""
"memory-trial","23","138736","0.0-11.0-1.2","4466","approach_avoid_sv1","""event"",""trial"",""time""
""blur"",""1"",""4259""
""focus"",""1"",""10443""
""fullscreenenter"",""1"",""11602""
","""event"",""trial"",""time""
""blur"",""1"",""4259""
","""event"",""trial"",""time""
""focus"",""1"",""10443""
","""event"",""trial"",""time""
""fullscreenenter"",""1"",""11602""
","
","","","","","","2320.600000143051","images/racket2.png","","","practice","4","definitely_new",""
"html-keyboard-response","24","139242","0.0-11.0-0.3","4466","approach_avoid_sv1","""event"",""trial"",""time""
""blur"",""1"",""4259""
""focus"",""1"",""10443""
""fullscreenenter"",""1"",""11602""
","""event"",""trial"",""time""
""blur"",""1"",""4259""
","""event"",""trial"",""time""
""focus"",""1"",""10443""
","""event"",""trial"",""time""
""fullscreenenter"",""1"",""11602""
","
","","","","","","null","<div style=""font-size:60px;"">+</div>","null","","fixation","","",""
"memory-trial","25","142119","0.0-11.0-1.3","4466","approach_avoid_sv1","""event"",""trial"",""time""
""blur"",""1"",""4259""
""focus"",""1"",""10443""
""fullscreenenter"",""1"",""11602""
","""event"",""trial"",""time""
""blur"",""1"",""4259""
","""event"",""trial"",""time""
""focus"",""1"",""10443""
","""event"",""trial"",""time""
""fullscreenenter"",""1"",""11602""
","
","","","","","","1873.5","images/ball5.png","","","practice","4","definitely_new",""
"html-keyboard-response","26","142620","0.0-11.0-0.4","4466","approach_avoid_sv1","""event"",""trial"",""time""
""blur"",""1"",""4259""
""focus"",""1"",""10443""
""fullscreenenter"",""1"",""11602""
","""event"",""trial"",""time""
""blur"",""1"",""4259""
","""event"",""trial"",""time""
""focus"",""1"",""10443""
","""event"",""trial"",""time""
""fullscreenenter"",""1"",""11602""
","
","","","","","","null","<div style=""font-size:60px;"">+</div>","null","","fixation","","",""
"memory-trial","27","144799","0.0-11.0-1.4","4466","approach_avoid_sv1","""event"",""trial"",""time""
""blur"",""1"",""4259""
""focus"",""1"",""10443""
""fullscreenenter"",""1"",""11602""
","""event"",""trial"",""time""
""blur"",""1"",""4259""
","""event"",""trial"",""time""
""focus"",""1"",""10443""
","""event"",""trial"",""time""
""fullscreenenter"",""1"",""11602""
","
","","","","","","1173.8999998569489","images/ball1.png","","","practice","1","definitely_old",""
"html-keyboard-response","28","145301","0.0-11.0-0.5","4466","approach_avoid_sv1","""event"",""trial"",""time""
""blur"",""1"",""4259""
""focus"",""1"",""10443""
""fullscreenenter"",""1"",""11602""
","""event"",""trial"",""time""
""blur"",""1"",""4259""
","""event"",""trial"",""time""
""focus"",""1"",""10443""
","""event"",""trial"",""time""
""fullscreenenter"",""1"",""11602""
","
","","","","","","null","<div style=""font-size:60px;"">+</div>","null","","fixation","","",""
"memory-trial","29","147455","0.0-11.0-1.5","4466","approach_avoid_sv1","""event"",""trial"",""time""
""blur"",""1"",""4259""
""focus"",""1"",""10443""
""fullscreenenter"",""1"",""11602""
","""event"",""trial"",""time""
""blur"",""1"",""4259""
","""event"",""trial"",""time""
""focus"",""1"",""10443""
","""event"",""trial"",""time""
""fullscreenenter"",""1"",""11602""
","
","","","","","","1148.1000001430511","images/racket3.png","","","practice","4","definitely_new",""
"html-keyboard-response","30","147959","0.0-11.0-0.6","4466","approach_avoid_sv1","""event"",""trial"",""time""
""blur"",""1"",""4259""
""focus"",""1"",""10443""
""fullscreenenter"",""1"",""11602""
","""event"",""trial"",""time""
""blur"",""1"",""4259""
","""event"",""trial"",""time""
""focus"",""1"",""10443""
","""event"",""trial"",""time""
""fullscreenenter"",""1"",""11602""
","
","","","","","","null","<div style=""font-size:60px;"">+</div>","null","","fixation","","",""
"memory-trial","31","150376","0.0-11.0-1.6","4466","approach_avoid_sv1","""event"",""trial"",""time""
""blur"",""1"",""4259""
""focus"",""1"",""10443""
""fullscreenenter"",""1"",""11602""
","""event"",""trial"",""time""
""blur"",""1"",""4259""
","""event"",""trial"",""time""
""focus"",""1"",""10443""
","""event"",""trial"",""time""
""fullscreenenter"",""1"",""11602""
","
","","","","","","1412","images/ball2.png","","","practice","4","definitely_new",""
"html-keyboard-response","32","150881","0.0-11.0-0.7","4466","approach_avoid_sv1","""event"",""trial"",""time""
""blur"",""1"",""4259""
""focus"",""1"",""10443""
""fullscreenenter"",""1"",""11602""
","""event"",""trial"",""time""
""blur"",""1"",""4259""
","""event"",""trial"",""time""
""focus"",""1"",""10443""
","""event"",""trial"",""time""
""fullscreenenter"",""1"",""11602""
","
","","","","","","null","<div style=""font-size:60px;"">+</div>","null","","fixation","","",""
"memory-trial","33","153305","0.0-11.0-1.7","4466","approach_avoid_sv1","""event"",""trial"",""time""
""blur"",""1"",""4259""
""focus"",""1"",""10443""
""fullscreenenter"",""1"",""11602""
","""event"",""trial"",""time""
""blur"",""1"",""4259""
","""event"",""trial"",""time""
""focus"",""1"",""10443""
","""event"",""trial"",""time""
""fullscreenenter"",""1"",""11602""
","
","","","","","","1417.5999999046326","images/racket5.png","","","practice","2","maybe_old",""
"learning-instructions","34","161356","0.0-12.0-0.0","4466","approach_avoid_sv1","""event"",""trial"",""time""
""blur"",""1"",""4259""
""focus"",""1"",""10443""
""fullscreenenter"",""1"",""11602""
","""event"",""trial"",""time""
""blur"",""1"",""4259""
","""event"",""trial"",""time""
""focus"",""1"",""10443""
","""event"",""trial"",""time""
""fullscreenenter"",""1"",""11602""
","
","","","","","","716.2999999523163","<p> Great! You have completed the practice. </p><p> Before you start, we're going to ask you a few questions about how the game works.  </p>","","0","instructions","","",""
"preload","35","172625","0.0-13.0","4466","approach_avoid_sv1","""event"",""trial"",""time""
""blur"",""1"",""4259""
""focus"",""1"",""10443""
""fullscreenenter"",""1"",""11602""
","""event"",""trial"",""time""
""blur"",""1"",""4259""
","""event"",""trial"",""time""
""focus"",""1"",""10443""
","""event"",""trial"",""time""
""fullscreenenter"",""1"",""11602""
","
","true","false","[]","[]","[]","","","","","","","",""
"comp-q","36","180672","0.0-14.0-0.0","4466","approach_avoid_sv1","""event"",""trial"",""time""
""blur"",""1"",""4259""
""focus"",""1"",""10443""
""fullscreenenter"",""1"",""11602""
","""event"",""trial"",""time""
""blur"",""1"",""4259""
","""event"",""trial"",""time""
""focus"",""1"",""10443""
","""event"",""trial"",""time""
""fullscreenenter"",""1"",""11602""
","
","","","","","","2219.2000000476837","<p> <b> True or False? </b> </p><p> In this game, you will only see each image once. </p>","","0","comp_question","","","true"
"comp-q","37","193772","0.0-14.0-1.0","4466","approach_avoid_sv1","""event"",""trial"",""time""
""blur"",""1"",""4259""
""focus"",""1"",""10443""
""fullscreenenter"",""1"",""11602""
","""event"",""trial"",""time""
""blur"",""1"",""4259""
","""event"",""trial"",""time""
""focus"",""1"",""10443""
","""event"",""trial"",""time""
""fullscreenenter"",""1"",""11602""
","
","","","","","","6765.5","<p> <b> That's right! </b> You will see many different images <i> one time each </i> in this game. </p>","","0","comp_answer","","",""
"comp-q","38","199755","0.0-15.0-0.0","4466","approach_avoid_sv1","""event"",""trial"",""time""
""blur"",""1"",""4259""
""focus"",""1"",""10443""
""fullscreenenter"",""1"",""11602""
","""event"",""trial"",""time""
""blur"",""1"",""4259""
","""event"",""trial"",""time""
""focus"",""1"",""10443""
","""event"",""trial"",""time""
""fullscreenenter"",""1"",""11602""
","
","","","","","","982.5999999046326","<p> <b> True or False? </b> </p><p> You should use the mouse and click to make your response. </p>","","1","comp_question","","","true"
"comp-q","39","210922","0.0-15.0-1.0","4466","approach_avoid_sv1","""event"",""trial"",""time""
""blur"",""1"",""4259""
""focus"",""1"",""10443""
""fullscreenenter"",""1"",""11602""
","""event"",""trial"",""time""
""blur"",""1"",""4259""
","""event"",""trial"",""time""
""focus"",""1"",""10443""
","""event"",""trial"",""time""
""fullscreenenter"",""1"",""11602""
","
","","","","","","4667.299999952316","<p><b> That's right! </b> You should use the '1', '2', '3', and '4' keys to make your response. </p>","","0","comp_answer","","",""
"comp-q","40","219572","0.0-16.0-0.0","4466","approach_avoid_sv1","""event"",""trial"",""time""
""blur"",""1"",""4259""
""focus"",""1"",""10443""
""fullscreenenter"",""1"",""11602""
","""event"",""trial"",""time""
""blur"",""1"",""4259""
","""event"",""trial"",""time""
""focus"",""1"",""10443""
","""event"",""trial"",""time""
""fullscreenenter"",""1"",""11602""
","
","","","","","","2976.2000000476837","<p> <b> True or False? </b> </p><p> You will have as much time as you want to make each choice. </p>","","1","comp_question","","","true"
"comp-q","41","229255","0.0-16.0-1.0","4466","approach_avoid_sv1","""event"",""trial"",""time""
""blur"",""1"",""4259""
""focus"",""1"",""10443""
""fullscreenenter"",""1"",""11602""
","""event"",""trial"",""time""
""blur"",""1"",""4259""
","""event"",""trial"",""time""
""focus"",""1"",""10443""
","""event"",""trial"",""time""
""fullscreenenter"",""1"",""11602""
","
","","","","","","4989.899999856949","<p> <b> That's right! </b> You will only have 10 seconds to make each choice. </p>","","0","comp_answer","","",""
"learning-instructions","42","243405","0.0-17.0","4466","approach_avoid_sv1","""event"",""trial"",""time""
""blur"",""1"",""4259""
""focus"",""1"",""10443""
""fullscreenenter"",""1"",""11602""
","""event"",""trial"",""time""
""blur"",""1"",""4259""
","""event"",""trial"",""time""
""focus"",""1"",""10443""
","""event"",""trial"",""time""
""fullscreenenter"",""1"",""11602""
","
","","","","","","5481.300000190735","<p> Great! You are now ready to begin the game. </p><p> Remember, use the 1, 2, 3, and 4 keys to make your responses. </p>","","0","instructions","","",""
"html-keyboard-response","43","244011","0.0-18.0-0.0","4466","approach_avoid_sv1","""event"",""trial"",""time""
""blur"",""1"",""4259""
""focus"",""1"",""10443""
""fullscreenenter"",""1"",""11602""
","""event"",""trial"",""time""
""blur"",""1"",""4259""
","""event"",""trial"",""time""
""focus"",""1"",""10443""
","""event"",""trial"",""time""
""fullscreenenter"",""1"",""11602""
","
","","","","","","null","<div style=""font-size:60px;"">+</div>","null","","fixation","","",""
"memory-trial","44","247116","0.0-18.0-1.0","4466","approach_avoid_sv1","""event"",""trial"",""time""
""blur"",""1"",""4259""
""focus"",""1"",""10443""
""fullscreenenter"",""1"",""11602""
","""event"",""trial"",""time""
""blur"",""1"",""4259""
","""event"",""trial"",""time""
""focus"",""1"",""10443""
","""event"",""trial"",""time""
""fullscreenenter"",""1"",""11602""
","
","","","","","","2098.2999999523163","images/train5.png","","","memory_trial","4","definitely_new",""
"html-keyboard-response","45","247619","0.0-18.0-0.1","4466","approach_avoid_sv1","""event"",""trial"",""time""
""blur"",""1"",""4259""
""focus"",""1"",""10443""
""fullscreenenter"",""1"",""11602""
","""event"",""trial"",""time""
""blur"",""1"",""4259""
","""event"",""trial"",""time""
""focus"",""1"",""10443""
","""event"",""trial"",""time""
""fullscreenenter"",""1"",""11602""
","
","","","","","","null","<div style=""font-size:60px;"">+</div>","null","","fixation","","",""
"memory-trial","46","250171","0.0-18.0-1.1","4466","approach_avoid_sv1","""event"",""trial"",""time""
""blur"",""1"",""4259""
""focus"",""1"",""10443""
""fullscreenenter"",""1"",""11602""
","""event"",""trial"",""time""
""blur"",""1"",""4259""
","""event"",""trial"",""time""
""focus"",""1"",""10443""
","""event"",""trial"",""time""
""fullscreenenter"",""1"",""11602""
","
","","","","","","1547.9000000953674","images/dog5.png","","","memory_trial","4","definitely_new",""
"html-keyboard-response","47","250676","0.0-18.0-0.2","4466","approach_avoid_sv1","""event"",""trial"",""time""
""blur"",""1"",""4259""
""focus"",""1"",""10443""
""fullscreenenter"",""1"",""11602""
","""event"",""trial"",""time""
""blur"",""1"",""4259""
","""event"",""trial"",""time""
""focus"",""1"",""10443""
","""event"",""trial"",""time""
""fullscreenenter"",""1"",""11602""
","
","","","","","","null","<div style=""font-size:60px;"">+</div>","null","","fixation","","",""
"memory-trial","48","252944","0.0-18.0-1.2","4466","approach_avoid_sv1","""event"",""trial"",""time""
""blur"",""1"",""4259""
""focus"",""1"",""10443""
""fullscreenenter"",""1"",""11602""
","""event"",""trial"",""time""
""blur"",""1"",""4259""
","""event"",""trial"",""time""
""focus"",""1"",""10443""
","""event"",""trial"",""time""
""fullscreenenter"",""1"",""11602""
","
","","","","","","1264.3999998569489","images/sheep2.png","","","memory_trial","1","definitely_old",""
"html-keyboard-response","49","253447","0.0-18.0-0.3","4466","approach_avoid_sv1","""event"",""trial"",""time""
""blur"",""1"",""4259""
""focus"",""1"",""10443""
""fullscreenenter"",""1"",""11602""
","""event"",""trial"",""time""
""blur"",""1"",""4259""
","""event"",""trial"",""time""
""focus"",""1"",""10443""
","""event"",""trial"",""time""
""fullscreenenter"",""1"",""11602""
","
","","","","","","null","<div style=""font-size:60px;"">+</div>","null","","fixation","","",""
"memory-trial","50","256649","0.0-18.0-1.3","4466","approach_avoid_sv1","""event"",""trial"",""time""
""blur"",""1"",""4259""
""focus"",""1"",""10443""
""fullscreenenter"",""1"",""11602""
","""event"",""trial"",""time""
""blur"",""1"",""4259""
","""event"",""trial"",""time""
""focus"",""1"",""10443""
","""event"",""trial"",""time""
""fullscreenenter"",""1"",""11602""
","
","","","","","","2195.899999856949","images/orange3.png","","","memory_trial","3","maybe_new",""
"html-keyboard-response","51","257155","0.0-18.0-0.4","4466","approach_avoid_sv1","""event"",""trial"",""time""
""blur"",""1"",""4259""
""focus"",""1"",""10443""
""fullscreenenter"",""1"",""11602""
","""event"",""trial"",""time""
""blur"",""1"",""4259""
","""event"",""trial"",""time""
""focus"",""1"",""10443""
","""event"",""trial"",""time""
""fullscreenenter"",""1"",""11602""
","
","","","","","","null","<div style=""font-size:60px;"">+</div>","null","","fixation","","",""
"memory-trial","52","259181","0.0-18.0-1.4","4466","approach_avoid_sv1","""event"",""trial"",""time""
""blur"",""1"",""4259""
""focus"",""1"",""10443""
""fullscreenenter"",""1"",""11602""
","""event"",""trial"",""time""
""blur"",""1"",""4259""
","""event"",""trial"",""time""
""focus"",""1"",""10443""
","""event"",""trial"",""time""
""fullscreenenter"",""1"",""11602""
","
","","","","","","1020.2000000476837","images/goat8.png","","","memory_trial","1","definitely_old",""
"html-keyboard-response","53","259685","0.0-18.0-0.5","4466","approach_avoid_sv1","""event"",""trial"",""time""
""blur"",""1"",""4259""
""focus"",""1"",""10443""
""fullscreenenter"",""1"",""11602""
","""event"",""trial"",""time""
""blur"",""1"",""4259""
","""event"",""trial"",""time""
""focus"",""1"",""10443""
","""event"",""trial"",""time""
""fullscreenenter"",""1"",""11602""
","
","","","","","","null","<div style=""font-size:60px;"">+</div>","null","","fixation","","",""
"memory-trial","54","262430","0.0-18.0-1.5","4466","approach_avoid_sv1","""event"",""trial"",""time""
""blur"",""1"",""4259""
""focus"",""1"",""10443""
""fullscreenenter"",""1"",""11602""
","""event"",""trial"",""time""
""blur"",""1"",""4259""
","""event"",""trial"",""time""
""focus"",""1"",""10443""
","""event"",""trial"",""time""
""fullscreenenter"",""1"",""11602""
","
","","","","","","1739.0999999046326","images/rabbit5.png","","","memory_trial","2","maybe_old",""
"html-keyboard-response","55","262934","0.0-18.0-0.6","4466","approach_avoid_sv1","""event"",""trial"",""time""
""blur"",""1"",""4259""
""focus"",""1"",""10443""
""fullscreenenter"",""1"",""11602""
","""event"",""trial"",""time""
""blur"",""1"",""4259""
","""event"",""trial"",""time""
""focus"",""1"",""10443""
","""event"",""trial"",""time""
""fullscreenenter"",""1"",""11602""
","
","","","","","","null","<div style=""font-size:60px;"">+</div>","null","","fixation","","",""
"memory-trial","56","265428","0.0-18.0-1.6","4466","approach_avoid_sv1","""event"",""trial"",""time""
""blur"",""1"",""4259""
""focus"",""1"",""10443""
""fullscreenenter"",""1"",""11602""
","""event"",""trial"",""time""
""blur"",""1"",""4259""
","""event"",""trial"",""time""
""focus"",""1"",""10443""
","""event"",""trial"",""time""
""fullscreenenter"",""1"",""11602""
","
","","","","","","1487.2000000476837","images/horse7.png","","","memory_trial","2","maybe_old",""
"html-keyboard-response","57","265930","0.0-18.0-0.7","4466","approach_avoid_sv1","""event"",""trial"",""time""
""blur"",""1"",""4259""
""focus"",""1"",""10443""
""fullscreenenter"",""1"",""11602""
","""event"",""trial"",""time""
""blur"",""1"",""4259""
","""event"",""trial"",""time""
""focus"",""1"",""10443""
","""event"",""trial"",""time""
""fullscreenenter"",""1"",""11602""
","
","","","","","","null","<div style=""font-size:60px;"">+</div>","null","","fixation","","",""
"memory-trial","58","268574","0.0-18.0-1.7","4466","approach_avoid_sv1","""event"",""trial"",""time""
""blur"",""1"",""4259""
""focus"",""1"",""10443""
""fullscreenenter"",""1"",""11602""
","""event"",""trial"",""time""
""blur"",""1"",""4259""
","""event"",""trial"",""time""
""focus"",""1"",""10443""
","""event"",""trial"",""time""
""fullscreenenter"",""1"",""11602""
","
","","","","","","1637.2000000476837","images/flower5.png","","","memory_trial","1","definitely_old",""
"html-keyboard-response","59","269075","0.0-18.0-0.8","4466","approach_avoid_sv1","""event"",""trial"",""time""
""blur"",""1"",""4259""
""focus"",""1"",""10443""
""fullscreenenter"",""1"",""11602""
","""event"",""trial"",""time""
""blur"",""1"",""4259""
","""event"",""trial"",""time""
""focus"",""1"",""10443""
","""event"",""trial"",""time""
""fullscreenenter"",""1"",""11602""
","
","","","","","","null","<div style=""font-size:60px;"">+</div>","null","","fixation","","",""
"memory-trial","60","270809","0.0-18.0-1.8","4466","approach_avoid_sv1","""event"",""trial"",""time""
""blur"",""1"",""4259""
""focus"",""1"",""10443""
""fullscreenenter"",""1"",""11602""
","""event"",""trial"",""time""
""blur"",""1"",""4259""
","""event"",""trial"",""time""
""focus"",""1"",""10443""
","""event"",""trial"",""time""
""fullscreenenter"",""1"",""11602""
","
","","","","","","726.2999999523163","images/horse2.png","","","memory_trial","1","definitely_old",""
"html-keyboard-response","61","271310","0.0-18.0-0.9","4466","approach_avoid_sv1","""event"",""trial"",""time""
""blur"",""1"",""4259""
""focus"",""1"",""10443""
""fullscreenenter"",""1"",""11602""
","""event"",""trial"",""time""
""blur"",""1"",""4259""
","""event"",""trial"",""time""
""focus"",""1"",""10443""
","""event"",""trial"",""time""
""fullscreenenter"",""1"",""11602""
","
","","","","","","null","<div style=""font-size:60px;"">+</div>","null","","fixation","","",""
"memory-trial","62","272890","0.0-18.0-1.9","4466","approach_avoid_sv1","""event"",""trial"",""time""
""blur"",""1"",""4259""
""focus"",""1"",""10443""
""fullscreenenter"",""1"",""11602""
","""event"",""trial"",""time""
""blur"",""1"",""4259""
","""event"",""trial"",""time""
""focus"",""1"",""10443""
","""event"",""trial"",""time""
""fullscreenenter"",""1"",""11602""
","
","","","","","","575.3000001907349","images/horse1.png","","","memory_trial","1","definitely_old",""
"html-keyboard-response","63","273395","0.0-18.0-0.10","4466","approach_avoid_sv1","""event"",""trial"",""time""
""blur"",""1"",""4259""
""focus"",""1"",""10443""
""fullscreenenter"",""1"",""11602""
","""event"",""trial"",""time""
""blur"",""1"",""4259""
","""event"",""trial"",""time""
""focus"",""1"",""10443""
","""event"",""trial"",""time""
""fullscreenenter"",""1"",""11602""
","
","","","","","","null","<div style=""font-size:60px;"">+</div>","null","","fixation","","",""
"memory-trial","64","276035","0.0-18.0-1.10","4466","approach_avoid_sv1","""event"",""trial"",""time""
""blur"",""1"",""4259""
""focus"",""1"",""10443""
""fullscreenenter"",""1"",""11602""
","""event"",""trial"",""time""
""blur"",""1"",""4259""
","""event"",""trial"",""time""
""focus"",""1"",""10443""
","""event"",""trial"",""time""
""fullscreenenter"",""1"",""11602""
","
","","","","","","1637.5999999046326","images/sofa4.png","","","memory_trial","4","definitely_new",""
"html-keyboard-response","65","276540","0.0-18.0-0.11","4466","approach_avoid_sv1","""event"",""trial"",""time""
""blur"",""1"",""4259""
""focus"",""1"",""10443""
""fullscreenenter"",""1"",""11602""
","""event"",""trial"",""time""
""blur"",""1"",""4259""
","""event"",""trial"",""time""
""focus"",""1"",""10443""
","""event"",""trial"",""time""
""fullscreenenter"",""1"",""11602""
","
","","","","","","null","<div style=""font-size:60px;"">+</div>","null","","fixation","","",""
"memory-trial","66","279118","0.0-18.0-1.11","4466","approach_avoid_sv1","""event"",""trial"",""time""
""blur"",""1"",""4259""
""focus"",""1"",""10443""
""fullscreenenter"",""1"",""11602""
","""event"",""trial"",""time""
""blur"",""1"",""4259""
","""event"",""trial"",""time""
""focus"",""1"",""10443""
","""event"",""trial"",""time""
""fullscreenenter"",""1"",""11602""
","
","","","","","","1571","images/orange1.png","","","memory_trial","2","maybe_old",""
"html-keyboard-response","67","279623","0.0-18.0-0.12","4466","approach_avoid_sv1","""event"",""trial"",""time""
""blur"",""1"",""4259""
""focus"",""1"",""10443""
""fullscreenenter"",""1"",""11602""
","""event"",""trial"",""time""
""blur"",""1"",""4259""
","""event"",""trial"",""time""
""focus"",""1"",""10443""
","""event"",""trial"",""time""
""fullscreenenter"",""1"",""11602""
","
","","","","","","null","<div style=""font-size:60px;"">+</div>","null","","fixation","","",""
"memory-trial","68","282403","0.0-18.0-1.12","4466","approach_avoid_sv1","""event"",""trial"",""time""
""blur"",""1"",""4259""
""focus"",""1"",""10443""
""fullscreenenter"",""1"",""11602""
","""event"",""trial"",""time""
""blur"",""1"",""4259""
","""event"",""trial"",""time""
""focus"",""1"",""10443""
","""event"",""trial"",""time""
""fullscreenenter"",""1"",""11602""
","
","","","","","","1773.9000000953674","images/sofa2.png","","","memory_trial","3","maybe_new",""
"html-keyboard-response","69","282906","0.0-18.0-0.13","4466","approach_avoid_sv1","""event"",""trial"",""time""
""blur"",""1"",""4259""
""focus"",""1"",""10443""
""fullscreenenter"",""1"",""11602""
","""event"",""trial"",""time""
""blur"",""1"",""4259""
","""event"",""trial"",""time""
""focus"",""1"",""10443""
","""event"",""trial"",""time""
""fullscreenenter"",""1"",""11602""
","
","","","","","","null","<div style=""font-size:60px;"">+</div>","null","","fixation","","",""
"memory-trial","70","285531","0.0-18.0-1.13","4466","approach_avoid_sv1","""event"",""trial"",""time""
""blur"",""1"",""4259""
""focus"",""1"",""10443""
""fullscreenenter"",""1"",""11602""
","""event"",""trial"",""time""
""blur"",""1"",""4259""
","""event"",""trial"",""time""
""focus"",""1"",""10443""
","""event"",""trial"",""time""
""fullscreenenter"",""1"",""11602""
","
","","","","","","1618.6999998092651","images/chair8.png","","","memory_trial","4","definitely_new",""
"html-keyboard-response","71","286035","0.0-18.0-0.14","4466","approach_avoid_sv1","""event"",""trial"",""time""
""blur"",""1"",""4259""
""focus"",""1"",""10443""
""fullscreenenter"",""1"",""11602""
","""event"",""trial"",""time""
""blur"",""1"",""4259""
","""event"",""trial"",""time""
""focus"",""1"",""10443""
","""event"",""trial"",""time""
""fullscreenenter"",""1"",""11602""
","
","","","","","","null","<div style=""font-size:60px;"">+</div>","null","","fixation","","",""
"memory-trial","72","288056","0.0-18.0-1.14","4466","approach_avoid_sv1","""event"",""trial"",""time""
""blur"",""1"",""4259""
""focus"",""1"",""10443""
""fullscreenenter"",""1"",""11602""
","""event"",""trial"",""time""
""blur"",""1"",""4259""
","""event"",""trial"",""time""
""focus"",""1"",""10443""
","""event"",""trial"",""time""
""fullscreenenter"",""1"",""11602""
","
","","","","","","1014.7000000476837","images/apple3.png","","","memory_trial","4","definitely_new",""
"html-keyboard-response","73","288557","0.0-18.0-0.15","4466","approach_avoid_sv1","""event"",""trial"",""time""
""blur"",""1"",""4259""
""focus"",""1"",""10443""
""fullscreenenter"",""1"",""11602""
","""event"",""trial"",""time""
""blur"",""1"",""4259""
","""event"",""trial"",""time""
""focus"",""1"",""10443""
","""event"",""trial"",""time""
""fullscreenenter"",""1"",""11602""
","
","","","","","","null","<div style=""font-size:60px;"">+</div>","null","","fixation","","",""
"memory-trial","74","290648","0.0-18.0-1.15","4466","approach_avoid_sv1","""event"",""trial"",""time""
""blur"",""1"",""4259""
""focus"",""1"",""10443""
""fullscreenenter"",""1"",""11602""
","""event"",""trial"",""time""
""blur"",""1"",""4259""
","""event"",""trial"",""time""
""focus"",""1"",""10443""
","""event"",""trial"",""time""
""fullscreenenter"",""1"",""11602""
","
","","","","","","1084","images/rodent1.png","","","memory_trial","4","definitely_new",""
"html-keyboard-response","75","291149","0.0-18.0-0.16","4466","approach_avoid_sv1","""event"",""trial"",""time""
""blur"",""1"",""4259""
""focus"",""1"",""10443""
""fullscreenenter"",""1"",""11602""
","""event"",""trial"",""time""
""blur"",""1"",""4259""
","""event"",""trial"",""time""
""focus"",""1"",""10443""
","""event"",""trial"",""time""
""fullscreenenter"",""1"",""11602""
","
","","","","","","null","<div style=""font-size:60px;"">+</div>","null","","fixation","","",""
"memory-trial","76","293496","0.0-18.0-1.16","4466","approach_avoid_sv1","""event"",""trial"",""time""
""blur"",""1"",""4259""
""focus"",""1"",""10443""
""fullscreenenter"",""1"",""11602""
","""event"",""trial"",""time""
""blur"",""1"",""4259""
","""event"",""trial"",""time""
""focus"",""1"",""10443""
","""event"",""trial"",""time""
""fullscreenenter"",""1"",""11602""
","
","","","","","","1342.5","images/sheep1.png","","","memory_trial","2","maybe_old",""
"html-keyboard-response","77","294000","0.0-18.0-0.17","4466","approach_avoid_sv1","""event"",""trial"",""time""
""blur"",""1"",""4259""
""focus"",""1"",""10443""
""fullscreenenter"",""1"",""11602""
","""event"",""trial"",""time""
""blur"",""1"",""4259""
","""event"",""trial"",""time""
""focus"",""1"",""10443""
","""event"",""trial"",""time""
""fullscreenenter"",""1"",""11602""
","
","","","","","","null","<div style=""font-size:60px;"">+</div>","null","","fixation","","",""
"memory-trial","78","296024","0.0-18.0-1.17","4466","approach_avoid_sv1","""event"",""trial"",""time""
""blur"",""1"",""4259""
""focus"",""1"",""10443""
""fullscreenenter"",""1"",""11602""
","""event"",""trial"",""time""
""blur"",""1"",""4259""
","""event"",""trial"",""time""
""focus"",""1"",""10443""
","""event"",""trial"",""time""
""fullscreenenter"",""1"",""11602""
","
","","","","","","1020.3999998569489","images/dog6.png","","","memory_trial","2","maybe_old",""
"html-keyboard-response","79","296525","0.0-18.0-0.18","4466","approach_avoid_sv1","""event"",""trial"",""time""
""blur"",""1"",""4259""
""focus"",""1"",""10443""
""fullscreenenter"",""1"",""11602""
","""event"",""trial"",""time""
""blur"",""1"",""4259""
","""event"",""trial"",""time""
""focus"",""1"",""10443""
","""event"",""trial"",""time""
""fullscreenenter"",""1"",""11602""
","
","","","","","","null","<div style=""font-size:60px;"">+</div>","null","","fixation","","",""
"memory-trial","80","299043","0.0-18.0-1.18","4466","approach_avoid_sv1","""event"",""trial"",""time""
""blur"",""1"",""4259""
""focus"",""1"",""10443""
""fullscreenenter"",""1"",""11602""
","""event"",""trial"",""time""
""blur"",""1"",""4259""
","""event"",""trial"",""time""
""focus"",""1"",""10443""
","""event"",""trial"",""time""
""fullscreenenter"",""1"",""11602""
","
","","","","","","1511","images/apple8.png","","","memory_trial","1","definitely_old",""
"html-keyboard-response","81","299546","0.0-18.0-0.19","4466","approach_avoid_sv1","""event"",""trial"",""time""
""blur"",""1"",""4259""
""focus"",""1"",""10443""
""fullscreenenter"",""1"",""11602""
","""event"",""trial"",""time""
""blur"",""1"",""4259""
","""event"",""trial"",""time""
""focus"",""1"",""10443""
","""event"",""trial"",""time""
""fullscreenenter"",""1"",""11602""
","
","","","","","","null","<div style=""font-size:60px;"">+</div>","null","","fixation","","",""
"memory-trial","82","302525","0.0-18.0-1.19","4466","approach_avoid_sv1","""event"",""trial"",""time""
""blur"",""1"",""4259""
""focus"",""1"",""10443""
""fullscreenenter"",""1"",""11602""
","""event"",""trial"",""time""
""blur"",""1"",""4259""
","""event"",""trial"",""time""
""focus"",""1"",""10443""
","""event"",""trial"",""time""
""fullscreenenter"",""1"",""11602""
","
","","","","","","1972.2999999523163","images/sofa1.png","","","memory_trial","4","definitely_new",""
"html-keyboard-response","83","303030","0.0-18.0-0.20","4466","approach_avoid_sv1","""event"",""trial"",""time""
""blur"",""1"",""4259""
""focus"",""1"",""10443""
""fullscreenenter"",""1"",""11602""
","""event"",""trial"",""time""
""blur"",""1"",""4259""
","""event"",""trial"",""time""
""focus"",""1"",""10443""
","""event"",""trial"",""time""
""fullscreenenter"",""1"",""11602""
","
","","","","","","null","<div style=""font-size:60px;"">+</div>","null","","fixation","","",""
"memory-trial","84","304936","0.0-18.0-1.20","4466","approach_avoid_sv1","""event"",""trial"",""time""
""blur"",""1"",""4259""
""focus"",""1"",""10443""
""fullscreenenter"",""1"",""11602""
","""event"",""trial"",""time""
""blur"",""1"",""4259""
","""event"",""trial"",""time""
""focus"",""1"",""10443""
","""event"",""trial"",""time""
""fullscreenenter"",""1"",""11602""
","
","","","","","","899","images/chair2.png","","","memory_trial","3","maybe_new",""
"html-keyboard-response","85","305438","0.0-18.0-0.21","4466","approach_avoid_sv1","""event"",""trial"",""time""
""blur"",""1"",""4259""
""focus"",""1"",""10443""
""fullscreenenter"",""1"",""11602""
","""event"",""trial"",""time""
""blur"",""1"",""4259""
","""event"",""trial"",""time""
""focus"",""1"",""10443""
","""event"",""trial"",""time""
""fullscreenenter"",""1"",""11602""
","
","","","","","","null","<div style=""font-size:60px;"">+</div>","null","","fixation","","",""
"memory-trial","86","307598","0.0-18.0-1.21","4466","approach_avoid_sv1","""event"",""trial"",""time""
""blur"",""1"",""4259""
""focus"",""1"",""10443""
""fullscreenenter"",""1"",""11602""
","""event"",""trial"",""time""
""blur"",""1"",""4259""
","""event"",""trial"",""time""
""focus"",""1"",""10443""
","""event"",""trial"",""time""
""fullscreenenter"",""1"",""11602""
","
","","","","","","1156.2999999523163","images/boat7.png","","","memory_trial","3","maybe_new",""
"html-keyboard-response","87","308100","0.0-18.0-0.22","4466","approach_avoid_sv1","""event"",""trial"",""time""
""blur"",""1"",""4259""
""focus"",""1"",""10443""
""fullscreenenter"",""1"",""11602""
","""event"",""trial"",""time""
""blur"",""1"",""4259""
","""event"",""trial"",""time""
""focus"",""1"",""10443""
","""event"",""trial"",""time""
""fullscreenenter"",""1"",""11602""
","
","","","","","","null","<div style=""font-size:60px;"">+</div>","null","","fixation","","",""
"memory-trial","88","310087","0.0-18.0-1.22","4466","approach_avoid_sv1","""event"",""trial"",""time""
""blur"",""1"",""4259""
""focus"",""1"",""10443""
""fullscreenenter"",""1"",""11602""
","""event"",""trial"",""time""
""blur"",""1"",""4259""
","""event"",""trial"",""time""
""focus"",""1"",""10443""
","""event"",""trial"",""time""
""fullscreenenter"",""1"",""11602""
","
","","","","","","985","images/bush2.png","","","memory_trial","4","definitely_new",""
"html-keyboard-response","89","310589","0.0-18.0-0.23","4466","approach_avoid_sv1","""event"",""trial"",""time""
""blur"",""1"",""4259""
""focus"",""1"",""10443""
""fullscreenenter"",""1"",""11602""
","""event"",""trial"",""time""
""blur"",""1"",""4259""
","""event"",""trial"",""time""
""focus"",""1"",""10443""
","""event"",""trial"",""time""
""fullscreenenter"",""1"",""11602""
","
","","","","","","null","<div style=""font-size:60px;"">+</div>","null","","fixation","","",""
"memory-trial","90","312403","0.0-18.0-1.23","4466","approach_avoid_sv1","""event"",""trial"",""time""
""blur"",""1"",""4259""
""focus"",""1"",""10443""
""fullscreenenter"",""1"",""11602""
","""event"",""trial"",""time""
""blur"",""1"",""4259""
","""event"",""trial"",""time""
""focus"",""1"",""10443""
","""event"",""trial"",""time""
""fullscreenenter"",""1"",""11602""
","
","","","","","","808.7999999523163","images/goat7.png","","","memory_trial","1","definitely_old",""
"html-keyboard-response","91","312909","0.0-18.0-0.24","4466","approach_avoid_sv1","""event"",""trial"",""time""
""blur"",""1"",""4259""
""focus"",""1"",""10443""
""fullscreenenter"",""1"",""11602""
","""event"",""trial"",""time""
""blur"",""1"",""4259""
","""event"",""trial"",""time""
""focus"",""1"",""10443""
","""event"",""trial"",""time""
""fullscreenenter"",""1"",""11602""
","
","","","","","","null","<div style=""font-size:60px;"">+</div>","null","","fixation","","",""
"memory-trial","92","315866","0.0-18.0-1.24","4466","approach_avoid_sv1","""event"",""trial"",""time""
""blur"",""1"",""4259""
""focus"",""1"",""10443""
""fullscreenenter"",""1"",""11602""
","""event"",""trial"",""time""
""blur"",""1"",""4259""
","""event"",""trial"",""time""
""focus"",""1"",""10443""
","""event"",""trial"",""time""
""fullscreenenter"",""1"",""11602""
","
","","","","","","1951.2999999523163","images/cow5.png","","","memory_trial","3","maybe_new",""
"html-keyboard-response","93","316370","0.0-18.0-0.25","4466","approach_avoid_sv1","""event"",""trial"",""time""
""blur"",""1"",""4259""
""focus"",""1"",""10443""
""fullscreenenter"",""1"",""11602""
","""event"",""trial"",""time""
""blur"",""1"",""4259""
","""event"",""trial"",""time""
""focus"",""1"",""10443""
","""event"",""trial"",""time""
""fullscreenenter"",""1"",""11602""
","
","","","","","","null","<div style=""font-size:60px;"">+</div>","null","","fixation","","",""
"memory-trial","94","318690","0.0-18.0-1.25","4466","approach_avoid_sv1","""event"",""trial"",""time""
""blur"",""1"",""4259""
""focus"",""1"",""10443""
""fullscreenenter"",""1"",""11602""
","""event"",""trial"",""time""
""blur"",""1"",""4259""
","""event"",""trial"",""time""
""focus"",""1"",""10443""
","""event"",""trial"",""time""
""fullscreenenter"",""1"",""11602""
","
","","","","","","1315.2000000476837","images/apple2.png","","","memory_trial","4","definitely_new",""
"html-keyboard-response","95","319191","0.0-18.0-0.26","4466","approach_avoid_sv1","""event"",""trial"",""time""
""blur"",""1"",""4259""
""focus"",""1"",""10443""
""fullscreenenter"",""1"",""11602""
","""event"",""trial"",""time""
""blur"",""1"",""4259""
","""event"",""trial"",""time""
""focus"",""1"",""10443""
","""event"",""trial"",""time""
""fullscreenenter"",""1"",""11602""
","
","","","","","","null","<div style=""font-size:60px;"">+</div>","null","","fixation","","",""
"memory-trial","96","321922","0.0-18.0-1.26","4466","approach_avoid_sv1","""event"",""trial"",""time""
""blur"",""1"",""4259""
""focus"",""1"",""10443""
""fullscreenenter"",""1"",""11602""
","""event"",""trial"",""time""
""blur"",""1"",""4259""
","""event"",""trial"",""time""
""focus"",""1"",""10443""
","""event"",""trial"",""time""
""fullscreenenter"",""1"",""11602""
","
","","","","","","1726.2000000476837","images/cat7.png","","","memory_trial","2","maybe_old",""
"html-keyboard-response","97","322423","0.0-18.0-0.27","4466","approach_avoid_sv1","""event"",""trial"",""time""
""blur"",""1"",""4259""
""focus"",""1"",""10443""
""fullscreenenter"",""1"",""11602""
","""event"",""trial"",""time""
""blur"",""1"",""4259""
","""event"",""trial"",""time""
""focus"",""1"",""10443""
","""event"",""trial"",""time""
""fullscreenenter"",""1"",""11602""
","
","","","","","","null","<div style=""font-size:60px;"">+</div>","null","","fixation","","",""
"memory-trial","98","324716","0.0-18.0-1.27","4466","approach_avoid_sv1","""event"",""trial"",""time""
""blur"",""1"",""4259""
""focus"",""1"",""10443""
""fullscreenenter"",""1"",""11602""
","""event"",""trial"",""time""
""blur"",""1"",""4259""
","""event"",""trial"",""time""
""focus"",""1"",""10443""
","""event"",""trial"",""time""
""fullscreenenter"",""1"",""11602""
","
","","","","","","1286.2999999523163","images/bed2.png","","","memory_trial","3","maybe_new",""
"html-keyboard-response","99","325220","0.0-18.0-0.28","4466","approach_avoid_sv1","""event"",""trial"",""time""
""blur"",""1"",""4259""
""focus"",""1"",""10443""
""fullscreenenter"",""1"",""11602""
","""event"",""trial"",""time""
""blur"",""1"",""4259""
","""event"",""trial"",""time""
""focus"",""1"",""10443""
","""event"",""trial"",""time""
""fullscreenenter"",""1"",""11602""
","
","","","","","","null","<div style=""font-size:60px;"">+</div>","null","","fixation","","",""
"memory-trial","100","327106","0.0-18.0-1.28","4466","approach_avoid_sv1","""event"",""trial"",""time""
""blur"",""1"",""4259""
""focus"",""1"",""10443""
""fullscreenenter"",""1"",""11602""
","""event"",""trial"",""time""
""blur"",""1"",""4259""
","""event"",""trial"",""time""
""focus"",""1"",""10443""
","""event"",""trial"",""time""
""fullscreenenter"",""1"",""11602""
","
","","","","","","880.2000000476837","images/table1.png","","","memory_trial","4","definitely_new",""
"html-keyboard-response","101","327607","0.0-18.0-0.29","4466","approach_avoid_sv1","""event"",""trial"",""time""
""blur"",""1"",""4259""
""focus"",""1"",""10443""
""fullscreenenter"",""1"",""11602""
","""event"",""trial"",""time""
""blur"",""1"",""4259""
","""event"",""trial"",""time""
""focus"",""1"",""10443""
","""event"",""trial"",""time""
""fullscreenenter"",""1"",""11602""
","
","","","","","","null","<div style=""font-size:60px;"">+</div>","null","","fixation","","",""
"memory-trial","102","329207","0.0-18.0-1.29","4466","approach_avoid_sv1","""event"",""trial"",""time""
""blur"",""1"",""4259""
""focus"",""1"",""10443""
""fullscreenenter"",""1"",""11602""
","""event"",""trial"",""time""
""blur"",""1"",""4259""
","""event"",""trial"",""time""
""focus"",""1"",""10443""
","""event"",""trial"",""time""
""fullscreenenter"",""1"",""11602""
","
","","","","","","596.2999999523163","images/table3.png","","","memory_trial","4","definitely_new",""
"html-keyboard-response","103","329710","0.0-18.0-0.30","4466","approach_avoid_sv1","""event"",""trial"",""time""
""blur"",""1"",""4259""
""focus"",""1"",""10443""
""fullscreenenter"",""1"",""11602""
","""event"",""trial"",""time""
""blur"",""1"",""4259""
","""event"",""trial"",""time""
""focus"",""1"",""10443""
","""event"",""trial"",""time""
""fullscreenenter"",""1"",""11602""
","
","","","","","","null","<div style=""font-size:60px;"">+</div>","null","","fixation","","",""
"memory-trial","104","331831","0.0-18.0-1.30","4466","approach_avoid_sv1","""event"",""trial"",""time""
""blur"",""1"",""4259""
""focus"",""1"",""10443""
""fullscreenenter"",""1"",""11602""
","""event"",""trial"",""time""
""blur"",""1"",""4259""
","""event"",""trial"",""time""
""focus"",""1"",""10443""
","""event"",""trial"",""time""
""fullscreenenter"",""1"",""11602""
","
","","","","","","1116.5999999046326","images/cow6.png","","","memory_trial","4","definitely_new",""
"html-keyboard-response","105","332336","0.0-18.0-0.31","4466","approach_avoid_sv1","""event"",""trial"",""time""
""blur"",""1"",""4259""
""focus"",""1"",""10443""
""fullscreenenter"",""1"",""11602""
","""event"",""trial"",""time""
""blur"",""1"",""4259""
","""event"",""trial"",""time""
""focus"",""1"",""10443""
","""event"",""trial"",""time""
""fullscreenenter"",""1"",""11602""
","
","","","","","","null","<div style=""font-size:60px;"">+</div>","null","","fixation","","",""
"memory-trial","106","334961","0.0-18.0-1.31","4466","approach_avoid_sv1","""event"",""trial"",""time""
""blur"",""1"",""4259""
""focus"",""1"",""10443""
""fullscreenenter"",""1"",""11602""
","""event"",""trial"",""time""
""blur"",""1"",""4259""
","""event"",""trial"",""time""
""focus"",""1"",""10443""
","""event"",""trial"",""time""
""fullscreenenter"",""1"",""11602""
","
","","","","","","1618.5","images/boat2.png","","","memory_trial","4","definitely_new",""
"html-keyboard-response","107","335465","0.0-18.0-0.32","4466","approach_avoid_sv1","""event"",""trial"",""time""
""blur"",""1"",""4259""
""focus"",""1"",""10443""
""fullscreenenter"",""1"",""11602""
","""event"",""trial"",""time""
""blur"",""1"",""4259""
","""event"",""trial"",""time""
""focus"",""1"",""10443""
","""event"",""trial"",""time""
""fullscreenenter"",""1"",""11602""
","
","","","","","","null","<div style=""font-size:60px;"">+</div>","null","","fixation","","",""
"memory-trial","108","337884","0.0-18.0-1.32","4466","approach_avoid_sv1","""event"",""trial"",""time""
""blur"",""1"",""4259""
""focus"",""1"",""10443""
""fullscreenenter"",""1"",""11602""
","""event"",""trial"",""time""
""blur"",""1"",""4259""
","""event"",""trial"",""time""
""focus"",""1"",""10443""
","""event"",""trial"",""time""
""fullscreenenter"",""1"",""11602""
","
","","","","","","1413.2999999523163","images/chair5.png","","","memory_trial","2","maybe_old",""
"html-keyboard-response","109","338385","0.0-18.0-0.33","4466","approach_avoid_sv1","""event"",""trial"",""time""
""blur"",""1"",""4259""
""focus"",""1"",""10443""
""fullscreenenter"",""1"",""11602""
","""event"",""trial"",""time""
""blur"",""1"",""4259""
","""event"",""trial"",""time""
""focus"",""1"",""10443""
","""event"",""trial"",""time""
""fullscreenenter"",""1"",""11602""
","
","","","","","","null","<div style=""font-size:60px;"">+</div>","null","","fixation","","",""
"memory-trial","110","340353","0.0-18.0-1.33","4466","approach_avoid_sv1","""event"",""trial"",""time""
""blur"",""1"",""4259""
""focus"",""1"",""10443""
""fullscreenenter"",""1"",""11602""
","""event"",""trial"",""time""
""blur"",""1"",""4259""
","""event"",""trial"",""time""
""focus"",""1"",""10443""
","""event"",""trial"",""time""
""fullscreenenter"",""1"",""11602""
","
","","","","","","961.4000000953674","images/truck4.png","","","memory_trial","1","definitely_old",""
"html-keyboard-response","111","340855","0.0-18.0-0.34","4466","approach_avoid_sv1","""event"",""trial"",""time""
""blur"",""1"",""4259""
""focus"",""1"",""10443""
""fullscreenenter"",""1"",""11602""
","""event"",""trial"",""time""
""blur"",""1"",""4259""
","""event"",""trial"",""time""
""focus"",""1"",""10443""
","""event"",""trial"",""time""
""fullscreenenter"",""1"",""11602""
","
","","","","","","null","<div style=""font-size:60px;"">+</div>","null","","fixation","","",""
"memory-trial","112","342833","0.0-18.0-1.34","4466","approach_avoid_sv1","""event"",""trial"",""time""
""blur"",""1"",""4259""
""focus"",""1"",""10443""
""fullscreenenter"",""1"",""11602""
","""event"",""trial"",""time""
""blur"",""1"",""4259""
","""event"",""trial"",""time""
""focus"",""1"",""10443""
","""event"",""trial"",""time""
""fullscreenenter"",""1"",""11602""
","
","","","","","","972.5999999046326","images/rodent5.png","","","memory_trial","4","definitely_new",""
"html-keyboard-response","113","343335","0.0-18.0-0.35","4466","approach_avoid_sv1","""event"",""trial"",""time""
""blur"",""1"",""4259""
""focus"",""1"",""10443""
""fullscreenenter"",""1"",""11602""
","""event"",""trial"",""time""
""blur"",""1"",""4259""
","""event"",""trial"",""time""
""focus"",""1"",""10443""
","""event"",""trial"",""time""
""fullscreenenter"",""1"",""11602""
","
","","","","","","null","<div style=""font-size:60px;"">+</div>","null","","fixation","","",""
"memory-trial","114","345164","0.0-18.0-1.35","4466","approach_avoid_sv1","""event"",""trial"",""time""
""blur"",""1"",""4259""
""focus"",""1"",""10443""
""fullscreenenter"",""1"",""11602""
","""event"",""trial"",""time""
""blur"",""1"",""4259""
","""event"",""trial"",""time""
""focus"",""1"",""10443""
","""event"",""trial"",""time""
""fullscreenenter"",""1"",""11602""
","
","","","","","","825.2000000476837","images/plane1.png","","","memory_trial","4","definitely_new",""
"html-keyboard-response","115","345668","0.0-18.0-0.36","4466","approach_avoid_sv1","""event"",""trial"",""time""
""blur"",""1"",""4259""
""focus"",""1"",""10443""
""fullscreenenter"",""1"",""11602""
","""event"",""trial"",""time""
""blur"",""1"",""4259""
","""event"",""trial"",""time""
""focus"",""1"",""10443""
","""event"",""trial"",""time""
""fullscreenenter"",""1"",""11602""
","
","","","","","","null","<div style=""font-size:60px;"">+</div>","null","","fixation","","",""
"memory-trial","116","347595","0.0-18.0-1.36","4466","approach_avoid_sv1","""event"",""trial"",""time""
""blur"",""1"",""4259""
""focus"",""1"",""10443""
""fullscreenenter"",""1"",""11602""
","""event"",""trial"",""time""
""blur"",""1"",""4259""
","""event"",""trial"",""time""
""focus"",""1"",""10443""
","""event"",""trial"",""time""
""fullscreenenter"",""1"",""11602""
","
","","","","","","920.2999999523163","images/goat6.png","","","memory_trial","2","maybe_old",""
"html-keyboard-response","117","348097","0.0-18.0-0.37","4466","approach_avoid_sv1","""event"",""trial"",""time""
""blur"",""1"",""4259""
""focus"",""1"",""10443""
""fullscreenenter"",""1"",""11602""
","""event"",""trial"",""time""
""blur"",""1"",""4259""
","""event"",""trial"",""time""
""focus"",""1"",""10443""
","""event"",""trial"",""time""
""fullscreenenter"",""1"",""11602""
","
","","","","","","null","<div style=""font-size:60px;"">+</div>","null","","fixation","","",""
"memory-trial","118","350006","0.0-18.0-1.37","4466","approach_avoid_sv1","""event"",""trial"",""time""
""blur"",""1"",""4259""
""focus"",""1"",""10443""
""fullscreenenter"",""1"",""11602""
","""event"",""trial"",""time""
""blur"",""1"",""4259""
","""event"",""trial"",""time""
""focus"",""1"",""10443""
","""event"",""trial"",""time""
""fullscreenenter"",""1"",""11602""
","
","","","","","","902.7999999523163","images/rodent3.png","","","memory_trial","4","definitely_new",""
"html-keyboard-response","119","350512","0.0-18.0-0.38","4466","approach_avoid_sv1","""event"",""trial"",""time""
""blur"",""1"",""4259""
""focus"",""1"",""10443""
""fullscreenenter"",""1"",""11602""
","""event"",""trial"",""time""
""blur"",""1"",""4259""
","""event"",""trial"",""time""
""focus"",""1"",""10443""
","""event"",""trial"",""time""
""fullscreenenter"",""1"",""11602""
","
","","","","","","null","<div style=""font-size:60px;"">+</div>","null","","fixation","","",""
"memory-trial","120","352185","0.0-18.0-1.38","4466","approach_avoid_sv1","""event"",""trial"",""time""
""blur"",""1"",""4259""
""focus"",""1"",""10443""
""fullscreenenter"",""1"",""11602""
","""event"",""trial"",""time""
""blur"",""1"",""4259""
","""event"",""trial"",""time""
""focus"",""1"",""10443""
","""event"",""trial"",""time""
""fullscreenenter"",""1"",""11602""
","
","","","","","","667.5","images/rodent7.png","","","memory_trial","4","definitely_new",""
"html-keyboard-response","121","352689","0.0-18.0-0.39","4466","approach_avoid_sv1","""event"",""trial"",""time""
""blur"",""1"",""4259""
""focus"",""1"",""10443""
""fullscreenenter"",""1"",""11602""
","""event"",""trial"",""time""
""blur"",""1"",""4259""
","""event"",""trial"",""time""
""focus"",""1"",""10443""
","""event"",""trial"",""time""
""fullscreenenter"",""1"",""11602""
","
","","","","","","null","<div style=""font-size:60px;"">+</div>","null","","fixation","","",""
"memory-trial","122","354545","0.0-18.0-1.39","4466","approach_avoid_sv1","""event"",""trial"",""time""
""blur"",""1"",""4259""
""focus"",""1"",""10443""
""fullscreenenter"",""1"",""11602""
","""event"",""trial"",""time""
""blur"",""1"",""4259""
","""event"",""trial"",""time""
""focus"",""1"",""10443""
","""event"",""trial"",""time""
""fullscreenenter"",""1"",""11602""
","
","","","","","","851.2000000476837","images/sheep8.png","","","memory_trial","4","definitely_new",""
"html-keyboard-response","123","355046","0.0-18.0-0.40","4466","approach_avoid_sv1","""event"",""trial"",""time""
""blur"",""1"",""4259""
""focus"",""1"",""10443""
""fullscreenenter"",""1"",""11602""
","""event"",""trial"",""time""
""blur"",""1"",""4259""
","""event"",""trial"",""time""
""focus"",""1"",""10443""
","""event"",""trial"",""time""
""fullscreenenter"",""1"",""11602""
","
","","","","","","null","<div style=""font-size:60px;"">+</div>","null","","fixation","","",""
"memory-trial","124","357035","0.0-18.0-1.40","4466","approach_avoid_sv1","""event"",""trial"",""time""
""blur"",""1"",""4259""
""focus"",""1"",""10443""
""fullscreenenter"",""1"",""11602""
","""event"",""trial"",""time""
""blur"",""1"",""4259""
","""event"",""trial"",""time""
""focus"",""1"",""10443""
","""event"",""trial"",""time""
""fullscreenenter"",""1"",""11602""
","
","","","","","","982.6000001430511","images/rabbit3.png","","","memory_trial","3","maybe_new",""
"html-keyboard-response","125","357537","0.0-18.0-0.41","4466","approach_avoid_sv1","""event"",""trial"",""time""
""blur"",""1"",""4259""
""focus"",""1"",""10443""
""fullscreenenter"",""1"",""11602""
","""event"",""trial"",""time""
""blur"",""1"",""4259""
","""event"",""trial"",""time""
""focus"",""1"",""10443""
","""event"",""trial"",""time""
""fullscreenenter"",""1"",""11602""
","
","","","","","","null","<div style=""font-size:60px;"">+</div>","null","","fixation","","",""
"memory-trial","126","359451","0.0-18.0-1.41","4466","approach_avoid_sv1","""event"",""trial"",""time""
""blur"",""1"",""4259""
""focus"",""1"",""10443""
""fullscreenenter"",""1"",""11602""
","""event"",""trial"",""time""
""blur"",""1"",""4259""
","""event"",""trial"",""time""
""focus"",""1"",""10443""
","""event"",""trial"",""time""
""fullscreenenter"",""1"",""11602""
","
","","","","","","911.4000000953674","images/cow8.png","","","memory_trial","3","maybe_new",""
"html-button-response","127","361420","0.0-18.0-2.41-0.41","4466","approach_avoid_sv1","""event"",""trial"",""time""
""blur"",""1"",""4259""
""focus"",""1"",""10443""
""fullscreenenter"",""1"",""11602""
","""event"",""trial"",""time""
""blur"",""1"",""4259""
","""event"",""trial"",""time""
""focus"",""1"",""10443""
","""event"",""trial"",""time""
""fullscreenenter"",""1"",""11602""
","
","","","","","","1967.5","<p> Take a break! </p><p> Click the button to continue. </p>","0","","break","","",""
"html-keyboard-response","128","361921","0.0-18.0-0.42","4466","approach_avoid_sv1","""event"",""trial"",""time""
""blur"",""1"",""4259""
""focus"",""1"",""10443""
""fullscreenenter"",""1"",""11602""
","""event"",""trial"",""time""
""blur"",""1"",""4259""
","""event"",""trial"",""time""
""focus"",""1"",""10443""
","""event"",""trial"",""time""
""fullscreenenter"",""1"",""11602""
","
","","","","","","null","<div style=""font-size:60px;"">+</div>","null","","fixation","","",""
"memory-trial","129","364816","0.0-18.0-1.42","4466","approach_avoid_sv1","""event"",""trial"",""time""
""blur"",""1"",""4259""
""focus"",""1"",""10443""
""fullscreenenter"",""1"",""11602""
","""event"",""trial"",""time""
""blur"",""1"",""4259""
","""event"",""trial"",""time""
""focus"",""1"",""10443""
","""event"",""trial"",""time""
""fullscreenenter"",""1"",""11602""
","
","","","","","","1887.7999999523163","images/truck6.png","","","memory_trial","1","definitely_old",""
"html-keyboard-response","130","365318","0.0-18.0-0.43","4466","approach_avoid_sv1","""event"",""trial"",""time""
""blur"",""1"",""4259""
""focus"",""1"",""10443""
""fullscreenenter"",""1"",""11602""
","""event"",""trial"",""time""
""blur"",""1"",""4259""
","""event"",""trial"",""time""
""focus"",""1"",""10443""
","""event"",""trial"",""time""
""fullscreenenter"",""1"",""11602""
","
","","","","","","null","<div style=""font-size:60px;"">+</div>","null","","fixation","","",""
"memory-trial","131","368594","0.0-18.0-1.43","4466","approach_avoid_sv1","""event"",""trial"",""time""
""blur"",""1"",""4259""
""focus"",""1"",""10443""
""fullscreenenter"",""1"",""11602""
","""event"",""trial"",""time""
""blur"",""1"",""4259""
","""event"",""trial"",""time""
""focus"",""1"",""10443""
","""event"",""trial"",""time""
""fullscreenenter"",""1"",""11602""
","
","","","","","","2271","images/tree7.png","","","memory_trial","4","definitely_new",""
"html-keyboard-response","132","369099","0.0-18.0-0.44","4466","approach_avoid_sv1","""event"",""trial"",""time""
""blur"",""1"",""4259""
""focus"",""1"",""10443""
""fullscreenenter"",""1"",""11602""
","""event"",""trial"",""time""
""blur"",""1"",""4259""
","""event"",""trial"",""time""
""focus"",""1"",""10443""
","""event"",""trial"",""time""
""fullscreenenter"",""1"",""11602""
","
","","","","","","null","<div style=""font-size:60px;"">+</div>","null","","fixation","","",""
"memory-trial","133","371088","0.0-18.0-1.44","4466","approach_avoid_sv1","""event"",""trial"",""time""
""blur"",""1"",""4259""
""focus"",""1"",""10443""
""fullscreenenter"",""1"",""11602""
","""event"",""trial"",""time""
""blur"",""1"",""4259""
","""event"",""trial"",""time""
""focus"",""1"",""10443""
","""event"",""trial"",""time""
""fullscreenenter"",""1"",""11602""
","
","","","","","","984.3999998569489","images/boat3.png","","","memory_trial","3","maybe_new",""
"html-keyboard-response","134","371593","0.0-18.0-0.45","4466","approach_avoid_sv1","""event"",""trial"",""time""
""blur"",""1"",""4259""
""focus"",""1"",""10443""
""fullscreenenter"",""1"",""11602""
","""event"",""trial"",""time""
""blur"",""1"",""4259""
","""event"",""trial"",""time""
""focus"",""1"",""10443""
","""event"",""trial"",""time""
""fullscreenenter"",""1"",""11602""
","
","","","","","","null","<div style=""font-size:60px;"">+</div>","null","","fixation","","",""
"memory-trial","135","373974","0.0-18.0-1.45","4466","approach_avoid_sv1","""event"",""trial"",""time""
""blur"",""1"",""4259""
""focus"",""1"",""10443""
""fullscreenenter"",""1"",""11602""
","""event"",""trial"",""time""
""blur"",""1"",""4259""
","""event"",""trial"",""time""
""focus"",""1"",""10443""
","""event"",""trial"",""time""
""fullscreenenter"",""1"",""11602""
","
","","","","","","1374.2999999523163","images/orange8.png","","","memory_trial","2","maybe_old",""
"html-keyboard-response","136","374477","0.0-18.0-0.46","4466","approach_avoid_sv1","""event"",""trial"",""time""
""blur"",""1"",""4259""
""focus"",""1"",""10443""
""fullscreenenter"",""1"",""11602""
","""event"",""trial"",""time""
""blur"",""1"",""4259""
","""event"",""trial"",""time""
""focus"",""1"",""10443""
","""event"",""trial"",""time""
""fullscreenenter"",""1"",""11602""
","
","","","","","","null","<div style=""font-size:60px;"">+</div>","null","","fixation","","",""
"memory-trial","137","376138","0.0-18.0-1.46","4466","approach_avoid_sv1","""event"",""trial"",""time""
""blur"",""1"",""4259""
""focus"",""1"",""10443""
""fullscreenenter"",""1"",""11602""
","""event"",""trial"",""time""
""blur"",""1"",""4259""
","""event"",""trial"",""time""
""focus"",""1"",""10443""
","""event"",""trial"",""time""
""fullscreenenter"",""1"",""11602""
","
","","","","","","655.3999998569489","images/rodent2.png","","","memory_trial","2","maybe_old",""
"html-keyboard-response","138","376643","0.0-18.0-0.47","4466","approach_avoid_sv1","""event"",""trial"",""time""
""blur"",""1"",""4259""
""focus"",""1"",""10443""
""fullscreenenter"",""1"",""11602""
","""event"",""trial"",""time""
""blur"",""1"",""4259""
","""event"",""trial"",""time""
""focus"",""1"",""10443""
","""event"",""trial"",""time""
""fullscreenenter"",""1"",""11602""
","
","","","","","","null","<div style=""font-size:60px;"">+</div>","null","","fixation","","",""
"memory-trial","139","378455","0.0-18.0-1.47","4466","approach_avoid_sv1","""event"",""trial"",""time""
""blur"",""1"",""4259""
""focus"",""1"",""10443""
""fullscreenenter"",""1"",""11602""
","""event"",""trial"",""time""
""blur"",""1"",""4259""
","""event"",""trial"",""time""
""focus"",""1"",""10443""
","""event"",""trial"",""time""
""fullscreenenter"",""1"",""11602""
","
","","","","","","805.2999999523163","images/cactus4.png","","","memory_trial","2","maybe_old",""
"html-keyboard-response","140","378960","0.0-18.0-0.48","4466","approach_avoid_sv1","""event"",""trial"",""time""
""blur"",""1"",""4259""
""focus"",""1"",""10443""
""fullscreenenter"",""1"",""11602""
","""event"",""trial"",""time""
""blur"",""1"",""4259""
","""event"",""trial"",""time""
""focus"",""1"",""10443""
","""event"",""trial"",""time""
""fullscreenenter"",""1"",""11602""
","
","","","","","","null","<div style=""font-size:60px;"">+</div>","null","","fixation","","",""
"memory-trial","141","381367","0.0-18.0-1.48","4466","approach_avoid_sv1","""event"",""trial"",""time""
""blur"",""1"",""4259""
""focus"",""1"",""10443""
""fullscreenenter"",""1"",""11602""
","""event"",""trial"",""time""
""blur"",""1"",""4259""
","""event"",""trial"",""time""
""focus"",""1"",""10443""
","""event"",""trial"",""time""
""fullscreenenter"",""1"",""11602""
","
","","","","","","1401.8999998569489","images/plane4.png","","","memory_trial","2","maybe_old",""
"html-keyboard-response","142","381872","0.0-18.0-0.49","4466","approach_avoid_sv1","""event"",""trial"",""time""
""blur"",""1"",""4259""
""focus"",""1"",""10443""
""fullscreenenter"",""1"",""11602""
","""event"",""trial"",""time""
""blur"",""1"",""4259""
","""event"",""trial"",""time""
""focus"",""1"",""10443""
","""event"",""trial"",""time""
""fullscreenenter"",""1"",""11602""
","
","","","","","","null","<div style=""font-size:60px;"">+</div>","null","","fixation","","",""
"memory-trial","143","384316","0.0-18.0-1.49","4466","approach_avoid_sv1","""event"",""trial"",""time""
""blur"",""1"",""4259""
""focus"",""1"",""10443""
""fullscreenenter"",""1"",""11602""
","""event"",""trial"",""time""
""blur"",""1"",""4259""
","""event"",""trial"",""time""
""focus"",""1"",""10443""
","""event"",""trial"",""time""
""fullscreenenter"",""1"",""11602""
","
","","","","","","1440.8000001907349","images/banana3.png","","","memory_trial","1","definitely_old",""
"html-keyboard-response","144","384821","0.0-18.0-0.50","4466","approach_avoid_sv1","""event"",""trial"",""time""
""blur"",""1"",""4259""
""focus"",""1"",""10443""
""fullscreenenter"",""1"",""11602""
","""event"",""trial"",""time""
""blur"",""1"",""4259""
","""event"",""trial"",""time""
""focus"",""1"",""10443""
","""event"",""trial"",""time""
""fullscreenenter"",""1"",""11602""
","
","","","","","","null","<div style=""font-size:60px;"">+</div>","null","","fixation","","",""
"memory-trial","145","386987","0.0-18.0-1.50","4466","approach_avoid_sv1","""event"",""trial"",""time""
""blur"",""1"",""4259""
""focus"",""1"",""10443""
""fullscreenenter"",""1"",""11602""
","""event"",""trial"",""time""
""blur"",""1"",""4259""
","""event"",""trial"",""time""
""focus"",""1"",""10443""
","""event"",""trial"",""time""
""fullscreenenter"",""1"",""11602""
","
","","","","","","1160","images/tree6.png","","","memory_trial","4","definitely_new",""
"html-keyboard-response","146","387488","0.0-18.0-0.51","4466","approach_avoid_sv1","""event"",""trial"",""time""
""blur"",""1"",""4259""
""focus"",""1"",""10443""
""fullscreenenter"",""1"",""11602""
","""event"",""trial"",""time""
""blur"",""1"",""4259""
","""event"",""trial"",""time""
""focus"",""1"",""10443""
","""event"",""trial"",""time""
""fullscreenenter"",""1"",""11602""
","
","","","","","","null","<div style=""font-size:60px;"">+</div>","null","","fixation","","",""
"memory-trial","147","389509","0.0-18.0-1.51","4466","approach_avoid_sv1","""event"",""trial"",""time""
""blur"",""1"",""4259""
""focus"",""1"",""10443""
""fullscreenenter"",""1"",""11602""
","""event"",""trial"",""time""
""blur"",""1"",""4259""
","""event"",""trial"",""time""
""focus"",""1"",""10443""
","""event"",""trial"",""time""
""fullscreenenter"",""1"",""11602""
","
","","","","","","1018.9000000953674","images/boat8.png","","","memory_trial","3","maybe_new",""
"html-keyboard-response","148","390010","0.0-18.0-0.52","4466","approach_avoid_sv1","""event"",""trial"",""time""
""blur"",""1"",""4259""
""focus"",""1"",""10443""
""fullscreenenter"",""1"",""11602""
","""event"",""trial"",""time""
""blur"",""1"",""4259""
","""event"",""trial"",""time""
""focus"",""1"",""10443""
","""event"",""trial"",""time""
""fullscreenenter"",""1"",""11602""
","
","","","","","","null","<div style=""font-size:60px;"">+</div>","null","","fixation","","",""
"memory-trial","149","391959","0.0-18.0-1.52","4466","approach_avoid_sv1","""event"",""trial"",""time""
""blur"",""1"",""4259""
""focus"",""1"",""10443""
""fullscreenenter"",""1"",""11602""
","""event"",""trial"",""time""
""blur"",""1"",""4259""
","""event"",""trial"",""time""
""focus"",""1"",""10443""
","""event"",""trial"",""time""
""fullscreenenter"",""1"",""11602""
","
","","","","","","943.8000001907349","images/tree5.png","","","memory_trial","4","definitely_new",""
"html-keyboard-response","150","392464","0.0-18.0-0.53","4466","approach_avoid_sv1","""event"",""trial"",""time""
""blur"",""1"",""4259""
""focus"",""1"",""10443""
""fullscreenenter"",""1"",""11602""
","""event"",""trial"",""time""
""blur"",""1"",""4259""
","""event"",""trial"",""time""
""focus"",""1"",""10443""
","""event"",""trial"",""time""
""fullscreenenter"",""1"",""11602""
","
","","","","","","null","<div style=""font-size:60px;"">+</div>","null","","fixation","","",""
"memory-trial","151","394442","0.0-18.0-1.53","4466","approach_avoid_sv1","""event"",""trial"",""time""
""blur"",""1"",""4259""
""focus"",""1"",""10443""
""fullscreenenter"",""1"",""11602""
","""event"",""trial"",""time""
""blur"",""1"",""4259""
","""event"",""trial"",""time""
""focus"",""1"",""10443""
","""event"",""trial"",""time""
""fullscreenenter"",""1"",""11602""
","
","","","","","","975.7999999523163","images/cactus6.png","","","memory_trial","2","maybe_old",""
"html-keyboard-response","152","394944","0.0-18.0-0.54","4466","approach_avoid_sv1","""event"",""trial"",""time""
""blur"",""1"",""4259""
""focus"",""1"",""10443""
""fullscreenenter"",""1"",""11602""
","""event"",""trial"",""time""
""blur"",""1"",""4259""
","""event"",""trial"",""time""
""focus"",""1"",""10443""
","""event"",""trial"",""time""
""fullscreenenter"",""1"",""11602""
","
","","","","","","null","<div style=""font-size:60px;"">+</div>","null","","fixation","","",""
"memory-trial","153","396997","0.0-18.0-1.54","4466","approach_avoid_sv1","""event"",""trial"",""time""
""blur"",""1"",""4259""
""focus"",""1"",""10443""
""fullscreenenter"",""1"",""11602""
","""event"",""trial"",""time""
""blur"",""1"",""4259""
","""event"",""trial"",""time""
""focus"",""1"",""10443""
","""event"",""trial"",""time""
""fullscreenenter"",""1"",""11602""
","
","","","","","","1047.0999999046326","images/dog1.png","","","memory_trial","2","maybe_old",""
"html-keyboard-response","154","397502","0.0-18.0-0.55","4466","approach_avoid_sv1","""event"",""trial"",""time""
""blur"",""1"",""4259""
""focus"",""1"",""10443""
""fullscreenenter"",""1"",""11602""
","""event"",""trial"",""time""
""blur"",""1"",""4259""
","""event"",""trial"",""time""
""focus"",""1"",""10443""
","""event"",""trial"",""time""
""fullscreenenter"",""1"",""11602""
","
","","","","","","null","<div style=""font-size:60px;"">+</div>","null","","fixation","","",""
"memory-trial","155","399754","0.0-18.0-1.55","4466","approach_avoid_sv1","""event"",""trial"",""time""
""blur"",""1"",""4259""
""focus"",""1"",""10443""
""fullscreenenter"",""1"",""11602""
","""event"",""trial"",""time""
""blur"",""1"",""4259""
","""event"",""trial"",""time""
""focus"",""1"",""10443""
","""event"",""trial"",""time""
""fullscreenenter"",""1"",""11602""
","
","","","","","","1247.6000001430511","images/rabbit1.png","","","memory_trial","3","maybe_new",""
"html-keyboard-response","156","400258","0.0-18.0-0.56","4466","approach_avoid_sv1","""event"",""trial"",""time""
""blur"",""1"",""4259""
""focus"",""1"",""10443""
""fullscreenenter"",""1"",""11602""
","""event"",""trial"",""time""
""blur"",""1"",""4259""
","""event"",""trial"",""time""
""focus"",""1"",""10443""
","""event"",""trial"",""time""
""fullscreenenter"",""1"",""11602""
","
","","","","","","null","<div style=""font-size:60px;"">+</div>","null","","fixation","","",""
"memory-trial","157","402149","0.0-18.0-1.56","4466","approach_avoid_sv1","""event"",""trial"",""time""
""blur"",""1"",""4259""
""focus"",""1"",""10443""
""fullscreenenter"",""1"",""11602""
","""event"",""trial"",""time""
""blur"",""1"",""4259""
","""event"",""trial"",""time""
""focus"",""1"",""10443""
","""event"",""trial"",""time""
""fullscreenenter"",""1"",""11602""
","
","","","","","","885.9000000953674","images/cat4.png","","","memory_trial","3","maybe_new",""
"html-keyboard-response","158","402650","0.0-18.0-0.57","4466","approach_avoid_sv1","""event"",""trial"",""time""
""blur"",""1"",""4259""
""focus"",""1"",""10443""
""fullscreenenter"",""1"",""11602""
","""event"",""trial"",""time""
""blur"",""1"",""4259""
","""event"",""trial"",""time""
""focus"",""1"",""10443""
","""event"",""trial"",""time""
""fullscreenenter"",""1"",""11602""
","
","","","","","","null","<div style=""font-size:60px;"">+</div>","null","","fixation","","",""
"memory-trial","159","404902","0.0-18.0-1.57","4466","approach_avoid_sv1","""event"",""trial"",""time""
""blur"",""1"",""4259""
""focus"",""1"",""10443""
""fullscreenenter"",""1"",""11602""
","""event"",""trial"",""time""
""blur"",""1"",""4259""
","""event"",""trial"",""time""
""focus"",""1"",""10443""
","""event"",""trial"",""time""
""fullscreenenter"",""1"",""11602""
","
","","","","","","1247.7000000476837","images/apple5.png","","","memory_trial","4","definitely_new",""
"html-keyboard-response","160","405403","0.0-18.0-0.58","4466","approach_avoid_sv1","""event"",""trial"",""time""
""blur"",""1"",""4259""
""focus"",""1"",""10443""
""fullscreenenter"",""1"",""11602""
","""event"",""trial"",""time""
""blur"",""1"",""4259""
","""event"",""trial"",""time""
""focus"",""1"",""10443""
","""event"",""trial"",""time""
""fullscreenenter"",""1"",""11602""
","
","","","","","","null","<div style=""font-size:60px;"">+</div>","null","","fixation","","",""
"memory-trial","161","407695","0.0-18.0-1.58","4466","approach_avoid_sv1","""event"",""trial"",""time""
""blur"",""1"",""4259""
""focus"",""1"",""10443""
""fullscreenenter"",""1"",""11602""
","""event"",""trial"",""time""
""blur"",""1"",""4259""
","""event"",""trial"",""time""
""focus"",""1"",""10443""
","""event"",""trial"",""time""
""fullscreenenter"",""1"",""11602""
","
","","","","","","1285.8999998569489","images/straw3.png","","","memory_trial","1","definitely_old",""
"html-keyboard-response","162","408197","0.0-18.0-0.59","4466","approach_avoid_sv1","""event"",""trial"",""time""
""blur"",""1"",""4259""
""focus"",""1"",""10443""
""fullscreenenter"",""1"",""11602""
","""event"",""trial"",""time""
""blur"",""1"",""4259""
","""event"",""trial"",""time""
""focus"",""1"",""10443""
","""event"",""trial"",""time""
""fullscreenenter"",""1"",""11602""
","
","","","","","","null","<div style=""font-size:60px;"">+</div>","null","","fixation","","",""
"memory-trial","163","410469","0.0-18.0-1.59","4466","approach_avoid_sv1","""event"",""trial"",""time""
""blur"",""1"",""4259""
""focus"",""1"",""10443""
""fullscreenenter"",""1"",""11602""
","""event"",""trial"",""time""
""blur"",""1"",""4259""
","""event"",""trial"",""time""
""focus"",""1"",""10443""
","""event"",""trial"",""time""
""fullscreenenter"",""1"",""11602""
","
","","","","","","1269.2999999523163","images/cow1.png","","","memory_trial","4","definitely_new",""
"html-keyboard-response","164","410974","0.0-18.0-0.60","4466","approach_avoid_sv1","""event"",""trial"",""time""
""blur"",""1"",""4259""
""focus"",""1"",""10443""
""fullscreenenter"",""1"",""11602""
","""event"",""trial"",""time""
""blur"",""1"",""4259""
","""event"",""trial"",""time""
""focus"",""1"",""10443""
","""event"",""trial"",""time""
""fullscreenenter"",""1"",""11602""
","
","","","","","","null","<div style=""font-size:60px;"">+</div>","null","","fixation","","",""
"memory-trial","165","412807","0.0-18.0-1.60","4466","approach_avoid_sv1","""event"",""trial"",""time""
""blur"",""1"",""4259""
""focus"",""1"",""10443""
""fullscreenenter"",""1"",""11602""
","""event"",""trial"",""time""
""blur"",""1"",""4259""
","""event"",""trial"",""time""
""focus"",""1"",""10443""
","""event"",""trial"",""time""
""fullscreenenter"",""1"",""11602""
","
","","","","","","826","images/cactus3.png","","","memory_trial","2","maybe_old",""
"html-keyboard-response","166","413311","0.0-18.0-0.61","4466","approach_avoid_sv1","""event"",""trial"",""time""
""blur"",""1"",""4259""
""focus"",""1"",""10443""
""fullscreenenter"",""1"",""11602""
","""event"",""trial"",""time""
""blur"",""1"",""4259""
","""event"",""trial"",""time""
""focus"",""1"",""10443""
","""event"",""trial"",""time""
""fullscreenenter"",""1"",""11602""
","
","","","","","","null","<div style=""font-size:60px;"">+</div>","null","","fixation","","",""
"memory-trial","167","415322","0.0-18.0-1.61","4466","approach_avoid_sv1","""event"",""trial"",""time""
""blur"",""1"",""4259""
""focus"",""1"",""10443""
""fullscreenenter"",""1"",""11602""
","""event"",""trial"",""time""
""blur"",""1"",""4259""
","""event"",""trial"",""time""
""focus"",""1"",""10443""
","""event"",""trial"",""time""
""fullscreenenter"",""1"",""11602""
","
","","","","","","1005.4000000953674","images/truck8.png","","","memory_trial","2","maybe_old",""
"html-keyboard-response","168","415827","0.0-18.0-0.62","4466","approach_avoid_sv1","""event"",""trial"",""time""
""blur"",""1"",""4259""
""focus"",""1"",""10443""
""fullscreenenter"",""1"",""11602""
","""event"",""trial"",""time""
""blur"",""1"",""4259""
","""event"",""trial"",""time""
""focus"",""1"",""10443""
","""event"",""trial"",""time""
""fullscreenenter"",""1"",""11602""
","
","","","","","","null","<div style=""font-size:60px;"">+</div>","null","","fixation","","",""
"memory-trial","169","417828","0.0-18.0-1.62","4466","approach_avoid_sv1","""event"",""trial"",""time""
""blur"",""1"",""4259""
""focus"",""1"",""10443""
""fullscreenenter"",""1"",""11602""
","""event"",""trial"",""time""
""blur"",""1"",""4259""
","""event"",""trial"",""time""
""focus"",""1"",""10443""
","""event"",""trial"",""time""
""fullscreenenter"",""1"",""11602""
","
","","","","","","994.5","images/bush3.png","","","memory_trial","1","definitely_old",""
"html-keyboard-response","170","418330","0.0-18.0-0.63","4466","approach_avoid_sv1","""event"",""trial"",""time""
""blur"",""1"",""4259""
""focus"",""1"",""10443""
""fullscreenenter"",""1"",""11602""
","""event"",""trial"",""time""
""blur"",""1"",""4259""
","""event"",""trial"",""time""
""focus"",""1"",""10443""
","""event"",""trial"",""time""
""fullscreenenter"",""1"",""11602""
","
","","","","","","null","<div style=""font-size:60px;"">+</div>","null","","fixation","","",""
"memory-trial","171","420630","0.0-18.0-1.63","4466","approach_avoid_sv1","""event"",""trial"",""time""
""blur"",""1"",""4259""
""focus"",""1"",""10443""
""fullscreenenter"",""1"",""11602""
","""event"",""trial"",""time""
""blur"",""1"",""4259""
","""event"",""trial"",""time""
""focus"",""1"",""10443""
","""event"",""trial"",""time""
""fullscreenenter"",""1"",""11602""
","
","","","","","","1294.8999998569489","images/cat5.png","","","memory_trial","2","maybe_old",""
"html-keyboard-response","172","421134","0.0-18.0-0.64","4466","approach_avoid_sv1","""event"",""trial"",""time""
""blur"",""1"",""4259""
""focus"",""1"",""10443""
""fullscreenenter"",""1"",""11602""
","""event"",""trial"",""time""
""blur"",""1"",""4259""
","""event"",""trial"",""time""
""focus"",""1"",""10443""
","""event"",""trial"",""time""
""fullscreenenter"",""1"",""11602""
","
","","","","","","null","<div style=""font-size:60px;"">+</div>","null","","fixation","","",""
"memory-trial","173","422884","0.0-18.0-1.64","4466","approach_avoid_sv1","""event"",""trial"",""time""
""blur"",""1"",""4259""
""focus"",""1"",""10443""
""fullscreenenter"",""1"",""11602""
","""event"",""trial"",""time""
""blur"",""1"",""4259""
","""event"",""trial"",""time""
""focus"",""1"",""10443""
","""event"",""trial"",""time""
""fullscreenenter"",""1"",""11602""
","
","","","","","","744.5999999046326","images/cow4.png","","","memory_trial","2","maybe_old",""
"html-keyboard-response","174","423390","0.0-18.0-0.65","4466","approach_avoid_sv1","""event"",""trial"",""time""
""blur"",""1"",""4259""
""focus"",""1"",""10443""
""fullscreenenter"",""1"",""11602""
","""event"",""trial"",""time""
""blur"",""1"",""4259""
","""event"",""trial"",""time""
""focus"",""1"",""10443""
","""event"",""trial"",""time""
""fullscreenenter"",""1"",""11602""
","
","","","","","","null","<div style=""font-size:60px;"">+</div>","null","","fixation","","",""
"memory-trial","175","425756","0.0-18.0-1.65","4466","approach_avoid_sv1","""event"",""trial"",""time""
""blur"",""1"",""4259""
""focus"",""1"",""10443""
""fullscreenenter"",""1"",""11602""
","""event"",""trial"",""time""
""blur"",""1"",""4259""
","""event"",""trial"",""time""
""focus"",""1"",""10443""
","""event"",""trial"",""time""
""fullscreenenter"",""1"",""11602""
","
","","","","","","1361.1000001430511","images/banana4.png","","","memory_trial","2","maybe_old",""
"html-keyboard-response","176","426260","0.0-18.0-0.66","4466","approach_avoid_sv1","""event"",""trial"",""time""
""blur"",""1"",""4259""
""focus"",""1"",""10443""
""fullscreenenter"",""1"",""11602""
","""event"",""trial"",""time""
""blur"",""1"",""4259""
","""event"",""trial"",""time""
""focus"",""1"",""10443""
","""event"",""trial"",""time""
""fullscreenenter"",""1"",""11602""
","
","","","","","","null","<div style=""font-size:60px;"">+</div>","null","","fixation","","",""
"memory-trial","177","427913","0.0-18.0-1.66","4466","approach_avoid_sv1","""event"",""trial"",""time""
""blur"",""1"",""4259""
""focus"",""1"",""10443""
""fullscreenenter"",""1"",""11602""
","""event"",""trial"",""time""
""blur"",""1"",""4259""
","""event"",""trial"",""time""
""focus"",""1"",""10443""
","""event"",""trial"",""time""
""fullscreenenter"",""1"",""11602""
","
","","","","","","647.9000000953674","images/orange6.png","","","memory_trial","1","definitely_old",""
"html-keyboard-response","178","428415","0.0-18.0-0.67","4466","approach_avoid_sv1","""event"",""trial"",""time""
""blur"",""1"",""4259""
""focus"",""1"",""10443""
""fullscreenenter"",""1"",""11602""
","""event"",""trial"",""time""
""blur"",""1"",""4259""
","""event"",""trial"",""time""
""focus"",""1"",""10443""
","""event"",""trial"",""time""
""fullscreenenter"",""1"",""11602""
","
","","","","","","null","<div style=""font-size:60px;"">+</div>","null","","fixation","","",""
"memory-trial","179","430522","0.0-18.0-1.67","4466","approach_avoid_sv1","""event"",""trial"",""time""
""blur"",""1"",""4259""
""focus"",""1"",""10443""
""fullscreenenter"",""1"",""11602""
","""event"",""trial"",""time""
""blur"",""1"",""4259""
","""event"",""trial"",""time""
""focus"",""1"",""10443""
","""event"",""trial"",""time""
""fullscreenenter"",""1"",""11602""
","
","","","","","","1103.0999999046326","images/horse5.png","","","memory_trial","4","definitely_new",""
"html-keyboard-response","180","431026","0.0-18.0-0.68","4466","approach_avoid_sv1","""event"",""trial"",""time""
""blur"",""1"",""4259""
""focus"",""1"",""10443""
""fullscreenenter"",""1"",""11602""
","""event"",""trial"",""time""
""blur"",""1"",""4259""
","""event"",""trial"",""time""
""focus"",""1"",""10443""
","""event"",""trial"",""time""
""fullscreenenter"",""1"",""11602""
","
","","","","","","null","<div style=""font-size:60px;"">+</div>","null","","fixation","","",""
"memory-trial","181","432779","0.0-18.0-1.68","4466","approach_avoid_sv1","""event"",""trial"",""time""
""blur"",""1"",""4259""
""focus"",""1"",""10443""
""fullscreenenter"",""1"",""11602""
","""event"",""trial"",""time""
""blur"",""1"",""4259""
","""event"",""trial"",""time""
""focus"",""1"",""10443""
","""event"",""trial"",""time""
""fullscreenenter"",""1"",""11602""
","
","","","","","","745.7999999523163","images/sheep3.png","","","memory_trial","3","maybe_new",""
"html-keyboard-response","182","433283","0.0-18.0-0.69","4466","approach_avoid_sv1","""event"",""trial"",""time""
""blur"",""1"",""4259""
""focus"",""1"",""10443""
""fullscreenenter"",""1"",""11602""
","""event"",""trial"",""time""
""blur"",""1"",""4259""
","""event"",""trial"",""time""
""focus"",""1"",""10443""
","""event"",""trial"",""time""
""fullscreenenter"",""1"",""11602""
","
","","","","","","null","<div style=""font-size:60px;"">+</div>","null","","fixation","","",""
"memory-trial","183","435351","0.0-18.0-1.69","4466","approach_avoid_sv1","""event"",""trial"",""time""
""blur"",""1"",""4259""
""focus"",""1"",""10443""
""fullscreenenter"",""1"",""11602""
","""event"",""trial"",""time""
""blur"",""1"",""4259""
","""event"",""trial"",""time""
""focus"",""1"",""10443""
","""event"",""trial"",""time""
""fullscreenenter"",""1"",""11602""
","
","","","","","","1063.2999999523163","images/goat2.png","","","memory_trial","1","definitely_old",""
"html-keyboard-response","184","435856","0.0-18.0-0.70","4466","approach_avoid_sv1","""event"",""trial"",""time""
""blur"",""1"",""4259""
""focus"",""1"",""10443""
""fullscreenenter"",""1"",""11602""
","""event"",""trial"",""time""
""blur"",""1"",""4259""
","""event"",""trial"",""time""
""focus"",""1"",""10443""
","""event"",""trial"",""time""
""fullscreenenter"",""1"",""11602""
","
","","","","","","null","<div style=""font-size:60px;"">+</div>","null","","fixation","","",""
"memory-trial","185","437614","0.0-18.0-1.70","4466","approach_avoid_sv1","""event"",""trial"",""time""
""blur"",""1"",""4259""
""focus"",""1"",""10443""
""fullscreenenter"",""1"",""11602""
","""event"",""trial"",""time""
""blur"",""1"",""4259""
","""event"",""trial"",""time""
""focus"",""1"",""10443""
","""event"",""trial"",""time""
""fullscreenenter"",""1"",""11602""
","
","","","","","","753.5999999046326","images/tree4.png","","","memory_trial","4","definitely_new",""
"html-keyboard-response","186","438116","0.0-18.0-0.71","4466","approach_avoid_sv1","""event"",""trial"",""time""
""blur"",""1"",""4259""
""focus"",""1"",""10443""
""fullscreenenter"",""1"",""11602""
","""event"",""trial"",""time""
""blur"",""1"",""4259""
","""event"",""trial"",""time""
""focus"",""1"",""10443""
","""event"",""trial"",""time""
""fullscreenenter"",""1"",""11602""
","
","","","","","","null","<div style=""font-size:60px;"">+</div>","null","","fixation","","",""
"memory-trial","187","440068","0.0-18.0-1.71","4466","approach_avoid_sv1","""event"",""trial"",""time""
""blur"",""1"",""4259""
""focus"",""1"",""10443""
""fullscreenenter"",""1"",""11602""
","""event"",""trial"",""time""
""blur"",""1"",""4259""
","""event"",""trial"",""time""
""focus"",""1"",""10443""
","""event"",""trial"",""time""
""fullscreenenter"",""1"",""11602""
","
","","","","","","946.2999999523163","images/cat2.png","","","memory_trial","3","maybe_new",""
"html-keyboard-response","188","440572","0.0-18.0-0.72","4466","approach_avoid_sv1","""event"",""trial"",""time""
""blur"",""1"",""4259""
""focus"",""1"",""10443""
""fullscreenenter"",""1"",""11602""
","""event"",""trial"",""time""
""blur"",""1"",""4259""
","""event"",""trial"",""time""
""focus"",""1"",""10443""
","""event"",""trial"",""time""
""fullscreenenter"",""1"",""11602""
","
","","","","","","null","<div style=""font-size:60px;"">+</div>","null","","fixation","","",""
"memory-trial","189","442155","0.0-18.0-1.72","4466","approach_avoid_sv1","""event"",""trial"",""time""
""blur"",""1"",""4259""
""focus"",""1"",""10443""
""fullscreenenter"",""1"",""11602""
","""event"",""trial"",""time""
""blur"",""1"",""4259""
","""event"",""trial"",""time""
""focus"",""1"",""10443""
","""event"",""trial"",""time""
""fullscreenenter"",""1"",""11602""
","
","","","","","","575.9000000953674","images/rodent6.png","","","memory_trial","4","definitely_new",""
"html-keyboard-response","190","442660","0.0-18.0-0.73","4466","approach_avoid_sv1","""event"",""trial"",""time""
""blur"",""1"",""4259""
""focus"",""1"",""10443""
""fullscreenenter"",""1"",""11602""
","""event"",""trial"",""time""
""blur"",""1"",""4259""
","""event"",""trial"",""time""
""focus"",""1"",""10443""
","""event"",""trial"",""time""
""fullscreenenter"",""1"",""11602""
","
","","","","","","null","<div style=""font-size:60px;"">+</div>","null","","fixation","","",""
"memory-trial","191","444302","0.0-18.0-1.73","4466","approach_avoid_sv1","""event"",""trial"",""time""
""blur"",""1"",""4259""
""focus"",""1"",""10443""
""fullscreenenter"",""1"",""11602""
","""event"",""trial"",""time""
""blur"",""1"",""4259""
","""event"",""trial"",""time""
""focus"",""1"",""10443""
","""event"",""trial"",""time""
""fullscreenenter"",""1"",""11602""
","
","","","","","","638","images/table4.png","","","memory_trial","4","definitely_new",""
"html-keyboard-response","192","444805","0.0-18.0-0.74","4466","approach_avoid_sv1","""event"",""trial"",""time""
""blur"",""1"",""4259""
""focus"",""1"",""10443""
""fullscreenenter"",""1"",""11602""
","""event"",""trial"",""time""
""blur"",""1"",""4259""
","""event"",""trial"",""time""
""focus"",""1"",""10443""
","""event"",""trial"",""time""
""fullscreenenter"",""1"",""11602""
","
","","","","","","null","<div style=""font-size:60px;"">+</div>","null","","fixation","","",""
"memory-trial","193","446430","0.0-18.0-1.74","4466","approach_avoid_sv1","""event"",""trial"",""time""
""blur"",""1"",""4259""
""focus"",""1"",""10443""
""fullscreenenter"",""1"",""11602""
","""event"",""trial"",""time""
""blur"",""1"",""4259""
","""event"",""trial"",""time""
""focus"",""1"",""10443""
","""event"",""trial"",""time""
""fullscreenenter"",""1"",""11602""
","
","","","","","","622","images/orange4.png","","","memory_trial","1","definitely_old",""
"html-keyboard-response","194","446931","0.0-18.0-0.75","4466","approach_avoid_sv1","""event"",""trial"",""time""
""blur"",""1"",""4259""
""focus"",""1"",""10443""
""fullscreenenter"",""1"",""11602""
","""event"",""trial"",""time""
""blur"",""1"",""4259""
","""event"",""trial"",""time""
""focus"",""1"",""10443""
","""event"",""trial"",""time""
""fullscreenenter"",""1"",""11602""
","
","","","","","","null","<div style=""font-size:60px;"">+</div>","null","","fixation","","",""
"memory-trial","195","448501","0.0-18.0-1.75","4466","approach_avoid_sv1","""event"",""trial"",""time""
""blur"",""1"",""4259""
""focus"",""1"",""10443""
""fullscreenenter"",""1"",""11602""
","""event"",""trial"",""time""
""blur"",""1"",""4259""
","""event"",""trial"",""time""
""focus"",""1"",""10443""
","""event"",""trial"",""time""
""fullscreenenter"",""1"",""11602""
","
","","","","","","566","images/rabbit7.png","","","memory_trial","4","definitely_new",""
"html-keyboard-response","196","449006","0.0-18.0-0.76","4466","approach_avoid_sv1","""event"",""trial"",""time""
""blur"",""1"",""4259""
""focus"",""1"",""10443""
""fullscreenenter"",""1"",""11602""
","""event"",""trial"",""time""
""blur"",""1"",""4259""
","""event"",""trial"",""time""
""focus"",""1"",""10443""
","""event"",""trial"",""time""
""fullscreenenter"",""1"",""11602""
","
","","","","","","null","<div style=""font-size:60px;"">+</div>","null","","fixation","","",""
"memory-trial","197","450921","0.0-18.0-1.76","4466","approach_avoid_sv1","""event"",""trial"",""time""
""blur"",""1"",""4259""
""focus"",""1"",""10443""
""fullscreenenter"",""1"",""11602""
","""event"",""trial"",""time""
""blur"",""1"",""4259""
","""event"",""trial"",""time""
""focus"",""1"",""10443""
","""event"",""trial"",""time""
""fullscreenenter"",""1"",""11602""
","
","","","","","","912.2000000476837","images/sheep6.png","","","memory_trial","2","maybe_old",""
"html-keyboard-response","198","451425","0.0-18.0-0.77","4466","approach_avoid_sv1","""event"",""trial"",""time""
""blur"",""1"",""4259""
""focus"",""1"",""10443""
""fullscreenenter"",""1"",""11602""
","""event"",""trial"",""time""
""blur"",""1"",""4259""
","""event"",""trial"",""time""
""focus"",""1"",""10443""
","""event"",""trial"",""time""
""fullscreenenter"",""1"",""11602""
","
","","","","","","null","<div style=""font-size:60px;"">+</div>","null","","fixation","","",""
"memory-trial","199","453518","0.0-18.0-1.77","4466","approach_avoid_sv1","""event"",""trial"",""time""
""blur"",""1"",""4259""
""focus"",""1"",""10443""
