"trial_type","trial_index","time_elapsed","internal_node_id","subject_id","task_version","interactions","blur_events","focus_events","fullscreenenter_events","fullscreenexit_events","success","timeout","failed_images","failed_audio","failed_video","rt","stimulus","response","button_pressed","task_part","key_press","answer","correct"
"pavlovia","0","3","0.0-0.0","5667","approach_avoid_sv1","""event"",""trial"",""time""
""fullscreenenter"",""1"",""1614""
","
","
","""event"",""trial"",""time""
""fullscreenenter"",""1"",""1614""
","
","","","","","","","","","","","","",""
"fullscreen","1","2616","0.0-1.0","5667","approach_avoid_sv1","""event"",""trial"",""time""
""fullscreenenter"",""1"",""1614""
","
","
","""event"",""trial"",""time""
""fullscreenenter"",""1"",""1614""
","
","true","","","","","","","","","","","",""
"preload","2","11958","0.0-2.0","5667","approach_avoid_sv1","""event"",""trial"",""time""
""fullscreenenter"",""1"",""1614""
","
","
","""event"",""trial"",""time""
""fullscreenenter"",""1"",""1614""
","
","true","false","[]","[]","[]","","","","","","","",""
"preload","3","18096","0.0-3.0","5667","approach_avoid_sv1","""event"",""trial"",""time""
""fullscreenenter"",""1"",""1614""
","
","
","""event"",""trial"",""time""
""fullscreenenter"",""1"",""1614""
","
","true","false","[]","[]","[]","","","","","","","",""
"preload","4","18652","0.0-4.0","5667","approach_avoid_sv1","""event"",""trial"",""time""
""fullscreenenter"",""1"",""1614""
","
","
","""event"",""trial"",""time""
""fullscreenenter"",""1"",""1614""
","
","true","false","[]","[]","[]","","","","","","","",""
"audio-keyboard-response","5","28904","0.0-5.0","5667","approach_avoid_sv1","""event"",""trial"",""time""
""fullscreenenter"",""1"",""1614""
","
","
","""event"",""trial"",""time""
""fullscreenenter"",""1"",""1614""
","
","","","","","","10248","audio/beep_loop.wav"," ","","","","",""
"audio-button-response","6","42239","0.0-6.0","5667","approach_avoid_sv1","""event"",""trial"",""time""
""fullscreenenter"",""1"",""1614""
","
","
","""event"",""trial"",""time""
""fullscreenenter"",""1"",""1614""
","
","","","","","","13341","audio/turtle.wav","3","","","","",""
"audio-button-response","7","50839","0.0-7.0","5667","approach_avoid_sv1","""event"",""trial"",""time""
""fullscreenenter"",""1"",""1614""
","
","
","""event"",""trial"",""time""
""fullscreenenter"",""1"",""1614""
","
","","","","","","7589","audio/shark.wav","2","","","","",""
"preload","8","65782","0.0-8.0","5667","approach_avoid_sv1","""event"",""trial"",""time""
""fullscreenenter"",""1"",""1614""
","
","
","""event"",""trial"",""time""
""fullscreenenter"",""1"",""1614""
","
","true","false","[]","[]","[]","","","","","","","",""
"learning-instructions","9","75975","0.0-9.0-0.0","5667","approach_avoid_sv1","""event"",""trial"",""time""
""fullscreenenter"",""1"",""1614""
","
","
","""event"",""trial"",""time""
""fullscreenenter"",""1"",""1614""
","
","","","","","","5719.0999999996275","<p> Welcome back! </p><p> Last week, you had to make choices about lots of different items.  </p>","","0","instructions","","",""
"learning-instructions","10","81735","0.0-9.0-0.1","5667","approach_avoid_sv1","""event"",""trial"",""time""
""fullscreenenter"",""1"",""1614""
","
","
","""event"",""trial"",""time""
""fullscreenenter"",""1"",""1614""
","
","","","","","","1648.699999999255","<p> Today, we are going to ask you to try to remember all the items. </p>","","0","instructions","","",""
"learning-instructions","11","94367","0.0-9.0-0.2","5667","approach_avoid_sv1","""event"",""trial"",""time""
""fullscreenenter"",""1"",""1614""
","
","
","""event"",""trial"",""time""
""fullscreenenter"",""1"",""1614""
","
","","","","","","2491.2000000011176","<p> On every trial, you will see an image. </p><p> The image may be an OLD image you saw during the games last week or it may be a NEW image that was not presented. </p>","","0","instructions","","",""
"learning-instructions","12","106183","0.0-9.0-0.3","5667","approach_avoid_sv1","""event"",""trial"",""time""
""fullscreenenter"",""1"",""1614""
","
","
","""event"",""trial"",""time""
""fullscreenenter"",""1"",""1614""
","
","","","","","","3316.60000000149","<p> You need to select whether the image is:  </p><p>  'Definitely old', 'Maybe old', 'Maybe new', or 'Definitely new.'  </p><div class=""mem-choice-instructions-grid""><div class=""choice-option"" id=""choice-option-1"" ><img src=""images/definitely_old_1.png"" id=""choice-option-img-1"" class=""choice-option-img"" stage=""1""></div><div class=""choice-option"" id=""choice-option-2"" ><img src=""images/maybe_old_1.png"" id=""choice-option-img-2"" class=""choice-option-img"" stage=""1""></div><div class=""choice-option"" id=""choice-option-3"" ><img src=""images/maybe_new_1.png"" id=""choice-option-img-3"" class=""choice-option-img"" stage=""1""></div><div class=""choice-option"" id=""choice-option-4"" > <img src=""images/definitely_new_1.png"" id=""choice-option-img-4"" class=""choice-option-img"" stage=""1""></div></div>","","0","instructions","","",""
"learning-instructions","13","123246","0.0-9.0-0.4","5667","approach_avoid_sv1","""event"",""trial"",""time""
""fullscreenenter"",""1"",""1614""
","
","
","""event"",""trial"",""time""
""fullscreenenter"",""1"",""1614""
","
","","","","","","10550.599999999627","<p> You should use the 1, 2, 3, and 4 keys to make your responses.  </p><div class=""mem-choice-instructions-grid""><div class=""choice-option"" id=""choice-option-1"" ><img src=""images/definitely_old.png"" id=""choice-option-img-1"" class=""choice-option-img"" stage=""1""></div><div class=""choice-option"" id=""choice-option-2"" ><img src=""images/maybe_old.png"" id=""choice-option-img-2"" class=""choice-option-img"" stage=""1""></div><div class=""choice-option"" id=""choice-option-3"" ><img src=""images/maybe_new.png"" id=""choice-option-img-3"" class=""choice-option-img"" stage=""1""></div><div class=""choice-option"" id=""choice-option-4"" > <img src=""images/definitely_new.png"" id=""choice-option-img-4"" class=""choice-option-img"" stage=""1""></div></div>","","0","instructions","","",""
"learning-instructions","14","141247","0.0-9.0-0.5","5667","approach_avoid_sv1","""event"",""trial"",""time""
""fullscreenenter"",""1"",""1614""
","
","
","""event"",""trial"",""time""
""fullscreenenter"",""1"",""1614""
","
","","","","","","11671.5","<p> You will have 10 seconds to make each response.  </p><p>  Make sure to respond before time runs out! </p>","","0","instructions","","",""
"learning-instructions","15","150119","0.0-9.0-0.6","5667","approach_avoid_sv1","""event"",""trial"",""time""
""fullscreenenter"",""1"",""1614""
","
","
","""event"",""trial"",""time""
""fullscreenenter"",""1"",""1614""
","
","","","","","","1802.5999999996275","<p> Today, you will see each image ONCE only.  </p><p>  That means none of the images will repeat. </p>","","0","instructions","","",""
"learning-instructions","16","163719","0.0-9.0-0.7","5667","approach_avoid_sv1","""event"",""trial"",""time""
""fullscreenenter"",""1"",""1614""
","
","
","""event"",""trial"",""time""
""fullscreenenter"",""1"",""1614""
","
","","","","","","932.5999999996275","<p> Before you play the real game, it is time to practice. </p><p>  Just like in the real game, some of the images in the practice will be ones you have seen before. </p><p>  Others will be entirely new. </p>","","0","instructions","","",""
"html-button-response","17","171119","0.0-10.0","5667","approach_avoid_sv1","""event"",""trial"",""time""
""fullscreenenter"",""1"",""1614""
","
","
","""event"",""trial"",""time""
""fullscreenenter"",""1"",""1614""
","
","","","","","","7294.199999999255","<p> Ready to practice? </p><p> Remember, use the 1, 2, 3, and 4 keys to make your responses. </p>","0","","instructions","","",""
"html-keyboard-response","18","171741","0.0-11.0-0.0","5667","approach_avoid_sv1","""event"",""trial"",""time""
""fullscreenenter"",""1"",""1614""
","
","
","""event"",""trial"",""time""
""fullscreenenter"",""1"",""1614""
","
","","","","","","null","<div style=""font-size:60px;"">+</div>","null","","fixation","","",""
"memory-trial","19","178432","0.0-11.0-1.0","5667","approach_avoid_sv1","""event"",""trial"",""time""
""fullscreenenter"",""1"",""1614""
","
","
","""event"",""trial"",""time""
""fullscreenenter"",""1"",""1614""
","
","","","","","","5672.699999999255","images/ball1.png","","","practice","2","maybe_old",""
"html-keyboard-response","20","178947","0.0-11.0-0.1","5667","approach_avoid_sv1","""event"",""trial"",""time""
""fullscreenenter"",""1"",""1614""
","
","
","""event"",""trial"",""time""
""fullscreenenter"",""1"",""1614""
","
","","","","","","null","<div style=""font-size:60px;"">+</div>","null","","fixation","","",""
"memory-trial","21","184966","0.0-11.0-1.1","5667","approach_avoid_sv1","""event"",""trial"",""time""
""fullscreenenter"",""1"",""1614""
","
","
","""event"",""trial"",""time""
""fullscreenenter"",""1"",""1614""
","
","","","","","","5002.699999999255","images/racket3.png","","","practice","2","maybe_old",""
"html-keyboard-response","22","185468","0.0-11.0-0.2","5667","approach_avoid_sv1","""event"",""trial"",""time""
""fullscreenenter"",""1"",""1614""
","
","
","""event"",""trial"",""time""
""fullscreenenter"",""1"",""1614""
","
","","","","","","null","<div style=""font-size:60px;"">+</div>","null","","fixation","","",""
"memory-trial","23","188566","0.0-11.0-1.2","5667","approach_avoid_sv1","""event"",""trial"",""time""
""fullscreenenter"",""1"",""1614""
","
","
","""event"",""trial"",""time""
""fullscreenenter"",""1"",""1614""
","
","","","","","","2089.5","images/racket1.png","","","practice","2","maybe_old",""
"html-keyboard-response","24","189081","0.0-11.0-0.3","5667","approach_avoid_sv1","""event"",""trial"",""time""
""fullscreenenter"",""1"",""1614""
","
","
","""event"",""trial"",""time""
""fullscreenenter"",""1"",""1614""
","
","","","","","","null","<div style=""font-size:60px;"">+</div>","null","","fixation","","",""
"memory-trial","25","192622","0.0-11.0-1.3","5667","approach_avoid_sv1","""event"",""trial"",""time""
""fullscreenenter"",""1"",""1614""
","
","
","""event"",""trial"",""time""
""fullscreenenter"",""1"",""1614""
","
","","","","","","2532.699999999255","images/racket2.png","","","practice","2","maybe_old",""
"html-keyboard-response","26","193124","0.0-11.0-0.4","5667","approach_avoid_sv1","""event"",""trial"",""time""
""fullscreenenter"",""1"",""1614""
","
","
","""event"",""trial"",""time""
""fullscreenenter"",""1"",""1614""
","
","","","","","","null","<div style=""font-size:60px;"">+</div>","null","","fixation","","",""
"memory-trial","27","202180","0.0-11.0-1.4","5667","approach_avoid_sv1","""event"",""trial"",""time""
""fullscreenenter"",""1"",""1614""
","
","
","""event"",""trial"",""time""
""fullscreenenter"",""1"",""1614""
","
","","","","","","8049","images/ball3.png","","","practice","1","definitely_old",""
"html-keyboard-response","28","202685","0.0-11.0-0.5","5667","approach_avoid_sv1","""event"",""trial"",""time""
""fullscreenenter"",""1"",""1614""
","
","
","""event"",""trial"",""time""
""fullscreenenter"",""1"",""1614""
","
","","","","","","null","<div style=""font-size:60px;"">+</div>","null","","fixation","","",""
"memory-trial","29","208199","0.0-11.0-1.5","5667","approach_avoid_sv1","""event"",""trial"",""time""
""fullscreenenter"",""1"",""1614""
","
","
","""event"",""trial"",""time""
""fullscreenenter"",""1"",""1614""
","
","","","","","","4504.0999999996275","images/ball5.png","","","practice","2","maybe_old",""
"html-keyboard-response","30","208701","0.0-11.0-0.6","5667","approach_avoid_sv1","""event"",""trial"",""time""
""fullscreenenter"",""1"",""1614""
","
","
","""event"",""trial"",""time""
""fullscreenenter"",""1"",""1614""
","
","","","","","","null","<div style=""font-size:60px;"">+</div>","null","","fixation","","",""
"memory-trial","31","212228","0.0-11.0-1.6","5667","approach_avoid_sv1","""event"",""trial"",""time""
""fullscreenenter"",""1"",""1614""
","
","
","""event"",""trial"",""time""
""fullscreenenter"",""1"",""1614""
","
","","","","","","2520.199999999255","images/racket5.png","","","practice","2","maybe_old",""
"html-keyboard-response","32","212733","0.0-11.0-0.7","5667","approach_avoid_sv1","""event"",""trial"",""time""
""fullscreenenter"",""1"",""1614""
","
","
","""event"",""trial"",""time""
""fullscreenenter"",""1"",""1614""
","
","","","","","","null","<div style=""font-size:60px;"">+</div>","null","","fixation","","",""
"memory-trial","33","215388","0.0-11.0-1.7","5667","approach_avoid_sv1","""event"",""trial"",""time""
""fullscreenenter"",""1"",""1614""
","
","
","""event"",""trial"",""time""
""fullscreenenter"",""1"",""1614""
","
","","","","","","1648.4000000003725","images/ball2.png","","","practice","3","maybe_new",""
"learning-instructions","34","225359","0.0-12.0-0.0","5667","approach_avoid_sv1","""event"",""trial"",""time""
""fullscreenenter"",""1"",""1614""
","
","
","""event"",""trial"",""time""
""fullscreenenter"",""1"",""1614""
","
","","","","","","2647","<p> Great! You have completed the practice. </p><p> Before you start, we're going to ask you a few questions about how the game works.  </p>","","0","instructions","","",""
"preload","35","232845","0.0-13.0","5667","approach_avoid_sv1","""event"",""trial"",""time""
""fullscreenenter"",""1"",""1614""
","
","
","""event"",""trial"",""time""
""fullscreenenter"",""1"",""1614""
","
","true","false","[]","[]","[]","","","","","","","",""
"comp-q","36","242007","0.0-14.0-0.0","5667","approach_avoid_sv1","""event"",""trial"",""time""
""fullscreenenter"",""1"",""1614""
","
","
","""event"",""trial"",""time""
""fullscreenenter"",""1"",""1614""
","
","","","","","","3335.4000000003725","<p> <b> True or False? </b> </p><p> In this game, you will only see each image once. </p>","","0","comp_question","","","true"
"comp-q","37","256672","0.0-14.0-1.0","5667","approach_avoid_sv1","""event"",""trial"",""time""
""fullscreenenter"",""1"",""1614""
","
","
","""event"",""trial"",""time""
""fullscreenenter"",""1"",""1614""
","
","","","","","","8339.700000001118","<p> <b> That's right! </b> You will see many different images <i> one time each </i> in this game. </p>","","0","comp_answer","","",""
"comp-q","38","263127","0.0-15.0-0.0","5667","approach_avoid_sv1","""event"",""trial"",""time""
""fullscreenenter"",""1"",""1614""
","
","
","""event"",""trial"",""time""
""fullscreenenter"",""1"",""1614""
","
","","","","","","1445.4000000003725","<p> <b> True or False? </b> </p><p> You should use the mouse and click to make your response. </p>","","1","comp_question","","","true"
"comp-q","39","271431","0.0-15.0-1.0","5667","approach_avoid_sv1","""event"",""trial"",""time""
""fullscreenenter"",""1"",""1614""
","
","
","""event"",""trial"",""time""
""fullscreenenter"",""1"",""1614""
","
","","","","","","1799.4000000003725","<p><b> That's right! </b> You should use the '1', '2', '3', and '4' keys to make your response. </p>","","0","comp_answer","","",""
"comp-q","40","278728","0.0-16.0-0.0","5667","approach_avoid_sv1","""event"",""trial"",""time""
""fullscreenenter"",""1"",""1614""
","
","
","""event"",""trial"",""time""
""fullscreenenter"",""1"",""1614""
","
","","","","","","1615.7999999988824","<p> <b> True or False? </b> </p><p> You will have as much time as you want to make each choice. </p>","","1","comp_question","","","true"
"comp-q","41","286591","0.0-16.0-1.0","5667","approach_avoid_sv1","""event"",""trial"",""time""
""fullscreenenter"",""1"",""1614""
","
","
","""event"",""trial"",""time""
""fullscreenenter"",""1"",""1614""
","
","","","","","","3159.300000000745","<p> <b> That's right! </b> You will only have 10 seconds to make each choice. </p>","","0","comp_answer","","",""
"learning-instructions","42","297031","0.0-17.0","5667","approach_avoid_sv1","""event"",""trial"",""time""
""fullscreenenter"",""1"",""1614""
","
","
","""event"",""trial"",""time""
""fullscreenenter"",""1"",""1614""
","
","","","","","","1769.5999999996275","<p> Great! You are now ready to begin the game. </p><p> Remember, use the 1, 2, 3, and 4 keys to make your responses. </p>","","0","instructions","","",""
"html-keyboard-response","43","297651","0.0-18.0-0.0","5667","approach_avoid_sv1","""event"",""trial"",""time""
""fullscreenenter"",""1"",""1614""
","
","
","""event"",""trial"",""time""
""fullscreenenter"",""1"",""1614""
","
","","","","","","null","<div style=""font-size:60px;"">+</div>","null","","fixation","","",""
"memory-trial","44","302514","0.0-18.0-1.0","5667","approach_avoid_sv1","""event"",""trial"",""time""
""fullscreenenter"",""1"",""1614""
","
","
","""event"",""trial"",""time""
""fullscreenenter"",""1"",""1614""
","
","","","","","","3842.2000000011176","images/truck3.png","","","memory_trial","1","definitely_old",""
"html-keyboard-response","45","303030","0.0-18.0-0.1","5667","approach_avoid_sv1","""event"",""trial"",""time""
""fullscreenenter"",""1"",""1614""
","
","
","""event"",""trial"",""time""
""fullscreenenter"",""1"",""1614""
","
","","","","","","null","<div style=""font-size:60px;"">+</div>","null","","fixation","","",""
"memory-trial","46","308933","0.0-18.0-1.1","5667","approach_avoid_sv1","""event"",""trial"",""time""
""fullscreenenter"",""1"",""1614""
","
","
","""event"",""trial"",""time""
""fullscreenenter"",""1"",""1614""
","
","","","","","","4895.299999998882","images/cactus7.png","","","memory_trial","4","definitely_new",""
"html-keyboard-response","47","309449","0.0-18.0-0.2","5667","approach_avoid_sv1","""event"",""trial"",""time""
""fullscreenenter"",""1"",""1614""
","
","
","""event"",""trial"",""time""
""fullscreenenter"",""1"",""1614""
","
","","","","","","null","<div style=""font-size:60px;"">+</div>","null","","fixation","","",""
"memory-trial","48","312938","0.0-18.0-1.2","5667","approach_avoid_sv1","""event"",""trial"",""time""
""fullscreenenter"",""1"",""1614""
","
","
","""event"",""trial"",""time""
""fullscreenenter"",""1"",""1614""
","
","","","","","","2476","images/cow4.png","","","memory_trial","4","definitely_new",""
"html-keyboard-response","49","313454","0.0-18.0-0.3","5667","approach_avoid_sv1","""event"",""trial"",""time""
""fullscreenenter"",""1"",""1614""
","
","
","""event"",""trial"",""time""
""fullscreenenter"",""1"",""1614""
","
","","","","","","null","<div style=""font-size:60px;"">+</div>","null","","fixation","","",""
"memory-trial","50","317419","0.0-18.0-1.3","5667","approach_avoid_sv1","""event"",""trial"",""time""
""fullscreenenter"",""1"",""1614""
","
","
","""event"",""trial"",""time""
""fullscreenenter"",""1"",""1614""
","
","","","","","","2943.5999999996275","images/table4.png","","","memory_trial","4","definitely_new",""
"html-keyboard-response","51","317937","0.0-18.0-0.4","5667","approach_avoid_sv1","""event"",""trial"",""time""
""fullscreenenter"",""1"",""1614""
","
","
","""event"",""trial"",""time""
""fullscreenenter"",""1"",""1614""
","
","","","","","","null","<div style=""font-size:60px;"">+</div>","null","","fixation","","",""
"memory-trial","52","321961","0.0-18.0-1.4","5667","approach_avoid_sv1","""event"",""trial"",""time""
""fullscreenenter"",""1"",""1614""
","
","
","""event"",""trial"",""time""
""fullscreenenter"",""1"",""1614""
","
","","","","","","3004.0999999996275","images/apple4.png","","","memory_trial","3","maybe_new",""
"html-keyboard-response","53","322479","0.0-18.0-0.5","5667","approach_avoid_sv1","""event"",""trial"",""time""
""fullscreenenter"",""1"",""1614""
","
","
","""event"",""trial"",""time""
""fullscreenenter"",""1"",""1614""
","
","","","","","","null","<div style=""font-size:60px;"">+</div>","null","","fixation","","",""
"memory-trial","54","325460","0.0-18.0-1.5","5667","approach_avoid_sv1","""event"",""trial"",""time""
""fullscreenenter"",""1"",""1614""
","
","
","""event"",""trial"",""time""
""fullscreenenter"",""1"",""1614""
","
","","","","","","1974.0999999996275","images/tree7.png","","","memory_trial","4","definitely_new",""
"html-keyboard-response","55","325964","0.0-18.0-0.6","5667","approach_avoid_sv1","""event"",""trial"",""time""
""fullscreenenter"",""1"",""1614""
","
","
","""event"",""trial"",""time""
""fullscreenenter"",""1"",""1614""
","
","","","","","","null","<div style=""font-size:60px;"">+</div>","null","","fixation","","",""
"memory-trial","56","329460","0.0-18.0-1.6","5667","approach_avoid_sv1","""event"",""trial"",""time""
""fullscreenenter"",""1"",""1614""
","
","
","""event"",""trial"",""time""
""fullscreenenter"",""1"",""1614""
","
","","","","","","2488.800000000745","images/boat4.png","","","memory_trial","2","maybe_old",""
"html-keyboard-response","57","329965","0.0-18.0-0.7","5667","approach_avoid_sv1","""event"",""trial"",""time""
""fullscreenenter"",""1"",""1614""
","
","
","""event"",""trial"",""time""
""fullscreenenter"",""1"",""1614""
","
","","","","","","null","<div style=""font-size:60px;"">+</div>","null","","fixation","","",""
"memory-trial","58","335253","0.0-18.0-1.7","5667","approach_avoid_sv1","""event"",""trial"",""time""
""fullscreenenter"",""1"",""1614""
","
","
","""event"",""trial"",""time""
""fullscreenenter"",""1"",""1614""
","
","","","","","","4280.800000000745","images/sheep8.png","","","memory_trial","1","definitely_old",""
"html-keyboard-response","59","335757","0.0-18.0-0.8","5667","approach_avoid_sv1","""event"",""trial"",""time""
""fullscreenenter"",""1"",""1614""
","
","
","""event"",""trial"",""time""
""fullscreenenter"",""1"",""1614""
","
","","","","","","null","<div style=""font-size:60px;"">+</div>","null","","fixation","","",""
"memory-trial","60","338701","0.0-18.0-1.8","5667","approach_avoid_sv1","""event"",""trial"",""time""
""fullscreenenter"",""1"",""1614""
","
","
","""event"",""trial"",""time""
""fullscreenenter"",""1"",""1614""
","
","","","","","","1936.5","images/orange3.png","","","memory_trial","2","maybe_old",""
"html-keyboard-response","61","339205","0.0-18.0-0.9","5667","approach_avoid_sv1","""event"",""trial"",""time""
""fullscreenenter"",""1"",""1614""
","
","
","""event"",""trial"",""time""
""fullscreenenter"",""1"",""1614""
","
","","","","","","null","<div style=""font-size:60px;"">+</div>","null","","fixation","","",""
"memory-trial","62","341956","0.0-18.0-1.9","5667","approach_avoid_sv1","""event"",""trial"",""time""
""fullscreenenter"",""1"",""1614""
","
","
","""event"",""trial"",""time""
""fullscreenenter"",""1"",""1614""
","
","","","","","","1744.7000000011176","images/sofa7.png","","","memory_trial","1","definitely_old",""
"html-keyboard-response","63","342460","0.0-18.0-0.10","5667","approach_avoid_sv1","""event"",""trial"",""time""
""fullscreenenter"",""1"",""1614""
","
","
","""event"",""trial"",""time""
""fullscreenenter"",""1"",""1614""
","
","","","","","","null","<div style=""font-size:60px;"">+</div>","null","","fixation","","",""
"memory-trial","64","344197","0.0-18.0-1.10","5667","approach_avoid_sv1","""event"",""trial"",""time""
""fullscreenenter"",""1"",""1614""
","
","
","""event"",""trial"",""time""
""fullscreenenter"",""1"",""1614""
","
","","","","","","729","images/sofa4.png","","","memory_trial","1","definitely_old",""
"html-keyboard-response","65","344702","0.0-18.0-0.11","5667","approach_avoid_sv1","""event"",""trial"",""time""
""fullscreenenter"",""1"",""1614""
","
","
","""event"",""trial"",""time""
""fullscreenenter"",""1"",""1614""
","
","","","","","","null","<div style=""font-size:60px;"">+</div>","null","","fixation","","",""
"memory-trial","66","347542","0.0-18.0-1.11","5667","approach_avoid_sv1","""event"",""trial"",""time""
""fullscreenenter"",""1"",""1614""
","
","
","""event"",""trial"",""time""
""fullscreenenter"",""1"",""1614""
","
","","","","","","1832.199999999255","images/plane1.png","","","memory_trial","1","definitely_old",""
"html-keyboard-response","67","348045","0.0-18.0-0.12","5667","approach_avoid_sv1","""event"",""trial"",""time""
""fullscreenenter"",""1"",""1614""
","
","
","""event"",""trial"",""time""
""fullscreenenter"",""1"",""1614""
","
","","","","","","null","<div style=""font-size:60px;"">+</div>","null","","fixation","","",""
"memory-trial","68","350069","0.0-18.0-1.12","5667","approach_avoid_sv1","""event"",""trial"",""time""
""fullscreenenter"",""1"",""1614""
","
","
","""event"",""trial"",""time""
""fullscreenenter"",""1"",""1614""
","
","","","","","","1017","images/boat8.png","","","memory_trial","1","definitely_old",""
"html-keyboard-response","69","350573","0.0-18.0-0.13","5667","approach_avoid_sv1","""event"",""trial"",""time""
""fullscreenenter"",""1"",""1614""
","
","
","""event"",""trial"",""time""
""fullscreenenter"",""1"",""1614""
","
","","","","","","null","<div style=""font-size:60px;"">+</div>","null","","fixation","","",""
"memory-trial","70","360581","0.0-18.0-1.13","5667","approach_avoid_sv1","""event"",""trial"",""time""
""fullscreenenter"",""1"",""1614""
","
","
","""event"",""trial"",""time""
""fullscreenenter"",""1"",""1614""
","
","","","","","","null","images/cow8.png","","","memory_trial","null","null",""
"html-keyboard-response","71","361085","0.0-18.0-0.14","5667","approach_avoid_sv1","""event"",""trial"",""time""
""fullscreenenter"",""1"",""1614""
","
","
","""event"",""trial"",""time""
""fullscreenenter"",""1"",""1614""
","
","","","","","","null","<div style=""font-size:60px;"">+</div>","null","","fixation","","",""
"memory-trial","72","365293","0.0-18.0-1.14","5667","approach_avoid_sv1","""event"",""trial"",""time""
""fullscreenenter"",""1"",""1614""
","
","
","""event"",""trial"",""time""
""fullscreenenter"",""1"",""1614""
","
","","","","","","3200.5","images/bush7.png","","","memory_trial","2","maybe_old",""
"html-keyboard-response","73","365797","0.0-18.0-0.15","5667","approach_avoid_sv1","""event"",""trial"",""time""
""fullscreenenter"",""1"",""1614""
","
","
","""event"",""trial"",""time""
""fullscreenenter"",""1"",""1614""
","
","","","","","","null","<div style=""font-size:60px;"">+</div>","null","","fixation","","",""
"memory-trial","74","368286","0.0-18.0-1.15","5667","approach_avoid_sv1","""event"",""trial"",""time""
""fullscreenenter"",""1"",""1614""
","
","
","""event"",""trial"",""time""
""fullscreenenter"",""1"",""1614""
","
","","","","","","1481.7000000011176","images/straw1.png","","","memory_trial","3","maybe_new",""
"html-keyboard-response","75","368788","0.0-18.0-0.16","5667","approach_avoid_sv1","""event"",""trial"",""time""
""fullscreenenter"",""1"",""1614""
","
","
","""event"",""trial"",""time""
""fullscreenenter"",""1"",""1614""
","
","","","","","","null","<div style=""font-size:60px;"">+</div>","null","","fixation","","",""
"memory-trial","76","373325","0.0-18.0-1.16","5667","approach_avoid_sv1","""event"",""trial"",""time""
""fullscreenenter"",""1"",""1614""
","
","
","""event"",""trial"",""time""
""fullscreenenter"",""1"",""1614""
","
","","","","","","3530.199999999255","images/chair2.png","","","memory_trial","1","definitely_old",""
"html-keyboard-response","77","373829","0.0-18.0-0.17","5667","approach_avoid_sv1","""event"",""trial"",""time""
""fullscreenenter"",""1"",""1614""
","
","
","""event"",""trial"",""time""
""fullscreenenter"",""1"",""1614""
","
","","","","","","null","<div style=""font-size:60px;"">+</div>","null","","fixation","","",""
"memory-trial","78","377829","0.0-18.0-1.17","5667","approach_avoid_sv1","""event"",""trial"",""time""
""fullscreenenter"",""1"",""1614""
","
","
","""event"",""trial"",""time""
""fullscreenenter"",""1"",""1614""
","
","","","","","","2993.199999999255","images/rabbit3.png","","","memory_trial","4","definitely_new",""
"html-keyboard-response","79","378336","0.0-18.0-0.18","5667","approach_avoid_sv1","""event"",""trial"",""time""
""fullscreenenter"",""1"",""1614""
","
","
","""event"",""trial"",""time""
""fullscreenenter"",""1"",""1614""
","
","","","","","","null","<div style=""font-size:60px;"">+</div>","null","","fixation","","",""
"memory-trial","80","380877","0.0-18.0-1.18","5667","approach_avoid_sv1","""event"",""trial"",""time""
""fullscreenenter"",""1"",""1614""
","
","
","""event"",""trial"",""time""
""fullscreenenter"",""1"",""1614""
","
","","","","","","1534.300000000745","images/bush1.png","","","memory_trial","4","definitely_new",""
"html-keyboard-response","81","381381","0.0-18.0-0.19","5667","approach_avoid_sv1","""event"",""trial"",""time""
""fullscreenenter"",""1"",""1614""
","
","
","""event"",""trial"",""time""
""fullscreenenter"",""1"",""1614""
","
","","","","","","null","<div style=""font-size:60px;"">+</div>","null","","fixation","","",""
"memory-trial","82","384941","0.0-18.0-1.19","5667","approach_avoid_sv1","""event"",""trial"",""time""
""fullscreenenter"",""1"",""1614""
","
","
","""event"",""trial"",""time""
""fullscreenenter"",""1"",""1614""
","
","","","","","","2553.5","images/plane4.png","","","memory_trial","1","definitely_old",""
"html-keyboard-response","83","385445","0.0-18.0-0.20","5667","approach_avoid_sv1","""event"",""trial"",""time""
""fullscreenenter"",""1"",""1614""
","
","
","""event"",""trial"",""time""
""fullscreenenter"",""1"",""1614""
","
","","","","","","null","<div style=""font-size:60px;"">+</div>","null","","fixation","","",""
"memory-trial","84","389894","0.0-18.0-1.20","5667","approach_avoid_sv1","""event"",""trial"",""time""
""fullscreenenter"",""1"",""1614""
","
","
","""event"",""trial"",""time""
""fullscreenenter"",""1"",""1614""
","
","","","","","","3441.39999999851","images/plane5.png","","","memory_trial","1","definitely_old",""
"html-keyboard-response","85","390397","0.0-18.0-0.21","5667","approach_avoid_sv1","""event"",""trial"",""time""
""fullscreenenter"",""1"",""1614""
","
","
","""event"",""trial"",""time""
""fullscreenenter"",""1"",""1614""
","
","","","","","","null","<div style=""font-size:60px;"">+</div>","null","","fixation","","",""
"memory-trial","86","394765","0.0-18.0-1.21","5667","approach_avoid_sv1","""event"",""trial"",""time""
""fullscreenenter"",""1"",""1614""
","
","
","""event"",""trial"",""time""
""fullscreenenter"",""1"",""1614""
","
","","","","","","3360.800000000745","images/cactus5.png","","","memory_trial","1","definitely_old",""
"html-keyboard-response","87","395269","0.0-18.0-0.22","5667","approach_avoid_sv1","""event"",""trial"",""time""
""fullscreenenter"",""1"",""1614""
","
","
","""event"",""trial"",""time""
""fullscreenenter"",""1"",""1614""
","
","","","","","","null","<div style=""font-size:60px;"">+</div>","null","","fixation","","",""
"memory-trial","88","401435","0.0-18.0-1.22","5667","approach_avoid_sv1","""event"",""trial"",""time""
""fullscreenenter"",""1"",""1614""
","
","
","""event"",""trial"",""time""
""fullscreenenter"",""1"",""1614""
","
","","","","","","5145.4000000003725","images/rodent7.png","","","memory_trial","4","definitely_new",""
"html-keyboard-response","89","401941","0.0-18.0-0.23","5667","approach_avoid_sv1","""event"",""trial"",""time""
""fullscreenenter"",""1"",""1614""
","
","
","""event"",""trial"",""time""
""fullscreenenter"",""1"",""1614""
","
","","","","","","null","<div style=""font-size:60px;"">+</div>","null","","fixation","","",""
"memory-trial","90","406638","0.0-18.0-1.23","5667","approach_avoid_sv1","""event"",""trial"",""time""
""fullscreenenter"",""1"",""1614""
","
","
","""event"",""trial"",""time""
""fullscreenenter"",""1"",""1614""
","
","","","","","","3688.5999999996275","images/banana8.png","","","memory_trial","3","maybe_new",""
"html-keyboard-response","91","407142","0.0-18.0-0.24","5667","approach_avoid_sv1","""event"",""trial"",""time""
""fullscreenenter"",""1"",""1614""
","
","
","""event"",""trial"",""time""
""fullscreenenter"",""1"",""1614""
","
","","","","","","null","<div style=""font-size:60px;"">+</div>","null","","fixation","","",""
"memory-trial","92","412781","0.0-18.0-1.24","5667","approach_avoid_sv1","""event"",""trial"",""time""
""fullscreenenter"",""1"",""1614""
","
","
","""event"",""trial"",""time""
""fullscreenenter"",""1"",""1614""
","
","","","","","","4631.9000000003725","images/table7.png","","","memory_trial","1","definitely_old",""
"html-keyboard-response","93","413285","0.0-18.0-0.25","5667","approach_avoid_sv1","""event"",""trial"",""time""
""fullscreenenter"",""1"",""1614""
","
","
","""event"",""trial"",""time""
""fullscreenenter"",""1"",""1614""
","
","","","","","","null","<div style=""font-size:60px;"">+</div>","null","","fixation","","",""
"memory-trial","94","417669","0.0-18.0-1.25","5667","approach_avoid_sv1","""event"",""trial"",""time""
""fullscreenenter"",""1"",""1614""
","
","
","""event"",""trial"",""time""
""fullscreenenter"",""1"",""1614""
","
","","","","","","3376.4000000003725","images/dog1.png","","","memory_trial","4","definitely_new",""
"html-keyboard-response","95","418182","0.0-18.0-0.26","5667","approach_avoid_sv1","""event"",""trial"",""time""
""fullscreenenter"",""1"",""1614""
","
","
","""event"",""trial"",""time""
""fullscreenenter"",""1"",""1614""
","
","","","","","","null","<div style=""font-size:60px;"">+</div>","null","","fixation","","",""
"memory-trial","96","428189","0.0-18.0-1.26","5667","approach_avoid_sv1","""event"",""trial"",""time""
""fullscreenenter"",""1"",""1614""
","
","
","""event"",""trial"",""time""
""fullscreenenter"",""1"",""1614""
","
","","","","","","9991.799999998882","images/truck1.png","","","memory_trial","2","maybe_old",""
"html-keyboard-response","97","428693","0.0-18.0-0.27","5667","approach_avoid_sv1","""event"",""trial"",""time""
""fullscreenenter"",""1"",""1614""
","
","
","""event"",""trial"",""time""
""fullscreenenter"",""1"",""1614""
","
","","","","","","null","<div style=""font-size:60px;"">+</div>","null","","fixation","","",""
"memory-trial","98","432358","0.0-18.0-1.27","5667","approach_avoid_sv1","""event"",""trial"",""time""
""fullscreenenter"",""1"",""1614""
","
","
","""event"",""trial"",""time""
""fullscreenenter"",""1"",""1614""
","
","","","","","","2656.300000000745","images/orange4.png","","","memory_trial","1","definitely_old",""
"html-keyboard-response","99","432861","0.0-18.0-0.28","5667","approach_avoid_sv1","""event"",""trial"",""time""
""fullscreenenter"",""1"",""1614""
","
","
","""event"",""trial"",""time""
""fullscreenenter"",""1"",""1614""
","
","","","","","","null","<div style=""font-size:60px;"">+</div>","null","","fixation","","",""
"memory-trial","100","440781","0.0-18.0-1.28","5667","approach_avoid_sv1","""event"",""trial"",""time""
""fullscreenenter"",""1"",""1614""
","
","
","""event"",""trial"",""time""
""fullscreenenter"",""1"",""1614""
","
","","","","","","6913.199999999255","images/tree1.png","","","memory_trial","3","maybe_new",""
"html-keyboard-response","101","441285","0.0-18.0-0.29","5667","approach_avoid_sv1","""event"",""trial"",""time""
""fullscreenenter"",""1"",""1614""
","
","
","""event"",""trial"",""time""
""fullscreenenter"",""1"",""1614""
","
","","","","","","null","<div style=""font-size:60px;"">+</div>","null","","fixation","","",""
"memory-trial","102","445901","0.0-18.0-1.29","5667","approach_avoid_sv1","""event"",""trial"",""time""
""fullscreenenter"",""1"",""1614""
","
","
","""event"",""trial"",""time""
""fullscreenenter"",""1"",""1614""
","
","","","","","","3608.5999999996275","images/table1.png","","","memory_trial","1","definitely_old",""
"html-keyboard-response","103","446405","0.0-18.0-0.30","5667","approach_avoid_sv1","""event"",""trial"",""time""
""fullscreenenter"",""1"",""1614""
","
","
","""event"",""trial"",""time""
""fullscreenenter"",""1"",""1614""
","
","","","","","","null","<div style=""font-size:60px;"">+</div>","null","","fixation","","",""
"memory-trial","104","451061","0.0-18.0-1.30","5667","approach_avoid_sv1","""event"",""trial"",""time""
""fullscreenenter"",""1"",""1614""
","
","
","""event"",""trial"",""time""
""fullscreenenter"",""1"",""1614""
","
","","","","","","3648.7999999988824","images/tree4.png","","","memory_trial","4","definitely_new",""
"html-keyboard-response","105","451565","0.0-18.0-0.31","5667","approach_avoid_sv1","""event"",""trial"",""time""
""fullscreenenter"",""1"",""1614""
","
","
","""event"",""trial"",""time""
""fullscreenenter"",""1"",""1614""
","
","","","","","","null","<div style=""font-size:60px;"">+</div>","null","","fixation","","",""
"memory-trial","106","458301","0.0-18.0-1.31","5667","approach_avoid_sv1","""event"",""trial"",""time""
""fullscreenenter"",""1"",""1614""
","
","
","""event"",""trial"",""time""
""fullscreenenter"",""1"",""1614""
","
","","","","","","5729","images/orange8.png","","","memory_trial","1","definitely_old",""
"html-keyboard-response","107","458805","0.0-18.0-0.32","5667","approach_avoid_sv1","""event"",""trial"",""time""
""fullscreenenter"",""1"",""1614""
","
","
","""event"",""trial"",""time""
""fullscreenenter"",""1"",""1614""
","
","","","","","","null","<div style=""font-size:60px;"">+</div>","null","","fixation","","",""
"memory-trial","108","464606","0.0-18.0-1.32","5667","approach_avoid_sv1","""event"",""trial"",""time""
""fullscreenenter"",""1"",""1614""
","
","
","""event"",""trial"",""time""
""fullscreenenter"",""1"",""1614""
","
","","","","","","4793.300000000745","images/rodent2.png","","","memory_trial","1","definitely_old",""
"html-keyboard-response","109","465109","0.0-18.0-0.33","5667","approach_avoid_sv1","""event"",""trial"",""time""
""fullscreenenter"",""1"",""1614""
","
","
","""event"",""trial"",""time""
""fullscreenenter"",""1"",""1614""
","
","","","","","","null","<div style=""font-size:60px;"">+</div>","null","","fixation","","",""
"memory-trial","110","470717","0.0-18.0-1.33","5667","approach_avoid_sv1","""event"",""trial"",""time""
""fullscreenenter"",""1"",""1614""
","
","
","""event"",""trial"",""time""
""fullscreenenter"",""1"",""1614""
","
","","","","","","4601.0999999996275","images/tree3.png","","","memory_trial","1","definitely_old",""
"html-keyboard-response","111","471221","0.0-18.0-0.34","5667","approach_avoid_sv1","""event"",""trial"",""time""
""fullscreenenter"",""1"",""1614""
","
","
","""event"",""trial"",""time""
""fullscreenenter"",""1"",""1614""
","
","","","","","","null","<div style=""font-size:60px;"">+</div>","null","","fixation","","",""
"memory-trial","112","475981","0.0-18.0-1.34","5667","approach_avoid_sv1","""event"",""trial"",""time""
""fullscreenenter"",""1"",""1614""
","
","
","""event"",""trial"",""time""
""fullscreenenter"",""1"",""1614""
","
","","","","","","3753.199999999255","images/orange2.png","","","memory_trial","1","definitely_old",""
"html-keyboard-response","113","476485","0.0-18.0-0.35","5667","approach_avoid_sv1","""event"",""trial"",""time""
""fullscreenenter"",""1"",""1614""
","
","
","""event"",""trial"",""time""
""fullscreenenter"",""1"",""1614""
","
","","","","","","null","<div style=""font-size:60px;"">+</div>","null","","fixation","","",""
"memory-trial","114","481557","0.0-18.0-1.35","5667","approach_avoid_sv1","""event"",""trial"",""time""
""fullscreenenter"",""1"",""1614""
","
","
","""event"",""trial"",""time""
""fullscreenenter"",""1"",""1614""
","
","","","","","","4064.800000000745","images/cactus4.png","","","memory_trial","2","maybe_old",""
"html-keyboard-response","115","482061","0.0-18.0-0.36","5667","approach_avoid_sv1","""event"",""trial"",""time""
""fullscreenenter"",""1"",""1614""
","
","
","""event"",""trial"",""time""
""fullscreenenter"",""1"",""1614""
","
","","","","","","null","<div style=""font-size:60px;"">+</div>","null","","fixation","","",""
"memory-trial","116","490485","0.0-18.0-1.36","5667","approach_avoid_sv1","""event"",""trial"",""time""
""fullscreenenter"",""1"",""1614""
","
","
","""event"",""trial"",""time""
""fullscreenenter"",""1"",""1614""
","
","","","","","","7417.199999999255","images/rabbit6.png","","","memory_trial","2","maybe_old",""
"html-keyboard-response","117","490989","0.0-18.0-0.37","5667","approach_avoid_sv1","""event"",""trial"",""time""
""fullscreenenter"",""1"",""1614""
","
","
","""event"",""trial"",""time""
""fullscreenenter"",""1"",""1614""
","
","","","","","","null","<div style=""font-size:60px;"">+</div>","null","","fixation","","",""
"memory-trial","118","494341","0.0-18.0-1.37","5667","approach_avoid_sv1","""event"",""trial"",""time""
""fullscreenenter"",""1"",""1614""
","
","
","""event"",""trial"",""time""
""fullscreenenter"",""1"",""1614""
","
","","","","","","2344.5","images/orange5.png","","","memory_trial","2","maybe_old",""
"html-keyboard-response","119","494845","0.0-18.0-0.38","5667","approach_avoid_sv1","""event"",""trial"",""time""
""fullscreenenter"",""1"",""1614""
","
","
","""event"",""trial"",""time""
""fullscreenenter"",""1"",""1614""
","
","","","","","","null","<div style=""font-size:60px;"">+</div>","null","","fixation","","",""
"memory-trial","120","497036","0.0-18.0-1.38","5667","approach_avoid_sv1","""event"",""trial"",""time""
""fullscreenenter"",""1"",""1614""
","
","
","""event"",""trial"",""time""
""fullscreenenter"",""1"",""1614""
","
","","","","","","1184.9000000003725","images/rabbit7.png","","","memory_trial","3","maybe_new",""
"html-keyboard-response","121","497540","0.0-18.0-0.39","5667","approach_avoid_sv1","""event"",""trial"",""time""
""fullscreenenter"",""1"",""1614""
","
","
","""event"",""trial"",""time""
""fullscreenenter"",""1"",""1614""
","
","","","","","","null","<div style=""font-size:60px;"">+</div>","null","","fixation","","",""
"memory-trial","122","499421","0.0-18.0-1.39","5667","approach_avoid_sv1","""event"",""trial"",""time""
""fullscreenenter"",""1"",""1614""
","
","
","""event"",""trial"",""time""
""fullscreenenter"",""1"",""1614""
","
","","","","","","873.6000000014901","images/cow7.png","","","memory_trial","3","maybe_new",""
"html-keyboard-response","123","499925","0.0-18.0-0.40","5667","approach_avoid_sv1","""event"",""trial"",""time""
""fullscreenenter"",""1"",""1614""
","
","
","""event"",""trial"",""time""
""fullscreenenter"",""1"",""1614""
","
","","","","","","null","<div style=""font-size:60px;"">+</div>","null","","fixation","","",""
"memory-trial","124","504509","0.0-18.0-1.40","5667","approach_avoid_sv1","""event"",""trial"",""time""
""fullscreenenter"",""1"",""1614""
","
","
","""event"",""trial"",""time""
""fullscreenenter"",""1"",""1614""
","
","","","","","","3577.39999999851","images/straw4.png","","","memory_trial","3","maybe_new",""
"html-keyboard-response","125","505015","0.0-18.0-0.41","5667","approach_avoid_sv1","""event"",""trial"",""time""
""fullscreenenter"",""1"",""1614""
","
","
","""event"",""trial"",""time""
""fullscreenenter"",""1"",""1614""
","
","","","","","","null","<div style=""font-size:60px;"">+</div>","null","","fixation","","",""
"memory-trial","126","508844","0.0-18.0-1.41","5667","approach_avoid_sv1","""event"",""trial"",""time""
""fullscreenenter"",""1"",""1614""
","
","
","""event"",""trial"",""time""
""fullscreenenter"",""1"",""1614""
","
","","","","","","2822.9000000003725","images/rodent5.png","","","memory_trial","2","maybe_old",""
"html-button-response","127","587255","0.0-18.0-2.41-0.41","5667","approach_avoid_sv1","""event"",""trial"",""time""
""fullscreenenter"",""1"",""1614""
","
","
","""event"",""trial"",""time""
""fullscreenenter"",""1"",""1614""
","
","","","","","","78410.19999999925","<p> Take a break! </p><p> Click the button to continue. </p>","0","","break","","",""
"html-keyboard-response","128","587756","0.0-18.0-0.42","5667","approach_avoid_sv1","""event"",""trial"",""time""
""fullscreenenter"",""1"",""1614""
","
","
","""event"",""trial"",""time""
""fullscreenenter"",""1"",""1614""
","
","","","","","","null","<div style=""font-size:60px;"">+</div>","null","","fixation","","",""
"memory-trial","129","590628","0.0-18.0-1.42","5667","approach_avoid_sv1","""event"",""trial"",""time""
""fullscreenenter"",""1"",""1614""
","
","
","""event"",""trial"",""time""
""fullscreenenter"",""1"",""1614""
","
","","","","","","1864.800000000745","images/rodent8.png","","","memory_trial","2","maybe_old",""
"html-keyboard-response","130","591133","0.0-18.0-0.43","5667","approach_avoid_sv1","""event"",""trial"",""time""
""fullscreenenter"",""1"",""1614""
","
","
","""event"",""trial"",""time""
""fullscreenenter"",""1"",""1614""
","
","","","","","","null","<div style=""font-size:60px;"">+</div>","null","","fixation","","",""
"memory-trial","131","597388","0.0-18.0-1.43","5667","approach_avoid_sv1","""event"",""trial"",""time""
""fullscreenenter"",""1"",""1614""
","
","
","""event"",""trial"",""time""
""fullscreenenter"",""1"",""1614""
","
","","","","","","5249.10000000149","images/rabbit8.png","","","memory_trial","4","definitely_new",""
"html-keyboard-response","132","597892","0.0-18.0-0.44","5667","approach_avoid_sv1","""event"",""trial"",""time""
""fullscreenenter"",""1"",""1614""
","
","
","""event"",""trial"",""time""
""fullscreenenter"",""1"",""1614""
","
","","","","","","null","<div style=""font-size:60px;"">+</div>","null","","fixation","","",""
"memory-trial","133","601237","0.0-18.0-1.44","5667","approach_avoid_sv1","""event"",""trial"",""time""
""fullscreenenter"",""1"",""1614""
","
","
","""event"",""trial"",""time""
""fullscreenenter"",""1"",""1614""
","
","","","","","","2337","images/cat3.png","","","memory_trial","2","maybe_old",""
"html-keyboard-response","134","601740","0.0-18.0-0.45","5667","approach_avoid_sv1","""event"",""trial"",""time""
""fullscreenenter"",""1"",""1614""
","
","
","""event"",""trial"",""time""
""fullscreenenter"",""1"",""1614""
","
","","","","","","null","<div style=""font-size:60px;"">+</div>","null","","fixation","","",""
"memory-trial","135","605604","0.0-18.0-1.45","5667","approach_avoid_sv1","""event"",""trial"",""time""
""fullscreenenter"",""1"",""1614""
","
","
","""event"",""trial"",""time""
""fullscreenenter"",""1"",""1614""
","
","","","","","","2857.4000000003725","images/apple2.png","","","memory_trial","3","maybe_new",""
"html-keyboard-response","136","606108","0.0-18.0-0.46","5667","approach_avoid_sv1","""event"",""trial"",""time""
""fullscreenenter"",""1"",""1614""
","
","
","""event"",""trial"",""time""
""fullscreenenter"",""1"",""1614""
","
","","","","","","null","<div style=""font-size:60px;"">+</div>","null","","fixation","","",""
"memory-trial","137","609573","0.0-18.0-1.46","5667","approach_avoid_sv1","""event"",""trial"",""time""
""fullscreenenter"",""1"",""1614""
","
","
","""event"",""trial"",""time""
""fullscreenenter"",""1"",""1614""
","
","","","","","","2456.9000000003725","images/chair5.png","","","memory_trial","1","definitely_old",""
"html-keyboard-response","138","610076","0.0-18.0-0.47","5667","approach_avoid_sv1","""event"",""trial"",""time""
""fullscreenenter"",""1"",""1614""
","
","
","""event"",""trial"",""time""
""fullscreenenter"",""1"",""1614""
","
","","","","","","null","<div style=""font-size:60px;"">+</div>","null","","fixation","","",""
"memory-trial","139","613461","0.0-18.0-1.47","5667","approach_avoid_sv1","""event"",""trial"",""time""
""fullscreenenter"",""1"",""1614""
","
","
","""event"",""trial"",""time""
""fullscreenenter"",""1"",""1614""
","
","","","","","","2378","images/truck4.png","","","memory_trial","2","maybe_old",""
"html-keyboard-response","140","613964","0.0-18.0-0.48","5667","approach_avoid_sv1","""event"",""trial"",""time""
""fullscreenenter"",""1"",""1614""
","
","
","""event"",""trial"",""time""
""fullscreenenter"",""1"",""1614""
","
","","","","","","null","<div style=""font-size:60px;"">+</div>","null","","fixation","","",""
"memory-trial","141","619092","0.0-18.0-1.48","5667","approach_avoid_sv1","""event"",""trial"",""time""
""fullscreenenter"",""1"",""1614""
","
","
","""event"",""trial"",""time""
""fullscreenenter"",""1"",""1614""
","
","","","","","","4121.0999999996275","images/chair6.png","","","memory_trial","2","maybe_old",""
"html-keyboard-response","142","619596","0.0-18.0-0.49","5667","approach_avoid_sv1","""event"",""trial"",""time""
""fullscreenenter"",""1"",""1614""
","
","
","""event"",""trial"",""time""
""fullscreenenter"",""1"",""1614""
","
","","","","","","null","<div style=""font-size:60px;"">+</div>","null","","fixation","","",""
"memory-trial","143","624205","0.0-18.0-1.49","5667","approach_avoid_sv1","""event"",""trial"",""time""
""fullscreenenter"",""1"",""1614""
","
","
","""event"",""trial"",""time""
""fullscreenenter"",""1"",""1614""
","
","","","","","","3600.89999999851","images/table5.png","","","memory_trial","2","maybe_old",""
"html-keyboard-response","144","624708","0.0-18.0-0.50","5667","approach_avoid_sv1","""event"",""trial"",""time""
""fullscreenenter"",""1"",""1614""
","
","
","""event"",""trial"",""time""
""fullscreenenter"",""1"",""1614""
","
","","","","","","null","<div style=""font-size:60px;"">+</div>","null","","fixation","","",""
"memory-trial","145","626109","0.0-18.0-1.50","5667","approach_avoid_sv1","""event"",""trial"",""time""
""fullscreenenter"",""1"",""1614""
","
","
","""event"",""trial"",""time""
""fullscreenenter"",""1"",""1614""
","
","","","","","","392.6000000014901","images/straw3.png","","","memory_trial","2","maybe_old",""
"html-keyboard-response","146","626613","0.0-18.0-0.51","5667","approach_avoid_sv1","""event"",""trial"",""time""
""fullscreenenter"",""1"",""1614""
","
","
","""event"",""trial"",""time""
""fullscreenenter"",""1"",""1614""
","
","","","","","","null","<div style=""font-size:60px;"">+</div>","null","","fixation","","",""
"memory-trial","147","631261","0.0-18.0-1.51","5667","approach_avoid_sv1","""event"",""trial"",""time""
""fullscreenenter"",""1"",""1614""
","
","
","""event"",""trial"",""time""
""fullscreenenter"",""1"",""1614""
","
","","","","","","3641.300000000745","images/cow1.png","","","memory_trial","2","maybe_old",""
"html-keyboard-response","148","631765","0.0-18.0-0.52","5667","approach_avoid_sv1","""event"",""trial"",""time""
""fullscreenenter"",""1"",""1614""
","
","
","""event"",""trial"",""time""
""fullscreenenter"",""1"",""1614""
","
","","","","","","null","<div style=""font-size:60px;"">+</div>","null","","fixation","","",""
"memory-trial","149","637116","0.0-18.0-1.52","5667","approach_avoid_sv1","""event"",""trial"",""time""
""fullscreenenter"",""1"",""1614""
","
","
","""event"",""trial"",""time""
""fullscreenenter"",""1"",""1614""
","
","","","","","","4344.5999999996275","images/bush8.png","","","memory_trial","2","maybe_old",""
"html-keyboard-response","150","637620","0.0-18.0-0.53","5667","approach_avoid_sv1","""event"",""trial"",""time""
""fullscreenenter"",""1"",""1614""
","
","
","""event"",""trial"",""time""
""fullscreenenter"",""1"",""1614""
","
","","","","","","null","<div style=""font-size:60px;"">+</div>","null","","fixation","","",""
"memory-trial","151","639565","0.0-18.0-1.53","5667","approach_avoid_sv1","""event"",""trial"",""time""
""fullscreenenter"",""1"",""1614""
","
","
","""event"",""trial"",""time""
""fullscreenenter"",""1"",""1614""
","
","","","","","","937","images/dog8.png","","","memory_trial","2","maybe_old",""
"html-keyboard-response","152","640069","0.0-18.0-0.54","5667","approach_avoid_sv1","""event"",""trial"",""time""
""fullscreenenter"",""1"",""1614""
","
","
","""event"",""trial"",""time""
""fullscreenenter"",""1"",""1614""
","
","","","","","","null","<div style=""font-size:60px;"">+</div>","null","","fixation","","",""
"memory-trial","153","641949","0.0-18.0-1.54","5667","approach_avoid_sv1","""event"",""trial"",""time""
""fullscreenenter"",""1"",""1614""
","
","
","""event"",""trial"",""time""
""fullscreenenter"",""1"",""1614""
","
","","","","","","872.2999999988824","images/goat4.png","","","memory_trial","2","maybe_old",""
"html-keyboard-response","154","642453","0.0-18.0-0.55","5667","approach_avoid_sv1","""event"",""trial"",""time""
""fullscreenenter"",""1"",""1614""
","
","
","""event"",""trial"",""time""
""fullscreenenter"",""1"",""1614""
","
","","","","","","null","<div style=""font-size:60px;"">+</div>","null","","fixation","","",""
"memory-trial","155","644304","0.0-18.0-1.55","5667","approach_avoid_sv1","""event"",""trial"",""time""
""fullscreenenter"",""1"",""1614""
","
","
","""event"",""trial"",""time""
""fullscreenenter"",""1"",""1614""
","
","","","","","","840.9000000003725","images/train4.png","","","memory_trial","3","maybe_new",""
"html-keyboard-response","156","644813","0.0-18.0-0.56","5667","approach_avoid_sv1","""event"",""trial"",""time""
""fullscreenenter"",""1"",""1614""
","
","
","""event"",""trial"",""time""
""fullscreenenter"",""1"",""1614""
","
","","","","","","null","<div style=""font-size:60px;"">+</div>","null","","fixation","","",""
"memory-trial","157","646221","0.0-18.0-1.56","5667","approach_avoid_sv1","""event"",""trial"",""time""
""fullscreenenter"",""1"",""1614""
","
","
","""event"",""trial"",""time""
""fullscreenenter"",""1"",""1614""
","
","","","","","","401","images/tree8.png","","","memory_trial","3","maybe_new",""
"html-keyboard-response","158","646724","0.0-18.0-0.57","5667","approach_avoid_sv1","""event"",""trial"",""time""
""fullscreenenter"",""1"",""1614""
","
","
","""event"",""trial"",""time""
""fullscreenenter"",""1"",""1614""
","
","","","","","","null","<div style=""font-size:60px;"">+</div>","null","","fixation","","",""
"memory-trial","159","648581","0.0-18.0-1.57","5667","approach_avoid_sv1","""event"",""trial"",""time""
""fullscreenenter"",""1"",""1614""
","
","
","""event"",""trial"",""time""
""fullscreenenter"",""1"",""1614""
","
","","","","","","850","images/cactus3.png","","","memory_trial","3","maybe_new",""
"html-keyboard-response","160","649084","0.0-18.0-0.58","5667","approach_avoid_sv1","""event"",""trial"",""time""
""fullscreenenter"",""1"",""1614""
","
","
","""event"",""trial"",""time""
""fullscreenenter"",""1"",""1614""
","
","","","","","","null","<div style=""font-size:60px;"">+</div>","null","","fixation","","",""
"memory-trial","161","659102","0.0-18.0-1.58","5667","approach_avoid_sv1","""event"",""trial"",""time""
""fullscreenenter"",""1"",""1614""
","
","
","""event"",""trial"",""time""
""fullscreenenter"",""1"",""1614""
","
","","","","","","null","images/tree6.png","","","memory_trial","null","null",""
"html-keyboard-response","162","659604","0.0-18.0-0.59","5667","approach_avoid_sv1","""event"",""trial"",""time""
""fullscreenenter"",""1"",""1614""
","
","
","""event"",""trial"",""time""
""fullscreenenter"",""1"",""1614""
","
","","","","","","null","<div style=""font-size:60px;"">+</div>","null","","fixation","","",""
"memory-trial","163","660925","0.0-18.0-1.59","5667","approach_avoid_sv1","""event"",""trial"",""time""
""fullscreenenter"",""1"",""1614""
","
","
","""event"",""trial"",""time""
""fullscreenenter"",""1"",""1614""
","
","","","","","","313.09999999962747","images/banana4.png","","","memory_trial","3","maybe_new",""
"html-keyboard-response","164","661428","0.0-18.0-0.60","5667","approach_avoid_sv1","""event"",""trial"",""time""
""fullscreenenter"",""1"",""1614""
","
","
","""event"",""trial"",""time""
""fullscreenenter"",""1"",""1614""
","
","","","","","","null","<div style=""font-size:60px;"">+</div>","null","","fixation","","",""
"memory-trial","165","671437","0.0-18.0-1.60","5667","approach_avoid_sv1","""event"",""trial"",""time""
""fullscreenenter"",""1"",""1614""
","
","
","""event"",""trial"",""time""
""fullscreenenter"",""1"",""1614""
","
","","","","","","null","images/sheep2.png","","","memory_trial","null","null",""
"html-keyboard-response","166","671942","0.0-18.0-0.61","5667","approach_avoid_sv1","""event"",""trial"",""time""
""fullscreenenter"",""1"",""1614""
","
","
","""event"",""trial"",""time""
""fullscreenenter"",""1"",""1614""
","
","","","","","","null","<div style=""font-size:60px;"">+</div>","null","","fixation","","",""
"memory-trial","167","681485","0.0-18.0-1.61","5667","approach_avoid_sv1","""event"",""trial"",""time""
""fullscreenenter"",""1"",""1614""
","
","
","""event"",""trial"",""time""
""fullscreenenter"",""1"",""1614""
","
","","","","","","8528.099999999627","images/sofa1.png","","","memory_trial","2","maybe_old",""
"html-keyboard-response","168","681988","0.0-18.0-0.62","5667","approach_avoid_sv1","""event"",""trial"",""time""
""fullscreenenter"",""1"",""1614""
","
","
","""event"",""trial"",""time""
""fullscreenenter"",""1"",""1614""
","
","","","","","","null","<div style=""font-size:60px;"">+</div>","null","","fixation","","",""
"memory-trial","169","691996","0.0-18.0-1.62","5667","approach_avoid_sv1","""event"",""trial"",""time""
""fullscreenenter"",""1"",""1614""
","
","
","""event"",""trial"",""time""
""fullscreenenter"",""1"",""1614""
","
","","","","","","null","images/truck7.png","","","memory_trial","null","null",""
"html-keyboard-response","170","692501","0.0-18.0-0.63","5667","approach_avoid_sv1","""event"",""trial"",""time""
""fullscreenenter"",""1"",""1614""
","
","
","""event"",""trial"",""time""
""fullscreenenter"",""1"",""1614""
","
","","","","","","null","<div style=""font-size:60px;"">+</div>","null","","fixation","","",""
"memory-trial","171","697542","0.0-18.0-1.63","5667","approach_avoid_sv1","""event"",""trial"",""time""
""fullscreenenter"",""1"",""1614""
","
","
","""event"",""trial"",""time""
""fullscreenenter"",""1"",""1614""
","
","","","","","","4034","images/dog6.png","","","memory_trial","4","definitely_new",""
"html-keyboard-response","172","698044","0.0-18.0-0.64","5667","approach_avoid_sv1","""event"",""trial"",""time""
""fullscreenenter"",""1"",""1614""
","
","
","""event"",""trial"",""time""
""fullscreenenter"",""1"",""1614""
","
","","","","","","null","<div style=""font-size:60px;"">+</div>","null","","fixation","","",""
"memory-trial","173","702557","0.0-18.0-1.64","5667","approach_avoid_sv1","""event"",""trial"",""time""
""fullscreenenter"",""1"",""1614""
","
","
","""event"",""trial"",""time""
""fullscreenenter"",""1"",""1614""
","
","","","","","","3505.39999999851","images/orange7.png","","","memory_trial","1","definitely_old",""
"html-keyboard-response","174","703061","0.0-18.0-0.65","5667","approach_avoid_sv1","""event"",""trial"",""time""
""fullscreenenter"",""1"",""1614""
","
","
","""event"",""trial"",""time""
""fullscreenenter"",""1"",""1614""
","
","","","","","","null","<div style=""font-size:60px;"">+</div>","null","","fixation","","",""
"memory-trial","175","708917","0.0-18.0-1.65","5667","approach_avoid_sv1","""event"",""trial"",""time""
""fullscreenenter"",""1"",""1614""
","
","
","""event"",""trial"",""time""
""fullscreenenter"",""1"",""1614""
","
","","","","","","4848.700000001118","images/horse2.png","","","memory_trial","4","definitely_new",""
"html-keyboard-response","176","709421","0.0-18.0-0.66","5667","approach_avoid_sv1","""event"",""trial"",""time""
""fullscreenenter"",""1"",""1614""
","
","
","""event"",""trial"",""time""
""fullscreenenter"",""1"",""1614""
","
","","","","","","null","<div style=""font-size:60px;"">+</div>","null","","fixation","","",""
"memory-trial","177","712581","0.0-18.0-1.66","5667","approach_avoid_sv1","""event"",""trial"",""time""
""fullscreenenter"",""1"",""1614""
","
","
","""event"",""trial"",""time""
""fullscreenenter"",""1"",""1614""
","
","","","","","","2152.699999999255","images/apple1.png","","","memory_trial","1","definitely_old",""
"html-keyboard-response","178","713085","0.0-18.0-0.67","5667","approach_avoid_sv1","""event"",""trial"",""time""
""fullscreenenter"",""1"",""1614""
","
","
","""event"",""trial"",""time""
""fullscreenenter"",""1"",""1614""
","
","","","","","","null","<div style=""font-size:60px;"">+</div>","null","","fixation","","",""
"memory-trial","179","715493","0.0-18.0-1.67","5667","approach_avoid_sv1","""event"",""trial"",""time""
""fullscreenenter"",""1"",""1614""
","
","
","""event"",""trial"",""time""
""fullscreenenter"",""1"",""1614""
","
","","","","","","1401","images/banana1.png","","","memory_trial","1","definitely_old",""
"html-keyboard-response","180","715998","0.0-18.0-0.68","5667","approach_avoid_sv1","""event"",""trial"",""time""
""fullscreenenter"",""1"",""1614""
","
","
","""event"",""trial"",""time""
""fullscreenenter"",""1"",""1614""
","
","","","","","","null","<div style=""font-size:60px;"">+</div>","null","","fixation","","",""
"memory-trial","181","717909","0.0-18.0-1.68","5667","approach_avoid_sv1","""event"",""trial"",""time""
""fullscreenenter"",""1"",""1614""
","
","
","""event"",""trial"",""time""
""fullscreenenter"",""1"",""1614""
","
","","","","","","904.6999999992549","images/apple6.png","","","memory_trial","1","definitely_old",""
"html-keyboard-response","182","718414","0.0-18.0-0.69","5667","approach_avoid_sv1","""event"",""trial"",""time""
""fullscreenenter"",""1"",""1614""
","
","
","""event"",""trial"",""time""
""fullscreenenter"",""1"",""1614""
","
","","","","","","null","<div style=""font-size:60px;"">+</div>","null","","fixation","","",""
"memory-trial","183","722013","0.0-18.0-1.69","5667","approach_avoid_sv1","""event"",""trial"",""time""
""fullscreenenter"",""1"",""1614""
","
","
","""event"",""trial"",""time""
""fullscreenenter"",""1"",""1614""
","
","","","","","","2593.5","images/sofa6.png","","","memory_trial","1","definitely_old",""
"html-keyboard-response","184","722517","0.0-18.0-0.70","5667","approach_avoid_sv1","""event"",""trial"",""time""
""fullscreenenter"",""1"",""1614""
","
","
","""event"",""trial"",""time""
""fullscreenenter"",""1"",""1614""
","
","","","","","","null","<div style=""font-size:60px;"">+</div>","null","","fixation","","",""
"memory-trial","185","723557","0.0-18.0-1.70","5667","approach_avoid_sv1","""event"",""trial"",""time""
""fullscreenenter"",""1"",""1614""
","
","
","""event"",""trial"",""time""
""fullscreenenter"",""1"",""1614""
","
","","","","","","32.69999999925494","images/apple7.png","","","memory_trial","1","definitely_old",""
"html-keyboard-response","186","724061","0.0-18.0-0.71","5667","approach_avoid_sv1","""event"",""trial"",""time""
""fullscreenenter"",""1"",""1614""
","
","
","""event"",""trial"",""time""
""fullscreenenter"",""1"",""1614""
","
","","","","","","null","<div style=""font-size:60px;"">+</div>","null","","fixation","","",""
"memory-trial","187","725957","0.0-18.0-1.71","5667","approach_avoid_sv1","""event"",""trial"",""time""
""fullscreenenter"",""1"",""1614""
","
","
","""event"",""trial"",""time""
""fullscreenenter"",""1"",""1614""
","
","","","","","","889.1999999992549","images/cat8.png","","","memory_trial","1","definitely_old",""
"html-keyboard-response","188","726461","0.0-18.0-0.72","5667","approach_avoid_sv1","""event"",""trial"",""time""
""fullscreenenter"",""1"",""1614""
","
","
","""event"",""trial"",""time""
""fullscreenenter"",""1"",""1614""
","
","","","","","","null","<div style=""font-size:60px;"">+</div>","null","","fixation","","",""
"memory-trial","189","728128","0.0-18.0-1.72","5667","approach_avoid_sv1","""event"",""trial"",""time""
""fullscreenenter"",""1"",""1614""
","
","
","""event"",""trial"",""time""
""fullscreenenter"",""1"",""1614""
","
","","","","","","649.0999999996275","images/rodent6.png","","","memory_trial","1","definitely_old",""
"html-keyboard-response","190","728629","0.0-18.0-0.73","5667","approach_avoid_sv1","""event"",""trial"",""time""
""fullscreenenter"",""1"",""1614""
","
","
","""event"",""trial"",""time""
""fullscreenenter"",""1"",""1614""
","
","","","","","","null","<div style=""font-size:60px;"">+</div>","null","","fixation","","",""
"memory-trial","191","731510","0.0-18.0-1.73","5667","approach_avoid_sv1","""event"",""trial"",""time""
""fullscreenenter"",""1"",""1614""
","
","
","""event"",""trial"",""time""
""fullscreenenter"",""1"",""1614""
","
","","","","","","1873.0999999996275","images/boat1.png","","","memory_trial","1","definitely_old",""
"html-keyboard-response","192","732016","0.0-18.0-0.74","5667","approach_avoid_sv1","""event"",""trial"",""time""
""fullscreenenter"",""1"",""1614""
","
","
","""event"",""trial"",""time""
""fullscreenenter"",""1"",""1614""
","
","","","","","","null","<div style=""font-size:60px;"">+</div>","null","","fixation","","",""
"memory-trial","193","735614","0.0-18.0-1.74","5667","approach_avoid_sv1","""event"",""trial"",""time""
""fullscreenenter"",""1"",""1614""
","
","
","""event"",""trial"",""time""
""fullscreenenter"",""1"",""1614""
","
","","","","","","2590.7999999988824","images/chair3.png","","","memory_trial","1","definitely_old",""
"html-keyboard-response","194","736117","0.0-18.0-0.75","5667","approach_avoid_sv1","""event"",""trial"",""time""
""fullscreenenter"",""1"",""1614""
","
","
","""event"",""trial"",""time""
""fullscreenenter"",""1"",""1614""
","
","","","","","","null","<div style=""font-size:60px;"">+</div>","null","","fixation","","",""
"memory-trial","195","743909","0.0-18.0-1.75","5667","approach_avoid_sv1","""event"",""trial"",""time""
""fullscreenenter"",""1"",""1614""
","
","
","""event"",""trial"",""time""
""fullscreenenter"",""1"",""1614""
","
","","","","","","6784.800000000745","images/chair4.png","","","memory_trial","1","definitely_old",""
"html-keyboard-response","196","744414","0.0-18.0-0.76","5667","approach_avoid_sv1","""event"",""trial"",""time""
""fullscreenenter"",""1"",""1614""
","
","
","""event"",""trial"",""time""
""fullscreenenter"",""1"",""1614""
","
","","","","","","null","<div style=""font-size:60px;"">+</div>","null","","fixation","","",""
"memory-trial","197","748478","0.0-18.0-1.76","5667","approach_avoid_sv1","""event"",""trial"",""time""
""fullscreenenter"",""1"",""1614""
","
","
","""event"",""trial"",""time""
""fullscreenenter"",""1"",""1614""
","
","","","","","","3056.699999999255","images/horse5.png","","","memory_trial","1","definitely_old",""
"html-keyboard-response","198","748982","0.0-18.0-0.77","5667","approach_avoid_sv1","""event"",""trial"",""time""
""fullscreenenter"",""1"",""1614""
","
","
","""event"",""trial"",""time""
""fullscreenenter"",""1"",""1614""
","
","","","","","","null","<div style=""font-size:60px;"">+</div>","null","","fixation","","",""
"memory-trial","199","755037","0.0-18.0-1.77","5667","approach_avoid_sv1","""event"",""trial"",""time""
""fullscreenenter"",""1"",""1614""
","
","
","""event"",""trial"",""time""
""fullscreenenter"",""1"",""1614""
","
","","","","","","5048.10000000149","images/apple8.png","","","memory_trial","1","definitely_old",""
"html-keyboard-response","200","755542","0.0-18.0-0.78","5667","approach_avoid_sv1","""event"",""trial"",""time""
""fullscreenenter"",""1"",""1614""
","
","
","""event"",""trial"",""time""
""fullscreenenter"",""1"",""1614""
","
","","","","","","null","<div style=""font-size:60px;"">+</div>","null","","fixation","","",""
"memory-trial","201","761750","0.0-18.0-1.78","5667","approach_avoid_sv1","""event"",""trial"",""time""
""fullscreenenter"",""1"",""1614""
","
","
","""event"",""trial"",""time""
""fullscreenenter"",""1"",""1614""
","
","","","","","","5199.9000000003725","images/dog4.png","","","memory_trial","1","definitely_old",""
"html-keyboard-response","202","762253","0.0-18.0-0.79","5667","approach_avoid_sv1","""event"",""trial"",""time""
""fullscreenenter"",""1"",""1614""
","
","
","""event"",""trial"",""time""
""fullscreenenter"",""1"",""1614""
","
","","","","","","null","<div style=""font-size:60px;"">+</div>","null","","fixation","","",""
"memory-trial","203","766189","0.0-18.0-1.79","5667","approach_avoid_sv1","""event"",""trial"",""time""
""fullscreenenter"",""1"",""1614""
","
","
","""event"",""trial"",""time""
""fullscreenenter"",""1"",""1614""
","
","","","","","","2928.7000000011176","images/cow3.png","","","memory_trial","2","maybe_old",""
"html-keyboard-response","204","766693","0.0-18.0-0.80","5667","approach_avoid_sv1","""event"",""trial"",""time""
""fullscreenenter"",""1"",""1614""
","
","
","""event"",""trial"",""time""
""fullscreenenter"",""1"",""1614""
","
","","","","","","null","<div style=""font-size:60px;"">+</div>","null","","fixation","","",""
"memory-trial","205","774197","0.0-18.0-1.80","5667","approach_avoid_sv1","""event"",""trial"",""time""
""fullscreenenter"",""1"",""1614""
","
","
","""event"",""trial"",""time""
""fullscreenenter"",""1"",""1614""
","
","","","","","","6497.199999999255","images/boat2.png","","","memory_trial","1","definitely_old",""
"html-keyboard-response","206","774701","0.0-18.0-0.81","5667","approach_avoid_sv1","""event"",""trial"",""time""
""fullscreenenter"",""1"",""1614""
","
","
","""event"",""trial"",""time""
""fullscreenenter"",""1"",""1614""
","
","","","","","","null","<div style=""font-size:60px;"">+</div>","null","","fixation","","",""
"memory-trial","207","784709","0.0-18.0-1.81","5667","approach_avoid_sv1","""event"",""trial"",""time""
""fullscreenenter"",""1"",""1614""
","
","
","""event"",""trial"",""time""
""fullscreenenter"",""1"",""1614""
","
","","","","","","null","images/tree2.png","","","memory_trial","null","null",""
"html-keyboard-response","208","785213","0.0-18.0-0.82","5667","approach_avoid_sv1","""event"",""trial"",""time""
""fullscreenenter"",""1"",""1614""
","
","
","""event"",""trial"",""time""
""fullscreenenter"",""1"",""1614""
","
","","","","","","null","<div style=""font-size:60px;"">+</div>","null","","fixation","","",""
"memory-trial","209","789093","0.0-18.0-1.82","5667","approach_avoid_sv1","""event"",""trial"",""time""
""fullscreenenter"",""1"",""1614""
","
","
","""event"",""trial"",""time""
""fullscreenenter"",""1"",""1614""
","
","","","","","","2873.199999999255","images/bush3.png","","","memory_trial","2","maybe_old",""
"html-keyboard-response","210","789597","0.0-18.0-0.83","5667","approach_avoid_sv1","""event"",""trial"",""time""
""fullscreenenter"",""1"",""1614""
","
","
","""event"",""trial"",""time""
""fullscreenenter"",""1"",""1614""
","
","","","","","","null","<div style=""font-size:60px;"">+</div>","null","","fixation","","",""
"memory-trial","211","795805","0.0-18.0-1.83","5667","approach_avoid_sv1","""event"",""trial"",""time""
""fullscreenenter"",""1"",""1614""
","
","
","""event"",""trial"",""time""
""fullscreenenter"",""1"",""1614""
","
","","","","","","5201.300000000745","images/sheep7.png","","","memory_trial","2","maybe_old",""
"html-keyboard-response","212","796309","0.0-18.0-0.84","5667","approach_avoid_sv1","""event"",""trial"",""time""
""fullscreenenter"",""1"",""1614""
","
","
","""event"",""trial"",""time""
""fullscreenenter"",""1"",""1614""
","
","","","","","","null","<div style=""font-size:60px;"">+</div>","null","","fixation","","",""
"memory-trial","213","797741","0.0-18.0-1.84","5667","approach_avoid_sv1","""event"",""trial"",""time""
""fullscreenenter"",""1"",""1614""
","
","
","""event"",""trial"",""time""
""fullscreenenter"",""1"",""1614""
","
","","","","","","425.80000000074506","images/bed7.png","","","memory_trial","2","maybe_old",""
"html-keyboard-response","214","798244","0.0-18.0-0.85","5667","approach_avoid_sv1","""event"",""trial"",""time""
""fullscreenenter"",""1"",""1614""
","
","
","""event"",""trial"",""time""
""fullscreenenter"",""1"",""1614""
","
","","","","","","null","<div style=""font-size:60px;"">+</div>","null","","fixation","","",""
"memory-trial","215","799381","0.0-18.0-1.85","5667","approach_avoid_sv1","""event"",""trial"",""time""
""fullscreenenter"",""1"",""1614""
","
","
","""event"",""trial"",""time""
""fullscreenenter"",""1"",""1614""
","
","","","","","","130","images/rabbit5.png","","","memory_trial","4","definitely_new",""
"html-keyboard-response","216","799884","0.0-18.0-0.86","5667","approach_avoid_sv1","""event"",""trial"",""time""
""fullscreenenter"",""1"",""1614""
","
","
","""event"",""trial"",""time""
""fullscreenenter"",""1"",""1614""
","
","","","","","","null","<div style=""font-size:60px;"">+</div>","null","","fixation","","",""
"memory-trial","217","801525","0.0-18.0-1.86","5667","approach_avoid_sv1","""event"",""trial"",""time""
""fullscreenenter"",""1"",""1614""
","
","
","""event"",""trial"",""time""
""fullscreenenter"",""1"",""1614""
","
","","","","","","633.8000000007451","images/train6.png","","","memory_trial","2","maybe_old",""
"html-keyboard-response","218","802029","0.0-18.0-0.87","5667","approach_avoid_sv1","""event"",""trial"",""time""
""fullscreenenter"",""1"",""1614""
","
","
","""event"",""trial"",""time""
""fullscreenenter"",""1"",""1614""
","
","","","","","","null","<div style=""font-size:60px;"">+</div>","null","","fixation","","",""
"memory-trial","219","803044","0.0-18.0-1.87","5667","approach_avoid_sv1","""event"",""trial"",""time""
""fullscreenenter"",""1"",""1614""
","
","
","""event"",""trial"",""time""
""fullscreenenter"",""1"",""1614""
","
","","","","","","9.599999999627471","images/flower4.png","","","memory_trial","2","maybe_old",""
"html-keyboard-response","220","803548","0.0-18.0-0.88","5667","approach_avoid_sv1","""event"",""trial"",""time""
""fullscreenenter"",""1"",""1614""
","
","
","""event"",""trial"",""time""
""fullscreenenter"",""1"",""1614""
","
","","","","","","null","<div style=""font-size:60px;"">+</div>","null","","fixation","","",""
"memory-trial","221","804756","0.0-18.0-1.88","5667","approach_avoid_sv1","""event"",""trial"",""time""
""fullscreenenter"",""1"",""1614""
","
","
","""event"",""trial"",""time""
""fullscreenenter"",""1"",""1614""
","
","","","","","","201.5","images/flower6.png","","","memory_trial","3","maybe_new",""
"html-keyboard-response","222","805261","0.0-18.0-0.89","5667","approach_avoid_sv1","""event"",""trial"",""time""
""fullscreenenter"",""1"",""1614""
","
","
","""event"",""trial"",""time""
""fullscreenenter"",""1"",""1614""
","
","","","","","","null","<div style=""font-size:60px;"">+</div>","null","","fixation","","",""
"memory-trial","223","806614","0.0-18.0-1.89","5667","approach_avoid_sv1","""event"",""trial"",""time""
""fullscreenenter"",""1"",""1614""
","
","
","""event"",""trial"",""time""
""fullscreenenter"",""1"",""1614""
","
","","","","","","345.40000000037253","images/banana5.png","","","memory_trial","2","maybe_old",""
"html-keyboard-response","224","807116","0.0-18.0-0.90","5667","approach_avoid_sv1","""event"",""trial"",""time""
""fullscreenenter"",""1"",""1614""
","
","
","""event"",""trial"",""time""
""fullscreenenter"",""1"",""1614""
","
","","","","","","null","<div style=""font-size:60px;"">+</div>","null","","fixation","","",""
"memory-trial","225","808621","0.0-18.0-1.90","5667","approach_avoid_sv1","""event"",""trial"",""time""
""fullscreenenter"",""1"",""1614""
","
","
","""event"",""trial"",""time""
""fullscreenenter"",""1"",""1614""
","
","","","","","","497.3999999985099","images/horse6.png","","","memory_trial","2","maybe_old",""
"html-keyboard-response","226","809125","0.0-18.0-0.91","5667","approach_avoid_sv1","""event"",""trial"",""time""
""fullscreenenter"",""1"",""1614""
","
","
","""event"",""trial"",""time""
""fullscreenenter"",""1"",""1614""
","
","","","","","","null","<div style=""font-size:60px;"">+</div>","null","","fixation","","",""
"memory-trial","227","810766","0.0-18.0-1.91","5667","approach_avoid_sv1","""event"",""trial"",""time""
""fullscreenenter"",""1"",""1614""
","
","
","""event"",""trial"",""time""
""fullscreenenter"",""1"",""1614""
","
","","","","","","633.0999999996275","images/cow5.png","","","memory_trial","2","maybe_old",""
"html-button-response","228","858767","0.0-18.0-2.91-0.91","5667","approach_avoid_sv1","""event"",""trial"",""time""
""fullscreenenter"",""1"",""1614""
","
","
","""event"",""trial"",""time""
""fullscreenenter"",""1"",""1614""
","
","","","","","","48000.5","<p> Take a break! </p><p> Click the button to continue. </p>","0","","break","","",""
"html-keyboard-response","229","859269","0.0-18.0-0.92","5667","approach_avoid_sv1","""event"",""trial"",""time""
""fullscreenenter"",""1"",""1614""
","
","
","""event"",""trial"",""time""
""fullscreenenter"",""1"",""1614""
","
","","","","","","null","<div style=""font-size:60px;"">+</div>","null","","fixation","","",""
"memory-trial","230","862094","0.0-18.0-1.92","5667","approach_avoid_sv1","""event"",""trial"",""time""
""fullscreenenter"",""1"",""1614""
","
","
","""event"",""trial"",""time""
""fullscreenenter"",""1"",""1614""
","
","","","","","","1817","images/bed8.png","","","memory_trial","2","maybe_old",""
"html-keyboard-response","231","862597","0.0-18.0-0.93","5667","approach_avoid_sv1","""event"",""trial"",""time""
""fullscreenenter"",""1"",""1614""
","
","
","""event"",""trial"",""time""
""fullscreenenter"",""1"",""1614""
","
","","","","","","null","<div style=""font-size:60px;"">+</div>","null","","fixation","","",""
"memory-trial","232","864525","0.0-18.0-1.93","5667","approach_avoid_sv1","""event"",""trial"",""time""
""fullscreenenter"",""1"",""1614""
","
","
","""event"",""trial"",""time""
""fullscreenenter"",""1"",""1614""
","
","","","","","","921.4000000003725","images/horse8.png","","","memory_trial","2","maybe_old",""
"html-keyboard-response","233","865029","0.0-18.0-0.94","5667","approach_avoid_sv1","""event"",""trial"",""time""
""fullscreenenter"",""1"",""1614""
","
","
","""event"",""trial"",""time""
""fullscreenenter"",""1"",""1614""
","
","","","","","","null","<div style=""font-size:60px;"">+</div>","null","","fixation","","",""
"memory-trial","234","866661","0.0-18.0-1.94","5667","approach_avoid_sv1","""event"",""trial"",""time""
""fullscreenenter"",""1"",""1614""
","
","
","""event"",""trial"",""time""
""fullscreenenter"",""1"",""1614""
","
","","","","","","625.5","images/rodent3.png","","","memory_trial","1","definitely_old",""
"html-keyboard-response","235","867165","0.0-18.0-0.95","5667","approach_avoid_sv1","""event"",""trial"",""time""
""fullscreenenter"",""1"",""1614""
","
","
","""event"",""trial"",""time""
""fullscreenenter"",""1"",""1614""
","
","","","","","","null","<div style=""font-size:60px;"">+</div>","null","","fixation","","",""
"memory-trial","236","868309","0.0-18.0-1.95","5667","approach_avoid_sv1","""event"",""trial"",""time""
""fullscreenenter"",""1"",""1614""
","
","
","""event"",""trial"",""time""
""fullscreenenter"",""1"",""1614""
","
","","","","","","137.5","images/cat6.png","","","memory_trial","2","maybe_old",""
"html-keyboard-response","237","868814","0.0-18.0-0.96","5667","approach_avoid_sv1","""event"",""trial"",""time""
""fullscreenenter"",""1"",""1614""
","
","
","""event"",""trial"",""time""
""fullscreenenter"",""1"",""1614""
","
","","","","","","null","<div style=""font-size:60px;"">+</div>","null","","fixation","","",""
"memory-trial","238","870565","0.0-18.0-1.96","5667","approach_avoid_sv1","""event"",""trial"",""time""
""fullscreenenter"",""1"",""1614""
","
","
","""event"",""trial"",""time""
""fullscreenenter"",""1"",""1614""
","
","","","","","","744.9000000003725","images/goat8.png","","","memory_trial","1","definitely_old",""
"html-keyboard-response","239","871069","0.0-18.0-0.97","5667","approach_avoid_sv1","""event"",""trial"",""time""
""fullscreenenter"",""1"",""1614""
","
","
","""event"",""trial"",""time""
""fullscreenenter"",""1"",""1614""
","
","","","","","","null","<div style=""font-size:60px;"">+</div>","null","","fixation","","",""
"memory-trial","240","872613","0.0-18.0-1.97","5667","approach_avoid_sv1","""event"",""trial"",""time""
""fullscreenenter"",""1"",""1614""
","
","
","""event"",""trial"",""time""
""fullscreenenter"",""1"",""1614""
","
","","","","","","537.6000000014901","images/goat5.png","","","memory_trial","3","maybe_new",""
"html-keyboard-response","241","873117","0.0-18.0-0.98","5667","approach_avoid_sv1","""event"",""trial"",""time""
""fullscreenenter"",""1"",""1614""
","
","
","""event"",""trial"",""time""
""fullscreenenter"",""1"",""1614""
","
","","","","","","null","<div style=""font-size:60px;"">+</div>","null","","fixation","","",""
"memory-trial","242","875122","0.0-18.0-1.98","5667","approach_avoid_sv1","""event"",""trial"",""time""
""fullscreenenter"",""1"",""1614""
","
","
","""event"",""trial"",""time""
""fullscreenenter"",""1"",""1614""
","
","","","","","","1000.9000000003725","images/sheep5.png","","","memory_trial","3","maybe_new",""
"html-keyboard-response","243","875629","0.0-18.0-0.99","5667","approach_avoid_sv1","""event"",""trial"",""time""
""fullscreenenter"",""1"",""1614""
","
","
","""event"",""trial"",""time""
""fullscreenenter"",""1"",""1614""
","
","","","","","","null","<div style=""font-size:60px;"">+</div>","null","","fixation","","",""
"memory-trial","244","877234","0.0-18.0-1.99","5667","approach_avoid_sv1","""event"",""trial"",""time""
""fullscreenenter"",""1"",""1614""
","
","
","""event"",""trial"",""time""
""fullscreenenter"",""1"",""1614""
","
","","","","","","584.7000000011176","images/rodent1.png","","","memory_trial","3","maybe_new",""
"html-keyboard-response","245","877742","0.0-18.0-0.100","5667","approach_avoid_sv1","""event"",""trial"",""time""
""fullscreenenter"",""1"",""1614""
","
","
","""event"",""trial"",""time""
""fullscreenenter"",""1"",""1614""
","
","","","","","","null","<div style=""font-size:60px;"">+</div>","null","","fixation","","",""
"memory-trial","246","880157","0.0-18.0-1.100","5667","approach_avoid_sv1","""event"",""trial"",""time""
""fullscreenenter"",""1"",""1614""
","
","
","""event"",""trial"",""time""
""fullscreenenter"",""1"",""1614""
","
","","","","","","1408.300000000745","images/straw2.png","","","memory_trial","1","definitely_old",""
"html-keyboard-response","247","880662","0.0-18.0-0.101","5667","approach_avoid_sv1","""event"",""trial"",""time""
""fullscreenenter"",""1"",""1614""
","
","
","""event"",""trial"",""time""
""fullscreenenter"",""1"",""1614""
","
","","","","","","null","<div style=""font-size:60px;"">+</div>","null","","fixation","","",""
"memory-trial","248","885029","0.0-18.0-1.101","5667","approach_avoid_sv1","""event"",""trial"",""time""
""fullscreenenter"",""1"",""1614""
","
","
","""event"",""trial"",""time""
""fullscreenenter"",""1"",""1614""
","
","","","","","","3360.2999999988824","images/bed6.png","","","memory_trial","3","maybe_new",""
"html-keyboard-response","249","885533","0.0-18.0-0.102","5667","approach_avoid_sv1","""event"",""trial"",""time""
""fullscreenenter"",""1"",""1614""
","
","
","""event"",""trial"",""time""
""fullscreenenter"",""1"",""1614""
","
","","","","","","null","<div style=""font-size:60px;"">+</div>","null","","fixation","","",""
"memory-trial","250","888221","0.0-18.0-1.102","5667","approach_avoid_sv1","""event"",""trial"",""time""
""fullscreenenter"",""1"",""1614""
","
","
","""event"",""trial"",""time""
""fullscreenenter"",""1"",""1614""
","
","","","","","","1680.7000000011176","images/train8.png","","","memory_trial","1","definitely_old",""
"html-keyboard-response","251","888725","0.0-18.0-0.103","5667","approach_avoid_sv1","""event"",""trial"",""time""
""fullscreenenter"",""1"",""1614""
","
","
","""event"",""trial"",""time""
""fullscreenenter"",""1"",""1614""
","
","","","","","","null","<div style=""font-size:60px;"">+</div>","null","","fixation","","",""
"memory-trial","252","898733","0.0-18.0-1.103","5667","approach_avoid_sv1","""event"",""trial"",""time""
""fullscreenenter"",""1"",""1614""
","
","
","""event"",""trial"",""time""
""fullscreenenter"",""1"",""1614""
","
","","","","","","null","images/dog5.png","","","memory_trial","null","null",""
"html-keyboard-response","253","899237","0.0-18.0-0.104","5667","approach_avoid_sv1","""event"",""trial"",""time""
""fullscreenenter"",""1"",""1614""
","
","
","""event"",""trial"",""time""
""fullscreenenter"",""1"",""1614""
","
","","","","","","null","<div style=""font-size:60px;"">+</div>","null","","fixation","","",""
"memory-trial","254","909252","0.0-18.0-1.104","5667","approach_avoid_sv1","""event"",""trial"",""time""
""fullscreenenter"",""1"",""1614""
","
","
","""event"",""trial"",""time""
""fullscreenenter"",""1"",""1614""
","
","","","","","","9881.89999999851","images/bush6.png","","","memory_trial","3","maybe_new",""
"html-keyboard-response","255","909757","0.0-18.0-0.105","5667","approach_avoid_sv1","""event"",""trial"",""time""
""fullscreenenter"",""1"",""1614""
","
","
","""event"",""trial"",""time""
""fullscreenenter"",""1"",""1614""
","
","","","","","","null","<div style=""font-size:60px;"">+</div>","null","","fixation","","",""
"memory-trial","256","911245","0.0-18.0-1.105","5667","approach_avoid_sv1","""event"",""trial"",""time""
""fullscreenenter"",""1"",""1614""
","
","
","""event"",""trial"",""time""
""fullscreenenter"",""1"",""1614""
","
","","","","","","481","images/sheep3.png","","","memory_trial","4","definitely_new",""
"html-keyboard-response","257","911749","0.0-18.0-0.106","5667","approach_avoid_sv1","""event"",""trial"",""time""
""fullscreenenter"",""1"",""1614""
","
","
","""event"",""trial"",""time""
""fullscreenenter"",""1"",""1614""
","
","","","","","","null","<div style=""font-size:60px;"">+</div>","null","","fixation","","",""
"memory-trial","258","913877","0.0-18.0-1.106","5667","approach_avoid_sv1","""event"",""trial"",""time""
""fullscreenenter"",""1"",""1614""
","
","
","""event"",""trial"",""time""
""fullscreenenter"",""1"",""1614""
","
","","","","","","1121","images/cactus1.png","","","memory_trial","4","definitely_new",""
"html-keyboard-response","259","914382","0.0-18.0-0.107","5667","approach_avoid_sv1","""event"",""trial"",""time""
""fullscreenenter"",""1"",""1614""
","
","
","""event"",""trial"",""time""
""fullscreenenter"",""1"",""1614""
","
","","","","","","null","<div style=""font-size:60px;"">+</div>","null","","fixation","","",""
"memory-trial","260","915405","0.0-18.0-1.107","5667","approach_avoid_sv1","""event"",""trial"",""time""
""fullscreenenter"",""1"",""1614""
","
","
","""event"",""trial"",""time""
""fullscreenenter"",""1"",""1614""
","
","","","","","","16","images/chair8.png","","","memory_trial","3","maybe_new",""
"html-keyboard-response","261","915908","0.0-18.0-0.108","5667","approach_avoid_sv1","""event"",""trial"",""time""
""fullscreenenter"",""1"",""1614""
","
","
","""event"",""trial"",""time""
""fullscreenenter"",""1"",""1614""
","
","","","","","","null","<div style=""font-size:60px;"">+</div>","null","","fixation","","",""
"memory-trial","262","917341","0.0-18.0-1.108","5667","approach_avoid_sv1","""event"",""trial"",""time""
""fullscreenenter"",""1"",""1614""
","
","
","""event"",""trial"",""time""
""fullscreenenter"",""1"",""1614""
","
","","","","","","425.80000000074506","images/bed5.png","","","memory_trial","4","definitely_new",""
"html-keyboard-response","263","917845","0.0-18.0-0.109","5667","approach_avoid_sv1","""event"",""trial"",""time""
""fullscreenenter"",""1"",""1614""
","
","
","""event"",""trial"",""time""
""fullscreenenter"",""1"",""1614""
","
","","","","","","null","<div style=""font-size:60px;"">+</div>","null","","fixation","","",""
"memory-trial","264","919782","0.0-18.0-1.109","5667","approach_avoid_sv1","""event"",""trial"",""time""
""fullscreenenter"",""1"",""1614""
","
","
","""event"",""trial"",""time""
""fullscreenenter"",""1"",""1614""
","
","","","","","","929.4000000003725","images/boat5.png","","","memory_trial","2","maybe_old",""
"html-keyboard-response","265","920286","0.0-18.0-0.110","5667","approach_avoid_sv1","""event"",""trial"",""time""
""fullscreenenter"",""1"",""1614""
","
","
","""event"",""trial"",""time""
""fullscreenenter"",""1"",""1614""
","
","","","","","","null","<div style=""font-size:60px;"">+</div>","null","","fixation","","",""
"memory-trial","266","921309","0.0-18.0-1.110","5667","approach_avoid_sv1","""event"",""trial"",""time""
""fullscreenenter"",""1"",""1614""
","
","
","""event"",""trial"",""time""
""fullscreenenter"",""1"",""1614""
","
","","","","","","16.40000000037253","images/banana3.png","","","memory_trial","2","maybe_old",""
"html-keyboard-response","267","921813","0.0-18.0-0.111","5667","approach_avoid_sv1","""event"",""trial"",""time""
""fullscreenenter"",""1"",""1614""
","
","
","""event"",""trial"",""time""
""fullscreenenter"",""1"",""1614""
","
","","","","","","null","<div style=""font-size:60px;"">+</div>","null","","fixation","","",""
"memory-trial","268","923621","0.0-18.0-1.111","5667","approach_avoid_sv1","""event"",""trial"",""time""
""fullscreenenter"",""1"",""1614""
","
","
","""event"",""trial"",""time""
""fullscreenenter"",""1"",""1614""
","
","","","","","","801.0999999996275","images/dog7.png","","","memory_trial","2","maybe_old",""
"html-keyboard-response","269","924125","0.0-18.0-0.112","5667","approach_avoid_sv1","""event"",""trial"",""time""
""fullscreenenter"",""1"",""1614""
","
","
","""event"",""trial"",""time""
""fullscreenenter"",""1"",""1614""
","
","","","","","","null","<div style=""font-size:60px;"">+</div>","null","","fixation","","",""
"memory-trial","270","925669","0.0-18.0-1.112","5667","approach_avoid_sv1","""event"",""trial"",""time""
""fullscreenenter"",""1"",""1614""
","
","
","""event"",""trial"",""time""
""fullscreenenter"",""1"",""1614""
","
","","","","","","537.3000000007451","images/banana7.png","","","memory_trial","2","maybe_old",""
"html-keyboard-response","271","926173","0.0-18.0-0.113","5667","approach_avoid_sv1","""event"",""trial"",""time""
""fullscreenenter"",""1"",""1614""
","
","
","""event"",""trial"",""time""
""fullscreenenter"",""1"",""1614""
","
","","","","","","null","<div style=""font-size:60px;"">+</div>","null","","fixation","","",""
"memory-trial","272","927949","0.0-18.0-1.113","5667","approach_avoid_sv1","""event"",""trial"",""time""
""fullscreenenter"",""1"",""1614""
","
","
","""event"",""trial"",""time""
""fullscreenenter"",""1"",""1614""
","
","","","","","","769.2000000011176","images/orange6.png","","","memory_trial","3","maybe_new",""
"html-keyboard-response","273","928453","0.0-18.0-0.114","5667","approach_avoid_sv1","""event"",""trial"",""time""
""fullscreenenter"",""1"",""1614""
","
","
","""event"",""trial"",""time""
""fullscreenenter"",""1"",""1614""
","
","","","","","","null","<div style=""font-size:60px;"">+</div>","null","","fixation","","",""
"memory-trial","274","929893","0.0-18.0-1.114","5667","approach_avoid_sv1","""event"",""trial"",""time""
""fullscreenenter"",""1"",""1614""
","
","
","""event"",""trial"",""time""
""fullscreenenter"",""1"",""1614""
","
","","","","","","433.59999999962747","images/bush5.png","","","memory_trial","4","definitely_new",""
"html-keyboard-response","275","930398","0.0-18.0-0.115","5667","approach_avoid_sv1","""event"",""trial"",""time""
""fullscreenenter"",""1"",""1614""
","
","
","""event"",""trial"",""time""
""fullscreenenter"",""1"",""1614""
","
","","","","","","null","<div style=""font-size:60px;"">+</div>","null","","fixation","","",""
"memory-trial","276","935701","0.0-18.0-1.115","5667","approach_avoid_sv1","""event"",""trial"",""time""
""fullscreenenter"",""1"",""1614""
","
","
","""event"",""trial"",""time""
""fullscreenenter"",""1"",""1614""
","
","","","","","","4297.800000000745","images/rabbit1.png","","","memory_trial","4","definitely_new",""
"html-keyboard-response","277","936205","0.0-18.0-0.116","5667","approach_avoid_sv1","""event"",""trial"",""time""
""fullscreenenter"",""1"",""1614""
","
","
","""event"",""trial"",""time""
""fullscreenenter"",""1"",""1614""
","
","","","","","","null","<div style=""font-size:60px;"">+</div>","null","","fixation","","",""
"memory-trial","278","939142","0.0-18.0-1.116","5667","approach_avoid_sv1","""event"",""trial"",""time""
""fullscreenenter"",""1"",""1614""
","
","
","""event"",""trial"",""time""
""fullscreenenter"",""1"",""1614""
","
","","","","","","1929.2000000011176","images/cat1.png","","","memory_trial","4","definitely_new",""
"html-keyboard-response","279","939645","0.0-18.0-0.117","5667","approach_avoid_sv1","""event"",""trial"",""time""
""fullscreenenter"",""1"",""1614""
","
","
","""event"",""trial"",""time""
""fullscreenenter"",""1"",""1614""
","
","","","","","","null","<div style=""font-size:60px;"">+</div>","null","","fixation","","",""
"memory-trial","280","941925","0.0-18.0-1.117","5667","approach_avoid_sv1","""event"",""trial"",""time""
""fullscreenenter"",""1"",""1614""
","
","
","""event"",""trial"",""time""
""fullscreenenter"",""1"",""1614""
","
","","","","","","1273.4000000003725","images/boat7.png","","","memory_trial","1","definitely_old",""
"html-keyboard-response","281","942429","0.0-18.0-0.118","5667","approach_avoid_sv1","""event"",""trial"",""time""
""fullscreenenter"",""1"",""1614""
","
","
","""event"",""trial"",""time""
""fullscreenenter"",""1"",""1614""
","
","","","","","","null","<div style=""font-size:60px;"">+</div>","null","","fixation","","",""
"memory-trial","282","944494","0.0-18.0-1.118","5667","approach_avoid_sv1","""event"",""trial"",""time""
""fullscreenenter"",""1"",""1614""
","
","
","""event"",""trial"",""time""
""fullscreenenter"",""1"",""1614""
","
","","","","","","1056.9000000003725","images/cat5.png","","","memory_trial","4","definitely_new",""
"html-keyboard-response","283","944998","0.0-18.0-0.119","5667","approach_avoid_sv1","""event"",""trial"",""time""
""fullscreenenter"",""1"",""1614""
","
","
","""event"",""trial"",""time""
""fullscreenenter"",""1"",""1614""
","
","","","","","","null","<div style=""font-size:60px;"">+</div>","null","","fixation","","",""
"memory-trial","284","947301","0.0-18.0-1.119","5667","approach_avoid_sv1","""event"",""trial"",""time""
""fullscreenenter"",""1"",""1614""
","
","
","""event"",""trial"",""time""
""fullscreenenter"",""1"",""1614""
","
","","","","","","1296.800000000745","images/tree5.png","","","memory_trial","4","definitely_new",""
"html-keyboard-response","285","947805","0.0-18.0-0.120","5667","approach_avoid_sv1","""event"",""trial"",""time""
""fullscreenenter"",""1"",""1614""
","
","
","""event"",""trial"",""time""
""fullscreenenter"",""1"",""1614""
","
","","","","","","null","<div style=""font-size:60px;"">+</div>","null","","fixation","","",""
"memory-trial","286","949478","0.0-18.0-1.120","5667","approach_avoid_sv1","""event"",""trial"",""time""
""fullscreenenter"",""1"",""1614""
","
","
","""event"",""trial"",""time""
""fullscreenenter"",""1"",""1614""
","
","","","","","","665","images/flower1.png","","","memory_trial","1","definitely_old",""
"html-keyboard-response","287","949981","0.0-18.0-0.121","5667","approach_avoid_sv1","""event"",""trial"",""time""
""fullscreenenter"",""1"",""1614""
","
","
","""event"",""trial"",""time""
""fullscreenenter"",""1"",""1614""
","
","","","","","","null","<div style=""font-size:60px;"">+</div>","null","","fixation","","",""
"memory-trial","288","951701","0.0-18.0-1.121","5667","approach_avoid_sv1","""event"",""trial"",""time""
""fullscreenenter"",""1"",""1614""
","
","
","""event"",""trial"",""time""
""fullscreenenter"",""1"",""1614""
","
","","","","","","713.3000000007451","images/apple3.png","","","memory_trial","2","maybe_old",""
"html-keyboard-response","289","952205","0.0-18.0-0.122","5667","approach_avoid_sv1","""event"",""trial"",""time""
""fullscreenenter"",""1"",""1614""
","
","
","""event"",""trial"",""time""
""fullscreenenter"",""1"",""1614""
","
","","","","","","null","<div style=""font-size:60px;"">+</div>","null","","fixation","","",""
"memory-trial","290","953758","0.0-18.0-1.122","5667","approach_avoid_sv1","""event"",""trial"",""time""
""fullscreenenter"",""1"",""1614""
","
","
","""event"",""trial"",""time""
""fullscreenenter"",""1"",""1614""
","
","","","","","","544.6000000014901","images/flower5.png","","","memory_trial","2","maybe_old",""
"html-keyboard-response","291","954261","0.0-18.0-0.123","5667","approach_avoid_sv1","""event"",""trial"",""time""
""fullscreenenter"",""1"",""1614""
","
","
","""event"",""trial"",""time""
""fullscreenenter"",""1"",""1614""
","
","","","","","","null","<div style=""font-size:60px;"">+</div>","null","","fixation","","",""
"memory-trial","292","955877","0.0-18.0-1.123","5667","approach_avoid_sv1","""event"",""trial"",""time""
""fullscreenenter"",""1"",""1614""
","
","
","""event"",""trial"",""time""
""fullscreenenter"",""1"",""1614""
","
","","","","","","609.0999999996275","images/flower2.png","","","memory_trial","2","maybe_old",""
"html-keyboard-response","293","956381","0.0-18.0-0.124","5667","approach_avoid_sv1","""event"",""trial"",""time""
""fullscreenenter"",""1"",""1614""
","
","
","""event"",""trial"",""time""
""fullscreenenter"",""1"",""1614""
","
","","","","","","null","<div style=""font-size:60px;"">+</div>","null","","fixation","","",""
"memory-trial","294","957669","0.0-18.0-1.124","5667","approach_avoid_sv1","""event"",""trial"",""time""
""fullscreenenter"",""1"",""1614""
","
","
","""event"",""trial"",""time""
""fullscreenenter"",""1"",""1614""
","
","","","","","","281.09999999962747","images/truck5.png","","","memory_trial","2","maybe_old",""
"html-keyboard-response","295","958173","0.0-18.0-0.125","5667","approach_avoid_sv1","""event"",""trial"",""time""
""fullscreenenter"",""1"",""1614""
","
","
","""event"",""trial"",""time""
""fullscreenenter"",""1"",""1614""
","
","","","","","","null","<div style=""font-size:60px;"">+</div>","null","","fixation","","",""
"memory-trial","296","959541","0.0-18.0-1.125","5667","approach_avoid_sv1","""event"",""trial"",""time""
""fullscreenenter"",""1"",""1614""
","
","
","""event"",""trial"",""time""
""fullscreenenter"",""1"",""1614""
","
","","","","","","361.30000000074506","images/bed4.png","","","memory_trial","3","maybe_new",""
"html-keyboard-response","297","960045","0.0-18.0-0.126","5667","approach_avoid_sv1","""event"",""trial"",""time""
""fullscreenenter"",""1"",""1614""
","
","
","""event"",""trial"",""time""
""fullscreenenter"",""1"",""1614""
","
","","","","","","null","<div style=""font-size:60px;"">+</div>","null","","fixation","","",""
"memory-trial","298","962157","0.0-18.0-1.126","5667","approach_avoid_sv1","""event"",""trial"",""time""
