"trial_type","trial_index","time_elapsed","internal_node_id","subject_id","task_version","interactions","blur_events","focus_events","fullscreenenter_events","fullscreenexit_events","success","timeout","failed_images","failed_audio","failed_video","rt","stimulus","response","button_pressed","task_part","key_press","answer","correct"
"pavlovia","0","3","0.0-0.0","5526","approach_avoid_sv1","""event"",""trial"",""time""
""fullscreenenter"",""1"",""1588""
","
","
","""event"",""trial"",""time""
""fullscreenenter"",""1"",""1588""
","
","","","","","","","","","","","","",""
"fullscreen","1","2566","0.0-1.0","5526","approach_avoid_sv1","""event"",""trial"",""time""
""fullscreenenter"",""1"",""1588""
","
","
","""event"",""trial"",""time""
""fullscreenenter"",""1"",""1588""
","
","true","","","","","","","","","","","",""
"preload","2","14759","0.0-2.0","5526","approach_avoid_sv1","""event"",""trial"",""time""
""fullscreenenter"",""1"",""1588""
""blur"",""3"",""28465""
""focus"",""3"",""31025""
","""event"",""trial"",""time""
""blur"",""3"",""28465""
","""event"",""trial"",""time""
""focus"",""3"",""31025""
","""event"",""trial"",""time""
""fullscreenenter"",""1"",""1588""
","
","true","false","[]","[]","[]","","","","","","","",""
"preload","3","31241","0.0-3.0","5526","approach_avoid_sv1","""event"",""trial"",""time""
""fullscreenenter"",""1"",""1588""
""blur"",""3"",""28465""
""focus"",""3"",""31025""
","""event"",""trial"",""time""
""blur"",""3"",""28465""
","""event"",""trial"",""time""
""focus"",""3"",""31025""
","""event"",""trial"",""time""
""fullscreenenter"",""1"",""1588""
","
","true","false","[]","[]","[]","","","","","","","",""
"preload","4","32129","0.0-4.0","5526","approach_avoid_sv1","""event"",""trial"",""time""
""fullscreenenter"",""1"",""1588""
""blur"",""3"",""28465""
""focus"",""3"",""31025""
","""event"",""trial"",""time""
""blur"",""3"",""28465""
","""event"",""trial"",""time""
""focus"",""3"",""31025""
","""event"",""trial"",""time""
""fullscreenenter"",""1"",""1588""
","
","true","false","[]","[]","[]","","","","","","","",""
"audio-keyboard-response","5","33466","0.0-5.0","5526","approach_avoid_sv1","""event"",""trial"",""time""
""fullscreenenter"",""1"",""1588""
""blur"",""3"",""28465""
""focus"",""3"",""31025""
","""event"",""trial"",""time""
""blur"",""3"",""28465""
","""event"",""trial"",""time""
""focus"",""3"",""31025""
","""event"",""trial"",""time""
""fullscreenenter"",""1"",""1588""
","
","","","","","","1323.5374149659865","audio/beep_loop.wav"," ","","","","",""
"audio-button-response","6","34877","0.0-6.0","5526","approach_avoid_sv1","""event"",""trial"",""time""
""fullscreenenter"",""1"",""1588""
""blur"",""3"",""28465""
""focus"",""3"",""31025""
","""event"",""trial"",""time""
""blur"",""3"",""28465""
","""event"",""trial"",""time""
""focus"",""3"",""31025""
","""event"",""trial"",""time""
""fullscreenenter"",""1"",""1588""
","
","","","","","","1405","audio/turtle.wav","3","","","","",""
"audio-button-response","7","36992","0.0-7.0","5526","approach_avoid_sv1","""event"",""trial"",""time""
""fullscreenenter"",""1"",""1588""
""blur"",""3"",""28465""
""focus"",""3"",""31025""
""blur"",""8"",""42745""
""focus"",""8"",""50478""
""blur"",""8"",""53672""
""focus"",""8"",""56887""
""blur"",""8"",""58757""
","""event"",""trial"",""time""
""blur"",""3"",""28465""
""blur"",""8"",""42745""
""blur"",""8"",""53672""
""blur"",""8"",""58757""
","""event"",""trial"",""time""
""focus"",""3"",""31025""
""focus"",""8"",""50478""
""focus"",""8"",""56887""
","""event"",""trial"",""time""
""fullscreenenter"",""1"",""1588""
","
","","","","","","1109","audio/shark.wav","2","","","","",""
"preload","8","58935","0.0-8.0","5526","approach_avoid_sv1","""event"",""trial"",""time""
""fullscreenenter"",""1"",""1588""
""blur"",""3"",""28465""
""focus"",""3"",""31025""
""blur"",""8"",""42745""
""focus"",""8"",""50478""
""blur"",""8"",""53672""
""focus"",""8"",""56887""
""blur"",""8"",""58757""
""focus"",""9"",""72296""
""blur"",""9"",""73432""
""focus"",""9"",""79656""
","""event"",""trial"",""time""
""blur"",""3"",""28465""
""blur"",""8"",""42745""
""blur"",""8"",""53672""
""blur"",""8"",""58757""
""blur"",""9"",""73432""
","""event"",""trial"",""time""
""focus"",""3"",""31025""
""focus"",""8"",""50478""
""focus"",""8"",""56887""
""focus"",""9"",""72296""
""focus"",""9"",""79656""
","""event"",""trial"",""time""
""fullscreenenter"",""1"",""1588""
","
","true","false","[]","[]","[]","","","","","","","",""
"learning-instructions","9","80946","0.0-9.0-0.0","5526","approach_avoid_sv1","""event"",""trial"",""time""
""fullscreenenter"",""1"",""1588""
""blur"",""3"",""28465""
""focus"",""3"",""31025""
""blur"",""8"",""42745""
""focus"",""8"",""50478""
""blur"",""8"",""53672""
""focus"",""8"",""56887""
""blur"",""8"",""58757""
""focus"",""9"",""72296""
""blur"",""9"",""73432""
""focus"",""9"",""79656""
""blur"",""10"",""83777""
""focus"",""10"",""115085""
""blur"",""10"",""116179""
""focus"",""10"",""317727""
""blur"",""10"",""318660""
""focus"",""10"",""357770""
""blur"",""10"",""359188""
""focus"",""10"",""419197""
","""event"",""trial"",""time""
""blur"",""3"",""28465""
""blur"",""8"",""42745""
""blur"",""8"",""53672""
""blur"",""8"",""58757""
""blur"",""9"",""73432""
""blur"",""10"",""83777""
""blur"",""10"",""116179""
""blur"",""10"",""318660""
""blur"",""10"",""359188""
","""event"",""trial"",""time""
""focus"",""3"",""31025""
""focus"",""8"",""50478""
""focus"",""8"",""56887""
""focus"",""9"",""72296""
""focus"",""9"",""79656""
""focus"",""10"",""115085""
""focus"",""10"",""317727""
""focus"",""10"",""357770""
""focus"",""10"",""419197""
","""event"",""trial"",""time""
""fullscreenenter"",""1"",""1588""
","
","","","","","","17532.80000001192","<p> Welcome back! </p><p> Last week, you had to make choices about lots of different items.  </p>","","0","instructions","","",""
"learning-instructions","10","420378","0.0-9.0-0.1","5526","approach_avoid_sv1","""event"",""trial"",""time""
""fullscreenenter"",""1"",""1588""
""blur"",""3"",""28465""
""focus"",""3"",""31025""
""blur"",""8"",""42745""
""focus"",""8"",""50478""
""blur"",""8"",""53672""
""focus"",""8"",""56887""
""blur"",""8"",""58757""
""focus"",""9"",""72296""
""blur"",""9"",""73432""
""focus"",""9"",""79656""
""blur"",""10"",""83777""
""focus"",""10"",""115085""
""blur"",""10"",""116179""
""focus"",""10"",""317727""
""blur"",""10"",""318660""
""focus"",""10"",""357770""
""blur"",""10"",""359188""
""focus"",""10"",""419197""
","""event"",""trial"",""time""
""blur"",""3"",""28465""
""blur"",""8"",""42745""
""blur"",""8"",""53672""
""blur"",""8"",""58757""
""blur"",""9"",""73432""
""blur"",""10"",""83777""
""blur"",""10"",""116179""
""blur"",""10"",""318660""
""blur"",""10"",""359188""
","""event"",""trial"",""time""
""focus"",""3"",""31025""
""focus"",""8"",""50478""
""focus"",""8"",""56887""
""focus"",""9"",""72296""
""focus"",""9"",""79656""
""focus"",""10"",""115085""
""focus"",""10"",""317727""
""focus"",""10"",""357770""
""focus"",""10"",""419197""
","""event"",""trial"",""time""
""fullscreenenter"",""1"",""1588""
","
","","","","","","335340.5","<p> Today, we are going to ask you to try to remember all the items. </p>","","0","instructions","","",""
"learning-instructions","11","431299","0.0-9.0-0.2","5526","approach_avoid_sv1","""event"",""trial"",""time""
""fullscreenenter"",""1"",""1588""
""blur"",""3"",""28465""
""focus"",""3"",""31025""
""blur"",""8"",""42745""
""focus"",""8"",""50478""
""blur"",""8"",""53672""
""focus"",""8"",""56887""
""blur"",""8"",""58757""
""focus"",""9"",""72296""
""blur"",""9"",""73432""
""focus"",""9"",""79656""
""blur"",""10"",""83777""
""focus"",""10"",""115085""
""blur"",""10"",""116179""
""focus"",""10"",""317727""
""blur"",""10"",""318660""
""focus"",""10"",""357770""
""blur"",""10"",""359188""
""focus"",""10"",""419197""
","""event"",""trial"",""time""
""blur"",""3"",""28465""
""blur"",""8"",""42745""
""blur"",""8"",""53672""
""blur"",""8"",""58757""
""blur"",""9"",""73432""
""blur"",""10"",""83777""
""blur"",""10"",""116179""
""blur"",""10"",""318660""
""blur"",""10"",""359188""
","""event"",""trial"",""time""
""focus"",""3"",""31025""
""focus"",""8"",""50478""
""focus"",""8"",""56887""
""focus"",""9"",""72296""
""focus"",""9"",""79656""
""focus"",""10"",""115085""
""focus"",""10"",""317727""
""focus"",""10"",""357770""
""focus"",""10"",""419197""
","""event"",""trial"",""time""
""fullscreenenter"",""1"",""1588""
","
","","","","","","778.3999999761581","<p> On every trial, you will see an image. </p><p> The image may be an OLD image you saw during the games last week or it may be a NEW image that was not presented. </p>","","0","instructions","","",""
"learning-instructions","12","440350","0.0-9.0-0.3","5526","approach_avoid_sv1","""event"",""trial"",""time""
""fullscreenenter"",""1"",""1588""
""blur"",""3"",""28465""
""focus"",""3"",""31025""
""blur"",""8"",""42745""
""focus"",""8"",""50478""
""blur"",""8"",""53672""
""focus"",""8"",""56887""
""blur"",""8"",""58757""
""focus"",""9"",""72296""
""blur"",""9"",""73432""
""focus"",""9"",""79656""
""blur"",""10"",""83777""
""focus"",""10"",""115085""
""blur"",""10"",""116179""
""focus"",""10"",""317727""
""blur"",""10"",""318660""
""focus"",""10"",""357770""
""blur"",""10"",""359188""
""focus"",""10"",""419197""
","""event"",""trial"",""time""
""blur"",""3"",""28465""
""blur"",""8"",""42745""
""blur"",""8"",""53672""
""blur"",""8"",""58757""
""blur"",""9"",""73432""
""blur"",""10"",""83777""
""blur"",""10"",""116179""
""blur"",""10"",""318660""
""blur"",""10"",""359188""
","""event"",""trial"",""time""
""focus"",""3"",""31025""
""focus"",""8"",""50478""
""focus"",""8"",""56887""
""focus"",""9"",""72296""
""focus"",""9"",""79656""
""focus"",""10"",""115085""
""focus"",""10"",""317727""
""focus"",""10"",""357770""
""focus"",""10"",""419197""
","""event"",""trial"",""time""
""fullscreenenter"",""1"",""1588""
","
","","","","","","551.8999999761581","<p> You need to select whether the image is:  </p><p>  'Definitely old', 'Maybe old', 'Maybe new', or 'Definitely new.'  </p><div class=""mem-choice-instructions-grid""><div class=""choice-option"" id=""choice-option-1"" ><img src=""images/definitely_old_1.png"" id=""choice-option-img-1"" class=""choice-option-img"" stage=""1""></div><div class=""choice-option"" id=""choice-option-2"" ><img src=""images/maybe_old_1.png"" id=""choice-option-img-2"" class=""choice-option-img"" stage=""1""></div><div class=""choice-option"" id=""choice-option-3"" ><img src=""images/maybe_new_1.png"" id=""choice-option-img-3"" class=""choice-option-img"" stage=""1""></div><div class=""choice-option"" id=""choice-option-4"" > <img src=""images/definitely_new_1.png"" id=""choice-option-img-4"" class=""choice-option-img"" stage=""1""></div></div>","","0","instructions","","",""
"learning-instructions","13","447393","0.0-9.0-0.4","5526","approach_avoid_sv1","""event"",""trial"",""time""
""fullscreenenter"",""1"",""1588""
""blur"",""3"",""28465""
""focus"",""3"",""31025""
""blur"",""8"",""42745""
""focus"",""8"",""50478""
""blur"",""8"",""53672""
""focus"",""8"",""56887""
""blur"",""8"",""58757""
""focus"",""9"",""72296""
""blur"",""9"",""73432""
""focus"",""9"",""79656""
""blur"",""10"",""83777""
""focus"",""10"",""115085""
""blur"",""10"",""116179""
""focus"",""10"",""317727""
""blur"",""10"",""318660""
""focus"",""10"",""357770""
""blur"",""10"",""359188""
""focus"",""10"",""419197""
","""event"",""trial"",""time""
""blur"",""3"",""28465""
""blur"",""8"",""42745""
""blur"",""8"",""53672""
""blur"",""8"",""58757""
""blur"",""9"",""73432""
""blur"",""10"",""83777""
""blur"",""10"",""116179""
""blur"",""10"",""318660""
""blur"",""10"",""359188""
","""event"",""trial"",""time""
""focus"",""3"",""31025""
""focus"",""8"",""50478""
""focus"",""8"",""56887""
""focus"",""9"",""72296""
""focus"",""9"",""79656""
""focus"",""10"",""115085""
""focus"",""10"",""317727""
""focus"",""10"",""357770""
""focus"",""10"",""419197""
","""event"",""trial"",""time""
""fullscreenenter"",""1"",""1588""
","
","","","","","","532.1000000238419","<p> You should use the 1, 2, 3, and 4 keys to make your responses.  </p><div class=""mem-choice-instructions-grid""><div class=""choice-option"" id=""choice-option-1"" ><img src=""images/definitely_old.png"" id=""choice-option-img-1"" class=""choice-option-img"" stage=""1""></div><div class=""choice-option"" id=""choice-option-2"" ><img src=""images/maybe_old.png"" id=""choice-option-img-2"" class=""choice-option-img"" stage=""1""></div><div class=""choice-option"" id=""choice-option-3"" ><img src=""images/maybe_new.png"" id=""choice-option-img-3"" class=""choice-option-img"" stage=""1""></div><div class=""choice-option"" id=""choice-option-4"" > <img src=""images/definitely_new.png"" id=""choice-option-img-4"" class=""choice-option-img"" stage=""1""></div></div>","","0","instructions","","",""
"learning-instructions","14","454167","0.0-9.0-0.5","5526","approach_avoid_sv1","""event"",""trial"",""time""
""fullscreenenter"",""1"",""1588""
""blur"",""3"",""28465""
""focus"",""3"",""31025""
""blur"",""8"",""42745""
""focus"",""8"",""50478""
""blur"",""8"",""53672""
""focus"",""8"",""56887""
""blur"",""8"",""58757""
""focus"",""9"",""72296""
""blur"",""9"",""73432""
""focus"",""9"",""79656""
""blur"",""10"",""83777""
""focus"",""10"",""115085""
""blur"",""10"",""116179""
""focus"",""10"",""317727""
""blur"",""10"",""318660""
""focus"",""10"",""357770""
""blur"",""10"",""359188""
""focus"",""10"",""419197""
","""event"",""trial"",""time""
""blur"",""3"",""28465""
""blur"",""8"",""42745""
""blur"",""8"",""53672""
""blur"",""8"",""58757""
""blur"",""9"",""73432""
""blur"",""10"",""83777""
""blur"",""10"",""116179""
""blur"",""10"",""318660""
""blur"",""10"",""359188""
","""event"",""trial"",""time""
""focus"",""3"",""31025""
""focus"",""8"",""50478""
""focus"",""8"",""56887""
""focus"",""9"",""72296""
""focus"",""9"",""79656""
""focus"",""10"",""115085""
""focus"",""10"",""317727""
""focus"",""10"",""357770""
""focus"",""10"",""419197""
","""event"",""trial"",""time""
""fullscreenenter"",""1"",""1588""
","
","","","","","","450.5","<p> You will have 10 seconds to make each response.  </p><p>  Make sure to respond before time runs out! </p>","","0","instructions","","",""
"learning-instructions","15","461775","0.0-9.0-0.6","5526","approach_avoid_sv1","""event"",""trial"",""time""
""fullscreenenter"",""1"",""1588""
""blur"",""3"",""28465""
""focus"",""3"",""31025""
""blur"",""8"",""42745""
""focus"",""8"",""50478""
""blur"",""8"",""53672""
""focus"",""8"",""56887""
""blur"",""8"",""58757""
""focus"",""9"",""72296""
""blur"",""9"",""73432""
""focus"",""9"",""79656""
""blur"",""10"",""83777""
""focus"",""10"",""115085""
""blur"",""10"",""116179""
""focus"",""10"",""317727""
""blur"",""10"",""318660""
""focus"",""10"",""357770""
""blur"",""10"",""359188""
""focus"",""10"",""419197""
","""event"",""trial"",""time""
""blur"",""3"",""28465""
""blur"",""8"",""42745""
""blur"",""8"",""53672""
""blur"",""8"",""58757""
""blur"",""9"",""73432""
""blur"",""10"",""83777""
""blur"",""10"",""116179""
""blur"",""10"",""318660""
""blur"",""10"",""359188""
","""event"",""trial"",""time""
""focus"",""3"",""31025""
""focus"",""8"",""50478""
""focus"",""8"",""56887""
""focus"",""9"",""72296""
""focus"",""9"",""79656""
""focus"",""10"",""115085""
""focus"",""10"",""317727""
""focus"",""10"",""357770""
""focus"",""10"",""419197""
","""event"",""trial"",""time""
""fullscreenenter"",""1"",""1588""
","
","","","","","","536.4000000357628","<p> Today, you will see each image ONCE only.  </p><p>  That means none of the images will repeat. </p>","","0","instructions","","",""
"learning-instructions","16","494601","0.0-9.0-0.7","5526","approach_avoid_sv1","""event"",""trial"",""time""
""fullscreenenter"",""1"",""1588""
""blur"",""3"",""28465""
""focus"",""3"",""31025""
""blur"",""8"",""42745""
""focus"",""8"",""50478""
""blur"",""8"",""53672""
""focus"",""8"",""56887""
""blur"",""8"",""58757""
""focus"",""9"",""72296""
""blur"",""9"",""73432""
""focus"",""9"",""79656""
""blur"",""10"",""83777""
""focus"",""10"",""115085""
""blur"",""10"",""116179""
""focus"",""10"",""317727""
""blur"",""10"",""318660""
""focus"",""10"",""357770""
""blur"",""10"",""359188""
""focus"",""10"",""419197""
","""event"",""trial"",""time""
""blur"",""3"",""28465""
""blur"",""8"",""42745""
""blur"",""8"",""53672""
""blur"",""8"",""58757""
""blur"",""9"",""73432""
""blur"",""10"",""83777""
""blur"",""10"",""116179""
""blur"",""10"",""318660""
""blur"",""10"",""359188""
","""event"",""trial"",""time""
""focus"",""3"",""31025""
""focus"",""8"",""50478""
""focus"",""8"",""56887""
""focus"",""9"",""72296""
""focus"",""9"",""79656""
""focus"",""10"",""115085""
""focus"",""10"",""317727""
""focus"",""10"",""357770""
""focus"",""10"",""419197""
","""event"",""trial"",""time""
""fullscreenenter"",""1"",""1588""
","
","","","","","","20163.100000023842","<p> Before you play the real game, it is time to practice. </p><p>  Just like in the real game, some of the images in the practice will be ones you have seen before. </p><p>  Others will be entirely new. </p>","","0","instructions","","",""
"html-button-response","17","496944","0.0-10.0","5526","approach_avoid_sv1","""event"",""trial"",""time""
""fullscreenenter"",""1"",""1588""
""blur"",""3"",""28465""
""focus"",""3"",""31025""
""blur"",""8"",""42745""
""focus"",""8"",""50478""
""blur"",""8"",""53672""
""focus"",""8"",""56887""
""blur"",""8"",""58757""
""focus"",""9"",""72296""
""blur"",""9"",""73432""
""focus"",""9"",""79656""
""blur"",""10"",""83777""
""focus"",""10"",""115085""
""blur"",""10"",""116179""
""focus"",""10"",""317727""
""blur"",""10"",""318660""
""focus"",""10"",""357770""
""blur"",""10"",""359188""
""focus"",""10"",""419197""
","""event"",""trial"",""time""
""blur"",""3"",""28465""
""blur"",""8"",""42745""
""blur"",""8"",""53672""
""blur"",""8"",""58757""
""blur"",""9"",""73432""
""blur"",""10"",""83777""
""blur"",""10"",""116179""
""blur"",""10"",""318660""
""blur"",""10"",""359188""
","""event"",""trial"",""time""
""focus"",""3"",""31025""
""focus"",""8"",""50478""
""focus"",""8"",""56887""
""focus"",""9"",""72296""
""focus"",""9"",""79656""
""focus"",""10"",""115085""
""focus"",""10"",""317727""
""focus"",""10"",""357770""
""focus"",""10"",""419197""
","""event"",""trial"",""time""
""fullscreenenter"",""1"",""1588""
","
","","","","","","2235.399999976158","<p> Ready to practice? </p><p> Remember, use the 1, 2, 3, and 4 keys to make your responses. </p>","0","","instructions","","",""
"html-keyboard-response","18","497547","0.0-11.0-0.0","5526","approach_avoid_sv1","""event"",""trial"",""time""
""fullscreenenter"",""1"",""1588""
""blur"",""3"",""28465""
""focus"",""3"",""31025""
""blur"",""8"",""42745""
""focus"",""8"",""50478""
""blur"",""8"",""53672""
""focus"",""8"",""56887""
""blur"",""8"",""58757""
""focus"",""9"",""72296""
""blur"",""9"",""73432""
""focus"",""9"",""79656""
""blur"",""10"",""83777""
""focus"",""10"",""115085""
""blur"",""10"",""116179""
""focus"",""10"",""317727""
""blur"",""10"",""318660""
""focus"",""10"",""357770""
""blur"",""10"",""359188""
""focus"",""10"",""419197""
","""event"",""trial"",""time""
""blur"",""3"",""28465""
""blur"",""8"",""42745""
""blur"",""8"",""53672""
""blur"",""8"",""58757""
""blur"",""9"",""73432""
""blur"",""10"",""83777""
""blur"",""10"",""116179""
""blur"",""10"",""318660""
""blur"",""10"",""359188""
","""event"",""trial"",""time""
""focus"",""3"",""31025""
""focus"",""8"",""50478""
""focus"",""8"",""56887""
""focus"",""9"",""72296""
""focus"",""9"",""79656""
""focus"",""10"",""115085""
""focus"",""10"",""317727""
""focus"",""10"",""357770""
""focus"",""10"",""419197""
","""event"",""trial"",""time""
""fullscreenenter"",""1"",""1588""
","
","","","","","","null","<div style=""font-size:60px;"">+</div>","null","","fixation","","",""
"memory-trial","19","500028","0.0-11.0-1.0","5526","approach_avoid_sv1","""event"",""trial"",""time""
""fullscreenenter"",""1"",""1588""
""blur"",""3"",""28465""
""focus"",""3"",""31025""
""blur"",""8"",""42745""
""focus"",""8"",""50478""
""blur"",""8"",""53672""
""focus"",""8"",""56887""
""blur"",""8"",""58757""
""focus"",""9"",""72296""
""blur"",""9"",""73432""
""focus"",""9"",""79656""
""blur"",""10"",""83777""
""focus"",""10"",""115085""
""blur"",""10"",""116179""
""focus"",""10"",""317727""
""blur"",""10"",""318660""
""focus"",""10"",""357770""
""blur"",""10"",""359188""
""focus"",""10"",""419197""
","""event"",""trial"",""time""
""blur"",""3"",""28465""
""blur"",""8"",""42745""
""blur"",""8"",""53672""
""blur"",""8"",""58757""
""blur"",""9"",""73432""
""blur"",""10"",""83777""
""blur"",""10"",""116179""
""blur"",""10"",""318660""
""blur"",""10"",""359188""
","""event"",""trial"",""time""
""focus"",""3"",""31025""
""focus"",""8"",""50478""
""focus"",""8"",""56887""
""focus"",""9"",""72296""
""focus"",""9"",""79656""
""focus"",""10"",""115085""
""focus"",""10"",""317727""
""focus"",""10"",""357770""
""focus"",""10"",""419197""
","""event"",""trial"",""time""
""fullscreenenter"",""1"",""1588""
","
","","","","","","1476.8999999761581","images/racket2.png","","","practice","1","definitely_old",""
"html-keyboard-response","20","500531","0.0-11.0-0.1","5526","approach_avoid_sv1","""event"",""trial"",""time""
""fullscreenenter"",""1"",""1588""
""blur"",""3"",""28465""
""focus"",""3"",""31025""
""blur"",""8"",""42745""
""focus"",""8"",""50478""
""blur"",""8"",""53672""
""focus"",""8"",""56887""
""blur"",""8"",""58757""
""focus"",""9"",""72296""
""blur"",""9"",""73432""
""focus"",""9"",""79656""
""blur"",""10"",""83777""
""focus"",""10"",""115085""
""blur"",""10"",""116179""
""focus"",""10"",""317727""
""blur"",""10"",""318660""
""focus"",""10"",""357770""
""blur"",""10"",""359188""
""focus"",""10"",""419197""
","""event"",""trial"",""time""
""blur"",""3"",""28465""
""blur"",""8"",""42745""
""blur"",""8"",""53672""
""blur"",""8"",""58757""
""blur"",""9"",""73432""
""blur"",""10"",""83777""
""blur"",""10"",""116179""
""blur"",""10"",""318660""
""blur"",""10"",""359188""
","""event"",""trial"",""time""
""focus"",""3"",""31025""
""focus"",""8"",""50478""
""focus"",""8"",""56887""
""focus"",""9"",""72296""
""focus"",""9"",""79656""
""focus"",""10"",""115085""
""focus"",""10"",""317727""
""focus"",""10"",""357770""
""focus"",""10"",""419197""
","""event"",""trial"",""time""
""fullscreenenter"",""1"",""1588""
","
","","","","","","null","<div style=""font-size:60px;"">+</div>","null","","fixation","","",""
"memory-trial","21","503766","0.0-11.0-1.1","5526","approach_avoid_sv1","""event"",""trial"",""time""
""fullscreenenter"",""1"",""1588""
""blur"",""3"",""28465""
""focus"",""3"",""31025""
""blur"",""8"",""42745""
""focus"",""8"",""50478""
""blur"",""8"",""53672""
""focus"",""8"",""56887""
""blur"",""8"",""58757""
""focus"",""9"",""72296""
""blur"",""9"",""73432""
""focus"",""9"",""79656""
""blur"",""10"",""83777""
""focus"",""10"",""115085""
""blur"",""10"",""116179""
""focus"",""10"",""317727""
""blur"",""10"",""318660""
""focus"",""10"",""357770""
""blur"",""10"",""359188""
""focus"",""10"",""419197""
","""event"",""trial"",""time""
""blur"",""3"",""28465""
""blur"",""8"",""42745""
""blur"",""8"",""53672""
""blur"",""8"",""58757""
""blur"",""9"",""73432""
""blur"",""10"",""83777""
""blur"",""10"",""116179""
""blur"",""10"",""318660""
""blur"",""10"",""359188""
","""event"",""trial"",""time""
""focus"",""3"",""31025""
""focus"",""8"",""50478""
""focus"",""8"",""56887""
""focus"",""9"",""72296""
""focus"",""9"",""79656""
""focus"",""10"",""115085""
""focus"",""10"",""317727""
""focus"",""10"",""357770""
""focus"",""10"",""419197""
","""event"",""trial"",""time""
""fullscreenenter"",""1"",""1588""
","
","","","","","","2228.199999988079","images/racket5.png","","","practice","3","maybe_new",""
"html-keyboard-response","22","504271","0.0-11.0-0.2","5526","approach_avoid_sv1","""event"",""trial"",""time""
""fullscreenenter"",""1"",""1588""
""blur"",""3"",""28465""
""focus"",""3"",""31025""
""blur"",""8"",""42745""
""focus"",""8"",""50478""
""blur"",""8"",""53672""
""focus"",""8"",""56887""
""blur"",""8"",""58757""
""focus"",""9"",""72296""
""blur"",""9"",""73432""
""focus"",""9"",""79656""
""blur"",""10"",""83777""
""focus"",""10"",""115085""
""blur"",""10"",""116179""
""focus"",""10"",""317727""
""blur"",""10"",""318660""
""focus"",""10"",""357770""
""blur"",""10"",""359188""
""focus"",""10"",""419197""
","""event"",""trial"",""time""
""blur"",""3"",""28465""
""blur"",""8"",""42745""
""blur"",""8"",""53672""
""blur"",""8"",""58757""
""blur"",""9"",""73432""
""blur"",""10"",""83777""
""blur"",""10"",""116179""
""blur"",""10"",""318660""
""blur"",""10"",""359188""
","""event"",""trial"",""time""
""focus"",""3"",""31025""
""focus"",""8"",""50478""
""focus"",""8"",""56887""
""focus"",""9"",""72296""
""focus"",""9"",""79656""
""focus"",""10"",""115085""
""focus"",""10"",""317727""
""focus"",""10"",""357770""
""focus"",""10"",""419197""
","""event"",""trial"",""time""
""fullscreenenter"",""1"",""1588""
","
","","","","","","null","<div style=""font-size:60px;"">+</div>","null","","fixation","","",""
"memory-trial","23","506810","0.0-11.0-1.2","5526","approach_avoid_sv1","""event"",""trial"",""time""
""fullscreenenter"",""1"",""1588""
""blur"",""3"",""28465""
""focus"",""3"",""31025""
""blur"",""8"",""42745""
""focus"",""8"",""50478""
""blur"",""8"",""53672""
""focus"",""8"",""56887""
""blur"",""8"",""58757""
""focus"",""9"",""72296""
""blur"",""9"",""73432""
""focus"",""9"",""79656""
""blur"",""10"",""83777""
""focus"",""10"",""115085""
""blur"",""10"",""116179""
""focus"",""10"",""317727""
""blur"",""10"",""318660""
""focus"",""10"",""357770""
""blur"",""10"",""359188""
""focus"",""10"",""419197""
","""event"",""trial"",""time""
""blur"",""3"",""28465""
""blur"",""8"",""42745""
""blur"",""8"",""53672""
""blur"",""8"",""58757""
""blur"",""9"",""73432""
""blur"",""10"",""83777""
""blur"",""10"",""116179""
""blur"",""10"",""318660""
""blur"",""10"",""359188""
","""event"",""trial"",""time""
""focus"",""3"",""31025""
""focus"",""8"",""50478""
""focus"",""8"",""56887""
""focus"",""9"",""72296""
""focus"",""9"",""79656""
""focus"",""10"",""115085""
""focus"",""10"",""317727""
""focus"",""10"",""357770""
""focus"",""10"",""419197""
","""event"",""trial"",""time""
""fullscreenenter"",""1"",""1588""
","
","","","","","","1530.800000011921","images/ball2.png","","","practice","1","definitely_old",""
"html-keyboard-response","24","507318","0.0-11.0-0.3","5526","approach_avoid_sv1","""event"",""trial"",""time""
""fullscreenenter"",""1"",""1588""
""blur"",""3"",""28465""
""focus"",""3"",""31025""
""blur"",""8"",""42745""
""focus"",""8"",""50478""
""blur"",""8"",""53672""
""focus"",""8"",""56887""
""blur"",""8"",""58757""
""focus"",""9"",""72296""
""blur"",""9"",""73432""
""focus"",""9"",""79656""
""blur"",""10"",""83777""
""focus"",""10"",""115085""
""blur"",""10"",""116179""
""focus"",""10"",""317727""
""blur"",""10"",""318660""
""focus"",""10"",""357770""
""blur"",""10"",""359188""
""focus"",""10"",""419197""
","""event"",""trial"",""time""
""blur"",""3"",""28465""
""blur"",""8"",""42745""
""blur"",""8"",""53672""
""blur"",""8"",""58757""
""blur"",""9"",""73432""
""blur"",""10"",""83777""
""blur"",""10"",""116179""
""blur"",""10"",""318660""
""blur"",""10"",""359188""
","""event"",""trial"",""time""
""focus"",""3"",""31025""
""focus"",""8"",""50478""
""focus"",""8"",""56887""
""focus"",""9"",""72296""
""focus"",""9"",""79656""
""focus"",""10"",""115085""
""focus"",""10"",""317727""
""focus"",""10"",""357770""
""focus"",""10"",""419197""
","""event"",""trial"",""time""
""fullscreenenter"",""1"",""1588""
","
","","","","","","null","<div style=""font-size:60px;"">+</div>","null","","fixation","","",""
"memory-trial","25","509812","0.0-11.0-1.3","5526","approach_avoid_sv1","""event"",""trial"",""time""
""fullscreenenter"",""1"",""1588""
""blur"",""3"",""28465""
""focus"",""3"",""31025""
""blur"",""8"",""42745""
""focus"",""8"",""50478""
""blur"",""8"",""53672""
""focus"",""8"",""56887""
""blur"",""8"",""58757""
""focus"",""9"",""72296""
""blur"",""9"",""73432""
""focus"",""9"",""79656""
""blur"",""10"",""83777""
""focus"",""10"",""115085""
""blur"",""10"",""116179""
""focus"",""10"",""317727""
""blur"",""10"",""318660""
""focus"",""10"",""357770""
""blur"",""10"",""359188""
""focus"",""10"",""419197""
","""event"",""trial"",""time""
""blur"",""3"",""28465""
""blur"",""8"",""42745""
""blur"",""8"",""53672""
""blur"",""8"",""58757""
""blur"",""9"",""73432""
""blur"",""10"",""83777""
""blur"",""10"",""116179""
""blur"",""10"",""318660""
""blur"",""10"",""359188""
","""event"",""trial"",""time""
""focus"",""3"",""31025""
""focus"",""8"",""50478""
""focus"",""8"",""56887""
""focus"",""9"",""72296""
""focus"",""9"",""79656""
""focus"",""10"",""115085""
""focus"",""10"",""317727""
""focus"",""10"",""357770""
""focus"",""10"",""419197""
","""event"",""trial"",""time""
""fullscreenenter"",""1"",""1588""
","
","","","","","","1489.6000000238419","images/racket3.png","","","practice","1","definitely_old",""
"html-keyboard-response","26","510317","0.0-11.0-0.4","5526","approach_avoid_sv1","""event"",""trial"",""time""
""fullscreenenter"",""1"",""1588""
""blur"",""3"",""28465""
""focus"",""3"",""31025""
""blur"",""8"",""42745""
""focus"",""8"",""50478""
""blur"",""8"",""53672""
""focus"",""8"",""56887""
""blur"",""8"",""58757""
""focus"",""9"",""72296""
""blur"",""9"",""73432""
""focus"",""9"",""79656""
""blur"",""10"",""83777""
""focus"",""10"",""115085""
""blur"",""10"",""116179""
""focus"",""10"",""317727""
""blur"",""10"",""318660""
""focus"",""10"",""357770""
""blur"",""10"",""359188""
""focus"",""10"",""419197""
","""event"",""trial"",""time""
""blur"",""3"",""28465""
""blur"",""8"",""42745""
""blur"",""8"",""53672""
""blur"",""8"",""58757""
""blur"",""9"",""73432""
""blur"",""10"",""83777""
""blur"",""10"",""116179""
""blur"",""10"",""318660""
""blur"",""10"",""359188""
","""event"",""trial"",""time""
""focus"",""3"",""31025""
""focus"",""8"",""50478""
""focus"",""8"",""56887""
""focus"",""9"",""72296""
""focus"",""9"",""79656""
""focus"",""10"",""115085""
""focus"",""10"",""317727""
""focus"",""10"",""357770""
""focus"",""10"",""419197""
","""event"",""trial"",""time""
""fullscreenenter"",""1"",""1588""
","
","","","","","","null","<div style=""font-size:60px;"">+</div>","null","","fixation","","",""
"memory-trial","27","514606","0.0-11.0-1.4","5526","approach_avoid_sv1","""event"",""trial"",""time""
""fullscreenenter"",""1"",""1588""
""blur"",""3"",""28465""
""focus"",""3"",""31025""
""blur"",""8"",""42745""
""focus"",""8"",""50478""
""blur"",""8"",""53672""
""focus"",""8"",""56887""
""blur"",""8"",""58757""
""focus"",""9"",""72296""
""blur"",""9"",""73432""
""focus"",""9"",""79656""
""blur"",""10"",""83777""
""focus"",""10"",""115085""
""blur"",""10"",""116179""
""focus"",""10"",""317727""
""blur"",""10"",""318660""
""focus"",""10"",""357770""
""blur"",""10"",""359188""
""focus"",""10"",""419197""
","""event"",""trial"",""time""
""blur"",""3"",""28465""
""blur"",""8"",""42745""
""blur"",""8"",""53672""
""blur"",""8"",""58757""
""blur"",""9"",""73432""
""blur"",""10"",""83777""
""blur"",""10"",""116179""
""blur"",""10"",""318660""
""blur"",""10"",""359188""
","""event"",""trial"",""time""
""focus"",""3"",""31025""
""focus"",""8"",""50478""
""focus"",""8"",""56887""
""focus"",""9"",""72296""
""focus"",""9"",""79656""
""focus"",""10"",""115085""
""focus"",""10"",""317727""
""focus"",""10"",""357770""
""focus"",""10"",""419197""
","""event"",""trial"",""time""
""fullscreenenter"",""1"",""1588""
","
","","","","","","3283.2000000476837","images/racket1.png","","","practice","4","definitely_new",""
"html-keyboard-response","28","515108","0.0-11.0-0.5","5526","approach_avoid_sv1","""event"",""trial"",""time""
""fullscreenenter"",""1"",""1588""
""blur"",""3"",""28465""
""focus"",""3"",""31025""
""blur"",""8"",""42745""
""focus"",""8"",""50478""
""blur"",""8"",""53672""
""focus"",""8"",""56887""
""blur"",""8"",""58757""
""focus"",""9"",""72296""
""blur"",""9"",""73432""
""focus"",""9"",""79656""
""blur"",""10"",""83777""
""focus"",""10"",""115085""
""blur"",""10"",""116179""
""focus"",""10"",""317727""
""blur"",""10"",""318660""
""focus"",""10"",""357770""
""blur"",""10"",""359188""
""focus"",""10"",""419197""
","""event"",""trial"",""time""
""blur"",""3"",""28465""
""blur"",""8"",""42745""
""blur"",""8"",""53672""
""blur"",""8"",""58757""
""blur"",""9"",""73432""
""blur"",""10"",""83777""
""blur"",""10"",""116179""
""blur"",""10"",""318660""
""blur"",""10"",""359188""
","""event"",""trial"",""time""
""focus"",""3"",""31025""
""focus"",""8"",""50478""
""focus"",""8"",""56887""
""focus"",""9"",""72296""
""focus"",""9"",""79656""
""focus"",""10"",""115085""
""focus"",""10"",""317727""
""focus"",""10"",""357770""
""focus"",""10"",""419197""
","""event"",""trial"",""time""
""fullscreenenter"",""1"",""1588""
","
","","","","","","null","<div style=""font-size:60px;"">+</div>","null","","fixation","","",""
"memory-trial","29","517670","0.0-11.0-1.5","5526","approach_avoid_sv1","""event"",""trial"",""time""
""fullscreenenter"",""1"",""1588""
""blur"",""3"",""28465""
""focus"",""3"",""31025""
""blur"",""8"",""42745""
""focus"",""8"",""50478""
""blur"",""8"",""53672""
""focus"",""8"",""56887""
""blur"",""8"",""58757""
""focus"",""9"",""72296""
""blur"",""9"",""73432""
""focus"",""9"",""79656""
""blur"",""10"",""83777""
""focus"",""10"",""115085""
""blur"",""10"",""116179""
""focus"",""10"",""317727""
""blur"",""10"",""318660""
""focus"",""10"",""357770""
""blur"",""10"",""359188""
""focus"",""10"",""419197""
","""event"",""trial"",""time""
""blur"",""3"",""28465""
""blur"",""8"",""42745""
""blur"",""8"",""53672""
""blur"",""8"",""58757""
""blur"",""9"",""73432""
""blur"",""10"",""83777""
""blur"",""10"",""116179""
""blur"",""10"",""318660""
""blur"",""10"",""359188""
","""event"",""trial"",""time""
""focus"",""3"",""31025""
""focus"",""8"",""50478""
""focus"",""8"",""56887""
""focus"",""9"",""72296""
""focus"",""9"",""79656""
""focus"",""10"",""115085""
""focus"",""10"",""317727""
""focus"",""10"",""357770""
""focus"",""10"",""419197""
","""event"",""trial"",""time""
""fullscreenenter"",""1"",""1588""
","
","","","","","","1553.7999999523163","images/ball1.png","","","practice","1","definitely_old",""
"html-keyboard-response","30","518174","0.0-11.0-0.6","5526","approach_avoid_sv1","""event"",""trial"",""time""
""fullscreenenter"",""1"",""1588""
""blur"",""3"",""28465""
""focus"",""3"",""31025""
""blur"",""8"",""42745""
""focus"",""8"",""50478""
""blur"",""8"",""53672""
""focus"",""8"",""56887""
""blur"",""8"",""58757""
""focus"",""9"",""72296""
""blur"",""9"",""73432""
""focus"",""9"",""79656""
""blur"",""10"",""83777""
""focus"",""10"",""115085""
""blur"",""10"",""116179""
""focus"",""10"",""317727""
""blur"",""10"",""318660""
""focus"",""10"",""357770""
""blur"",""10"",""359188""
""focus"",""10"",""419197""
","""event"",""trial"",""time""
""blur"",""3"",""28465""
""blur"",""8"",""42745""
""blur"",""8"",""53672""
""blur"",""8"",""58757""
""blur"",""9"",""73432""
""blur"",""10"",""83777""
""blur"",""10"",""116179""
""blur"",""10"",""318660""
""blur"",""10"",""359188""
","""event"",""trial"",""time""
""focus"",""3"",""31025""
""focus"",""8"",""50478""
""focus"",""8"",""56887""
""focus"",""9"",""72296""
""focus"",""9"",""79656""
""focus"",""10"",""115085""
""focus"",""10"",""317727""
""focus"",""10"",""357770""
""focus"",""10"",""419197""
","""event"",""trial"",""time""
""fullscreenenter"",""1"",""1588""
","
","","","","","","null","<div style=""font-size:60px;"">+</div>","null","","fixation","","",""
"memory-trial","31","520214","0.0-11.0-1.6","5526","approach_avoid_sv1","""event"",""trial"",""time""
""fullscreenenter"",""1"",""1588""
""blur"",""3"",""28465""
""focus"",""3"",""31025""
""blur"",""8"",""42745""
""focus"",""8"",""50478""
""blur"",""8"",""53672""
""focus"",""8"",""56887""
""blur"",""8"",""58757""
""focus"",""9"",""72296""
""blur"",""9"",""73432""
""focus"",""9"",""79656""
""blur"",""10"",""83777""
""focus"",""10"",""115085""
""blur"",""10"",""116179""
""focus"",""10"",""317727""
""blur"",""10"",""318660""
""focus"",""10"",""357770""
""blur"",""10"",""359188""
""focus"",""10"",""419197""
","""event"",""trial"",""time""
""blur"",""3"",""28465""
""blur"",""8"",""42745""
""blur"",""8"",""53672""
""blur"",""8"",""58757""
""blur"",""9"",""73432""
""blur"",""10"",""83777""
""blur"",""10"",""116179""
""blur"",""10"",""318660""
""blur"",""10"",""359188""
","""event"",""trial"",""time""
""focus"",""3"",""31025""
""focus"",""8"",""50478""
""focus"",""8"",""56887""
""focus"",""9"",""72296""
""focus"",""9"",""79656""
""focus"",""10"",""115085""
""focus"",""10"",""317727""
""focus"",""10"",""357770""
""focus"",""10"",""419197""
","""event"",""trial"",""time""
""fullscreenenter"",""1"",""1588""
","
","","","","","","1033.1000000238419","images/ball3.png","","","practice","1","definitely_old",""
"html-keyboard-response","32","520719","0.0-11.0-0.7","5526","approach_avoid_sv1","""event"",""trial"",""time""
""fullscreenenter"",""1"",""1588""
""blur"",""3"",""28465""
""focus"",""3"",""31025""
""blur"",""8"",""42745""
""focus"",""8"",""50478""
""blur"",""8"",""53672""
""focus"",""8"",""56887""
""blur"",""8"",""58757""
""focus"",""9"",""72296""
""blur"",""9"",""73432""
""focus"",""9"",""79656""
""blur"",""10"",""83777""
""focus"",""10"",""115085""
""blur"",""10"",""116179""
""focus"",""10"",""317727""
""blur"",""10"",""318660""
""focus"",""10"",""357770""
""blur"",""10"",""359188""
""focus"",""10"",""419197""
","""event"",""trial"",""time""
""blur"",""3"",""28465""
""blur"",""8"",""42745""
""blur"",""8"",""53672""
""blur"",""8"",""58757""
""blur"",""9"",""73432""
""blur"",""10"",""83777""
""blur"",""10"",""116179""
""blur"",""10"",""318660""
""blur"",""10"",""359188""
","""event"",""trial"",""time""
""focus"",""3"",""31025""
""focus"",""8"",""50478""
""focus"",""8"",""56887""
""focus"",""9"",""72296""
""focus"",""9"",""79656""
""focus"",""10"",""115085""
""focus"",""10"",""317727""
""focus"",""10"",""357770""
""focus"",""10"",""419197""
","""event"",""trial"",""time""
""fullscreenenter"",""1"",""1588""
","
","","","","","","null","<div style=""font-size:60px;"">+</div>","null","","fixation","","",""
"memory-trial","33","523598","0.0-11.0-1.7","5526","approach_avoid_sv1","""event"",""trial"",""time""
""fullscreenenter"",""1"",""1588""
""blur"",""3"",""28465""
""focus"",""3"",""31025""
""blur"",""8"",""42745""
""focus"",""8"",""50478""
""blur"",""8"",""53672""
""focus"",""8"",""56887""
""blur"",""8"",""58757""
""focus"",""9"",""72296""
""blur"",""9"",""73432""
""focus"",""9"",""79656""
""blur"",""10"",""83777""
""focus"",""10"",""115085""
""blur"",""10"",""116179""
""focus"",""10"",""317727""
""blur"",""10"",""318660""
""focus"",""10"",""357770""
""blur"",""10"",""359188""
""focus"",""10"",""419197""
","""event"",""trial"",""time""
""blur"",""3"",""28465""
""blur"",""8"",""42745""
""blur"",""8"",""53672""
""blur"",""8"",""58757""
""blur"",""9"",""73432""
""blur"",""10"",""83777""
""blur"",""10"",""116179""
""blur"",""10"",""318660""
""blur"",""10"",""359188""
","""event"",""trial"",""time""
""focus"",""3"",""31025""
""focus"",""8"",""50478""
""focus"",""8"",""56887""
""focus"",""9"",""72296""
""focus"",""9"",""79656""
""focus"",""10"",""115085""
""focus"",""10"",""317727""
""focus"",""10"",""357770""
""focus"",""10"",""419197""
","""event"",""trial"",""time""
""fullscreenenter"",""1"",""1588""
","
","","","","","","1872.6000000238419","images/ball5.png","","","practice","1","definitely_old",""
"learning-instructions","34","531900","0.0-12.0-0.0","5526","approach_avoid_sv1","""event"",""trial"",""time""
""fullscreenenter"",""1"",""1588""
""blur"",""3"",""28465""
""focus"",""3"",""31025""
""blur"",""8"",""42745""
""focus"",""8"",""50478""
""blur"",""8"",""53672""
""focus"",""8"",""56887""
""blur"",""8"",""58757""
""focus"",""9"",""72296""
""blur"",""9"",""73432""
""focus"",""9"",""79656""
""blur"",""10"",""83777""
""focus"",""10"",""115085""
""blur"",""10"",""116179""
""focus"",""10"",""317727""
""blur"",""10"",""318660""
""focus"",""10"",""357770""
""blur"",""10"",""359188""
""focus"",""10"",""419197""
","""event"",""trial"",""time""
""blur"",""3"",""28465""
""blur"",""8"",""42745""
""blur"",""8"",""53672""
""blur"",""8"",""58757""
""blur"",""9"",""73432""
""blur"",""10"",""83777""
""blur"",""10"",""116179""
""blur"",""10"",""318660""
""blur"",""10"",""359188""
","""event"",""trial"",""time""
""focus"",""3"",""31025""
""focus"",""8"",""50478""
""focus"",""8"",""56887""
""focus"",""9"",""72296""
""focus"",""9"",""79656""
""focus"",""10"",""115085""
""focus"",""10"",""317727""
""focus"",""10"",""357770""
""focus"",""10"",""419197""
","""event"",""trial"",""time""
""fullscreenenter"",""1"",""1588""
","
","","","","","","938.0999999642372","<p> Great! You have completed the practice. </p><p> Before you start, we're going to ask you a few questions about how the game works.  </p>","","0","instructions","","",""
"preload","35","542723","0.0-13.0","5526","approach_avoid_sv1","""event"",""trial"",""time""
""fullscreenenter"",""1"",""1588""
""blur"",""3"",""28465""
""focus"",""3"",""31025""
""blur"",""8"",""42745""
""focus"",""8"",""50478""
""blur"",""8"",""53672""
""focus"",""8"",""56887""
""blur"",""8"",""58757""
""focus"",""9"",""72296""
""blur"",""9"",""73432""
""focus"",""9"",""79656""
""blur"",""10"",""83777""
""focus"",""10"",""115085""
""blur"",""10"",""116179""
""focus"",""10"",""317727""
""blur"",""10"",""318660""
""focus"",""10"",""357770""
""blur"",""10"",""359188""
""focus"",""10"",""419197""
","""event"",""trial"",""time""
""blur"",""3"",""28465""
""blur"",""8"",""42745""
""blur"",""8"",""53672""
""blur"",""8"",""58757""
""blur"",""9"",""73432""
""blur"",""10"",""83777""
""blur"",""10"",""116179""
""blur"",""10"",""318660""
""blur"",""10"",""359188""
","""event"",""trial"",""time""
""focus"",""3"",""31025""
""focus"",""8"",""50478""
""focus"",""8"",""56887""
""focus"",""9"",""72296""
""focus"",""9"",""79656""
""focus"",""10"",""115085""
""focus"",""10"",""317727""
""focus"",""10"",""357770""
""focus"",""10"",""419197""
","""event"",""trial"",""time""
""fullscreenenter"",""1"",""1588""
","
","true","false","[]","[]","[]","","","","","","","",""
"comp-q","36","551226","0.0-14.0-0.0","5526","approach_avoid_sv1","""event"",""trial"",""time""
""fullscreenenter"",""1"",""1588""
""blur"",""3"",""28465""
""focus"",""3"",""31025""
""blur"",""8"",""42745""
""focus"",""8"",""50478""
""blur"",""8"",""53672""
""focus"",""8"",""56887""
""blur"",""8"",""58757""
""focus"",""9"",""72296""
""blur"",""9"",""73432""
""focus"",""9"",""79656""
""blur"",""10"",""83777""
""focus"",""10"",""115085""
""blur"",""10"",""116179""
""focus"",""10"",""317727""
""blur"",""10"",""318660""
""focus"",""10"",""357770""
""blur"",""10"",""359188""
""focus"",""10"",""419197""
","""event"",""trial"",""time""
""blur"",""3"",""28465""
""blur"",""8"",""42745""
""blur"",""8"",""53672""
""blur"",""8"",""58757""
""blur"",""9"",""73432""
""blur"",""10"",""83777""
""blur"",""10"",""116179""
""blur"",""10"",""318660""
""blur"",""10"",""359188""
","""event"",""trial"",""time""
""focus"",""3"",""31025""
""focus"",""8"",""50478""
""focus"",""8"",""56887""
""focus"",""9"",""72296""
""focus"",""9"",""79656""
""focus"",""10"",""115085""
""focus"",""10"",""317727""
""focus"",""10"",""357770""
""focus"",""10"",""419197""
","""event"",""trial"",""time""
""fullscreenenter"",""1"",""1588""
","
","","","","","","2674.600000023842","<p> <b> True or False? </b> </p><p> In this game, you will only see each image once. </p>","","0","comp_question","","","true"
"comp-q","37","558309","0.0-14.0-1.0","5526","approach_avoid_sv1","""event"",""trial"",""time""
""fullscreenenter"",""1"",""1588""
""blur"",""3"",""28465""
""focus"",""3"",""31025""
""blur"",""8"",""42745""
""focus"",""8"",""50478""
""blur"",""8"",""53672""
""focus"",""8"",""56887""
""blur"",""8"",""58757""
""focus"",""9"",""72296""
""blur"",""9"",""73432""
""focus"",""9"",""79656""
""blur"",""10"",""83777""
""focus"",""10"",""115085""
""blur"",""10"",""116179""
""focus"",""10"",""317727""
""blur"",""10"",""318660""
""focus"",""10"",""357770""
""blur"",""10"",""359188""
""focus"",""10"",""419197""
","""event"",""trial"",""time""
""blur"",""3"",""28465""
""blur"",""8"",""42745""
""blur"",""8"",""53672""
""blur"",""8"",""58757""
""blur"",""9"",""73432""
""blur"",""10"",""83777""
""blur"",""10"",""116179""
""blur"",""10"",""318660""
""blur"",""10"",""359188""
","""event"",""trial"",""time""
""focus"",""3"",""31025""
""focus"",""8"",""50478""
""focus"",""8"",""56887""
""focus"",""9"",""72296""
""focus"",""9"",""79656""
""focus"",""10"",""115085""
""focus"",""10"",""317727""
""focus"",""10"",""357770""
""focus"",""10"",""419197""
","""event"",""trial"",""time""
""fullscreenenter"",""1"",""1588""
","
","","","","","","743.9000000357628","<p> <b> That's right! </b> You will see many different images <i> one time each </i> in this game. </p>","","0","comp_answer","","",""
"comp-q","38","567320","0.0-15.0-0.0","5526","approach_avoid_sv1","""event"",""trial"",""time""
""fullscreenenter"",""1"",""1588""
""blur"",""3"",""28465""
""focus"",""3"",""31025""
""blur"",""8"",""42745""
""focus"",""8"",""50478""
""blur"",""8"",""53672""
""focus"",""8"",""56887""
""blur"",""8"",""58757""
""focus"",""9"",""72296""
""blur"",""9"",""73432""
""focus"",""9"",""79656""
""blur"",""10"",""83777""
""focus"",""10"",""115085""
""blur"",""10"",""116179""
""focus"",""10"",""317727""
""blur"",""10"",""318660""
""focus"",""10"",""357770""
""blur"",""10"",""359188""
""focus"",""10"",""419197""
","""event"",""trial"",""time""
""blur"",""3"",""28465""
""blur"",""8"",""42745""
""blur"",""8"",""53672""
""blur"",""8"",""58757""
""blur"",""9"",""73432""
""blur"",""10"",""83777""
""blur"",""10"",""116179""
""blur"",""10"",""318660""
""blur"",""10"",""359188""
","""event"",""trial"",""time""
""focus"",""3"",""31025""
""focus"",""8"",""50478""
""focus"",""8"",""56887""
""focus"",""9"",""72296""
""focus"",""9"",""79656""
""focus"",""10"",""115085""
""focus"",""10"",""317727""
""focus"",""10"",""357770""
""focus"",""10"",""419197""
","""event"",""trial"",""time""
""fullscreenenter"",""1"",""1588""
","
","","","","","","4003.2000000476837","<p> <b> True or False? </b> </p><p> You should use the mouse and click to make your response. </p>","","1","comp_question","","","true"
"comp-q","39","574603","0.0-15.0-1.0","5526","approach_avoid_sv1","""event"",""trial"",""time""
""fullscreenenter"",""1"",""1588""
""blur"",""3"",""28465""
""focus"",""3"",""31025""
""blur"",""8"",""42745""
""focus"",""8"",""50478""
""blur"",""8"",""53672""
""focus"",""8"",""56887""
""blur"",""8"",""58757""
""focus"",""9"",""72296""
""blur"",""9"",""73432""
""focus"",""9"",""79656""
""blur"",""10"",""83777""
""focus"",""10"",""115085""
""blur"",""10"",""116179""
""focus"",""10"",""317727""
""blur"",""10"",""318660""
""focus"",""10"",""357770""
""blur"",""10"",""359188""
""focus"",""10"",""419197""
","""event"",""trial"",""time""
""blur"",""3"",""28465""
""blur"",""8"",""42745""
""blur"",""8"",""53672""
""blur"",""8"",""58757""
""blur"",""9"",""73432""
""blur"",""10"",""83777""
""blur"",""10"",""116179""
""blur"",""10"",""318660""
""blur"",""10"",""359188""
","""event"",""trial"",""time""
""focus"",""3"",""31025""
""focus"",""8"",""50478""
""focus"",""8"",""56887""
""focus"",""9"",""72296""
""focus"",""9"",""79656""
""focus"",""10"",""115085""
""focus"",""10"",""317727""
""focus"",""10"",""357770""
""focus"",""10"",""419197""
","""event"",""trial"",""time""
""fullscreenenter"",""1"",""1588""
","
","","","","","","785.5999999642372","<p><b> That's right! </b> You should use the '1', '2', '3', and '4' keys to make your response. </p>","","0","comp_answer","","",""
"comp-q","40","580861","0.0-16.0-0.0","5526","approach_avoid_sv1","""event"",""trial"",""time""
""fullscreenenter"",""1"",""1588""
""blur"",""3"",""28465""
""focus"",""3"",""31025""
""blur"",""8"",""42745""
""focus"",""8"",""50478""
""blur"",""8"",""53672""
""focus"",""8"",""56887""
""blur"",""8"",""58757""
""focus"",""9"",""72296""
""blur"",""9"",""73432""
""focus"",""9"",""79656""
""blur"",""10"",""83777""
""focus"",""10"",""115085""
""blur"",""10"",""116179""
""focus"",""10"",""317727""
""blur"",""10"",""318660""
""focus"",""10"",""357770""
""blur"",""10"",""359188""
""focus"",""10"",""419197""
","""event"",""trial"",""time""
""blur"",""3"",""28465""
""blur"",""8"",""42745""
""blur"",""8"",""53672""
""blur"",""8"",""58757""
""blur"",""9"",""73432""
""blur"",""10"",""83777""
""blur"",""10"",""116179""
""blur"",""10"",""318660""
""blur"",""10"",""359188""
","""event"",""trial"",""time""
""focus"",""3"",""31025""
""focus"",""8"",""50478""
""focus"",""8"",""56887""
""focus"",""9"",""72296""
""focus"",""9"",""79656""
""focus"",""10"",""115085""
""focus"",""10"",""317727""
""focus"",""10"",""357770""
""focus"",""10"",""419197""
","""event"",""trial"",""time""
""fullscreenenter"",""1"",""1588""
","
","","","","","","582.5999999642372","<p> <b> True or False? </b> </p><p> You will have as much time as you want to make each choice. </p>","","1","comp_question","","","true"
"comp-q","41","586315","0.0-16.0-1.0","5526","approach_avoid_sv1","""event"",""trial"",""time""
""fullscreenenter"",""1"",""1588""
""blur"",""3"",""28465""
""focus"",""3"",""31025""
""blur"",""8"",""42745""
""focus"",""8"",""50478""
""blur"",""8"",""53672""
""focus"",""8"",""56887""
""blur"",""8"",""58757""
""focus"",""9"",""72296""
""blur"",""9"",""73432""
""focus"",""9"",""79656""
""blur"",""10"",""83777""
""focus"",""10"",""115085""
""blur"",""10"",""116179""
""focus"",""10"",""317727""
""blur"",""10"",""318660""
""focus"",""10"",""357770""
""blur"",""10"",""359188""
""focus"",""10"",""419197""
""blur"",""42"",""590201""
""focus"",""42"",""595278""
","""event"",""trial"",""time""
""blur"",""3"",""28465""
""blur"",""8"",""42745""
""blur"",""8"",""53672""
""blur"",""8"",""58757""
""blur"",""9"",""73432""
""blur"",""10"",""83777""
""blur"",""10"",""116179""
""blur"",""10"",""318660""
""blur"",""10"",""359188""
""blur"",""42"",""590201""
","""event"",""trial"",""time""
""focus"",""3"",""31025""
""focus"",""8"",""50478""
""focus"",""8"",""56887""
""focus"",""9"",""72296""
""focus"",""9"",""79656""
""focus"",""10"",""115085""
""focus"",""10"",""317727""
""focus"",""10"",""357770""
""focus"",""10"",""419197""
""focus"",""42"",""595278""
","""event"",""trial"",""time""
""fullscreenenter"",""1"",""1588""
","
","","","","","","759.6999999880791","<p> <b> That's right! </b> You will only have 10 seconds to make each choice. </p>","","0","comp_answer","","",""
"learning-instructions","42","595890","0.0-17.0","5526","approach_avoid_sv1","""event"",""trial"",""time""
""fullscreenenter"",""1"",""1588""
""blur"",""3"",""28465""
""focus"",""3"",""31025""
""blur"",""8"",""42745""
""focus"",""8"",""50478""
""blur"",""8"",""53672""
""focus"",""8"",""56887""
""blur"",""8"",""58757""
""focus"",""9"",""72296""
""blur"",""9"",""73432""
""focus"",""9"",""79656""
""blur"",""10"",""83777""
""focus"",""10"",""115085""
""blur"",""10"",""116179""
""focus"",""10"",""317727""
""blur"",""10"",""318660""
""focus"",""10"",""357770""
""blur"",""10"",""359188""
""focus"",""10"",""419197""
""blur"",""42"",""590201""
""focus"",""42"",""595278""
","""event"",""trial"",""time""
""blur"",""3"",""28465""
""blur"",""8"",""42745""
""blur"",""8"",""53672""
""blur"",""8"",""58757""
""blur"",""9"",""73432""
""blur"",""10"",""83777""
""blur"",""10"",""116179""
""blur"",""10"",""318660""
""blur"",""10"",""359188""
""blur"",""42"",""590201""
","""event"",""trial"",""time""
""focus"",""3"",""31025""
""focus"",""8"",""50478""
""focus"",""8"",""56887""
""focus"",""9"",""72296""
""focus"",""9"",""79656""
""focus"",""10"",""115085""
""focus"",""10"",""317727""
""focus"",""10"",""357770""
""focus"",""10"",""419197""
""focus"",""42"",""595278""
","""event"",""trial"",""time""
""fullscreenenter"",""1"",""1588""
","
","","","","","","902.6999999880791","<p> Great! You are now ready to begin the game. </p><p> Remember, use the 1, 2, 3, and 4 keys to make your responses. </p>","","0","instructions","","",""
"html-keyboard-response","43","596496","0.0-18.0-0.0","5526","approach_avoid_sv1","""event"",""trial"",""time""
""fullscreenenter"",""1"",""1588""
""blur"",""3"",""28465""
""focus"",""3"",""31025""
""blur"",""8"",""42745""
""focus"",""8"",""50478""
""blur"",""8"",""53672""
""focus"",""8"",""56887""
""blur"",""8"",""58757""
""focus"",""9"",""72296""
""blur"",""9"",""73432""
""focus"",""9"",""79656""
""blur"",""10"",""83777""
""focus"",""10"",""115085""
""blur"",""10"",""116179""
""focus"",""10"",""317727""
""blur"",""10"",""318660""
""focus"",""10"",""357770""
""blur"",""10"",""359188""
""focus"",""10"",""419197""
""blur"",""42"",""590201""
""focus"",""42"",""595278""
","""event"",""trial"",""time""
""blur"",""3"",""28465""
""blur"",""8"",""42745""
""blur"",""8"",""53672""
""blur"",""8"",""58757""
""blur"",""9"",""73432""
""blur"",""10"",""83777""
""blur"",""10"",""116179""
""blur"",""10"",""318660""
""blur"",""10"",""359188""
""blur"",""42"",""590201""
","""event"",""trial"",""time""
""focus"",""3"",""31025""
""focus"",""8"",""50478""
""focus"",""8"",""56887""
""focus"",""9"",""72296""
""focus"",""9"",""79656""
""focus"",""10"",""115085""
""focus"",""10"",""317727""
""focus"",""10"",""357770""
""focus"",""10"",""419197""
""focus"",""42"",""595278""
","""event"",""trial"",""time""
""fullscreenenter"",""1"",""1588""
","
","","","","","","null","<div style=""font-size:60px;"">+</div>","null","","fixation","","",""
"memory-trial","44","599329","0.0-18.0-1.0","5526","approach_avoid_sv1","""event"",""trial"",""time""
""fullscreenenter"",""1"",""1588""
""blur"",""3"",""28465""
""focus"",""3"",""31025""
""blur"",""8"",""42745""
""focus"",""8"",""50478""
""blur"",""8"",""53672""
""focus"",""8"",""56887""
""blur"",""8"",""58757""
""focus"",""9"",""72296""
""blur"",""9"",""73432""
""focus"",""9"",""79656""
""blur"",""10"",""83777""
""focus"",""10"",""115085""
""blur"",""10"",""116179""
""focus"",""10"",""317727""
""blur"",""10"",""318660""
""focus"",""10"",""357770""
""blur"",""10"",""359188""
""focus"",""10"",""419197""
""blur"",""42"",""590201""
""focus"",""42"",""595278""
","""event"",""trial"",""time""
""blur"",""3"",""28465""
""blur"",""8"",""42745""
""blur"",""8"",""53672""
""blur"",""8"",""58757""
""blur"",""9"",""73432""
""blur"",""10"",""83777""
""blur"",""10"",""116179""
""blur"",""10"",""318660""
""blur"",""10"",""359188""
""blur"",""42"",""590201""
","""event"",""trial"",""time""
""focus"",""3"",""31025""
""focus"",""8"",""50478""
""focus"",""8"",""56887""
""focus"",""9"",""72296""
""focus"",""9"",""79656""
""focus"",""10"",""115085""
""focus"",""10"",""317727""
""focus"",""10"",""357770""
""focus"",""10"",""419197""
""focus"",""42"",""595278""
","""event"",""trial"",""time""
""fullscreenenter"",""1"",""1588""
","
","","","","","","1826.8999999761581","images/tree3.png","","","memory_trial","2","maybe_old",""
"html-keyboard-response","45","599833","0.0-18.0-0.1","5526","approach_avoid_sv1","""event"",""trial"",""time""
""fullscreenenter"",""1"",""1588""
""blur"",""3"",""28465""
""focus"",""3"",""31025""
""blur"",""8"",""42745""
""focus"",""8"",""50478""
""blur"",""8"",""53672""
""focus"",""8"",""56887""
""blur"",""8"",""58757""
""focus"",""9"",""72296""
""blur"",""9"",""73432""
""focus"",""9"",""79656""
""blur"",""10"",""83777""
""focus"",""10"",""115085""
""blur"",""10"",""116179""
""focus"",""10"",""317727""
""blur"",""10"",""318660""
""focus"",""10"",""357770""
""blur"",""10"",""359188""
""focus"",""10"",""419197""
""blur"",""42"",""590201""
""focus"",""42"",""595278""
","""event"",""trial"",""time""
""blur"",""3"",""28465""
""blur"",""8"",""42745""
""blur"",""8"",""53672""
""blur"",""8"",""58757""
""blur"",""9"",""73432""
""blur"",""10"",""83777""
""blur"",""10"",""116179""
""blur"",""10"",""318660""
""blur"",""10"",""359188""
""blur"",""42"",""590201""
","""event"",""trial"",""time""
""focus"",""3"",""31025""
""focus"",""8"",""50478""
""focus"",""8"",""56887""
""focus"",""9"",""72296""
""focus"",""9"",""79656""
""focus"",""10"",""115085""
""focus"",""10"",""317727""
""focus"",""10"",""357770""
""focus"",""10"",""419197""
""focus"",""42"",""595278""
","""event"",""trial"",""time""
""fullscreenenter"",""1"",""1588""
","
","","","","","","null","<div style=""font-size:60px;"">+</div>","null","","fixation","","",""
"memory-trial","46","602695","0.0-18.0-1.1","5526","approach_avoid_sv1","""event"",""trial"",""time""
""fullscreenenter"",""1"",""1588""
""blur"",""3"",""28465""
""focus"",""3"",""31025""
""blur"",""8"",""42745""
""focus"",""8"",""50478""
""blur"",""8"",""53672""
""focus"",""8"",""56887""
""blur"",""8"",""58757""
""focus"",""9"",""72296""
""blur"",""9"",""73432""
""focus"",""9"",""79656""
""blur"",""10"",""83777""
""focus"",""10"",""115085""
""blur"",""10"",""116179""
""focus"",""10"",""317727""
""blur"",""10"",""318660""
""focus"",""10"",""357770""
""blur"",""10"",""359188""
""focus"",""10"",""419197""
""blur"",""42"",""590201""
""focus"",""42"",""595278""
","""event"",""trial"",""time""
""blur"",""3"",""28465""
""blur"",""8"",""42745""
""blur"",""8"",""53672""
""blur"",""8"",""58757""
""blur"",""9"",""73432""
""blur"",""10"",""83777""
""blur"",""10"",""116179""
""blur"",""10"",""318660""
""blur"",""10"",""359188""
""blur"",""42"",""590201""
","""event"",""trial"",""time""
""focus"",""3"",""31025""
""focus"",""8"",""50478""
""focus"",""8"",""56887""
""focus"",""9"",""72296""
""focus"",""9"",""79656""
""focus"",""10"",""115085""
""focus"",""10"",""317727""
""focus"",""10"",""357770""
""focus"",""10"",""419197""
""focus"",""42"",""595278""
","""event"",""trial"",""time""
""fullscreenenter"",""1"",""1588""
","
","","","","","","1855.800000011921","images/flower3.png","","","memory_trial","4","definitely_new",""
"html-keyboard-response","47","603200","0.0-18.0-0.2","5526","approach_avoid_sv1","""event"",""trial"",""time""
""fullscreenenter"",""1"",""1588""
""blur"",""3"",""28465""
""focus"",""3"",""31025""
""blur"",""8"",""42745""
""focus"",""8"",""50478""
""blur"",""8"",""53672""
""focus"",""8"",""56887""
""blur"",""8"",""58757""
""focus"",""9"",""72296""
""blur"",""9"",""73432""
""focus"",""9"",""79656""
""blur"",""10"",""83777""
""focus"",""10"",""115085""
""blur"",""10"",""116179""
""focus"",""10"",""317727""
""blur"",""10"",""318660""
""focus"",""10"",""357770""
""blur"",""10"",""359188""
""focus"",""10"",""419197""
""blur"",""42"",""590201""
""focus"",""42"",""595278""
","""event"",""trial"",""time""
""blur"",""3"",""28465""
""blur"",""8"",""42745""
""blur"",""8"",""53672""
""blur"",""8"",""58757""
""blur"",""9"",""73432""
""blur"",""10"",""83777""
""blur"",""10"",""116179""
""blur"",""10"",""318660""
""blur"",""10"",""359188""
""blur"",""42"",""590201""
","""event"",""trial"",""time""
""focus"",""3"",""31025""
""focus"",""8"",""50478""
""focus"",""8"",""56887""
""focus"",""9"",""72296""
""focus"",""9"",""79656""
""focus"",""10"",""115085""
""focus"",""10"",""317727""
""focus"",""10"",""357770""
""focus"",""10"",""419197""
""focus"",""42"",""595278""
","""event"",""trial"",""time""
""fullscreenenter"",""1"",""1588""
","
","","","","","","null","<div style=""font-size:60px;"">+</div>","null","","fixation","","",""
"memory-trial","48","606478","0.0-18.0-1.2","5526","approach_avoid_sv1","""event"",""trial"",""time""
""fullscreenenter"",""1"",""1588""
""blur"",""3"",""28465""
""focus"",""3"",""31025""
""blur"",""8"",""42745""
""focus"",""8"",""50478""
""blur"",""8"",""53672""
""focus"",""8"",""56887""
""blur"",""8"",""58757""
""focus"",""9"",""72296""
""blur"",""9"",""73432""
""focus"",""9"",""79656""
""blur"",""10"",""83777""
""focus"",""10"",""115085""
""blur"",""10"",""116179""
""focus"",""10"",""317727""
""blur"",""10"",""318660""
""focus"",""10"",""357770""
""blur"",""10"",""359188""
""focus"",""10"",""419197""
""blur"",""42"",""590201""
""focus"",""42"",""595278""
","""event"",""trial"",""time""
""blur"",""3"",""28465""
""blur"",""8"",""42745""
""blur"",""8"",""53672""
""blur"",""8"",""58757""
""blur"",""9"",""73432""
""blur"",""10"",""83777""
""blur"",""10"",""116179""
""blur"",""10"",""318660""
""blur"",""10"",""359188""
""blur"",""42"",""590201""
","""event"",""trial"",""time""
""focus"",""3"",""31025""
""focus"",""8"",""50478""
""focus"",""8"",""56887""
""focus"",""9"",""72296""
""focus"",""9"",""79656""
""focus"",""10"",""115085""
""focus"",""10"",""317727""
""focus"",""10"",""357770""
""focus"",""10"",""419197""
""focus"",""42"",""595278""
","""event"",""trial"",""time""
""fullscreenenter"",""1"",""1588""
","
","","","","","","2270.100000023842","images/cactus7.png","","","memory_trial","2","maybe_old",""
"html-keyboard-response","49","606985","0.0-18.0-0.3","5526","approach_avoid_sv1","""event"",""trial"",""time""
""fullscreenenter"",""1"",""1588""
""blur"",""3"",""28465""
""focus"",""3"",""31025""
""blur"",""8"",""42745""
""focus"",""8"",""50478""
""blur"",""8"",""53672""
""focus"",""8"",""56887""
""blur"",""8"",""58757""
""focus"",""9"",""72296""
""blur"",""9"",""73432""
""focus"",""9"",""79656""
""blur"",""10"",""83777""
""focus"",""10"",""115085""
""blur"",""10"",""116179""
""focus"",""10"",""317727""
""blur"",""10"",""318660""
""focus"",""10"",""357770""
""blur"",""10"",""359188""
""focus"",""10"",""419197""
""blur"",""42"",""590201""
""focus"",""42"",""595278""
","""event"",""trial"",""time""
""blur"",""3"",""28465""
""blur"",""8"",""42745""
""blur"",""8"",""53672""
""blur"",""8"",""58757""
""blur"",""9"",""73432""
""blur"",""10"",""83777""
""blur"",""10"",""116179""
""blur"",""10"",""318660""
""blur"",""10"",""359188""
""blur"",""42"",""590201""
","""event"",""trial"",""time""
""focus"",""3"",""31025""
""focus"",""8"",""50478""
""focus"",""8"",""56887""
""focus"",""9"",""72296""
""focus"",""9"",""79656""
""focus"",""10"",""115085""
""focus"",""10"",""317727""
""focus"",""10"",""357770""
""focus"",""10"",""419197""
""focus"",""42"",""595278""
","""event"",""trial"",""time""
""fullscreenenter"",""1"",""1588""
","
","","","","","","null","<div style=""font-size:60px;"">+</div>","null","","fixation","","",""
"memory-trial","50","610778","0.0-18.0-1.3","5526","approach_avoid_sv1","""event"",""trial"",""time""
""fullscreenenter"",""1"",""1588""
""blur"",""3"",""28465""
""focus"",""3"",""31025""
""blur"",""8"",""42745""
""focus"",""8"",""50478""
""blur"",""8"",""53672""
""focus"",""8"",""56887""
""blur"",""8"",""58757""
""focus"",""9"",""72296""
""blur"",""9"",""73432""
""focus"",""9"",""79656""
""blur"",""10"",""83777""
""focus"",""10"",""115085""
""blur"",""10"",""116179""
""focus"",""10"",""317727""
""blur"",""10"",""318660""
""focus"",""10"",""357770""
""blur"",""10"",""359188""
""focus"",""10"",""419197""
""blur"",""42"",""590201""
""focus"",""42"",""595278""
","""event"",""trial"",""time""
""blur"",""3"",""28465""
""blur"",""8"",""42745""
""blur"",""8"",""53672""
""blur"",""8"",""58757""
""blur"",""9"",""73432""
""blur"",""10"",""83777""
""blur"",""10"",""116179""
""blur"",""10"",""318660""
""blur"",""10"",""359188""
""blur"",""42"",""590201""
","""event"",""trial"",""time""
""focus"",""3"",""31025""
""focus"",""8"",""50478""
""focus"",""8"",""56887""
""focus"",""9"",""72296""
""focus"",""9"",""79656""
""focus"",""10"",""115085""
""focus"",""10"",""317727""
""focus"",""10"",""357770""
""focus"",""10"",""419197""
""focus"",""42"",""595278""
","""event"",""trial"",""time""
""fullscreenenter"",""1"",""1588""
","
","","","","","","2787.199999988079","images/rodent7.png","","","memory_trial","3","maybe_new",""
"html-keyboard-response","51","611280","0.0-18.0-0.4","5526","approach_avoid_sv1","""event"",""trial"",""time""
""fullscreenenter"",""1"",""1588""
""blur"",""3"",""28465""
""focus"",""3"",""31025""
""blur"",""8"",""42745""
""focus"",""8"",""50478""
""blur"",""8"",""53672""
""focus"",""8"",""56887""
""blur"",""8"",""58757""
""focus"",""9"",""72296""
""blur"",""9"",""73432""
""focus"",""9"",""79656""
""blur"",""10"",""83777""
""focus"",""10"",""115085""
""blur"",""10"",""116179""
""focus"",""10"",""317727""
""blur"",""10"",""318660""
""focus"",""10"",""357770""
""blur"",""10"",""359188""
""focus"",""10"",""419197""
""blur"",""42"",""590201""
""focus"",""42"",""595278""
","""event"",""trial"",""time""
""blur"",""3"",""28465""
""blur"",""8"",""42745""
""blur"",""8"",""53672""
""blur"",""8"",""58757""
""blur"",""9"",""73432""
""blur"",""10"",""83777""
""blur"",""10"",""116179""
""blur"",""10"",""318660""
""blur"",""10"",""359188""
""blur"",""42"",""590201""
","""event"",""trial"",""time""
""focus"",""3"",""31025""
""focus"",""8"",""50478""
""focus"",""8"",""56887""
""focus"",""9"",""72296""
""focus"",""9"",""79656""
""focus"",""10"",""115085""
""focus"",""10"",""317727""
""focus"",""10"",""357770""
""focus"",""10"",""419197""
""focus"",""42"",""595278""
","""event"",""trial"",""time""
""fullscreenenter"",""1"",""1588""
","
","","","","","","null","<div style=""font-size:60px;"">+</div>","null","","fixation","","",""
"memory-trial","52","613826","0.0-18.0-1.4","5526","approach_avoid_sv1","""event"",""trial"",""time""
""fullscreenenter"",""1"",""1588""
""blur"",""3"",""28465""
""focus"",""3"",""31025""
""blur"",""8"",""42745""
""focus"",""8"",""50478""
""blur"",""8"",""53672""
""focus"",""8"",""56887""
""blur"",""8"",""58757""
""focus"",""9"",""72296""
""blur"",""9"",""73432""
""focus"",""9"",""79656""
""blur"",""10"",""83777""
""focus"",""10"",""115085""
""blur"",""10"",""116179""
""focus"",""10"",""317727""
""blur"",""10"",""318660""
""focus"",""10"",""357770""
""blur"",""10"",""359188""
""focus"",""10"",""419197""
""blur"",""42"",""590201""
""focus"",""42"",""595278""
","""event"",""trial"",""time""
""blur"",""3"",""28465""
""blur"",""8"",""42745""
""blur"",""8"",""53672""
""blur"",""8"",""58757""
""blur"",""9"",""73432""
""blur"",""10"",""83777""
""blur"",""10"",""116179""
""blur"",""10"",""318660""
""blur"",""10"",""359188""
""blur"",""42"",""590201""
","""event"",""trial"",""time""
""focus"",""3"",""31025""
""focus"",""8"",""50478""
""focus"",""8"",""56887""
""focus"",""9"",""72296""
""focus"",""9"",""79656""
""focus"",""10"",""115085""
""focus"",""10"",""317727""
""focus"",""10"",""357770""
""focus"",""10"",""419197""
""focus"",""42"",""595278""
","""event"",""trial"",""time""
""fullscreenenter"",""1"",""1588""
","
","","","","","","1537.800000011921","images/chair3.png","","","memory_trial","1","definitely_old",""
"html-keyboard-response","53","614331","0.0-18.0-0.5","5526","approach_avoid_sv1","""event"",""trial"",""time""
""fullscreenenter"",""1"",""1588""
""blur"",""3"",""28465""
""focus"",""3"",""31025""
""blur"",""8"",""42745""
""focus"",""8"",""50478""
""blur"",""8"",""53672""
""focus"",""8"",""56887""
""blur"",""8"",""58757""
""focus"",""9"",""72296""
""blur"",""9"",""73432""
""focus"",""9"",""79656""
""blur"",""10"",""83777""
""focus"",""10"",""115085""
""blur"",""10"",""116179""
""focus"",""10"",""317727""
""blur"",""10"",""318660""
""focus"",""10"",""357770""
""blur"",""10"",""359188""
""focus"",""10"",""419197""
""blur"",""42"",""590201""
""focus"",""42"",""595278""
","""event"",""trial"",""time""
""blur"",""3"",""28465""
""blur"",""8"",""42745""
""blur"",""8"",""53672""
""blur"",""8"",""58757""
""blur"",""9"",""73432""
""blur"",""10"",""83777""
""blur"",""10"",""116179""
""blur"",""10"",""318660""
""blur"",""10"",""359188""
""blur"",""42"",""590201""
","""event"",""trial"",""time""
""focus"",""3"",""31025""
""focus"",""8"",""50478""
""focus"",""8"",""56887""
""focus"",""9"",""72296""
""focus"",""9"",""79656""
""focus"",""10"",""115085""
""focus"",""10"",""317727""
""focus"",""10"",""357770""
""focus"",""10"",""419197""
""focus"",""42"",""595278""
","""event"",""trial"",""time""
""fullscreenenter"",""1"",""1588""
","
","","","","","","null","<div style=""font-size:60px;"">+</div>","null","","fixation","","",""
"memory-trial","54","618337","0.0-18.0-1.5","5526","approach_avoid_sv1","""event"",""trial"",""time""
""fullscreenenter"",""1"",""1588""
""blur"",""3"",""28465""
""focus"",""3"",""31025""
""blur"",""8"",""42745""
""focus"",""8"",""50478""
""blur"",""8"",""53672""
""focus"",""8"",""56887""
""blur"",""8"",""58757""
""focus"",""9"",""72296""
""blur"",""9"",""73432""
""focus"",""9"",""79656""
""blur"",""10"",""83777""
""focus"",""10"",""115085""
""blur"",""10"",""116179""
""focus"",""10"",""317727""
""blur"",""10"",""318660""
""focus"",""10"",""357770""
""blur"",""10"",""359188""
""focus"",""10"",""419197""
""blur"",""42"",""590201""
""focus"",""42"",""595278""
","""event"",""trial"",""time""
""blur"",""3"",""28465""
""blur"",""8"",""42745""
""blur"",""8"",""53672""
""blur"",""8"",""58757""
""blur"",""9"",""73432""
""blur"",""10"",""83777""
""blur"",""10"",""116179""
""blur"",""10"",""318660""
""blur"",""10"",""359188""
""blur"",""42"",""590201""
","""event"",""trial"",""time""
""focus"",""3"",""31025""
""focus"",""8"",""50478""
""focus"",""8"",""56887""
""focus"",""9"",""72296""
""focus"",""9"",""79656""
""focus"",""10"",""115085""
""focus"",""10"",""317727""
""focus"",""10"",""357770""
""focus"",""10"",""419197""
""focus"",""42"",""595278""
","""event"",""trial"",""time""
""fullscreenenter"",""1"",""1588""
","
","","","","","","2999","images/flower4.png","","","memory_trial","1","definitely_old",""
"html-keyboard-response","55","618843","0.0-18.0-0.6","5526","approach_avoid_sv1","""event"",""trial"",""time""
""fullscreenenter"",""1"",""1588""
""blur"",""3"",""28465""
""focus"",""3"",""31025""
""blur"",""8"",""42745""
""focus"",""8"",""50478""
""blur"",""8"",""53672""
""focus"",""8"",""56887""
""blur"",""8"",""58757""
""focus"",""9"",""72296""
""blur"",""9"",""73432""
""focus"",""9"",""79656""
""blur"",""10"",""83777""
""focus"",""10"",""115085""
""blur"",""10"",""116179""
""focus"",""10"",""317727""
""blur"",""10"",""318660""
""focus"",""10"",""357770""
""blur"",""10"",""359188""
""focus"",""10"",""419197""
""blur"",""42"",""590201""
""focus"",""42"",""595278""
","""event"",""trial"",""time""
""blur"",""3"",""28465""
""blur"",""8"",""42745""
""blur"",""8"",""53672""
""blur"",""8"",""58757""
""blur"",""9"",""73432""
""blur"",""10"",""83777""
""blur"",""10"",""116179""
""blur"",""10"",""318660""
""blur"",""10"",""359188""
""blur"",""42"",""590201""
","""event"",""trial"",""time""
""focus"",""3"",""31025""
""focus"",""8"",""50478""
""focus"",""8"",""56887""
""focus"",""9"",""72296""
""focus"",""9"",""79656""
""focus"",""10"",""115085""
""focus"",""10"",""317727""
""focus"",""10"",""357770""
""focus"",""10"",""419197""
""focus"",""42"",""595278""
","""event"",""trial"",""time""
""fullscreenenter"",""1"",""1588""
","
","","","","","","null","<div style=""font-size:60px;"">+</div>","null","","fixation","","",""
"memory-trial","56","621427","0.0-18.0-1.6","5526","approach_avoid_sv1","""event"",""trial"",""time""
""fullscreenenter"",""1"",""1588""
""blur"",""3"",""28465""
""focus"",""3"",""31025""
""blur"",""8"",""42745""
""focus"",""8"",""50478""
""blur"",""8"",""53672""
""focus"",""8"",""56887""
""blur"",""8"",""58757""
""focus"",""9"",""72296""
""blur"",""9"",""73432""
""focus"",""9"",""79656""
""blur"",""10"",""83777""
""focus"",""10"",""115085""
""blur"",""10"",""116179""
""focus"",""10"",""317727""
""blur"",""10"",""318660""
""focus"",""10"",""357770""
""blur"",""10"",""359188""
""focus"",""10"",""419197""
""blur"",""42"",""590201""
""focus"",""42"",""595278""
","""event"",""trial"",""time""
""blur"",""3"",""28465""
""blur"",""8"",""42745""
""blur"",""8"",""53672""
""blur"",""8"",""58757""
""blur"",""9"",""73432""
""blur"",""10"",""83777""
""blur"",""10"",""116179""
""blur"",""10"",""318660""
""blur"",""10"",""359188""
""blur"",""42"",""590201""
","""event"",""trial"",""time""
""focus"",""3"",""31025""
""focus"",""8"",""50478""
""focus"",""8"",""56887""
""focus"",""9"",""72296""
""focus"",""9"",""79656""
""focus"",""10"",""115085""
""focus"",""10"",""317727""
""focus"",""10"",""357770""
""focus"",""10"",""419197""
""focus"",""42"",""595278""
","""event"",""trial"",""time""
""fullscreenenter"",""1"",""1588""
","
","","","","","","1575.300000011921","images/dog1.png","","","memory_trial","1","definitely_old",""
"html-keyboard-response","57","621932","0.0-18.0-0.7","5526","approach_avoid_sv1","""event"",""trial"",""time""
""fullscreenenter"",""1"",""1588""
""blur"",""3"",""28465""
""focus"",""3"",""31025""
""blur"",""8"",""42745""
""focus"",""8"",""50478""
""blur"",""8"",""53672""
""focus"",""8"",""56887""
""blur"",""8"",""58757""
""focus"",""9"",""72296""
""blur"",""9"",""73432""
""focus"",""9"",""79656""
""blur"",""10"",""83777""
""focus"",""10"",""115085""
""blur"",""10"",""116179""
""focus"",""10"",""317727""
""blur"",""10"",""318660""
""focus"",""10"",""357770""
""blur"",""10"",""359188""
""focus"",""10"",""419197""
""blur"",""42"",""590201""
""focus"",""42"",""595278""
","""event"",""trial"",""time""
""blur"",""3"",""28465""
""blur"",""8"",""42745""
""blur"",""8"",""53672""
""blur"",""8"",""58757""
""blur"",""9"",""73432""
""blur"",""10"",""83777""
""blur"",""10"",""116179""
""blur"",""10"",""318660""
""blur"",""10"",""359188""
""blur"",""42"",""590201""
","""event"",""trial"",""time""
""focus"",""3"",""31025""
""focus"",""8"",""50478""
""focus"",""8"",""56887""
""focus"",""9"",""72296""
""focus"",""9"",""79656""
""focus"",""10"",""115085""
""focus"",""10"",""317727""
""focus"",""10"",""357770""
""focus"",""10"",""419197""
""focus"",""42"",""595278""
","""event"",""trial"",""time""
""fullscreenenter"",""1"",""1588""
","
","","","","","","null","<div style=""font-size:60px;"">+</div>","null","","fixation","","",""
"memory-trial","58","625004","0.0-18.0-1.7","5526","approach_avoid_sv1","""event"",""trial"",""time""
""fullscreenenter"",""1"",""1588""
""blur"",""3"",""28465""
""focus"",""3"",""31025""
""blur"",""8"",""42745""
""focus"",""8"",""50478""
""blur"",""8"",""53672""
""focus"",""8"",""56887""
""blur"",""8"",""58757""
""focus"",""9"",""72296""
""blur"",""9"",""73432""
""focus"",""9"",""79656""
""blur"",""10"",""83777""
""focus"",""10"",""115085""
""blur"",""10"",""116179""
""focus"",""10"",""317727""
""blur"",""10"",""318660""
""focus"",""10"",""357770""
""blur"",""10"",""359188""
""focus"",""10"",""419197""
""blur"",""42"",""590201""
""focus"",""42"",""595278""
","""event"",""trial"",""time""
""blur"",""3"",""28465""
""blur"",""8"",""42745""
""blur"",""8"",""53672""
""blur"",""8"",""58757""
""blur"",""9"",""73432""
""blur"",""10"",""83777""
""blur"",""10"",""116179""
""blur"",""10"",""318660""
""blur"",""10"",""359188""
""blur"",""42"",""590201""
","""event"",""trial"",""time""
""focus"",""3"",""31025""
""focus"",""8"",""50478""
""focus"",""8"",""56887""
""focus"",""9"",""72296""
""focus"",""9"",""79656""
""focus"",""10"",""115085""
""focus"",""10"",""317727""
""focus"",""10"",""357770""
""focus"",""10"",""419197""
""focus"",""42"",""595278""
","""event"",""trial"",""time""
""fullscreenenter"",""1"",""1588""
","
","","","","","","2069.900000035763","images/tree6.png","","","memory_trial","1","definitely_old",""
"html-keyboard-response","59","625508","0.0-18.0-0.8","5526","approach_avoid_sv1","""event"",""trial"",""time""
""fullscreenenter"",""1"",""1588""
""blur"",""3"",""28465""
""focus"",""3"",""31025""
""blur"",""8"",""42745""
""focus"",""8"",""50478""
""blur"",""8"",""53672""
""focus"",""8"",""56887""
""blur"",""8"",""58757""
""focus"",""9"",""72296""
""blur"",""9"",""73432""
""focus"",""9"",""79656""
""blur"",""10"",""83777""
""focus"",""10"",""115085""
""blur"",""10"",""116179""
""focus"",""10"",""317727""
""blur"",""10"",""318660""
""focus"",""10"",""357770""
""blur"",""10"",""359188""
""focus"",""10"",""419197""
""blur"",""42"",""590201""
""focus"",""42"",""595278""
","""event"",""trial"",""time""
""blur"",""3"",""28465""
""blur"",""8"",""42745""
""blur"",""8"",""53672""
""blur"",""8"",""58757""
""blur"",""9"",""73432""
""blur"",""10"",""83777""
""blur"",""10"",""116179""
""blur"",""10"",""318660""
""blur"",""10"",""359188""
""blur"",""42"",""590201""
","""event"",""trial"",""time""
""focus"",""3"",""31025""
""focus"",""8"",""50478""
""focus"",""8"",""56887""
""focus"",""9"",""72296""
""focus"",""9"",""79656""
""focus"",""10"",""115085""
""focus"",""10"",""317727""
""focus"",""10"",""357770""
""focus"",""10"",""419197""
""focus"",""42"",""595278""
","""event"",""trial"",""time""
""fullscreenenter"",""1"",""1588""
","
","","","","","","null","<div style=""font-size:60px;"">+</div>","null","","fixation","","",""
"memory-trial","60","628498","0.0-18.0-1.8","5526","approach_avoid_sv1","""event"",""trial"",""time""
""fullscreenenter"",""1"",""1588""
""blur"",""3"",""28465""
""focus"",""3"",""31025""
""blur"",""8"",""42745""
""focus"",""8"",""50478""
""blur"",""8"",""53672""
""focus"",""8"",""56887""
""blur"",""8"",""58757""
""focus"",""9"",""72296""
""blur"",""9"",""73432""
""focus"",""9"",""79656""
""blur"",""10"",""83777""
""focus"",""10"",""115085""
""blur"",""10"",""116179""
""focus"",""10"",""317727""
""blur"",""10"",""318660""
""focus"",""10"",""357770""
""blur"",""10"",""359188""
""focus"",""10"",""419197""
""blur"",""42"",""590201""
""focus"",""42"",""595278""
","""event"",""trial"",""time""
""blur"",""3"",""28465""
""blur"",""8"",""42745""
""blur"",""8"",""53672""
""blur"",""8"",""58757""
""blur"",""9"",""73432""
""blur"",""10"",""83777""
""blur"",""10"",""116179""
""blur"",""10"",""318660""
""blur"",""10"",""359188""
""blur"",""42"",""590201""
","""event"",""trial"",""time""
""focus"",""3"",""31025""
""focus"",""8"",""50478""
""focus"",""8"",""56887""
""focus"",""9"",""72296""
""focus"",""9"",""79656""
""focus"",""10"",""115085""
""focus"",""10"",""317727""
""focus"",""10"",""357770""
""focus"",""10"",""419197""
""focus"",""42"",""595278""
","""event"",""trial"",""time""
""fullscreenenter"",""1"",""1588""
","
","","","","","","1981.199999988079","images/truck7.png","","","memory_trial","3","maybe_new",""
"html-keyboard-response","61","629003","0.0-18.0-0.9","5526","approach_avoid_sv1","""event"",""trial"",""time""
""fullscreenenter"",""1"",""1588""
""blur"",""3"",""28465""
""focus"",""3"",""31025""
""blur"",""8"",""42745""
""focus"",""8"",""50478""
""blur"",""8"",""53672""
""focus"",""8"",""56887""
""blur"",""8"",""58757""
""focus"",""9"",""72296""
""blur"",""9"",""73432""
""focus"",""9"",""79656""
""blur"",""10"",""83777""
""focus"",""10"",""115085""
""blur"",""10"",""116179""
""focus"",""10"",""317727""
""blur"",""10"",""318660""
""focus"",""10"",""357770""
""blur"",""10"",""359188""
""focus"",""10"",""419197""
""blur"",""42"",""590201""
""focus"",""42"",""595278""
","""event"",""trial"",""time""
""blur"",""3"",""28465""
""blur"",""8"",""42745""
""blur"",""8"",""53672""
""blur"",""8"",""58757""
""blur"",""9"",""73432""
""blur"",""10"",""83777""
""blur"",""10"",""116179""
""blur"",""10"",""318660""
""blur"",""10"",""359188""
""blur"",""42"",""590201""
","""event"",""trial"",""time""
""focus"",""3"",""31025""
""focus"",""8"",""50478""
""focus"",""8"",""56887""
""focus"",""9"",""72296""
""focus"",""9"",""79656""
""focus"",""10"",""115085""
""focus"",""10"",""317727""
""focus"",""10"",""357770""
""focus"",""10"",""419197""
""focus"",""42"",""595278""
","""event"",""trial"",""time""
""fullscreenenter"",""1"",""1588""
","
","","","","","","null","<div style=""font-size:60px;"">+</div>","null","","fixation","","",""
"memory-trial","62","631435","0.0-18.0-1.9","5526","approach_avoid_sv1","""event"",""trial"",""time""
""fullscreenenter"",""1"",""1588""
""blur"",""3"",""28465""
""focus"",""3"",""31025""
""blur"",""8"",""42745""
""focus"",""8"",""50478""
""blur"",""8"",""53672""
""focus"",""8"",""56887""
""blur"",""8"",""58757""
""focus"",""9"",""72296""
""blur"",""9"",""73432""
""focus"",""9"",""79656""
""blur"",""10"",""83777""
""focus"",""10"",""115085""
""blur"",""10"",""116179""
""focus"",""10"",""317727""
""blur"",""10"",""318660""
""focus"",""10"",""357770""
""blur"",""10"",""359188""
""focus"",""10"",""419197""
""blur"",""42"",""590201""
""focus"",""42"",""595278""
","""event"",""trial"",""time""
""blur"",""3"",""28465""
""blur"",""8"",""42745""
""blur"",""8"",""53672""
""blur"",""8"",""58757""
""blur"",""9"",""73432""
""blur"",""10"",""83777""
""blur"",""10"",""116179""
""blur"",""10"",""318660""
""blur"",""10"",""359188""
""blur"",""42"",""590201""
","""event"",""trial"",""time""
""focus"",""3"",""31025""
""focus"",""8"",""50478""
""focus"",""8"",""56887""
""focus"",""9"",""72296""
""focus"",""9"",""79656""
""focus"",""10"",""115085""
""focus"",""10"",""317727""
""focus"",""10"",""357770""
""focus"",""10"",""419197""
""focus"",""42"",""595278""
","""event"",""trial"",""time""
""fullscreenenter"",""1"",""1588""
","
","","","","","","1428.3999999761581","images/bush7.png","","","memory_trial","1","definitely_old",""
"html-keyboard-response","63","631940","0.0-18.0-0.10","5526","approach_avoid_sv1","""event"",""trial"",""time""
""fullscreenenter"",""1"",""1588""
""blur"",""3"",""28465""
""focus"",""3"",""31025""
""blur"",""8"",""42745""
""focus"",""8"",""50478""
""blur"",""8"",""53672""
""focus"",""8"",""56887""
""blur"",""8"",""58757""
""focus"",""9"",""72296""
""blur"",""9"",""73432""
""focus"",""9"",""79656""
""blur"",""10"",""83777""
""focus"",""10"",""115085""
""blur"",""10"",""116179""
""focus"",""10"",""317727""
""blur"",""10"",""318660""
""focus"",""10"",""357770""
""blur"",""10"",""359188""
""focus"",""10"",""419197""
""blur"",""42"",""590201""
""focus"",""42"",""595278""
","""event"",""trial"",""time""
""blur"",""3"",""28465""
""blur"",""8"",""42745""
""blur"",""8"",""53672""
""blur"",""8"",""58757""
""blur"",""9"",""73432""
""blur"",""10"",""83777""
""blur"",""10"",""116179""
""blur"",""10"",""318660""
""blur"",""10"",""359188""
""blur"",""42"",""590201""
","""event"",""trial"",""time""
""focus"",""3"",""31025""
""focus"",""8"",""50478""
""focus"",""8"",""56887""
""focus"",""9"",""72296""
""focus"",""9"",""79656""
""focus"",""10"",""115085""
""focus"",""10"",""317727""
""focus"",""10"",""357770""
""focus"",""10"",""419197""
""focus"",""42"",""595278""
","""event"",""trial"",""time""
""fullscreenenter"",""1"",""1588""
","
","","","","","","null","<div style=""font-size:60px;"">+</div>","null","","fixation","","",""
"memory-trial","64","635429","0.0-18.0-1.10","5526","approach_avoid_sv1","""event"",""trial"",""time""
""fullscreenenter"",""1"",""1588""
""blur"",""3"",""28465""
""focus"",""3"",""31025""
""blur"",""8"",""42745""
""focus"",""8"",""50478""
""blur"",""8"",""53672""
""focus"",""8"",""56887""
""blur"",""8"",""58757""
""focus"",""9"",""72296""
""blur"",""9"",""73432""
""focus"",""9"",""79656""
""blur"",""10"",""83777""
""focus"",""10"",""115085""
""blur"",""10"",""116179""
""focus"",""10"",""317727""
""blur"",""10"",""318660""
""focus"",""10"",""357770""
""blur"",""10"",""359188""
""focus"",""10"",""419197""
""blur"",""42"",""590201""
""focus"",""42"",""595278""
","""event"",""trial"",""time""
""blur"",""3"",""28465""
""blur"",""8"",""42745""
""blur"",""8"",""53672""
""blur"",""8"",""58757""
""blur"",""9"",""73432""
""blur"",""10"",""83777""
""blur"",""10"",""116179""
""blur"",""10"",""318660""
""blur"",""10"",""359188""
""blur"",""42"",""590201""
","""event"",""trial"",""time""
""focus"",""3"",""31025""
""focus"",""8"",""50478""
""focus"",""8"",""56887""
""focus"",""9"",""72296""
""focus"",""9"",""79656""
""focus"",""10"",""115085""
""focus"",""10"",""317727""
""focus"",""10"",""357770""
""focus"",""10"",""419197""
""focus"",""42"",""595278""
","""event"",""trial"",""time""
""fullscreenenter"",""1"",""1588""
","
","","","","","","2482.300000011921","images/train6.png","","","memory_trial","1","definitely_old",""
"html-keyboard-response","65","635934","0.0-18.0-0.11","5526","approach_avoid_sv1","""event"",""trial"",""time""
""fullscreenenter"",""1"",""1588""
""blur"",""3"",""28465""
""focus"",""3"",""31025""
""blur"",""8"",""42745""
""focus"",""8"",""50478""
""blur"",""8"",""53672""
""focus"",""8"",""56887""
""blur"",""8"",""58757""
""focus"",""9"",""72296""
""blur"",""9"",""73432""
""focus"",""9"",""79656""
""blur"",""10"",""83777""
""focus"",""10"",""115085""
""blur"",""10"",""116179""
""focus"",""10"",""317727""
""blur"",""10"",""318660""
""focus"",""10"",""357770""
""blur"",""10"",""359188""
""focus"",""10"",""419197""
""blur"",""42"",""590201""
""focus"",""42"",""595278""
","""event"",""trial"",""time""
""blur"",""3"",""28465""
""blur"",""8"",""42745""
""blur"",""8"",""53672""
""blur"",""8"",""58757""
""blur"",""9"",""73432""
""blur"",""10"",""83777""
""blur"",""10"",""116179""
""blur"",""10"",""318660""
""blur"",""10"",""359188""
""blur"",""42"",""590201""
","""event"",""trial"",""time""
""focus"",""3"",""31025""
""focus"",""8"",""50478""
""focus"",""8"",""56887""
""focus"",""9"",""72296""
""focus"",""9"",""79656""
""focus"",""10"",""115085""
""focus"",""10"",""317727""
""focus"",""10"",""357770""
""focus"",""10"",""419197""
""focus"",""42"",""595278""
","""event"",""trial"",""time""
""fullscreenenter"",""1"",""1588""
","
","","","","","","null","<div style=""font-size:60px;"">+</div>","null","","fixation","","",""
"memory-trial","66","639967","0.0-18.0-1.11","5526","approach_avoid_sv1","""event"",""trial"",""time""
""fullscreenenter"",""1"",""1588""
""blur"",""3"",""28465""
""focus"",""3"",""31025""
""blur"",""8"",""42745""
""focus"",""8"",""50478""
""blur"",""8"",""53672""
""focus"",""8"",""56887""
""blur"",""8"",""58757""
""focus"",""9"",""72296""
""blur"",""9"",""73432""
""focus"",""9"",""79656""
""blur"",""10"",""83777""
""focus"",""10"",""115085""
""blur"",""10"",""116179""
""focus"",""10"",""317727""
""blur"",""10"",""318660""
""focus"",""10"",""357770""
""blur"",""10"",""359188""
""focus"",""10"",""419197""
""blur"",""42"",""590201""
""focus"",""42"",""595278""
","""event"",""trial"",""time""
""blur"",""3"",""28465""
""blur"",""8"",""42745""
""blur"",""8"",""53672""
""blur"",""8"",""58757""
""blur"",""9"",""73432""
""blur"",""10"",""83777""
""blur"",""10"",""116179""
""blur"",""10"",""318660""
""blur"",""10"",""359188""
""blur"",""42"",""590201""
","""event"",""trial"",""time""
""focus"",""3"",""31025""
""focus"",""8"",""50478""
""focus"",""8"",""56887""
""focus"",""9"",""72296""
""focus"",""9"",""79656""
""focus"",""10"",""115085""
""focus"",""10"",""317727""
""focus"",""10"",""357770""
""focus"",""10"",""419197""
""focus"",""42"",""595278""
","""event"",""trial"",""time""
""fullscreenenter"",""1"",""1588""
","
","","","","","","3028","images/sheep2.png","","","memory_trial","2","maybe_old",""
"html-keyboard-response","67","640473","0.0-18.0-0.12","5526","approach_avoid_sv1","""event"",""trial"",""time""
""fullscreenenter"",""1"",""1588""
""blur"",""3"",""28465""
""focus"",""3"",""31025""
""blur"",""8"",""42745""
""focus"",""8"",""50478""
""blur"",""8"",""53672""
""focus"",""8"",""56887""
""blur"",""8"",""58757""
""focus"",""9"",""72296""
""blur"",""9"",""73432""
""focus"",""9"",""79656""
""blur"",""10"",""83777""
""focus"",""10"",""115085""
""blur"",""10"",""116179""
""focus"",""10"",""317727""
""blur"",""10"",""318660""
""focus"",""10"",""357770""
""blur"",""10"",""359188""
""focus"",""10"",""419197""
""blur"",""42"",""590201""
""focus"",""42"",""595278""
","""event"",""trial"",""time""
""blur"",""3"",""28465""
""blur"",""8"",""42745""
""blur"",""8"",""53672""
""blur"",""8"",""58757""
""blur"",""9"",""73432""
""blur"",""10"",""83777""
""blur"",""10"",""116179""
""blur"",""10"",""318660""
""blur"",""10"",""359188""
""blur"",""42"",""590201""
","""event"",""trial"",""time""
""focus"",""3"",""31025""
""focus"",""8"",""50478""
""focus"",""8"",""56887""
""focus"",""9"",""72296""
""focus"",""9"",""79656""
""focus"",""10"",""115085""
""focus"",""10"",""317727""
""focus"",""10"",""357770""
""focus"",""10"",""419197""
""focus"",""42"",""595278""
","""event"",""trial"",""time""
""fullscreenenter"",""1"",""1588""
","
","","","","","","null","<div style=""font-size:60px;"">+</div>","null","","fixation","","",""
"memory-trial","68","644257","0.0-18.0-1.12","5526","approach_avoid_sv1","""event"",""trial"",""time""
""fullscreenenter"",""1"",""1588""
""blur"",""3"",""28465""
""focus"",""3"",""31025""
""blur"",""8"",""42745""
""focus"",""8"",""50478""
""blur"",""8"",""53672""
""focus"",""8"",""56887""
""blur"",""8"",""58757""
""focus"",""9"",""72296""
""blur"",""9"",""73432""
""focus"",""9"",""79656""
""blur"",""10"",""83777""
""focus"",""10"",""115085""
""blur"",""10"",""116179""
""focus"",""10"",""317727""
""blur"",""10"",""318660""
""focus"",""10"",""357770""
""blur"",""10"",""359188""
""focus"",""10"",""419197""
""blur"",""42"",""590201""
""focus"",""42"",""595278""
","""event"",""trial"",""time""
""blur"",""3"",""28465""
""blur"",""8"",""42745""
""blur"",""8"",""53672""
""blur"",""8"",""58757""
""blur"",""9"",""73432""
""blur"",""10"",""83777""
""blur"",""10"",""116179""
""blur"",""10"",""318660""
""blur"",""10"",""359188""
""blur"",""42"",""590201""
","""event"",""trial"",""time""
""focus"",""3"",""31025""
""focus"",""8"",""50478""
""focus"",""8"",""56887""
""focus"",""9"",""72296""
""focus"",""9"",""79656""
""focus"",""10"",""115085""
""focus"",""10"",""317727""
""focus"",""10"",""357770""
""focus"",""10"",""419197""
""focus"",""42"",""595278""
","""event"",""trial"",""time""
""fullscreenenter"",""1"",""1588""
","
","","","","","","2778","images/sofa4.png","","","memory_trial","3","maybe_new",""
"html-keyboard-response","69","644763","0.0-18.0-0.13","5526","approach_avoid_sv1","""event"",""trial"",""time""
""fullscreenenter"",""1"",""1588""
""blur"",""3"",""28465""
""focus"",""3"",""31025""
""blur"",""8"",""42745""
""focus"",""8"",""50478""
""blur"",""8"",""53672""
""focus"",""8"",""56887""
""blur"",""8"",""58757""
""focus"",""9"",""72296""
""blur"",""9"",""73432""
""focus"",""9"",""79656""
""blur"",""10"",""83777""
""focus"",""10"",""115085""
""blur"",""10"",""116179""
""focus"",""10"",""317727""
""blur"",""10"",""318660""
""focus"",""10"",""357770""
""blur"",""10"",""359188""
""focus"",""10"",""419197""
""blur"",""42"",""590201""
""focus"",""42"",""595278""
","""event"",""trial"",""time""
""blur"",""3"",""28465""
""blur"",""8"",""42745""
""blur"",""8"",""53672""
""blur"",""8"",""58757""
""blur"",""9"",""73432""
""blur"",""10"",""83777""
""blur"",""10"",""116179""
""blur"",""10"",""318660""
""blur"",""10"",""359188""
""blur"",""42"",""590201""
","""event"",""trial"",""time""
""focus"",""3"",""31025""
""focus"",""8"",""50478""
""focus"",""8"",""56887""
""focus"",""9"",""72296""
""focus"",""9"",""79656""
""focus"",""10"",""115085""
""focus"",""10"",""317727""
""focus"",""10"",""357770""
""focus"",""10"",""419197""
""focus"",""42"",""595278""
","""event"",""trial"",""time""
""fullscreenenter"",""1"",""1588""
","
","","","","","","null","<div style=""font-size:60px;"">+</div>","null","","fixation","","",""
"memory-trial","70","648030","0.0-18.0-1.13","5526","approach_avoid_sv1","""event"",""trial"",""time""
""fullscreenenter"",""1"",""1588""
""blur"",""3"",""28465""
""focus"",""3"",""31025""
""blur"",""8"",""42745""
""focus"",""8"",""50478""
""blur"",""8"",""53672""
""focus"",""8"",""56887""
""blur"",""8"",""58757""
""focus"",""9"",""72296""
""blur"",""9"",""73432""
""focus"",""9"",""79656""
""blur"",""10"",""83777""
""focus"",""10"",""115085""
""blur"",""10"",""116179""
""focus"",""10"",""317727""
""blur"",""10"",""318660""
""focus"",""10"",""357770""
""blur"",""10"",""359188""
""focus"",""10"",""419197""
""blur"",""42"",""590201""
""focus"",""42"",""595278""
","""event"",""trial"",""time""
""blur"",""3"",""28465""
""blur"",""8"",""42745""
""blur"",""8"",""53672""
""blur"",""8"",""58757""
""blur"",""9"",""73432""
""blur"",""10"",""83777""
""blur"",""10"",""116179""
""blur"",""10"",""318660""
""blur"",""10"",""359188""
""blur"",""42"",""590201""
","""event"",""trial"",""time""
""focus"",""3"",""31025""
""focus"",""8"",""50478""
""focus"",""8"",""56887""
""focus"",""9"",""72296""
""focus"",""9"",""79656""
""focus"",""10"",""115085""
""focus"",""10"",""317727""
""focus"",""10"",""357770""
""focus"",""10"",""419197""
""focus"",""42"",""595278""
","""event"",""trial"",""time""
""fullscreenenter"",""1"",""1588""
","
","","","","","","2261.800000011921","images/goat7.png","","","memory_trial","4","definitely_new",""
"html-keyboard-response","71","648536","0.0-18.0-0.14","5526","approach_avoid_sv1","""event"",""trial"",""time""
""fullscreenenter"",""1"",""1588""
""blur"",""3"",""28465""
""focus"",""3"",""31025""
""blur"",""8"",""42745""
""focus"",""8"",""50478""
""blur"",""8"",""53672""
""focus"",""8"",""56887""
""blur"",""8"",""58757""
""focus"",""9"",""72296""
""blur"",""9"",""73432""
""focus"",""9"",""79656""
""blur"",""10"",""83777""
""focus"",""10"",""115085""
""blur"",""10"",""116179""
""focus"",""10"",""317727""
""blur"",""10"",""318660""
""focus"",""10"",""357770""
""blur"",""10"",""359188""
""focus"",""10"",""419197""
""blur"",""42"",""590201""
""focus"",""42"",""595278""
","""event"",""trial"",""time""
""blur"",""3"",""28465""
""blur"",""8"",""42745""
""blur"",""8"",""53672""
""blur"",""8"",""58757""
""blur"",""9"",""73432""
""blur"",""10"",""83777""
""blur"",""10"",""116179""
""blur"",""10"",""318660""
""blur"",""10"",""359188""
""blur"",""42"",""590201""
","""event"",""trial"",""time""
""focus"",""3"",""31025""
""focus"",""8"",""50478""
""focus"",""8"",""56887""
""focus"",""9"",""72296""
""focus"",""9"",""79656""
""focus"",""10"",""115085""
""focus"",""10"",""317727""
""focus"",""10"",""357770""
""focus"",""10"",""419197""
""focus"",""42"",""595278""
","""event"",""trial"",""time""
""fullscreenenter"",""1"",""1588""
","
","","","","","","null","<div style=""font-size:60px;"">+</div>","null","","fixation","","",""
"memory-trial","72","653251","0.0-18.0-1.14","5526","approach_avoid_sv1","""event"",""trial"",""time""
""fullscreenenter"",""1"",""1588""
""blur"",""3"",""28465""
""focus"",""3"",""31025""
""blur"",""8"",""42745""
""focus"",""8"",""50478""
""blur"",""8"",""53672""
""focus"",""8"",""56887""
""blur"",""8"",""58757""
""focus"",""9"",""72296""
""blur"",""9"",""73432""
""focus"",""9"",""79656""
""blur"",""10"",""83777""
""focus"",""10"",""115085""
""blur"",""10"",""116179""
""focus"",""10"",""317727""
""blur"",""10"",""318660""
""focus"",""10"",""357770""
""blur"",""10"",""359188""
""focus"",""10"",""419197""
""blur"",""42"",""590201""
""focus"",""42"",""595278""
","""event"",""trial"",""time""
""blur"",""3"",""28465""
""blur"",""8"",""42745""
""blur"",""8"",""53672""
""blur"",""8"",""58757""
""blur"",""9"",""73432""
""blur"",""10"",""83777""
""blur"",""10"",""116179""
""blur"",""10"",""318660""
""blur"",""10"",""359188""
""blur"",""42"",""590201""
","""event"",""trial"",""time""
""focus"",""3"",""31025""
""focus"",""8"",""50478""
""focus"",""8"",""56887""
""focus"",""9"",""72296""
""focus"",""9"",""79656""
""focus"",""10"",""115085""
""focus"",""10"",""317727""
""focus"",""10"",""357770""
""focus"",""10"",""419197""
""focus"",""42"",""595278""
","""event"",""trial"",""time""
""fullscreenenter"",""1"",""1588""
","
","","","","","","3709.899999976158","images/truck5.png","","","memory_trial","3","maybe_new",""
"html-keyboard-response","73","653754","0.0-18.0-0.15","5526","approach_avoid_sv1","""event"",""trial"",""time""
""fullscreenenter"",""1"",""1588""
""blur"",""3"",""28465""
""focus"",""3"",""31025""
""blur"",""8"",""42745""
""focus"",""8"",""50478""
""blur"",""8"",""53672""
""focus"",""8"",""56887""
""blur"",""8"",""58757""
""focus"",""9"",""72296""
""blur"",""9"",""73432""
""focus"",""9"",""79656""
""blur"",""10"",""83777""
""focus"",""10"",""115085""
""blur"",""10"",""116179""
""focus"",""10"",""317727""
""blur"",""10"",""318660""
""focus"",""10"",""357770""
""blur"",""10"",""359188""
""focus"",""10"",""419197""
""blur"",""42"",""590201""
""focus"",""42"",""595278""
","""event"",""trial"",""time""
""blur"",""3"",""28465""
""blur"",""8"",""42745""
""blur"",""8"",""53672""
""blur"",""8"",""58757""
""blur"",""9"",""73432""
""blur"",""10"",""83777""
""blur"",""10"",""116179""
""blur"",""10"",""318660""
""blur"",""10"",""359188""
""blur"",""42"",""590201""
","""event"",""trial"",""time""
""focus"",""3"",""31025""
""focus"",""8"",""50478""
""focus"",""8"",""56887""
""focus"",""9"",""72296""
""focus"",""9"",""79656""
""focus"",""10"",""115085""
""focus"",""10"",""317727""
""focus"",""10"",""357770""
""focus"",""10"",""419197""
""focus"",""42"",""595278""
","""event"",""trial"",""time""
""fullscreenenter"",""1"",""1588""
","
","","","","","","null","<div style=""font-size:60px;"">+</div>","null","","fixation","","",""
