"trial_type","trial_index","time_elapsed","internal_node_id","subject_id","task_version","interactions","blur_events","focus_events","fullscreenenter_events","fullscreenexit_events","success","timeout","failed_images","failed_audio","failed_video","rt","stimulus","response","button_pressed","task_part","key_press","answer","correct"
"pavlovia","0","7","0.0-0.0","6478","approach_avoid_sv1","""event"",""trial"",""time""
""fullscreenenter"",""1"",""3923""
","
","
","""event"",""trial"",""time""
""fullscreenenter"",""1"",""3923""
","
","","","","","","","","","","","","",""
"fullscreen","1","4924","0.0-1.0","6478","approach_avoid_sv1","""event"",""trial"",""time""
""fullscreenenter"",""1"",""3923""
","
","
","""event"",""trial"",""time""
""fullscreenenter"",""1"",""3923""
","
","true","","","","","","","","","","","",""
"preload","2","30388","0.0-2.0","6478","approach_avoid_sv1","""event"",""trial"",""time""
""fullscreenenter"",""1"",""3923""
","
","
","""event"",""trial"",""time""
""fullscreenenter"",""1"",""3923""
","
","true","false","[]","[]","[]","","","","","","","",""
"preload","3","56132","0.0-3.0","6478","approach_avoid_sv1","""event"",""trial"",""time""
""fullscreenenter"",""1"",""3923""
","
","
","""event"",""trial"",""time""
""fullscreenenter"",""1"",""3923""
","
","true","false","[]","[]","[]","","","","","","","",""
"preload","4","57979","0.0-4.0","6478","approach_avoid_sv1","""event"",""trial"",""time""
""fullscreenenter"",""1"",""3923""
","
","
","""event"",""trial"",""time""
""fullscreenenter"",""1"",""3923""
","
","true","false","[]","[]","[]","","","","","","","",""
"audio-keyboard-response","5","75488","0.0-5.0","6478","approach_avoid_sv1","""event"",""trial"",""time""
""fullscreenenter"",""1"",""3923""
","
","
","""event"",""trial"",""time""
""fullscreenenter"",""1"",""3923""
","
","","","","","","17514.666666666668","audio/beep_loop.wav"," ","","","","",""
"audio-button-response","6","80342","0.0-6.0","6478","approach_avoid_sv1","""event"",""trial"",""time""
""fullscreenenter"",""1"",""3923""
","
","
","""event"",""trial"",""time""
""fullscreenenter"",""1"",""3923""
","
","","","","","","4853","audio/turtle.wav","3","","","","",""
"audio-button-response","7","82728","0.0-7.0","6478","approach_avoid_sv1","""event"",""trial"",""time""
""fullscreenenter"",""1"",""3923""
","
","
","""event"",""trial"",""time""
""fullscreenenter"",""1"",""3923""
","
","","","","","","1376","audio/shark.wav","2","","","","",""
"preload","8","119312","0.0-8.0","6478","approach_avoid_sv1","""event"",""trial"",""time""
""fullscreenenter"",""1"",""3923""
","
","
","""event"",""trial"",""time""
""fullscreenenter"",""1"",""3923""
","
","true","false","[]","[]","[]","","","","","","","",""
"learning-instructions","9","126181","0.0-9.0-0.0","6478","approach_avoid_sv1","""event"",""trial"",""time""
""fullscreenenter"",""1"",""3923""
","
","
","""event"",""trial"",""time""
""fullscreenenter"",""1"",""3923""
","
","","","","","","2401.1000000089407","<p> Welcome back! </p><p> Last week, you had to make choices about lots of different items.  </p>","","0","instructions","","",""
"learning-instructions","10","132665","0.0-9.0-0.1","6478","approach_avoid_sv1","""event"",""trial"",""time""
""fullscreenenter"",""1"",""3923""
","
","
","""event"",""trial"",""time""
""fullscreenenter"",""1"",""3923""
","
","","","","","","2368.3999999910593","<p> Today, we are going to ask you to try to remember all the items. </p>","","0","instructions","","",""
"learning-instructions","11","144390","0.0-9.0-0.2","6478","approach_avoid_sv1","""event"",""trial"",""time""
""fullscreenenter"",""1"",""3923""
","
","
","""event"",""trial"",""time""
""fullscreenenter"",""1"",""3923""
","
","","","","","","1581.2000000029802","<p> On every trial, you will see an image. </p><p> The image may be an OLD image you saw during the games last week or it may be a NEW image that was not presented. </p>","","0","instructions","","",""
"learning-instructions","12","156241","0.0-9.0-0.3","6478","approach_avoid_sv1","""event"",""trial"",""time""
""fullscreenenter"",""1"",""3923""
","
","
","""event"",""trial"",""time""
""fullscreenenter"",""1"",""3923""
","
","","","","","","3350.7000000029802","<p> You need to select whether the image is:  </p><p>  'Definitely old', 'Maybe old', 'Maybe new', or 'Definitely new.'  </p><div class=""mem-choice-instructions-grid""><div class=""choice-option"" id=""choice-option-1"" ><img src=""images/definitely_old_1.png"" id=""choice-option-img-1"" class=""choice-option-img"" stage=""1""></div><div class=""choice-option"" id=""choice-option-2"" ><img src=""images/maybe_old_1.png"" id=""choice-option-img-2"" class=""choice-option-img"" stage=""1""></div><div class=""choice-option"" id=""choice-option-3"" ><img src=""images/maybe_new_1.png"" id=""choice-option-img-3"" class=""choice-option-img"" stage=""1""></div><div class=""choice-option"" id=""choice-option-4"" > <img src=""images/definitely_new_1.png"" id=""choice-option-img-4"" class=""choice-option-img"" stage=""1""></div></div>","","0","instructions","","",""
"learning-instructions","13","163572","0.0-9.0-0.4","6478","approach_avoid_sv1","""event"",""trial"",""time""
""fullscreenenter"",""1"",""3923""
","
","
","""event"",""trial"",""time""
""fullscreenenter"",""1"",""3923""
","
","","","","","","815.6999999880791","<p> You should use the 1, 2, 3, and 4 keys to make your responses.  </p><div class=""mem-choice-instructions-grid""><div class=""choice-option"" id=""choice-option-1"" ><img src=""images/definitely_old.png"" id=""choice-option-img-1"" class=""choice-option-img"" stage=""1""></div><div class=""choice-option"" id=""choice-option-2"" ><img src=""images/maybe_old.png"" id=""choice-option-img-2"" class=""choice-option-img"" stage=""1""></div><div class=""choice-option"" id=""choice-option-3"" ><img src=""images/maybe_new.png"" id=""choice-option-img-3"" class=""choice-option-img"" stage=""1""></div><div class=""choice-option"" id=""choice-option-4"" > <img src=""images/definitely_new.png"" id=""choice-option-img-4"" class=""choice-option-img"" stage=""1""></div></div>","","0","instructions","","",""
"learning-instructions","14","171694","0.0-9.0-0.5","6478","approach_avoid_sv1","""event"",""trial"",""time""
""fullscreenenter"",""1"",""3923""
","
","
","""event"",""trial"",""time""
""fullscreenenter"",""1"",""3923""
","
","","","","","","1791.5999999940395","<p> You will have 10 seconds to make each response.  </p><p>  Make sure to respond before time runs out! </p>","","0","instructions","","",""
"learning-instructions","15","179730","0.0-9.0-0.6","6478","approach_avoid_sv1","""event"",""trial"",""time""
""fullscreenenter"",""1"",""3923""
","
","
","""event"",""trial"",""time""
""fullscreenenter"",""1"",""3923""
","
","","","","","","963.9000000059605","<p> Today, you will see each image ONCE only.  </p><p>  That means none of the images will repeat. </p>","","0","instructions","","",""
"learning-instructions","16","193427","0.0-9.0-0.7","6478","approach_avoid_sv1","""event"",""trial"",""time""
""fullscreenenter"",""1"",""3923""
","
","
","""event"",""trial"",""time""
""fullscreenenter"",""1"",""3923""
","
","","","","","","1029.2000000029802","<p> Before you play the real game, it is time to practice. </p><p>  Just like in the real game, some of the images in the practice will be ones you have seen before. </p><p>  Others will be entirely new. </p>","","0","instructions","","",""
"html-button-response","17","196242","0.0-10.0","6478","approach_avoid_sv1","""event"",""trial"",""time""
""fullscreenenter"",""1"",""3923""
","
","
","""event"",""trial"",""time""
""fullscreenenter"",""1"",""3923""
","
","","","","","","2708.3999999910593","<p> Ready to practice? </p><p> Remember, use the 1, 2, 3, and 4 keys to make your responses. </p>","0","","instructions","","",""
"html-keyboard-response","18","196851","0.0-11.0-0.0","6478","approach_avoid_sv1","""event"",""trial"",""time""
""fullscreenenter"",""1"",""3923""
","
","
","""event"",""trial"",""time""
""fullscreenenter"",""1"",""3923""
","
","","","","","","null","<div style=""font-size:60px;"">+</div>","null","","fixation","","",""
"memory-trial","19","205780","0.0-11.0-1.0","6478","approach_avoid_sv1","""event"",""trial"",""time""
""fullscreenenter"",""1"",""3923""
","
","
","""event"",""trial"",""time""
""fullscreenenter"",""1"",""3923""
","
","","","","","","7918.5999999940395","images/ball3.png","","","practice","4","definitely_new",""
"html-keyboard-response","20","206284","0.0-11.0-0.1","6478","approach_avoid_sv1","""event"",""trial"",""time""
""fullscreenenter"",""1"",""3923""
","
","
","""event"",""trial"",""time""
""fullscreenenter"",""1"",""3923""
","
","","","","","","null","<div style=""font-size:60px;"">+</div>","null","","fixation","","",""
"memory-trial","21","209580","0.0-11.0-1.1","6478","approach_avoid_sv1","""event"",""trial"",""time""
""fullscreenenter"",""1"",""3923""
","
","
","""event"",""trial"",""time""
""fullscreenenter"",""1"",""3923""
","
","","","","","","2286.7000000029802","images/racket3.png","","","practice","4","definitely_new",""
"html-keyboard-response","22","210084","0.0-11.0-0.2","6478","approach_avoid_sv1","""event"",""trial"",""time""
""fullscreenenter"",""1"",""3923""
","
","
","""event"",""trial"",""time""
""fullscreenenter"",""1"",""3923""
","
","","","","","","null","<div style=""font-size:60px;"">+</div>","null","","fixation","","",""
"memory-trial","23","212684","0.0-11.0-1.2","6478","approach_avoid_sv1","""event"",""trial"",""time""
""fullscreenenter"",""1"",""3923""
","
","
","""event"",""trial"",""time""
""fullscreenenter"",""1"",""3923""
","
","","","","","","1596.7000000029802","images/ball5.png","","","practice","4","definitely_new",""
"html-keyboard-response","24","213188","0.0-11.0-0.3","6478","approach_avoid_sv1","""event"",""trial"",""time""
""fullscreenenter"",""1"",""3923""
","
","
","""event"",""trial"",""time""
""fullscreenenter"",""1"",""3923""
","
","","","","","","null","<div style=""font-size:60px;"">+</div>","null","","fixation","","",""
"memory-trial","25","215620","0.0-11.0-1.3","6478","approach_avoid_sv1","""event"",""trial"",""time""
""fullscreenenter"",""1"",""3923""
","
","
","""event"",""trial"",""time""
""fullscreenenter"",""1"",""3923""
","
","","","","","","1422.0999999940395","images/racket5.png","","","practice","4","definitely_new",""
"html-keyboard-response","26","216124","0.0-11.0-0.4","6478","approach_avoid_sv1","""event"",""trial"",""time""
""fullscreenenter"",""1"",""3923""
","
","
","""event"",""trial"",""time""
""fullscreenenter"",""1"",""3923""
","
","","","","","","null","<div style=""font-size:60px;"">+</div>","null","","fixation","","",""
"memory-trial","27","218252","0.0-11.0-1.4","6478","approach_avoid_sv1","""event"",""trial"",""time""
""fullscreenenter"",""1"",""3923""
","
","
","""event"",""trial"",""time""
""fullscreenenter"",""1"",""3923""
","
","","","","","","1125.5","images/racket1.png","","","practice","4","definitely_new",""
"html-keyboard-response","28","218756","0.0-11.0-0.5","6478","approach_avoid_sv1","""event"",""trial"",""time""
""fullscreenenter"",""1"",""3923""
","
","
","""event"",""trial"",""time""
""fullscreenenter"",""1"",""3923""
","
","","","","","","null","<div style=""font-size:60px;"">+</div>","null","","fixation","","",""
"memory-trial","29","220796","0.0-11.0-1.5","6478","approach_avoid_sv1","""event"",""trial"",""time""
""fullscreenenter"",""1"",""3923""
","
","
","""event"",""trial"",""time""
""fullscreenenter"",""1"",""3923""
","
","","","","","","1034.2000000029802","images/racket2.png","","","practice","4","definitely_new",""
"html-keyboard-response","30","221300","0.0-11.0-0.6","6478","approach_avoid_sv1","""event"",""trial"",""time""
""fullscreenenter"",""1"",""3923""
","
","
","""event"",""trial"",""time""
""fullscreenenter"",""1"",""3923""
","
","","","","","","null","<div style=""font-size:60px;"">+</div>","null","","fixation","","",""
"memory-trial","31","223340","0.0-11.0-1.6","6478","approach_avoid_sv1","""event"",""trial"",""time""
""fullscreenenter"",""1"",""3923""
","
","
","""event"",""trial"",""time""
""fullscreenenter"",""1"",""3923""
","
","","","","","","1034","images/ball2.png","","","practice","4","definitely_new",""
"html-keyboard-response","32","223844","0.0-11.0-0.7","6478","approach_avoid_sv1","""event"",""trial"",""time""
""fullscreenenter"",""1"",""3923""
","
","
","""event"",""trial"",""time""
""fullscreenenter"",""1"",""3923""
","
","","","","","","null","<div style=""font-size:60px;"">+</div>","null","","fixation","","",""
"memory-trial","33","225764","0.0-11.0-1.7","6478","approach_avoid_sv1","""event"",""trial"",""time""
""fullscreenenter"",""1"",""3923""
","
","
","""event"",""trial"",""time""
""fullscreenenter"",""1"",""3923""
","
","","","","","","912.7000000029802","images/ball1.png","","","practice","4","definitely_new",""
"learning-instructions","34","235399","0.0-12.0-0.0","6478","approach_avoid_sv1","""event"",""trial"",""time""
""fullscreenenter"",""1"",""3923""
","
","
","""event"",""trial"",""time""
""fullscreenenter"",""1"",""3923""
","
","","","","","","2336.3999999910593","<p> Great! You have completed the practice. </p><p> Before you start, we're going to ask you a few questions about how the game works.  </p>","","0","instructions","","",""
"preload","35","254824","0.0-13.0","6478","approach_avoid_sv1","""event"",""trial"",""time""
""fullscreenenter"",""1"",""3923""
","
","
","""event"",""trial"",""time""
""fullscreenenter"",""1"",""3923""
","
","true","false","[]","[]","[]","","","","","","","",""
"comp-q","36","266632","0.0-14.0-0.0","6478","approach_avoid_sv1","""event"",""trial"",""time""
""fullscreenenter"",""1"",""3923""
","
","
","""event"",""trial"",""time""
""fullscreenenter"",""1"",""3923""
","
","","","","","","5974","<p> <b> True or False? </b> </p><p> In this game, you will only see each image once. </p>","","0","comp_question","","","true"
"comp-q","37","274547","0.0-14.0-1.0","6478","approach_avoid_sv1","""event"",""trial"",""time""
""fullscreenenter"",""1"",""3923""
","
","
","""event"",""trial"",""time""
""fullscreenenter"",""1"",""3923""
","
","","","","","","1567","<p> <b> That's right! </b> You will see many different images <i> one time each </i> in this game. </p>","","0","comp_answer","","",""
"comp-q","38","282367","0.0-15.0-0.0","6478","approach_avoid_sv1","""event"",""trial"",""time""
""fullscreenenter"",""1"",""3923""
","
","
","""event"",""trial"",""time""
""fullscreenenter"",""1"",""3923""
","
","","","","","","2808.5999999940395","<p> <b> True or False? </b> </p><p> You should use the mouse and click to make your response. </p>","","0","comp_question","","","false"
"comp-q","39","289973","0.0-15.0-1.0","6478","approach_avoid_sv1","""event"",""trial"",""time""
""fullscreenenter"",""1"",""3923""
","
","
","""event"",""trial"",""time""
""fullscreenenter"",""1"",""3923""
","
","","","","","","1080.9000000059605","<p><b> Incorrect. </b> You should use the '1', '2', '3', and '4' keys to make your response. </p>","","0","comp_answer","","",""
"comp-q","40","297740","0.0-15.1-0.1","6478","approach_avoid_sv1","""event"",""trial"",""time""
""fullscreenenter"",""1"",""3923""
","
","
","""event"",""trial"",""time""
""fullscreenenter"",""1"",""3923""
","
","","","","","","2757.2999999970198","<p> <b> True or False? </b> </p><p> You should use the mouse and click to make your response. </p>","","0","comp_question","","","false"
"comp-q","41","305583","0.0-15.1-1.1","6478","approach_avoid_sv1","""event"",""trial"",""time""
""fullscreenenter"",""1"",""3923""
","
","
","""event"",""trial"",""time""
""fullscreenenter"",""1"",""3923""
","
","","","","","","1309","<p><b> Incorrect. </b> You should use the '1', '2', '3', and '4' keys to make your response. </p>","","0","comp_answer","","",""
"comp-q","42","311546","0.0-15.2-0.2","6478","approach_avoid_sv1","""event"",""trial"",""time""
""fullscreenenter"",""1"",""3923""
","
","
","""event"",""trial"",""time""
""fullscreenenter"",""1"",""3923""
","
","","","","","","958.3000000119209","<p> <b> True or False? </b> </p><p> You should use the mouse and click to make your response. </p>","","1","comp_question","","","true"
"comp-q","43","319493","0.0-15.2-1.2","6478","approach_avoid_sv1","""event"",""trial"",""time""
""fullscreenenter"",""1"",""3923""
","
","
","""event"",""trial"",""time""
""fullscreenenter"",""1"",""3923""
","
","","","","","","1448.5","<p><b> That's right! </b> You should use the '1', '2', '3', and '4' keys to make your response. </p>","","0","comp_answer","","",""
"comp-q","44","326433","0.0-16.0-0.0","6478","approach_avoid_sv1","""event"",""trial"",""time""
""fullscreenenter"",""1"",""3923""
","
","
","""event"",""trial"",""time""
""fullscreenenter"",""1"",""3923""
","
","","","","","","1263","<p> <b> True or False? </b> </p><p> You will have as much time as you want to make each choice. </p>","","0","comp_question","","","false"
"comp-q","45","332360","0.0-16.0-1.0","6478","approach_avoid_sv1","""event"",""trial"",""time""
""fullscreenenter"",""1"",""3923""
","
","
","""event"",""trial"",""time""
""fullscreenenter"",""1"",""3923""
","
","","","","","","1184.2999999970198","<p> <b>Incorrect.</b> You will only have 10 seconds to make each choice.</p>","","0","comp_answer","","",""
"comp-q","46","339165","0.0-16.1-0.1","6478","approach_avoid_sv1","""event"",""trial"",""time""
""fullscreenenter"",""1"",""3923""
","
","
","""event"",""trial"",""time""
""fullscreenenter"",""1"",""3923""
","
","","","","","","1120.7000000029802","<p> <b> True or False? </b> </p><p> You will have as much time as you want to make each choice. </p>","","1","comp_question","","","true"
"comp-q","47","345522","0.0-16.1-1.1","6478","approach_avoid_sv1","""event"",""trial"",""time""
""fullscreenenter"",""1"",""3923""
","
","
","""event"",""trial"",""time""
""fullscreenenter"",""1"",""3923""
","
","","","","","","1664.2999999970198","<p> <b> That's right! </b> You will only have 10 seconds to make each choice. </p>","","0","comp_answer","","",""
"learning-instructions","48","356172","0.0-17.0","6478","approach_avoid_sv1","""event"",""trial"",""time""
""fullscreenenter"",""1"",""3923""
","
","
","""event"",""trial"",""time""
""fullscreenenter"",""1"",""3923""
","
","","","","","","1977.9000000059605","<p> Great! You are now ready to begin the game. </p><p> Remember, use the 1, 2, 3, and 4 keys to make your responses. </p>","","0","instructions","","",""
"html-keyboard-response","49","356779","0.0-18.0-0.0","6478","approach_avoid_sv1","""event"",""trial"",""time""
""fullscreenenter"",""1"",""3923""
","
","
","""event"",""trial"",""time""
""fullscreenenter"",""1"",""3923""
","
","","","","","","null","<div style=""font-size:60px;"">+</div>","null","","fixation","","",""
"memory-trial","50","362236","0.0-18.0-1.0","6478","approach_avoid_sv1","""event"",""trial"",""time""
""fullscreenenter"",""1"",""3923""
","
","
","""event"",""trial"",""time""
""fullscreenenter"",""1"",""3923""
","
","","","","","","4438.100000008941","images/horse3.png","","","memory_trial","1","definitely_old",""
"html-keyboard-response","51","362740","0.0-18.0-0.1","6478","approach_avoid_sv1","""event"",""trial"",""time""
""fullscreenenter"",""1"",""3923""
","
","
","""event"",""trial"",""time""
""fullscreenenter"",""1"",""3923""
","
","","","","","","null","<div style=""font-size:60px;"">+</div>","null","","fixation","","",""
"memory-trial","52","365372","0.0-18.0-1.1","6478","approach_avoid_sv1","""event"",""trial"",""time""
""fullscreenenter"",""1"",""3923""
","
","
","""event"",""trial"",""time""
""fullscreenenter"",""1"",""3923""
","
","","","","","","1625.8999999910593","images/horse1.png","","","memory_trial","1","definitely_old",""
"html-keyboard-response","53","365876","0.0-18.0-0.2","6478","approach_avoid_sv1","""event"",""trial"",""time""
""fullscreenenter"",""1"",""3923""
","
","
","""event"",""trial"",""time""
""fullscreenenter"",""1"",""3923""
","
","","","","","","null","<div style=""font-size:60px;"">+</div>","null","","fixation","","",""
"memory-trial","54","370508","0.0-18.0-1.2","6478","approach_avoid_sv1","""event"",""trial"",""time""
""fullscreenenter"",""1"",""3923""
","
","
","""event"",""trial"",""time""
""fullscreenenter"",""1"",""3923""
","
","","","","","","3623","images/cat5.png","","","memory_trial","1","definitely_old",""
"html-keyboard-response","55","371012","0.0-18.0-0.3","6478","approach_avoid_sv1","""event"",""trial"",""time""
""fullscreenenter"",""1"",""3923""
","
","
","""event"",""trial"",""time""
""fullscreenenter"",""1"",""3923""
","
","","","","","","null","<div style=""font-size:60px;"">+</div>","null","","fixation","","",""
"memory-trial","56","372796","0.0-18.0-1.3","6478","approach_avoid_sv1","""event"",""trial"",""time""
""fullscreenenter"",""1"",""3923""
","
","
","""event"",""trial"",""time""
""fullscreenenter"",""1"",""3923""
","
","","","","","","776.5999999940395","images/goat5.png","","","memory_trial","1","definitely_old",""
"html-keyboard-response","57","373300","0.0-18.0-0.4","6478","approach_avoid_sv1","""event"",""trial"",""time""
""fullscreenenter"",""1"",""3923""
","
","
","""event"",""trial"",""time""
""fullscreenenter"",""1"",""3923""
","
","","","","","","null","<div style=""font-size:60px;"">+</div>","null","","fixation","","",""
"memory-trial","58","375012","0.0-18.0-1.4","6478","approach_avoid_sv1","""event"",""trial"",""time""
""fullscreenenter"",""1"",""3923""
","
","
","""event"",""trial"",""time""
""fullscreenenter"",""1"",""3923""
","
","","","","","","702.1999999880791","images/train1.png","","","memory_trial","1","definitely_old",""
"html-keyboard-response","59","375516","0.0-18.0-0.5","6478","approach_avoid_sv1","""event"",""trial"",""time""
""fullscreenenter"",""1"",""3923""
","
","
","""event"",""trial"",""time""
""fullscreenenter"",""1"",""3923""
","
","","","","","","null","<div style=""font-size:60px;"">+</div>","null","","fixation","","",""
"memory-trial","60","377396","0.0-18.0-1.5","6478","approach_avoid_sv1","""event"",""trial"",""time""
""fullscreenenter"",""1"",""3923""
","
","
","""event"",""trial"",""time""
""fullscreenenter"",""1"",""3923""
","
","","","","","","871.7999999970198","images/chair5.png","","","memory_trial","1","definitely_old",""
"html-keyboard-response","61","377900","0.0-18.0-0.6","6478","approach_avoid_sv1","""event"",""trial"",""time""
""fullscreenenter"",""1"",""3923""
","
","
","""event"",""trial"",""time""
""fullscreenenter"",""1"",""3923""
","
","","","","","","null","<div style=""font-size:60px;"">+</div>","null","","fixation","","",""
"memory-trial","62","379444","0.0-18.0-1.6","6478","approach_avoid_sv1","""event"",""trial"",""time""
""fullscreenenter"",""1"",""3923""
","
","
","""event"",""trial"",""time""
""fullscreenenter"",""1"",""3923""
","
","","","","","","537","images/sofa4.png","","","memory_trial","1","definitely_old",""
"html-keyboard-response","63","379948","0.0-18.0-0.7","6478","approach_avoid_sv1","""event"",""trial"",""time""
""fullscreenenter"",""1"",""3923""
","
","
","""event"",""trial"",""time""
""fullscreenenter"",""1"",""3923""
","
","","","","","","null","<div style=""font-size:60px;"">+</div>","null","","fixation","","",""
"memory-trial","64","381716","0.0-18.0-1.7","6478","approach_avoid_sv1","""event"",""trial"",""time""
""fullscreenenter"",""1"",""3923""
","
","
","""event"",""trial"",""time""
""fullscreenenter"",""1"",""3923""
","
","","","","","","762.0999999940395","images/dog8.png","","","memory_trial","1","definitely_old",""
"html-keyboard-response","65","382220","0.0-18.0-0.8","6478","approach_avoid_sv1","""event"",""trial"",""time""
""fullscreenenter"",""1"",""3923""
","
","
","""event"",""trial"",""time""
""fullscreenenter"",""1"",""3923""
","
","","","","","","null","<div style=""font-size:60px;"">+</div>","null","","fixation","","",""
"memory-trial","66","387428","0.0-18.0-1.8","6478","approach_avoid_sv1","""event"",""trial"",""time""
""fullscreenenter"",""1"",""3923""
","
","
","""event"",""trial"",""time""
""fullscreenenter"",""1"",""3923""
","
","","","","","","4202","images/chair6.png","","","memory_trial","3","maybe_new",""
"html-keyboard-response","67","387932","0.0-18.0-0.9","6478","approach_avoid_sv1","""event"",""trial"",""time""
""fullscreenenter"",""1"",""3923""
","
","
","""event"",""trial"",""time""
""fullscreenenter"",""1"",""3923""
","
","","","","","","null","<div style=""font-size:60px;"">+</div>","null","","fixation","","",""
"memory-trial","68","391772","0.0-18.0-1.9","6478","approach_avoid_sv1","""event"",""trial"",""time""
""fullscreenenter"",""1"",""3923""
","
","
","""event"",""trial"",""time""
""fullscreenenter"",""1"",""3923""
","
","","","","","","2831.4000000059605","images/cow5.png","","","memory_trial","3","maybe_new",""
"html-keyboard-response","69","392276","0.0-18.0-0.10","6478","approach_avoid_sv1","""event"",""trial"",""time""
""fullscreenenter"",""1"",""3923""
","
","
","""event"",""trial"",""time""
""fullscreenenter"",""1"",""3923""
","
","","","","","","null","<div style=""font-size:60px;"">+</div>","null","","fixation","","",""
"memory-trial","70","395956","0.0-18.0-1.10","6478","approach_avoid_sv1","""event"",""trial"",""time""
""fullscreenenter"",""1"",""3923""
","
","
","""event"",""trial"",""time""
""fullscreenenter"",""1"",""3923""
","
","","","","","","2669.9000000059605","images/rabbit7.png","","","memory_trial","3","maybe_new",""
"html-keyboard-response","71","396460","0.0-18.0-0.11","6478","approach_avoid_sv1","""event"",""trial"",""time""
""fullscreenenter"",""1"",""3923""
","
","
","""event"",""trial"",""time""
""fullscreenenter"",""1"",""3923""
","
","","","","","","null","<div style=""font-size:60px;"">+</div>","null","","fixation","","",""
"memory-trial","72","399396","0.0-18.0-1.11","6478","approach_avoid_sv1","""event"",""trial"",""time""
""fullscreenenter"",""1"",""3923""
","
","
","""event"",""trial"",""time""
""fullscreenenter"",""1"",""3923""
","
","","","","","","1931.5","images/table4.png","","","memory_trial","3","maybe_new",""
"html-keyboard-response","73","399900","0.0-18.0-0.12","6478","approach_avoid_sv1","""event"",""trial"",""time""
""fullscreenenter"",""1"",""3923""
","
","
","""event"",""trial"",""time""
""fullscreenenter"",""1"",""3923""
","
","","","","","","null","<div style=""font-size:60px;"">+</div>","null","","fixation","","",""
"memory-trial","74","402524","0.0-18.0-1.12","6478","approach_avoid_sv1","""event"",""trial"",""time""
""fullscreenenter"",""1"",""3923""
","
","
","""event"",""trial"",""time""
""fullscreenenter"",""1"",""3923""
","
","","","","","","1615.9000000059605","images/tree7.png","","","memory_trial","1","definitely_old",""
"html-keyboard-response","75","403028","0.0-18.0-0.13","6478","approach_avoid_sv1","""event"",""trial"",""time""
""fullscreenenter"",""1"",""3923""
","
","
","""event"",""trial"",""time""
""fullscreenenter"",""1"",""3923""
","
","","","","","","null","<div style=""font-size:60px;"">+</div>","null","","fixation","","",""
"memory-trial","76","406412","0.0-18.0-1.13","6478","approach_avoid_sv1","""event"",""trial"",""time""
""fullscreenenter"",""1"",""3923""
","
","
","""event"",""trial"",""time""
""fullscreenenter"",""1"",""3923""
","
","","","","","","2379","images/flower8.png","","","memory_trial","4","definitely_new",""
"html-keyboard-response","77","406916","0.0-18.0-0.14","6478","approach_avoid_sv1","""event"",""trial"",""time""
""fullscreenenter"",""1"",""3923""
","
","
","""event"",""trial"",""time""
""fullscreenenter"",""1"",""3923""
","
","","","","","","null","<div style=""font-size:60px;"">+</div>","null","","fixation","","",""
"memory-trial","78","409636","0.0-18.0-1.14","6478","approach_avoid_sv1","""event"",""trial"",""time""
""fullscreenenter"",""1"",""3923""
","
","
","""event"",""trial"",""time""
""fullscreenenter"",""1"",""3923""
","
","","","","","","1713.6000000089407","images/straw3.png","","","memory_trial","4","definitely_new",""
"html-keyboard-response","79","410140","0.0-18.0-0.15","6478","approach_avoid_sv1","""event"",""trial"",""time""
""fullscreenenter"",""1"",""3923""
","
","
","""event"",""trial"",""time""
""fullscreenenter"",""1"",""3923""
","
","","","","","","null","<div style=""font-size:60px;"">+</div>","null","","fixation","","",""
"memory-trial","80","414540","0.0-18.0-1.15","6478","approach_avoid_sv1","""event"",""trial"",""time""
""fullscreenenter"",""1"",""3923""
","
","
","""event"",""trial"",""time""
""fullscreenenter"",""1"",""3923""
","
","","","","","","3389.699999988079","images/orange1.png","","","memory_trial","2","maybe_old",""
"html-keyboard-response","81","415044","0.0-18.0-0.16","6478","approach_avoid_sv1","""event"",""trial"",""time""
""fullscreenenter"",""1"",""3923""
","
","
","""event"",""trial"",""time""
""fullscreenenter"",""1"",""3923""
","
","","","","","","null","<div style=""font-size:60px;"">+</div>","null","","fixation","","",""
"memory-trial","82","417548","0.0-18.0-1.16","6478","approach_avoid_sv1","""event"",""trial"",""time""
""fullscreenenter"",""1"",""3923""
","
","
","""event"",""trial"",""time""
""fullscreenenter"",""1"",""3923""
","
","","","","","","1494.3999999910593","images/boat6.png","","","memory_trial","1","definitely_old",""
"html-keyboard-response","83","418052","0.0-18.0-0.17","6478","approach_avoid_sv1","""event"",""trial"",""time""
""fullscreenenter"",""1"",""3923""
","
","
","""event"",""trial"",""time""
""fullscreenenter"",""1"",""3923""
","
","","","","","","null","<div style=""font-size:60px;"">+</div>","null","","fixation","","",""
"memory-trial","84","421412","0.0-18.0-1.17","6478","approach_avoid_sv1","""event"",""trial"",""time""
""fullscreenenter"",""1"",""3923""
","
","
","""event"",""trial"",""time""
""fullscreenenter"",""1"",""3923""
","
","","","","","","2357.7000000029802","images/horse5.png","","","memory_trial","4","definitely_new",""
"html-keyboard-response","85","421916","0.0-18.0-0.18","6478","approach_avoid_sv1","""event"",""trial"",""time""
""fullscreenenter"",""1"",""3923""
","
","
","""event"",""trial"",""time""
""fullscreenenter"",""1"",""3923""
","
","","","","","","null","<div style=""font-size:60px;"">+</div>","null","","fixation","","",""
"memory-trial","86","424532","0.0-18.0-1.18","6478","approach_avoid_sv1","""event"",""trial"",""time""
""fullscreenenter"",""1"",""3923""
","
","
","""event"",""trial"",""time""
""fullscreenenter"",""1"",""3923""
","
","","","","","","1611.3999999910593","images/rodent1.png","","","memory_trial","1","definitely_old",""
"html-keyboard-response","87","425036","0.0-18.0-0.19","6478","approach_avoid_sv1","""event"",""trial"",""time""
""fullscreenenter"",""1"",""3923""
","
","
","""event"",""trial"",""time""
""fullscreenenter"",""1"",""3923""
","
","","","","","","null","<div style=""font-size:60px;"">+</div>","null","","fixation","","",""
"memory-trial","88","426820","0.0-18.0-1.19","6478","approach_avoid_sv1","""event"",""trial"",""time""
""fullscreenenter"",""1"",""3923""
","
","
","""event"",""trial"",""time""
""fullscreenenter"",""1"",""3923""
","
","","","","","","774.2000000029802","images/rabbit8.png","","","memory_trial","1","definitely_old",""
"html-keyboard-response","89","427324","0.0-18.0-0.20","6478","approach_avoid_sv1","""event"",""trial"",""time""
""fullscreenenter"",""1"",""3923""
","
","
","""event"",""trial"",""time""
""fullscreenenter"",""1"",""3923""
","
","","","","","","null","<div style=""font-size:60px;"">+</div>","null","","fixation","","",""
"memory-trial","90","429100","0.0-18.0-1.20","6478","approach_avoid_sv1","""event"",""trial"",""time""
""fullscreenenter"",""1"",""3923""
","
","
","""event"",""trial"",""time""
""fullscreenenter"",""1"",""3923""
","
","","","","","","770.5999999940395","images/sheep4.png","","","memory_trial","1","definitely_old",""
"html-keyboard-response","91","429604","0.0-18.0-0.21","6478","approach_avoid_sv1","""event"",""trial"",""time""
""fullscreenenter"",""1"",""3923""
","
","
","""event"",""trial"",""time""
""fullscreenenter"",""1"",""3923""
","
","","","","","","null","<div style=""font-size:60px;"">+</div>","null","","fixation","","",""
"memory-trial","92","431364","0.0-18.0-1.21","6478","approach_avoid_sv1","""event"",""trial"",""time""
""fullscreenenter"",""1"",""3923""
","
","
","""event"",""trial"",""time""
""fullscreenenter"",""1"",""3923""
","
","","","","","","755.5","images/train7.png","","","memory_trial","1","definitely_old",""
"html-keyboard-response","93","431867","0.0-18.0-0.22","6478","approach_avoid_sv1","""event"",""trial"",""time""
""fullscreenenter"",""1"",""3923""
","
","
","""event"",""trial"",""time""
""fullscreenenter"",""1"",""3923""
","
","","","","","","null","<div style=""font-size:60px;"">+</div>","null","","fixation","","",""
"memory-trial","94","433380","0.0-18.0-1.22","6478","approach_avoid_sv1","""event"",""trial"",""time""
""fullscreenenter"",""1"",""3923""
","
","
","""event"",""trial"",""time""
""fullscreenenter"",""1"",""3923""
","
","","","","","","506.1000000089407","images/train2.png","","","memory_trial","1","definitely_old",""
"html-keyboard-response","95","433884","0.0-18.0-0.23","6478","approach_avoid_sv1","""event"",""trial"",""time""
""fullscreenenter"",""1"",""3923""
","
","
","""event"",""trial"",""time""
""fullscreenenter"",""1"",""3923""
","
","","","","","","null","<div style=""font-size:60px;"">+</div>","null","","fixation","","",""
"memory-trial","96","436052","0.0-18.0-1.23","6478","approach_avoid_sv1","""event"",""trial"",""time""
""fullscreenenter"",""1"",""3923""
","
","
","""event"",""trial"",""time""
""fullscreenenter"",""1"",""3923""
","
","","","","","","1158.5999999940395","images/rodent8.png","","","memory_trial","1","definitely_old",""
"html-keyboard-response","97","436556","0.0-18.0-0.24","6478","approach_avoid_sv1","""event"",""trial"",""time""
""fullscreenenter"",""1"",""3923""
","
","
","""event"",""trial"",""time""
""fullscreenenter"",""1"",""3923""
","
","","","","","","null","<div style=""font-size:60px;"">+</div>","null","","fixation","","",""
"memory-trial","98","439540","0.0-18.0-1.24","6478","approach_avoid_sv1","""event"",""trial"",""time""
""fullscreenenter"",""1"",""3923""
","
","
","""event"",""trial"",""time""
""fullscreenenter"",""1"",""3923""
","
","","","","","","1977","images/tree5.png","","","memory_trial","4","definitely_new",""
"html-keyboard-response","99","440044","0.0-18.0-0.25","6478","approach_avoid_sv1","""event"",""trial"",""time""
""fullscreenenter"",""1"",""3923""
","
","
","""event"",""trial"",""time""
""fullscreenenter"",""1"",""3923""
","
","","","","","","null","<div style=""font-size:60px;"">+</div>","null","","fixation","","",""
"memory-trial","100","442404","0.0-18.0-1.25","6478","approach_avoid_sv1","""event"",""trial"",""time""
""fullscreenenter"",""1"",""3923""
","
","
","""event"",""trial"",""time""
""fullscreenenter"",""1"",""3923""
","
","","","","","","1351.0999999940395","images/apple8.png","","","memory_trial","1","definitely_old",""
"html-keyboard-response","101","442908","0.0-18.0-0.26","6478","approach_avoid_sv1","""event"",""trial"",""time""
""fullscreenenter"",""1"",""3923""
","
","
","""event"",""trial"",""time""
""fullscreenenter"",""1"",""3923""
","
","","","","","","null","<div style=""font-size:60px;"">+</div>","null","","fixation","","",""
"memory-trial","102","444716","0.0-18.0-1.26","6478","approach_avoid_sv1","""event"",""trial"",""time""
""fullscreenenter"",""1"",""3923""
","
","
","""event"",""trial"",""time""
""fullscreenenter"",""1"",""3923""
","
","","","","","","804.5999999940395","images/cow4.png","","","memory_trial","1","definitely_old",""
"html-keyboard-response","103","445220","0.0-18.0-0.27","6478","approach_avoid_sv1","""event"",""trial"",""time""
""fullscreenenter"",""1"",""3923""
","
","
","""event"",""trial"",""time""
""fullscreenenter"",""1"",""3923""
","
","","","","","","null","<div style=""font-size:60px;"">+</div>","null","","fixation","","",""
"memory-trial","104","446740","0.0-18.0-1.27","6478","approach_avoid_sv1","""event"",""trial"",""time""
""fullscreenenter"",""1"",""3923""
","
","
","""event"",""trial"",""time""
""fullscreenenter"",""1"",""3923""
","
","","","","","","512.2999999970198","images/tree3.png","","","memory_trial","1","definitely_old",""
"html-keyboard-response","105","447244","0.0-18.0-0.28","6478","approach_avoid_sv1","""event"",""trial"",""time""
""fullscreenenter"",""1"",""3923""
","
","
","""event"",""trial"",""time""
""fullscreenenter"",""1"",""3923""
","
","","","","","","null","<div style=""font-size:60px;"">+</div>","null","","fixation","","",""
"memory-trial","106","451668","0.0-18.0-1.28","6478","approach_avoid_sv1","""event"",""trial"",""time""
""fullscreenenter"",""1"",""3923""
","
","
","""event"",""trial"",""time""
""fullscreenenter"",""1"",""3923""
","
","","","","","","3417","images/banana4.png","","","memory_trial","4","definitely_new",""
"html-keyboard-response","107","452172","0.0-18.0-0.29","6478","approach_avoid_sv1","""event"",""trial"",""time""
""fullscreenenter"",""1"",""3923""
","
","
","""event"",""trial"",""time""
""fullscreenenter"",""1"",""3923""
","
","","","","","","null","<div style=""font-size:60px;"">+</div>","null","","fixation","","",""
"memory-trial","108","454604","0.0-18.0-1.29","6478","approach_avoid_sv1","""event"",""trial"",""time""
""fullscreenenter"",""1"",""3923""
","
","
","""event"",""trial"",""time""
""fullscreenenter"",""1"",""3923""
","
","","","","","","1429.2999999970198","images/table8.png","","","memory_trial","1","definitely_old",""
"html-keyboard-response","109","455108","0.0-18.0-0.30","6478","approach_avoid_sv1","""event"",""trial"",""time""
""fullscreenenter"",""1"",""3923""
","
","
","""event"",""trial"",""time""
""fullscreenenter"",""1"",""3923""
","
","","","","","","null","<div style=""font-size:60px;"">+</div>","null","","fixation","","",""
"memory-trial","110","458820","0.0-18.0-1.30","6478","approach_avoid_sv1","""event"",""trial"",""time""
""fullscreenenter"",""1"",""3923""
","
","
","""event"",""trial"",""time""
""fullscreenenter"",""1"",""3923""
","
","","","","","","2709.7999999970198","images/bed5.png","","","memory_trial","4","definitely_new",""
"html-keyboard-response","111","459324","0.0-18.0-0.31","6478","approach_avoid_sv1","""event"",""trial"",""time""
""fullscreenenter"",""1"",""3923""
","
","
","""event"",""trial"",""time""
""fullscreenenter"",""1"",""3923""
","
","","","","","","null","<div style=""font-size:60px;"">+</div>","null","","fixation","","",""
"memory-trial","112","462044","0.0-18.0-1.31","6478","approach_avoid_sv1","""event"",""trial"",""time""
""fullscreenenter"",""1"",""3923""
","
","
","""event"",""trial"",""time""
""fullscreenenter"",""1"",""3923""
","
","","","","","","1713.2999999970198","images/flower5.png","","","memory_trial","4","definitely_new",""
"html-keyboard-response","113","462548","0.0-18.0-0.32","6478","approach_avoid_sv1","""event"",""trial"",""time""
""fullscreenenter"",""1"",""3923""
","
","
","""event"",""trial"",""time""
""fullscreenenter"",""1"",""3923""
","
","","","","","","null","<div style=""font-size:60px;"">+</div>","null","","fixation","","",""
"memory-trial","114","465492","0.0-18.0-1.32","6478","approach_avoid_sv1","""event"",""trial"",""time""
""fullscreenenter"",""1"",""3923""
","
","
","""event"",""trial"",""time""
""fullscreenenter"",""1"",""3923""
","
","","","","","","1939.5","images/plane6.png","","","memory_trial","4","definitely_new",""
"html-keyboard-response","115","465996","0.0-18.0-0.33","6478","approach_avoid_sv1","""event"",""trial"",""time""
""fullscreenenter"",""1"",""3923""
","
","
","""event"",""trial"",""time""
""fullscreenenter"",""1"",""3923""
","
","","","","","","null","<div style=""font-size:60px;"">+</div>","null","","fixation","","",""
"memory-trial","116","468316","0.0-18.0-1.33","6478","approach_avoid_sv1","""event"",""trial"",""time""
""fullscreenenter"",""1"",""3923""
","
","
","""event"",""trial"",""time""
""fullscreenenter"",""1"",""3923""
","
","","","","","","1316.5999999940395","images/goat4.png","","","memory_trial","1","definitely_old",""
"html-keyboard-response","117","468819","0.0-18.0-0.34","6478","approach_avoid_sv1","""event"",""trial"",""time""
""fullscreenenter"",""1"",""3923""
","
","
","""event"",""trial"",""time""
""fullscreenenter"",""1"",""3923""
","
","","","","","","null","<div style=""font-size:60px;"">+</div>","null","","fixation","","",""
"memory-trial","118","471036","0.0-18.0-1.34","6478","approach_avoid_sv1","""event"",""trial"",""time""
""fullscreenenter"",""1"",""3923""
","
","
","""event"",""trial"",""time""
""fullscreenenter"",""1"",""3923""
","
","","","","","","1210","images/bush3.png","","","memory_trial","1","definitely_old",""
"html-keyboard-response","119","471540","0.0-18.0-0.35","6478","approach_avoid_sv1","""event"",""trial"",""time""
""fullscreenenter"",""1"",""3923""
","
","
","""event"",""trial"",""time""
""fullscreenenter"",""1"",""3923""
","
","","","","","","null","<div style=""font-size:60px;"">+</div>","null","","fixation","","",""
"memory-trial","120","473316","0.0-18.0-1.35","6478","approach_avoid_sv1","""event"",""trial"",""time""
""fullscreenenter"",""1"",""3923""
","
","
","""event"",""trial"",""time""
""fullscreenenter"",""1"",""3923""
","
","","","","","","771.2000000029802","images/rodent2.png","","","memory_trial","1","definitely_old",""
"html-keyboard-response","121","473820","0.0-18.0-0.36","6478","approach_avoid_sv1","""event"",""trial"",""time""
""fullscreenenter"",""1"",""3923""
","
","
","""event"",""trial"",""time""
""fullscreenenter"",""1"",""3923""
","
","","","","","","null","<div style=""font-size:60px;"">+</div>","null","","fixation","","",""
"memory-trial","122","475932","0.0-18.0-1.36","6478","approach_avoid_sv1","""event"",""trial"",""time""
""fullscreenenter"",""1"",""3923""
","
","
","""event"",""trial"",""time""
""fullscreenenter"",""1"",""3923""
","
","","","","","","1105.1000000089407","images/bush8.png","","","memory_trial","1","definitely_old",""
"html-keyboard-response","123","476436","0.0-18.0-0.37","6478","approach_avoid_sv1","""event"",""trial"",""time""
""fullscreenenter"",""1"",""3923""
","
","
","""event"",""trial"",""time""
""fullscreenenter"",""1"",""3923""
","
","","","","","","null","<div style=""font-size:60px;"">+</div>","null","","fixation","","",""
"memory-trial","124","478227","0.0-18.0-1.37","6478","approach_avoid_sv1","""event"",""trial"",""time""
""fullscreenenter"",""1"",""3923""
","
","
","""event"",""trial"",""time""
""fullscreenenter"",""1"",""3923""
","
","","","","","","784.7000000029802","images/chair4.png","","","memory_trial","1","definitely_old",""
"html-keyboard-response","125","478732","0.0-18.0-0.38","6478","approach_avoid_sv1","""event"",""trial"",""time""
""fullscreenenter"",""1"",""3923""
","
","
","""event"",""trial"",""time""
""fullscreenenter"",""1"",""3923""
","
","","","","","","null","<div style=""font-size:60px;"">+</div>","null","","fixation","","",""
"memory-trial","126","481700","0.0-18.0-1.38","6478","approach_avoid_sv1","""event"",""trial"",""time""
""fullscreenenter"",""1"",""3923""
","
","
","""event"",""trial"",""time""
""fullscreenenter"",""1"",""3923""
","
","","","","","","1961.3999999910593","images/dog1.png","","","memory_trial","4","definitely_new",""
"html-keyboard-response","127","482204","0.0-18.0-0.39","6478","approach_avoid_sv1","""event"",""trial"",""time""
""fullscreenenter"",""1"",""3923""
","
","
","""event"",""trial"",""time""
""fullscreenenter"",""1"",""3923""
","
","","","","","","null","<div style=""font-size:60px;"">+</div>","null","","fixation","","",""
"memory-trial","128","484516","0.0-18.0-1.39","6478","approach_avoid_sv1","""event"",""trial"",""time""
""fullscreenenter"",""1"",""3923""
","
","
","""event"",""trial"",""time""
""fullscreenenter"",""1"",""3923""
","
","","","","","","1307","images/table3.png","","","memory_trial","4","definitely_new",""
"html-keyboard-response","129","485020","0.0-18.0-0.40","6478","approach_avoid_sv1","""event"",""trial"",""time""
""fullscreenenter"",""1"",""3923""
","
","
","""event"",""trial"",""time""
""fullscreenenter"",""1"",""3923""
","
","","","","","","null","<div style=""font-size:60px;"">+</div>","null","","fixation","","",""
"memory-trial","130","487452","0.0-18.0-1.40","6478","approach_avoid_sv1","""event"",""trial"",""time""
""fullscreenenter"",""1"",""3923""
","
","
","""event"",""trial"",""time""
""fullscreenenter"",""1"",""3923""
","
","","","","","","1428.800000011921","images/plane4.png","","","memory_trial","4","definitely_new",""
"html-keyboard-response","131","487956","0.0-18.0-0.41","6478","approach_avoid_sv1","""event"",""trial"",""time""
""fullscreenenter"",""1"",""3923""
","
","
","""event"",""trial"",""time""
""fullscreenenter"",""1"",""3923""
","
","","","","","","null","<div style=""font-size:60px;"">+</div>","null","","fixation","","",""
"memory-trial","132","491220","0.0-18.0-1.41","6478","approach_avoid_sv1","""event"",""trial"",""time""
""fullscreenenter"",""1"",""3923""
","
","
","""event"",""trial"",""time""
""fullscreenenter"",""1"",""3923""
","
","","","","","","2254.7999999970198","images/orange7.png","","","memory_trial","1","definitely_old",""
"html-button-response","133","494792","0.0-18.0-2.41-0.41","6478","approach_avoid_sv1","""event"",""trial"",""time""
""fullscreenenter"",""1"",""3923""
","
","
","""event"",""trial"",""time""
""fullscreenenter"",""1"",""3923""
","
","","","","","","3571.2999999970198","<p> Take a break! </p><p> Click the button to continue. </p>","0","","break","","",""
"html-keyboard-response","134","495299","0.0-18.0-0.42","6478","approach_avoid_sv1","""event"",""trial"",""time""
""fullscreenenter"",""1"",""3923""
","
","
","""event"",""trial"",""time""
""fullscreenenter"",""1"",""3923""
","
","","","","","","null","<div style=""font-size:60px;"">+</div>","null","","fixation","","",""
"memory-trial","135","498588","0.0-18.0-1.42","6478","approach_avoid_sv1","""event"",""trial"",""time""
""fullscreenenter"",""1"",""3923""
","
","
","""event"",""trial"",""time""
""fullscreenenter"",""1"",""3923""
","
","","","","","","2280.2999999970198","images/boat1.png","","","memory_trial","1","definitely_old",""
"html-keyboard-response","136","499092","0.0-18.0-0.43","6478","approach_avoid_sv1","""event"",""trial"",""time""
""fullscreenenter"",""1"",""3923""
","
","
","""event"",""trial"",""time""
""fullscreenenter"",""1"",""3923""
","
","","","","","","null","<div style=""font-size:60px;"">+</div>","null","","fixation","","",""
"memory-trial","137","502268","0.0-18.0-1.43","6478","approach_avoid_sv1","""event"",""trial"",""time""
""fullscreenenter"",""1"",""3923""
","
","
","""event"",""trial"",""time""
""fullscreenenter"",""1"",""3923""
","
","","","","","","2167","images/orange8.png","","","memory_trial","4","definitely_new",""
"html-keyboard-response","138","502772","0.0-18.0-0.44","6478","approach_avoid_sv1","""event"",""trial"",""time""
""fullscreenenter"",""1"",""3923""
","
","
","""event"",""trial"",""time""
""fullscreenenter"",""1"",""3923""
","
","","","","","","null","<div style=""font-size:60px;"">+</div>","null","","fixation","","",""
"memory-trial","139","504604","0.0-18.0-1.44","6478","approach_avoid_sv1","""event"",""trial"",""time""
""fullscreenenter"",""1"",""3923""
","
","
","""event"",""trial"",""time""
""fullscreenenter"",""1"",""3923""
","
","","","","","","824.5","images/train8.png","","","memory_trial","1","definitely_old",""
"html-keyboard-response","140","505108","0.0-18.0-0.45","6478","approach_avoid_sv1","""event"",""trial"",""time""
""fullscreenenter"",""1"",""3923""
","
","
","""event"",""trial"",""time""
""fullscreenenter"",""1"",""3923""
","
","","","","","","null","<div style=""font-size:60px;"">+</div>","null","","fixation","","",""
"memory-trial","141","507020","0.0-18.0-1.45","6478","approach_avoid_sv1","""event"",""trial"",""time""
""fullscreenenter"",""1"",""3923""
","
","
","""event"",""trial"",""time""
""fullscreenenter"",""1"",""3923""
","
","","","","","","902.6999999880791","images/table6.png","","","memory_trial","1","definitely_old",""
"html-keyboard-response","142","507524","0.0-18.0-0.46","6478","approach_avoid_sv1","""event"",""trial"",""time""
""fullscreenenter"",""1"",""3923""
","
","
","""event"",""trial"",""time""
""fullscreenenter"",""1"",""3923""
","
","","","","","","null","<div style=""font-size:60px;"">+</div>","null","","fixation","","",""
"memory-trial","143","509908","0.0-18.0-1.46","6478","approach_avoid_sv1","""event"",""trial"",""time""
""fullscreenenter"",""1"",""3923""
","
","
","""event"",""trial"",""time""
""fullscreenenter"",""1"",""3923""
","
","","","","","","1374","images/cow8.png","","","memory_trial","1","definitely_old",""
"html-keyboard-response","144","510412","0.0-18.0-0.47","6478","approach_avoid_sv1","""event"",""trial"",""time""
""fullscreenenter"",""1"",""3923""
","
","
","""event"",""trial"",""time""
""fullscreenenter"",""1"",""3923""
","
","","","","","","null","<div style=""font-size:60px;"">+</div>","null","","fixation","","",""
"memory-trial","145","512572","0.0-18.0-1.47","6478","approach_avoid_sv1","""event"",""trial"",""time""
""fullscreenenter"",""1"",""3923""
","
","
","""event"",""trial"",""time""
""fullscreenenter"",""1"",""3923""
","
","","","","","","1155.7000000029802","images/truck4.png","","","memory_trial","1","definitely_old",""
"html-keyboard-response","146","513076","0.0-18.0-0.48","6478","approach_avoid_sv1","""event"",""trial"",""time""
""fullscreenenter"",""1"",""3923""
","
","
","""event"",""trial"",""time""
""fullscreenenter"",""1"",""3923""
","
","","","","","","null","<div style=""font-size:60px;"">+</div>","null","","fixation","","",""
"memory-trial","147","523084","0.0-18.0-1.48","6478","approach_avoid_sv1","""event"",""trial"",""time""
""fullscreenenter"",""1"",""3923""
","
","
","""event"",""trial"",""time""
""fullscreenenter"",""1"",""3923""
","
","","","","","","null","images/cat6.png","","","memory_trial","null","null",""
"html-keyboard-response","148","523588","0.0-18.0-0.49","6478","approach_avoid_sv1","""event"",""trial"",""time""
""fullscreenenter"",""1"",""3923""
","
","
","""event"",""trial"",""time""
""fullscreenenter"",""1"",""3923""
","
","","","","","","null","<div style=""font-size:60px;"">+</div>","null","","fixation","","",""
"memory-trial","149","526260","0.0-18.0-1.49","6478","approach_avoid_sv1","""event"",""trial"",""time""
""fullscreenenter"",""1"",""3923""
","
","
","""event"",""trial"",""time""
""fullscreenenter"",""1"",""3923""
","
","","","","","","1662.2000000029802","images/table7.png","","","memory_trial","1","definitely_old",""
"html-keyboard-response","150","526764","0.0-18.0-0.50","6478","approach_avoid_sv1","""event"",""trial"",""time""
""fullscreenenter"",""1"",""3923""
","
","
","""event"",""trial"",""time""
""fullscreenenter"",""1"",""3923""
","
","","","","","","null","<div style=""font-size:60px;"">+</div>","null","","fixation","","",""
"memory-trial","151","528324","0.0-18.0-1.50","6478","approach_avoid_sv1","""event"",""trial"",""time""
""fullscreenenter"",""1"",""3923""
","
","
","""event"",""trial"",""time""
""fullscreenenter"",""1"",""3923""
","
","","","","","","555.0999999940395","images/orange5.png","","","memory_trial","1","definitely_old",""
"html-keyboard-response","152","528828","0.0-18.0-0.51","6478","approach_avoid_sv1","""event"",""trial"",""time""
""fullscreenenter"",""1"",""3923""
","
","
","""event"",""trial"",""time""
""fullscreenenter"",""1"",""3923""
","
","","","","","","null","<div style=""font-size:60px;"">+</div>","null","","fixation","","",""
"memory-trial","153","530316","0.0-18.0-1.51","6478","approach_avoid_sv1","""event"",""trial"",""time""
""fullscreenenter"",""1"",""3923""
","
","
","""event"",""trial"",""time""
""fullscreenenter"",""1"",""3923""
","
","","","","","","483.40000000596046","images/banana6.png","","","memory_trial","1","definitely_old",""
"html-keyboard-response","154","530820","0.0-18.0-0.52","6478","approach_avoid_sv1","""event"",""trial"",""time""
""fullscreenenter"",""1"",""3923""
","
","
","""event"",""trial"",""time""
""fullscreenenter"",""1"",""3923""
","
","","","","","","null","<div style=""font-size:60px;"">+</div>","null","","fixation","","",""
"memory-trial","155","532740","0.0-18.0-1.52","6478","approach_avoid_sv1","""event"",""trial"",""time""
""fullscreenenter"",""1"",""3923""
","
","
","""event"",""trial"",""time""
""fullscreenenter"",""1"",""3923""
","
","","","","","","915.2999999970198","images/sofa6.png","","","memory_trial","1","definitely_old",""
"html-keyboard-response","156","533244","0.0-18.0-0.53","6478","approach_avoid_sv1","""event"",""trial"",""time""
""fullscreenenter"",""1"",""3923""
","
","
","""event"",""trial"",""time""
""fullscreenenter"",""1"",""3923""
","
","","","","","","null","<div style=""font-size:60px;"">+</div>","null","","fixation","","",""
"memory-trial","157","536940","0.0-18.0-1.53","6478","approach_avoid_sv1","""event"",""trial"",""time""
""fullscreenenter"",""1"",""3923""
","
","
","""event"",""trial"",""time""
""fullscreenenter"",""1"",""3923""
","
","","","","","","2688.5","images/cactus5.png","","","memory_trial","2","maybe_old",""
"html-keyboard-response","158","537444","0.0-18.0-0.54","6478","approach_avoid_sv1","""event"",""trial"",""time""
""fullscreenenter"",""1"",""3923""
","
","
","""event"",""trial"",""time""
""fullscreenenter"",""1"",""3923""
","
","","","","","","null","<div style=""font-size:60px;"">+</div>","null","","fixation","","",""
"memory-trial","159","539316","0.0-18.0-1.54","6478","approach_avoid_sv1","""event"",""trial"",""time""
""fullscreenenter"",""1"",""3923""
","
","
","""event"",""trial"",""time""
""fullscreenenter"",""1"",""3923""
","
","","","","","","866.6000000089407","images/cat4.png","","","memory_trial","1","definitely_old",""
"html-keyboard-response","160","539820","0.0-18.0-0.55","6478","approach_avoid_sv1","""event"",""trial"",""time""
""fullscreenenter"",""1"",""3923""
","
","
","""event"",""trial"",""time""
""fullscreenenter"",""1"",""3923""
","
","","","","","","null","<div style=""font-size:60px;"">+</div>","null","","fixation","","",""
"memory-trial","161","541684","0.0-18.0-1.55","6478","approach_avoid_sv1","""event"",""trial"",""time""
""fullscreenenter"",""1"",""3923""
","
","
","""event"",""trial"",""time""
""fullscreenenter"",""1"",""3923""
","
","","","","","","858.8999999910593","images/flower6.png","","","memory_trial","1","definitely_old",""
"html-keyboard-response","162","542188","0.0-18.0-0.56","6478","approach_avoid_sv1","""event"",""trial"",""time""
""fullscreenenter"",""1"",""3923""
","
","
","""event"",""trial"",""time""
""fullscreenenter"",""1"",""3923""
","
","","","","","","null","<div style=""font-size:60px;"">+</div>","null","","fixation","","",""
"memory-trial","163","543916","0.0-18.0-1.56","6478","approach_avoid_sv1","""event"",""trial"",""time""
""fullscreenenter"",""1"",""3923""
","
","
","""event"",""trial"",""time""
""fullscreenenter"",""1"",""3923""
","
","","","","","","718.2999999970198","images/sheep6.png","","","memory_trial","1","definitely_old",""
"html-keyboard-response","164","544420","0.0-18.0-0.57","6478","approach_avoid_sv1","""event"",""trial"",""time""
""fullscreenenter"",""1"",""3923""
","
","
","""event"",""trial"",""time""
""fullscreenenter"",""1"",""3923""
","
","","","","","","null","<div style=""font-size:60px;"">+</div>","null","","fixation","","",""
"memory-trial","165","547364","0.0-18.0-1.57","6478","approach_avoid_sv1","""event"",""trial"",""time""
""fullscreenenter"",""1"",""3923""
","
","
","""event"",""trial"",""time""
""fullscreenenter"",""1"",""3923""
","
","","","","","","1938.7000000029802","images/cactus4.png","","","memory_trial","4","definitely_new",""
"html-keyboard-response","166","547868","0.0-18.0-0.58","6478","approach_avoid_sv1","""event"",""trial"",""time""
""fullscreenenter"",""1"",""3923""
","
","
","""event"",""trial"",""time""
""fullscreenenter"",""1"",""3923""
","
","","","","","","null","<div style=""font-size:60px;"">+</div>","null","","fixation","","",""
"memory-trial","167","550572","0.0-18.0-1.58","6478","approach_avoid_sv1","""event"",""trial"",""time""
""fullscreenenter"",""1"",""3923""
","
","
","""event"",""trial"",""time""
""fullscreenenter"",""1"",""3923""
","
","","","","","","1697.2999999970198","images/boat3.png","","","memory_trial","1","definitely_old",""
"html-keyboard-response","168","551076","0.0-18.0-0.59","6478","approach_avoid_sv1","""event"",""trial"",""time""
""fullscreenenter"",""1"",""3923""
","
","
","""event"",""trial"",""time""
""fullscreenenter"",""1"",""3923""
","
","","","","","","null","<div style=""font-size:60px;"">+</div>","null","","fixation","","",""
"memory-trial","169","552668","0.0-18.0-1.59","6478","approach_avoid_sv1","""event"",""trial"",""time""
""fullscreenenter"",""1"",""3923""
","
","
","""event"",""trial"",""time""
""fullscreenenter"",""1"",""3923""
","
","","","","","","589.6000000089407","images/banana2.png","","","memory_trial","1","definitely_old",""
"html-keyboard-response","170","553172","0.0-18.0-0.60","6478","approach_avoid_sv1","""event"",""trial"",""time""
""fullscreenenter"",""1"",""3923""
","
","
","""event"",""trial"",""time""
""fullscreenenter"",""1"",""3923""
","
","","","","","","null","<div style=""font-size:60px;"">+</div>","null","","fixation","","",""
"memory-trial","171","554716","0.0-18.0-1.60","6478","approach_avoid_sv1","""event"",""trial"",""time""
""fullscreenenter"",""1"",""3923""
","
","
","""event"",""trial"",""time""
""fullscreenenter"",""1"",""3923""
","
","","","","","","537.2000000029802","images/table5.png","","","memory_trial","1","definitely_old",""
"html-keyboard-response","172","555220","0.0-18.0-0.61","6478","approach_avoid_sv1","""event"",""trial"",""time""
""fullscreenenter"",""1"",""3923""
","
","
","""event"",""trial"",""time""
""fullscreenenter"",""1"",""3923""
","
","","","","","","null","<div style=""font-size:60px;"">+</div>","null","","fixation","","",""
"memory-trial","173","556740","0.0-18.0-1.61","6478","approach_avoid_sv1","""event"",""trial"",""time""
""fullscreenenter"",""1"",""3923""
","
","
","""event"",""trial"",""time""
""fullscreenenter"",""1"",""3923""
","
","","","","","","516.5999999940395","images/train3.png","","","memory_trial","1","definitely_old",""
"html-keyboard-response","174","557243","0.0-18.0-0.62","6478","approach_avoid_sv1","""event"",""trial"",""time""
""fullscreenenter"",""1"",""3923""
","
","
","""event"",""trial"",""time""
""fullscreenenter"",""1"",""3923""
","
","","","","","","null","<div style=""font-size:60px;"">+</div>","null","","fixation","","",""
"memory-trial","175","558756","0.0-18.0-1.62","6478","approach_avoid_sv1","""event"",""trial"",""time""
""fullscreenenter"",""1"",""3923""
","
","
","""event"",""trial"",""time""
""fullscreenenter"",""1"",""3923""
","
","","","","","","502.40000000596046","images/banana8.png","","","memory_trial","1","definitely_old",""
"html-keyboard-response","176","559259","0.0-18.0-0.63","6478","approach_avoid_sv1","""event"",""trial"",""time""
""fullscreenenter"",""1"",""3923""
","
","
","""event"",""trial"",""time""
""fullscreenenter"",""1"",""3923""
","
","","","","","","null","<div style=""font-size:60px;"">+</div>","null","","fixation","","",""
"memory-trial","177","561004","0.0-18.0-1.63","6478","approach_avoid_sv1","""event"",""trial"",""time""
""fullscreenenter"",""1"",""3923""
","
","
","""event"",""trial"",""time""
""fullscreenenter"",""1"",""3923""
","
","","","","","","741.7999999970198","images/rodent4.png","","","memory_trial","1","definitely_old",""
"html-keyboard-response","178","561508","0.0-18.0-0.64","6478","approach_avoid_sv1","""event"",""trial"",""time""
""fullscreenenter"",""1"",""3923""
","
","
","""event"",""trial"",""time""
""fullscreenenter"",""1"",""3923""
","
","","","","","","null","<div style=""font-size:60px;"">+</div>","null","","fixation","","",""
"memory-trial","179","563332","0.0-18.0-1.64","6478","approach_avoid_sv1","""event"",""trial"",""time""
""fullscreenenter"",""1"",""3923""
","
","
","""event"",""trial"",""time""
""fullscreenenter"",""1"",""3923""
","
","","","","","","818.3999999910593","images/apple5.png","","","memory_trial","1","definitely_old",""
"html-keyboard-response","180","563836","0.0-18.0-0.65","6478","approach_avoid_sv1","""event"",""trial"",""time""
""fullscreenenter"",""1"",""3923""
","
","
","""event"",""trial"",""time""
""fullscreenenter"",""1"",""3923""
","
","","","","","","null","<div style=""font-size:60px;"">+</div>","null","","fixation","","",""
"memory-trial","181","565308","0.0-18.0-1.65","6478","approach_avoid_sv1","""event"",""trial"",""time""
""fullscreenenter"",""1"",""3923""
","
","
","""event"",""trial"",""time""
""fullscreenenter"",""1"",""3923""
","
","","","","","","462.3999999910593","images/train4.png","","","memory_trial","1","definitely_old",""
"html-keyboard-response","182","565812","0.0-18.0-0.66","6478","approach_avoid_sv1","""event"",""trial"",""time""
""fullscreenenter"",""1"",""3923""
","
","
","""event"",""trial"",""time""
""fullscreenenter"",""1"",""3923""
","
","","","","","","null","<div style=""font-size:60px;"">+</div>","null","","fixation","","",""
"memory-trial","183","567372","0.0-18.0-1.66","6478","approach_avoid_sv1","""event"",""trial"",""time""
""fullscreenenter"",""1"",""3923""
","
","
","""event"",""trial"",""time""
""fullscreenenter"",""1"",""3923""
","
","","","","","","552.2000000029802","images/goat8.png","","","memory_trial","1","definitely_old",""
"html-keyboard-response","184","567876","0.0-18.0-0.67","6478","approach_avoid_sv1","""event"",""trial"",""time""
""fullscreenenter"",""1"",""3923""
","
","
","""event"",""trial"",""time""
""fullscreenenter"",""1"",""3923""
","
","","","","","","null","<div style=""font-size:60px;"">+</div>","null","","fixation","","",""
"memory-trial","185","569492","0.0-18.0-1.67","6478","approach_avoid_sv1","""event"",""trial"",""time""
""fullscreenenter"",""1"",""3923""
","
","
","""event"",""trial"",""time""
""fullscreenenter"",""1"",""3923""
","
","","","","","","609","images/goat6.png","","","memory_trial","1","definitely_old",""
"html-keyboard-response","186","569996","0.0-18.0-0.68","6478","approach_avoid_sv1","""event"",""trial"",""time""
""fullscreenenter"",""1"",""3923""
","
","
","""event"",""trial"",""time""
""fullscreenenter"",""1"",""3923""
","
","","","","","","null","<div style=""font-size:60px;"">+</div>","null","","fixation","","",""
"memory-trial","187","571141","0.0-18.0-1.68","6478","approach_avoid_sv1","""event"",""trial"",""time""
""fullscreenenter"",""1"",""3923""
","
","
","""event"",""trial"",""time""
""fullscreenenter"",""1"",""3923""
","
","","","","","","135.79999999701977","images/chair7.png","","","memory_trial","1","definitely_old",""
"html-keyboard-response","188","571644","0.0-18.0-0.69","6478","approach_avoid_sv1","""event"",""trial"",""time""
""fullscreenenter"",""1"",""3923""
","
","
","""event"",""trial"",""time""
""fullscreenenter"",""1"",""3923""
","
","","","","","","null","<div style=""font-size:60px;"">+</div>","null","","fixation","","",""
"memory-trial","189","573699","0.0-18.0-1.69","6478","approach_avoid_sv1","""event"",""trial"",""time""
""fullscreenenter"",""1"",""3923""
","
","
","""event"",""trial"",""time""
""fullscreenenter"",""1"",""3923""
","
","","","","","","1050","images/table1.png","","","memory_trial","1","definitely_old",""
"html-keyboard-response","190","574204","0.0-18.0-0.70","6478","approach_avoid_sv1","""event"",""trial"",""time""
""fullscreenenter"",""1"",""3923""
","
","
","""event"",""trial"",""time""
""fullscreenenter"",""1"",""3923""
","
","","","","","","null","<div style=""font-size:60px;"">+</div>","null","","fixation","","",""
"memory-trial","191","577252","0.0-18.0-1.70","6478","approach_avoid_sv1","""event"",""trial"",""time""
""fullscreenenter"",""1"",""3923""
","
","
","""event"",""trial"",""time""
""fullscreenenter"",""1"",""3923""
","
","","","","","","2041.7999999970198","images/sheep7.png","","","memory_trial","1","definitely_old",""
"html-keyboard-response","192","577756","0.0-18.0-0.71","6478","approach_avoid_sv1","""event"",""trial"",""time""
""fullscreenenter"",""1"",""3923""
","
","
","""event"",""trial"",""time""
""fullscreenenter"",""1"",""3923""
","
","","","","","","null","<div style=""font-size:60px;"">+</div>","null","","fixation","","",""
"memory-trial","193","579252","0.0-18.0-1.71","6478","approach_avoid_sv1","""event"",""trial"",""time""
""fullscreenenter"",""1"",""3923""
","
","
","""event"",""trial"",""time""
""fullscreenenter"",""1"",""3923""
","
","","","","","","491","images/straw1.png","","","memory_trial","1","definitely_old",""
"html-keyboard-response","194","579756","0.0-18.0-0.72","6478","approach_avoid_sv1","""event"",""trial"",""time""
""fullscreenenter"",""1"",""3923""
","
","
","""event"",""trial"",""time""
""fullscreenenter"",""1"",""3923""
","
","","","","","","null","<div style=""font-size:60px;"">+</div>","null","","fixation","","",""
"memory-trial","195","582412","0.0-18.0-1.72","6478","approach_avoid_sv1","""event"",""trial"",""time""
""fullscreenenter"",""1"",""3923""
","
","
","""event"",""trial"",""time""
""fullscreenenter"",""1"",""3923""
","
","","","","","","1652.7000000029802","images/flower4.png","","","memory_trial","4","definitely_new",""
"html-keyboard-response","196","582916","0.0-18.0-0.73","6478","approach_avoid_sv1","""event"",""trial"",""time""
""fullscreenenter"",""1"",""3923""
","
","
","""event"",""trial"",""time""
""fullscreenenter"",""1"",""3923""
","
","","","","","","null","<div style=""font-size:60px;"">+</div>","null","","fixation","","",""
"memory-trial","197","587412","0.0-18.0-1.73","6478","approach_avoid_sv1","""event"",""trial"",""time""
""fullscreenenter"",""1"",""3923""
","
","
","""event"",""trial"",""time""
""fullscreenenter"",""1"",""3923""
","
","","","","","","3490.2000000029802","images/cow7.png","","","memory_trial","3","maybe_new",""
"html-keyboard-response","198","587916","0.0-18.0-0.74","6478","approach_avoid_sv1","""event"",""trial"",""time""
""fullscreenenter"",""1"",""3923""
","
","
","""event"",""trial"",""time""
""fullscreenenter"",""1"",""3923""
","
","","","","","","null","<div style=""font-size:60px;"">+</div>","null","","fixation","","",""
"memory-trial","199","591436","0.0-18.0-1.74","6478","approach_avoid_sv1","""event"",""trial"",""time""
""fullscreenenter"",""1"",""3923""
","
","
","""event"",""trial"",""time""
""fullscreenenter"",""1"",""3923""
","
","","","","","","2514","images/tree6.png","","","memory_trial","3","maybe_new",""
"html-keyboard-response","200","591940","0.0-18.0-0.75","6478","approach_avoid_sv1","""event"",""trial"",""time""
""fullscreenenter"",""1"",""3923""
","
","
","""event"",""trial"",""time""
""fullscreenenter"",""1"",""3923""
","
","","","","","","null","<div style=""font-size:60px;"">+</div>","null","","fixation","","",""
"memory-trial","201","594116","0.0-18.0-1.75","6478","approach_avoid_sv1","""event"",""trial"",""time""
""fullscreenenter"",""1"",""3923""
","
","
","""event"",""trial"",""time""
""fullscreenenter"",""1"",""3923""
","
","","","","","","1171","images/sofa5.png","","","memory_trial","1","definitely_old",""
"html-keyboard-response","202","594620","0.0-18.0-0.76","6478","approach_avoid_sv1","""event"",""trial"",""time""
""fullscreenenter"",""1"",""3923""
","
","
","""event"",""trial"",""time""
""fullscreenenter"",""1"",""3923""
","
","","","","","","null","<div style=""font-size:60px;"">+</div>","null","","fixation","","",""
"memory-trial","203","597620","0.0-18.0-1.76","6478","approach_avoid_sv1","""event"",""trial"",""time""
""fullscreenenter"",""1"",""3923""
","
","
","""event"",""trial"",""time""
""fullscreenenter"",""1"",""3923""
","
","","","","","","1996.699999988079","images/cactus3.png","","","memory_trial","4","definitely_new",""
"html-keyboard-response","204","598124","0.0-18.0-0.77","6478","approach_avoid_sv1","""event"",""trial"",""time""
""fullscreenenter"",""1"",""3923""
","
","
","""event"",""trial"",""time""
""fullscreenenter"",""1"",""3923""
","
","","","","","","null","<div style=""font-size:60px;"">+</div>","null","","fixation","","",""
"memory-trial","205","600660","0.0-18.0-1.77","6478","approach_avoid_sv1","""event"",""trial"",""time""
""fullscreenenter"",""1"",""3923""
","
","
","""event"",""trial"",""time""
""fullscreenenter"",""1"",""3923""
","
","","","","","","1530","images/cat2.png","","","memory_trial","4","definitely_new",""
"html-keyboard-response","206","601164","0.0-18.0-0.78","6478","approach_avoid_sv1","""event"",""trial"",""time""
""fullscreenenter"",""1"",""3923""
","
","
","""event"",""trial"",""time""
""fullscreenenter"",""1"",""3923""
","
","","","","","","null","<div style=""font-size:60px;"">+</div>","null","","fixation","","",""
"memory-trial","207","604020","0.0-18.0-1.78","6478","approach_avoid_sv1","""event"",""trial"",""time""
""fullscreenenter"",""1"",""3923""
","
","
","""event"",""trial"",""time""
""fullscreenenter"",""1"",""3923""
","
","","","","","","1850","images/plane5.png","","","memory_trial","4","definitely_new",""
"html-keyboard-response","208","604524","0.0-18.0-0.79","6478","approach_avoid_sv1","""event"",""trial"",""time""
""fullscreenenter"",""1"",""3923""
","
","
","""event"",""trial"",""time""
""fullscreenenter"",""1"",""3923""
","
","","","","","","null","<div style=""font-size:60px;"">+</div>","null","","fixation","","",""
"memory-trial","209","607948","0.0-18.0-1.79","6478","approach_avoid_sv1","""event"",""trial"",""time""
""fullscreenenter"",""1"",""3923""
","
","
","""event"",""trial"",""time""
""fullscreenenter"",""1"",""3923""
","
","","","","","","2413.199999988079","images/goat2.png","","","memory_trial","1","definitely_old",""
"html-keyboard-response","210","608452","0.0-18.0-0.80","6478","approach_avoid_sv1","""event"",""trial"",""time""
""fullscreenenter"",""1"",""3923""
","
","
","""event"",""trial"",""time""
""fullscreenenter"",""1"",""3923""
","
","","","","","","null","<div style=""font-size:60px;"">+</div>","null","","fixation","","",""
"memory-trial","211","610396","0.0-18.0-1.80","6478","approach_avoid_sv1","""event"",""trial"",""time""
""fullscreenenter"",""1"",""3923""
","
","
","""event"",""trial"",""time""
""fullscreenenter"",""1"",""3923""
","
","","","","","","938.7000000029802","images/boat4.png","","","memory_trial","1","definitely_old",""
"html-keyboard-response","212","610900","0.0-18.0-0.81","6478","approach_avoid_sv1","""event"",""trial"",""time""
""fullscreenenter"",""1"",""3923""
","
","
","""event"",""trial"",""time""
""fullscreenenter"",""1"",""3923""
","
","","","","","","null","<div style=""font-size:60px;"">+</div>","null","","fixation","","",""
"memory-trial","213","612828","0.0-18.0-1.81","6478","approach_avoid_sv1","""event"",""trial"",""time""
""fullscreenenter"",""1"",""3923""
","
","
","""event"",""trial"",""time""
""fullscreenenter"",""1"",""3923""
","
","","","","","","922.2999999970198","images/sheep5.png","","","memory_trial","1","definitely_old",""
"html-keyboard-response","214","613332","0.0-18.0-0.82","6478","approach_avoid_sv1","""event"",""trial"",""time""
""fullscreenenter"",""1"",""3923""
","
","
","""event"",""trial"",""time""
""fullscreenenter"",""1"",""3923""
","
","","","","","","null","<div style=""font-size:60px;"">+</div>","null","","fixation","","",""
"memory-trial","215","614988","0.0-18.0-1.82","6478","approach_avoid_sv1","""event"",""trial"",""time""
""fullscreenenter"",""1"",""3923""
","
","
","""event"",""trial"",""time""
""fullscreenenter"",""1"",""3923""
","
","","","","","","653.2999999970198","images/banana3.png","","","memory_trial","1","definitely_old",""
"html-keyboard-response","216","615492","0.0-18.0-0.83","6478","approach_avoid_sv1","""event"",""trial"",""time""
""fullscreenenter"",""1"",""3923""
","
","
","""event"",""trial"",""time""
""fullscreenenter"",""1"",""3923""
","
","","","","","","null","<div style=""font-size:60px;"">+</div>","null","","fixation","","",""
"memory-trial","217","617420","0.0-18.0-1.83","6478","approach_avoid_sv1","""event"",""trial"",""time""
""fullscreenenter"",""1"",""3923""
","
","
","""event"",""trial"",""time""
""fullscreenenter"",""1"",""3923""
","
","","","","","","923.3999999910593","images/dog7.png","","","memory_trial","1","definitely_old",""
"html-keyboard-response","218","617924","0.0-18.0-0.84","6478","approach_avoid_sv1","""event"",""trial"",""time""
""fullscreenenter"",""1"",""3923""
","
","
","""event"",""trial"",""time""
""fullscreenenter"",""1"",""3923""
","
","","","","","","null","<div style=""font-size:60px;"">+</div>","null","","fixation","","",""
"memory-trial","219","620836","0.0-18.0-1.84","6478","approach_avoid_sv1","""event"",""trial"",""time""
""fullscreenenter"",""1"",""3923""
","
","
","""event"",""trial"",""time""
""fullscreenenter"",""1"",""3923""
","
","","","","","","1902.4000000059605","images/bed4.png","","","memory_trial","4","definitely_new",""
"html-keyboard-response","220","621340","0.0-18.0-0.85","6478","approach_avoid_sv1","""event"",""trial"",""time""
""fullscreenenter"",""1"",""3923""
","
","
","""event"",""trial"",""time""
""fullscreenenter"",""1"",""3923""
","
","","","","","","null","<div style=""font-size:60px;"">+</div>","null","","fixation","","",""
"memory-trial","221","623964","0.0-18.0-1.85","6478","approach_avoid_sv1","""event"",""trial"",""time""
""fullscreenenter"",""1"",""3923""
","
","
","""event"",""trial"",""time""
""fullscreenenter"",""1"",""3923""
","
","","","","","","1620.1000000089407","images/cow2.png","","","memory_trial","4","definitely_new",""
"html-keyboard-response","222","624468","0.0-18.0-0.86","6478","approach_avoid_sv1","""event"",""trial"",""time""
""fullscreenenter"",""1"",""3923""
","
","
","""event"",""trial"",""time""
""fullscreenenter"",""1"",""3923""
","
","","","","","","null","<div style=""font-size:60px;"">+</div>","null","","fixation","","",""
"memory-trial","223","626724","0.0-18.0-1.86","6478","approach_avoid_sv1","""event"",""trial"",""time""
""fullscreenenter"",""1"",""3923""
","
","
","""event"",""trial"",""time""
""fullscreenenter"",""1"",""3923""
","
","","","","","","1249.800000011921","images/bed1.png","","","memory_trial","4","definitely_new",""
"html-keyboard-response","224","627228","0.0-18.0-0.87","6478","approach_avoid_sv1","""event"",""trial"",""time""
""fullscreenenter"",""1"",""3923""
","
","
","""event"",""trial"",""time""
""fullscreenenter"",""1"",""3923""
","
","","","","","","null","<div style=""font-size:60px;"">+</div>","null","","fixation","","",""
"memory-trial","225","629260","0.0-18.0-1.87","6478","approach_avoid_sv1","""event"",""trial"",""time""
""fullscreenenter"",""1"",""3923""
","
","
","""event"",""trial"",""time""
""fullscreenenter"",""1"",""3923""
","
","","","","","","1029","images/apple2.png","","","memory_trial","4","definitely_new",""
"html-keyboard-response","226","629764","0.0-18.0-0.88","6478","approach_avoid_sv1","""event"",""trial"",""time""
""fullscreenenter"",""1"",""3923""
","
","
","""event"",""trial"",""time""
""fullscreenenter"",""1"",""3923""
","
","","","","","","null","<div style=""font-size:60px;"">+</div>","null","","fixation","","",""
"memory-trial","227","632180","0.0-18.0-1.88","6478","approach_avoid_sv1","""event"",""trial"",""time""
""fullscreenenter"",""1"",""3923""
","
","
","""event"",""trial"",""time""
""fullscreenenter"",""1"",""3923""
","
","","","","","","1407.5999999940395","images/bed2.png","","","memory_trial","4","definitely_new",""
"html-keyboard-response","228","632685","0.0-18.0-0.89","6478","approach_avoid_sv1","""event"",""trial"",""time""
""fullscreenenter"",""1"",""3923""
","
","
","""event"",""trial"",""time""
""fullscreenenter"",""1"",""3923""
","
","","","","","","null","<div style=""font-size:60px;"">+</div>","null","","fixation","","",""
"memory-trial","229","635260","0.0-18.0-1.89","6478","approach_avoid_sv1","""event"",""trial"",""time""
""fullscreenenter"",""1"",""3923""
","
","
","""event"",""trial"",""time""
""fullscreenenter"",""1"",""3923""
","
","","","","","","1566.5","images/flower7.png","","","memory_trial","1","definitely_old",""
"html-keyboard-response","230","635764","0.0-18.0-0.90","6478","approach_avoid_sv1","""event"",""trial"",""time""
""fullscreenenter"",""1"",""3923""
","
","
","""event"",""trial"",""time""
""fullscreenenter"",""1"",""3923""
","
","","","","","","null","<div style=""font-size:60px;"">+</div>","null","","fixation","","",""
"memory-trial","231","637556","0.0-18.0-1.90","6478","approach_avoid_sv1","""event"",""trial"",""time""
""fullscreenenter"",""1"",""3923""
","
","
","""event"",""trial"",""time""
""fullscreenenter"",""1"",""3923""
","
","","","","","","783.2000000029802","images/straw4.png","","","memory_trial","1","definitely_old",""
"html-keyboard-response","232","638060","0.0-18.0-0.91","6478","approach_avoid_sv1","""event"",""trial"",""time""
""fullscreenenter"",""1"",""3923""
","
","
","""event"",""trial"",""time""
""fullscreenenter"",""1"",""3923""
","
","","","","","","null","<div style=""font-size:60px;"">+</div>","null","","fixation","","",""
"memory-trial","233","639628","0.0-18.0-1.91","6478","approach_avoid_sv1","""event"",""trial"",""time""
""fullscreenenter"",""1"",""3923""
","
","
","""event"",""trial"",""time""
""fullscreenenter"",""1"",""3923""
","
","","","","","","564.1999999880791","images/boat5.png","","","memory_trial","1","definitely_old",""
"html-button-response","234","656910","0.0-18.0-2.91-0.91","6478","approach_avoid_sv1","""event"",""trial"",""time""
""fullscreenenter"",""1"",""3923""
","
","
","""event"",""trial"",""time""
""fullscreenenter"",""1"",""3923""
","
","","","","","","17280.60000000894","<p> Take a break! </p><p> Click the button to continue. </p>","0","","break","","",""
"html-keyboard-response","235","657412","0.0-18.0-0.92","6478","approach_avoid_sv1","""event"",""trial"",""time""
""fullscreenenter"",""1"",""3923""
","
","
","""event"",""trial"",""time""
""fullscreenenter"",""1"",""3923""
","
","","","","","","null","<div style=""font-size:60px;"">+</div>","null","","fixation","","",""
"memory-trial","236","661852","0.0-18.0-1.92","6478","approach_avoid_sv1","""event"",""trial"",""time""
""fullscreenenter"",""1"",""3923""
","
","
","""event"",""trial"",""time""
""fullscreenenter"",""1"",""3923""
","
","","","","","","3435.5","images/plane8.png","","","memory_trial","1","definitely_old",""
"html-keyboard-response","237","662356","0.0-18.0-0.93","6478","approach_avoid_sv1","""event"",""trial"",""time""
""fullscreenenter"",""1"",""3923""
","
","
","""event"",""trial"",""time""
""fullscreenenter"",""1"",""3923""
","
","","","","","","null","<div style=""font-size:60px;"">+</div>","null","","fixation","","",""
"memory-trial","238","663940","0.0-18.0-1.93","6478","approach_avoid_sv1","""event"",""trial"",""time""
""fullscreenenter"",""1"",""3923""
","
","
","""event"",""trial"",""time""
""fullscreenenter"",""1"",""3923""
","
","","","","","","580.0999999940395","images/dog4.png","","","memory_trial","1","definitely_old",""
"html-keyboard-response","239","664444","0.0-18.0-0.94","6478","approach_avoid_sv1","""event"",""trial"",""time""
""fullscreenenter"",""1"",""3923""
","
","
","""event"",""trial"",""time""
""fullscreenenter"",""1"",""3923""
","
","","","","","","null","<div style=""font-size:60px;"">+</div>","null","","fixation","","",""
"memory-trial","240","666084","0.0-18.0-1.94","6478","approach_avoid_sv1","""event"",""trial"",""time""
""fullscreenenter"",""1"",""3923""
","
","
","""event"",""trial"",""time""
""fullscreenenter"",""1"",""3923""
","
","","","","","","631.5999999940395","images/sheep2.png","","","memory_trial","1","definitely_old",""
"html-keyboard-response","241","666588","0.0-18.0-0.95","6478","approach_avoid_sv1","""event"",""trial"",""time""
""fullscreenenter"",""1"",""3923""
","
","
","""event"",""trial"",""time""
""fullscreenenter"",""1"",""3923""
","
","","","","","","null","<div style=""font-size:60px;"">+</div>","null","","fixation","","",""
"memory-trial","242","669684","0.0-18.0-1.95","6478","approach_avoid_sv1","""event"",""trial"",""time""
""fullscreenenter"",""1"",""3923""
","
","
","""event"",""trial"",""time""
""fullscreenenter"",""1"",""3923""
","
","","","","","","2089.8999999910593","images/flower3.png","","","memory_trial","4","definitely_new",""
"html-keyboard-response","243","670188","0.0-18.0-0.96","6478","approach_avoid_sv1","""event"",""trial"",""time""
""fullscreenenter"",""1"",""3923""
","
","
","""event"",""trial"",""time""
""fullscreenenter"",""1"",""3923""
","
","","","","","","null","<div style=""font-size:60px;"">+</div>","null","","fixation","","",""
"memory-trial","244","672740","0.0-18.0-1.96","6478","approach_avoid_sv1","""event"",""trial"",""time""
""fullscreenenter"",""1"",""3923""
","
","
","""event"",""trial"",""time""
""fullscreenenter"",""1"",""3923""
","
","","","","","","1542.5999999940395","images/bed6.png","","","memory_trial","4","definitely_new",""
"html-keyboard-response","245","673244","0.0-18.0-0.97","6478","approach_avoid_sv1","""event"",""trial"",""time""
""fullscreenenter"",""1"",""3923""
","
","
","""event"",""trial"",""time""
""fullscreenenter"",""1"",""3923""
","
","","","","","","null","<div style=""font-size:60px;"">+</div>","null","","fixation","","",""
"memory-trial","246","675628","0.0-18.0-1.97","6478","approach_avoid_sv1","""event"",""trial"",""time""
""fullscreenenter"",""1"",""3923""
","
","
","""event"",""trial"",""time""
""fullscreenenter"",""1"",""3923""
","
","","","","","","1375.7000000029802","images/cactus1.png","","","memory_trial","1","definitely_old",""
"html-keyboard-response","247","676132","0.0-18.0-0.98","6478","approach_avoid_sv1","""event"",""trial"",""time""
""fullscreenenter"",""1"",""3923""
","
","
","""event"",""trial"",""time""
""fullscreenenter"",""1"",""3923""
","
","","","","","","null","<div style=""font-size:60px;"">+</div>","null","","fixation","","",""
"memory-trial","248","677820","0.0-18.0-1.98","6478","approach_avoid_sv1","""event"",""trial"",""time""
""fullscreenenter"",""1"",""3923""
","
","
","""event"",""trial"",""time""
""fullscreenenter"",""1"",""3923""
","
","","","","","","683.5","images/rodent6.png","","","memory_trial","1","definitely_old",""
"html-keyboard-response","249","678324","0.0-18.0-0.99","6478","approach_avoid_sv1","""event"",""trial"",""time""
""fullscreenenter"",""1"",""3923""
","
","
","""event"",""trial"",""time""
""fullscreenenter"",""1"",""3923""
","
","","","","","","null","<div style=""font-size:60px;"">+</div>","null","","fixation","","",""
"memory-trial","250","680347","0.0-18.0-1.99","6478","approach_avoid_sv1","""event"",""trial"",""time""
""fullscreenenter"",""1"",""3923""
","
","
","""event"",""trial"",""time""
""fullscreenenter"",""1"",""3923""
","
","","","","","","1017.2999999970198","images/bush7.png","","","memory_trial","1","definitely_old",""
"html-keyboard-response","251","680851","0.0-18.0-0.100","6478","approach_avoid_sv1","""event"",""trial"",""time""
""fullscreenenter"",""1"",""3923""
","
","
","""event"",""trial"",""time""
""fullscreenenter"",""1"",""3923""
","
","","","","","","null","<div style=""font-size:60px;"">+</div>","null","","fixation","","",""
"memory-trial","252","682636","0.0-18.0-1.100","6478","approach_avoid_sv1","""event"",""trial"",""time""
""fullscreenenter"",""1"",""3923""
","
","
","""event"",""trial"",""time""
""fullscreenenter"",""1"",""3923""
","
","","","","","","781.8999999910593","images/chair8.png","","","memory_trial","1","definitely_old",""
"html-keyboard-response","253","683140","0.0-18.0-0.101","6478","approach_avoid_sv1","""event"",""trial"",""time""
""fullscreenenter"",""1"",""3923""
","
","
","""event"",""trial"",""time""
""fullscreenenter"",""1"",""3923""
","
","","","","","","null","<div style=""font-size:60px;"">+</div>","null","","fixation","","",""
"memory-trial","254","685356","0.0-18.0-1.101","6478","approach_avoid_sv1","""event"",""trial"",""time""
""fullscreenenter"",""1"",""3923""
","
","
","""event"",""trial"",""time""
""fullscreenenter"",""1"",""3923""
","
","","","","","","1213.7000000029802","images/cat7.png","","","memory_trial","1","definitely_old",""
"html-keyboard-response","255","685860","0.0-18.0-0.102","6478","approach_avoid_sv1","""event"",""trial"",""time""
""fullscreenenter"",""1"",""3923""
","
","
","""event"",""trial"",""time""
""fullscreenenter"",""1"",""3923""
","
","","","","","","null","<div style=""font-size:60px;"">+</div>","null","","fixation","","",""
"memory-trial","256","688348","0.0-18.0-1.102","6478","approach_avoid_sv1","""event"",""trial"",""time""
""fullscreenenter"",""1"",""3923""
","
","
","""event"",""trial"",""time""
""fullscreenenter"",""1"",""3923""
","
","","","","","","1481.8999999910593","images/flower1.png","","","memory_trial","4","definitely_new",""
"html-keyboard-response","257","688860","0.0-18.0-0.103","6478","approach_avoid_sv1","""event"",""trial"",""time""
""fullscreenenter"",""1"",""3923""
","
","
","""event"",""trial"",""time""
""fullscreenenter"",""1"",""3923""
","
","","","","","","null","<div style=""font-size:60px;"">+</div>","null","","fixation","","",""
"memory-trial","258","691036","0.0-18.0-1.103","6478","approach_avoid_sv1","""event"",""trial"",""time""
""fullscreenenter"",""1"",""3923""
","
","
","""event"",""trial"",""time""
""fullscreenenter"",""1"",""3923""
","
","","","","","","1172","images/sheep1.png","","","memory_trial","1","definitely_old",""
"html-keyboard-response","259","691539","0.0-18.0-0.104","6478","approach_avoid_sv1","""event"",""trial"",""time""
""fullscreenenter"",""1"",""3923""
","
","
","""event"",""trial"",""time""
""fullscreenenter"",""1"",""3923""
","
","","","","","","null","<div style=""font-size:60px;"">+</div>","null","","fixation","","",""
"memory-trial","260","693156","0.0-18.0-1.104","6478","approach_avoid_sv1","""event"",""trial"",""time""
""fullscreenenter"",""1"",""3923""
","
","
","""event"",""trial"",""time""
""fullscreenenter"",""1"",""3923""
","
","","","","","","611.7999999970198","images/rabbit6.png","","","memory_trial","1","definitely_old",""
"html-keyboard-response","261","693660","0.0-18.0-0.105","6478","approach_avoid_sv1","""event"",""trial"",""time""
""fullscreenenter"",""1"",""3923""
","
","
","""event"",""trial"",""time""
""fullscreenenter"",""1"",""3923""
","
","","","","","","null","<div style=""font-size:60px;"">+</div>","null","","fixation","","",""
"memory-trial","262","695212","0.0-18.0-1.105","6478","approach_avoid_sv1","""event"",""trial"",""time""
""fullscreenenter"",""1"",""3923""
","
","
","""event"",""trial"",""time""
""fullscreenenter"",""1"",""3923""
","
","","","","","","543.2999999970198","images/boat8.png","","","memory_trial","1","definitely_old",""
"html-keyboard-response","263","695716","0.0-18.0-0.106","6478","approach_avoid_sv1","""event"",""trial"",""time""
""fullscreenenter"",""1"",""3923""
","
","
","""event"",""trial"",""time""
""fullscreenenter"",""1"",""3923""
","
","","","","","","null","<div style=""font-size:60px;"">+</div>","null","","fixation","","",""
"memory-trial","264","697292","0.0-18.0-1.106","6478","approach_avoid_sv1","""event"",""trial"",""time""
""fullscreenenter"",""1"",""3923""
","
","
","""event"",""trial"",""time""
""fullscreenenter"",""1"",""3923""
","
","","","","","","570.7999999970198","images/horse8.png","","","memory_trial","1","definitely_old",""
"html-keyboard-response","265","697796","0.0-18.0-0.107","6478","approach_avoid_sv1","""event"",""trial"",""time""
""fullscreenenter"",""1"",""3923""
","
","
","""event"",""trial"",""time""
""fullscreenenter"",""1"",""3923""
","
","","","","","","null","<div style=""font-size:60px;"">+</div>","null","","fixation","","",""
"memory-trial","266","699668","0.0-18.0-1.107","6478","approach_avoid_sv1","""event"",""trial"",""time""
""fullscreenenter"",""1"",""3923""
","
","
","""event"",""trial"",""time""
""fullscreenenter"",""1"",""3923""
","
","","","","","","864.4000000059605","images/bush2.png","","","memory_trial","1","definitely_old",""
"html-keyboard-response","267","700172","0.0-18.0-0.108","6478","approach_avoid_sv1","""event"",""trial"",""time""
""fullscreenenter"",""1"",""3923""
","
","
","""event"",""trial"",""time""
""fullscreenenter"",""1"",""3923""
","
","","","","","","null","<div style=""font-size:60px;"">+</div>","null","","fixation","","",""
"memory-trial","268","701892","0.0-18.0-1.108","6478","approach_avoid_sv1","""event"",""trial"",""time""
""fullscreenenter"",""1"",""3923""
","
","
","""event"",""trial"",""time""
""fullscreenenter"",""1"",""3923""
","
","","","","","","710.7999999970198","images/sofa7.png","","","memory_trial","1","definitely_old",""
"html-keyboard-response","269","702396","0.0-18.0-0.109","6478","approach_avoid_sv1","""event"",""trial"",""time""
""fullscreenenter"",""1"",""3923""
","
","
","""event"",""trial"",""time""
""fullscreenenter"",""1"",""3923""
","
","","","","","","null","<div style=""font-size:60px;"">+</div>","null","","fixation","","",""
"memory-trial","270","703972","0.0-18.0-1.109","6478","approach_avoid_sv1","""event"",""trial"",""time""
""fullscreenenter"",""1"",""3923""
","
","
","""event"",""trial"",""time""
""fullscreenenter"",""1"",""3923""
","
","","","","","","568.5999999940395","images/horse4.png","","","memory_trial","1","definitely_old",""
"html-keyboard-response","271","704476","0.0-18.0-0.110","6478","approach_avoid_sv1","""event"",""trial"",""time""
""fullscreenenter"",""1"",""3923""
","
","
","""event"",""trial"",""time""
""fullscreenenter"",""1"",""3923""
","
","","","","","","null","<div style=""font-size:60px;"">+</div>","null","","fixation","","",""
"memory-trial","272","706860","0.0-18.0-1.110","6478","approach_avoid_sv1","""event"",""trial"",""time""
""fullscreenenter"",""1"",""3923""
","
","
","""event"",""trial"",""time""
""fullscreenenter"",""1"",""3923""
","
","","","","","","1380.5","images/truck8.png","","","memory_trial","1","definitely_old",""
"html-keyboard-response","273","707364","0.0-18.0-0.111","6478","approach_avoid_sv1","""event"",""trial"",""time""
""fullscreenenter"",""1"",""3923""
","
","
","""event"",""trial"",""time""
""fullscreenenter"",""1"",""3923""
","
","","","","","","null","<div style=""font-size:60px;"">+</div>","null","","fixation","","",""
"memory-trial","274","708884","0.0-18.0-1.111","6478","approach_avoid_sv1","""event"",""trial"",""time""
""fullscreenenter"",""1"",""3923""
","
","
","""event"",""trial"",""time""
""fullscreenenter"",""1"",""3923""
","
","","","","","","514.4000000059605","images/boat7.png","","","memory_trial","1","definitely_old",""
"html-keyboard-response","275","709388","0.0-18.0-0.112","6478","approach_avoid_sv1","""event"",""trial"",""time""
""fullscreenenter"",""1"",""3923""
","
","
","""event"",""trial"",""time""
""fullscreenenter"",""1"",""3923""
","
","","","","","","null","<div style=""font-size:60px;"">+</div>","null","","fixation","","",""
"memory-trial","276","711028","0.0-18.0-1.112","6478","approach_avoid_sv1","""event"",""trial"",""time""
""fullscreenenter"",""1"",""3923""
","
","
","""event"",""trial"",""time""
""fullscreenenter"",""1"",""3923""
","
","","","","","","634.5","images/rabbit2.png","","","memory_trial","1","definitely_old",""
"html-keyboard-response","277","711532","0.0-18.0-0.113","6478","approach_avoid_sv1","""event"",""trial"",""time""
""fullscreenenter"",""1"",""3923""
","
","
","""event"",""trial"",""time""
""fullscreenenter"",""1"",""3923""
","
","","","","","","null","<div style=""font-size:60px;"">+</div>","null","","fixation","","",""
"memory-trial","278","713020","0.0-18.0-1.113","6478","approach_avoid_sv1","""event"",""trial"",""time""
""fullscreenenter"",""1"",""3923""
","
","
","""event"",""trial"",""time""
""fullscreenenter"",""1"",""3923""
","
","","","","","","478.40000000596046","images/boat2.png","","","memory_trial","1","definitely_old",""
"html-keyboard-response","279","713524","0.0-18.0-0.114","6478","approach_avoid_sv1","""event"",""trial"",""time""
""fullscreenenter"",""1"",""3923""
","
","
","""event"",""trial"",""time""
""fullscreenenter"",""1"",""3923""
","
","","","","","","null","<div style=""font-size:60px;"">+</div>","null","","fixation","","",""
"memory-trial","280","715524","0.0-18.0-1.114","6478","approach_avoid_sv1","""event"",""trial"",""time""
""fullscreenenter"",""1"",""3923""
","
","
","""event"",""trial"",""time""
""fullscreenenter"",""1"",""3923""
","
","","","","","","995.9000000059605","images/cow6.png","","","memory_trial","1","definitely_old",""
"html-keyboard-response","281","716028","0.0-18.0-0.115","6478","approach_avoid_sv1","""event"",""trial"",""time""
""fullscreenenter"",""1"",""3923""
","
","
","""event"",""trial"",""time""
""fullscreenenter"",""1"",""3923""
","
","","","","","","null","<div style=""font-size:60px;"">+</div>","null","","fixation","","",""
"memory-trial","282","718779","0.0-18.0-1.115","6478","approach_avoid_sv1","""event"",""trial"",""time""
""fullscreenenter"",""1"",""3923""
","
","
","""event"",""trial"",""time""
""fullscreenenter"",""1"",""3923""
","
","","","","","","1746","images/straw8.png","","","memory_trial","4","definitely_new",""
"html-keyboard-response","283","719283","0.0-18.0-0.116","6478","approach_avoid_sv1","""event"",""trial"",""time""
""fullscreenenter"",""1"",""3923""
","
","
","""event"",""trial"",""time""
""fullscreenenter"",""1"",""3923""
","
","","","","","","null","<div style=""font-size:60px;"">+</div>","null","","fixation","","",""
"memory-trial","284","721300","0.0-18.0-1.116","6478","approach_avoid_sv1","""event"",""trial"",""time""
""fullscreenenter"",""1"",""3923""
","
","
","""event"",""trial"",""time""
""fullscreenenter"",""1"",""3923""
","
","","","","","","1011.0999999940395","images/bush5.png","","","memory_trial","4","definitely_new",""
"html-keyboard-response","285","721804","0.0-18.0-0.117","6478","approach_avoid_sv1","""event"",""trial"",""time""
""fullscreenenter"",""1"",""3923""
","
","
","""event"",""trial"",""time""
""fullscreenenter"",""1"",""3923""
","
","","","","","","null","<div style=""font-size:60px;"">+</div>","null","","fixation","","",""
"memory-trial","286","724860","0.0-18.0-1.117","6478","approach_avoid_sv1","""event"",""trial"",""time""
""fullscreenenter"",""1"",""3923""
","
","
","""event"",""trial"",""time""
""fullscreenenter"",""1"",""3923""
","
","","","","","","2049.4000000059605","images/truck6.png","","","memory_trial","1","definitely_old",""
"html-keyboard-response","287","725364","0.0-18.0-0.118","6478","approach_avoid_sv1","""event"",""trial"",""time""
""fullscreenenter"",""1"",""3923""
","
","
","""event"",""trial"",""time""
""fullscreenenter"",""1"",""3923""
","
","","","","","","null","<div style=""font-size:60px;"">+</div>","null","","fixation","","",""
"memory-trial","288","726964","0.0-18.0-1.118","6478","approach_avoid_sv1","""event"",""trial"",""time""
""fullscreenenter"",""1"",""3923""
","
","
","""event"",""trial"",""time""
""fullscreenenter"",""1"",""3923""
","
","","","","","","589.7999999970198","images/truck5.png","","","memory_trial","1","definitely_old",""
"html-keyboard-response","289","727468","0.0-18.0-0.119","6478","approach_avoid_sv1","""event"",""trial"",""time""
""fullscreenenter"",""1"",""3923""
","
","
","""event"",""trial"",""time""
""fullscreenenter"",""1"",""3923""
","
","","","","","","null","<div style=""font-size:60px;"">+</div>","null","","fixation","","",""
"memory-trial","290","729364","0.0-18.0-1.119","6478","approach_avoid_sv1","""event"",""trial"",""time""
""fullscreenenter"",""1"",""3923""
","
","
","""event"",""trial"",""time""
""fullscreenenter"",""1"",""3923""
","
","","","","","","890.8000000119209","images/rodent3.png","","","memory_trial","1","definitely_old",""
"html-keyboard-response","291","729868","0.0-18.0-0.120","6478","approach_avoid_sv1","""event"",""trial"",""time""
""fullscreenenter"",""1"",""3923""
","
","
","""event"",""trial"",""time""
""fullscreenenter"",""1"",""3923""
","
","","","","","","null","<div style=""font-size:60px;"">+</div>","null","","fixation","","",""
"memory-trial","292","731420","0.0-18.0-1.120","6478","approach_avoid_sv1","""event"",""trial"",""time""
""fullscreenenter"",""1"",""3923""
","
","
","""event"",""trial"",""time""
""fullscreenenter"",""1"",""3923""
","
","","","","","","541.2000000029802","images/banana5.png","","","memory_trial","1","definitely_old",""
"html-keyboard-response","293","731924","0.0-18.0-0.121","6478","approach_avoid_sv1","""event"",""trial"",""time""
""fullscreenenter"",""1"",""3923""
","
","
","""event"",""trial"",""time""
""fullscreenenter"",""1"",""3923""
","
","","","","","","null","<div style=""font-size:60px;"">+</div>","null","","fixation","","",""
"memory-trial","294","733732","0.0-18.0-1.121","6478","approach_avoid_sv1","""event"",""trial"",""time""
""fullscreenenter"",""1"",""3923""
","
","
","""event"",""trial"",""time""
""fullscreenenter"",""1"",""3923""
","
","","","","","","798.5","images/orange4.png","","","memory_trial","1","definitely_old",""
"html-keyboard-response","295","734236","0.0-18.0-0.122","6478","approach_avoid_sv1","""event"",""trial"",""time""
""fullscreenenter"",""1"",""3923""
","
","
","""event"",""trial"",""time""
""fullscreenenter"",""1"",""3923""
","
","","","","","","null","<div style=""font-size:60px;"">+</div>","null","","fixation","","",""
"memory-trial","296","735884","0.0-18.0-1.122","6478","approach_avoid_sv1","""event"",""trial"",""time""
