"trial_type","trial_index","time_elapsed","internal_node_id","subject_id","task_version","interactions","blur_events","focus_events","fullscreenenter_events","fullscreenexit_events","success","timeout","failed_images","failed_audio","failed_video","rt","stimulus","response","button_pressed","task_part","key_press","answer","correct"
"pavlovia","0","2","0.0-0.0","5945","approach_avoid_sv1","""event"",""trial"",""time""
""fullscreenenter"",""1"",""3098""
","
","
","""event"",""trial"",""time""
""fullscreenenter"",""1"",""3098""
","
","","","","","","","","","","","","",""
"fullscreen","1","4089","0.0-1.0","5945","approach_avoid_sv1","""event"",""trial"",""time""
""fullscreenenter"",""1"",""3098""
","
","
","""event"",""trial"",""time""
""fullscreenenter"",""1"",""3098""
","
","true","","","","","","","","","","","",""
"preload","2","8052","0.0-2.0","5945","approach_avoid_sv1","""event"",""trial"",""time""
""fullscreenenter"",""1"",""3098""
","
","
","""event"",""trial"",""time""
""fullscreenenter"",""1"",""3098""
","
","true","false","[]","[]","[]","","","","","","","",""
"preload","3","11497","0.0-3.0","5945","approach_avoid_sv1","""event"",""trial"",""time""
""fullscreenenter"",""1"",""3098""
","
","
","""event"",""trial"",""time""
""fullscreenenter"",""1"",""3098""
","
","true","false","[]","[]","[]","","","","","","","",""
"preload","4","12017","0.0-4.0","5945","approach_avoid_sv1","""event"",""trial"",""time""
""fullscreenenter"",""1"",""3098""
","
","
","""event"",""trial"",""time""
""fullscreenenter"",""1"",""3098""
","
","true","false","[]","[]","[]","","","","","","","",""
"audio-keyboard-response","5","15037","0.0-5.0","5945","approach_avoid_sv1","""event"",""trial"",""time""
""fullscreenenter"",""1"",""3098""
","
","
","""event"",""trial"",""time""
""fullscreenenter"",""1"",""3098""
","
","","","","","","3018.666666666667","audio/beep_loop.wav"," ","","","","",""
"audio-button-response","6","17378","0.0-6.0","5945","approach_avoid_sv1","""event"",""trial"",""time""
""fullscreenenter"",""1"",""3098""
","
","
","""event"",""trial"",""time""
""fullscreenenter"",""1"",""3098""
","
","","","","","","2341","audio/turtle.wav","3","","","","",""
"audio-button-response","7","19402","0.0-7.0","5945","approach_avoid_sv1","""event"",""trial"",""time""
""fullscreenenter"",""1"",""3098""
","
","
","""event"",""trial"",""time""
""fullscreenenter"",""1"",""3098""
","
","","","","","","1000","audio/shark.wav","2","","","","",""
"preload","8","24320","0.0-8.0","5945","approach_avoid_sv1","""event"",""trial"",""time""
""fullscreenenter"",""1"",""3098""
","
","
","""event"",""trial"",""time""
""fullscreenenter"",""1"",""3098""
","
","true","false","[]","[]","[]","","","","","","","",""
"learning-instructions","9","34802","0.0-9.0-0.0","5945","approach_avoid_sv1","""event"",""trial"",""time""
""fullscreenenter"",""1"",""3098""
","
","
","""event"",""trial"",""time""
""fullscreenenter"",""1"",""3098""
","
","","","","","","6004.299999713898","<p> Welcome back! </p><p> Last week, you had to make choices about lots of different items.  </p>","","0","instructions","","",""
"learning-instructions","10","40345","0.0-9.0-0.1","5945","approach_avoid_sv1","""event"",""trial"",""time""
""fullscreenenter"",""1"",""3098""
","
","
","""event"",""trial"",""time""
""fullscreenenter"",""1"",""3098""
","
","","","","","","1438.2000002861023","<p> Today, we are going to ask you to try to remember all the items. </p>","","0","instructions","","",""
"learning-instructions","11","51018","0.0-9.0-0.2","5945","approach_avoid_sv1","""event"",""trial"",""time""
""fullscreenenter"",""1"",""3098""
","
","
","""event"",""trial"",""time""
""fullscreenenter"",""1"",""3098""
","
","","","","","","540.3999996185303","<p> On every trial, you will see an image. </p><p> The image may be an OLD image you saw during the games last week or it may be a NEW image that was not presented. </p>","","0","instructions","","",""
"learning-instructions","12","63498","0.0-9.0-0.3","5945","approach_avoid_sv1","""event"",""trial"",""time""
""fullscreenenter"",""1"",""3098""
","
","
","""event"",""trial"",""time""
""fullscreenenter"",""1"",""3098""
","
","","","","","","3990","<p> You need to select whether the image is:  </p><p>  'Definitely old', 'Maybe old', 'Maybe new', or 'Definitely new.'  </p><div class=""mem-choice-instructions-grid""><div class=""choice-option"" id=""choice-option-1"" ><img src=""images/definitely_old_1.png"" id=""choice-option-img-1"" class=""choice-option-img"" stage=""1""></div><div class=""choice-option"" id=""choice-option-2"" ><img src=""images/maybe_old_1.png"" id=""choice-option-img-2"" class=""choice-option-img"" stage=""1""></div><div class=""choice-option"" id=""choice-option-3"" ><img src=""images/maybe_new_1.png"" id=""choice-option-img-3"" class=""choice-option-img"" stage=""1""></div><div class=""choice-option"" id=""choice-option-4"" > <img src=""images/definitely_new_1.png"" id=""choice-option-img-4"" class=""choice-option-img"" stage=""1""></div></div>","","0","instructions","","",""
"learning-instructions","13","72225","0.0-9.0-0.4","5945","approach_avoid_sv1","""event"",""trial"",""time""
""fullscreenenter"",""1"",""3098""
","
","
","""event"",""trial"",""time""
""fullscreenenter"",""1"",""3098""
","
","","","","","","2217.4000000953674","<p> You should use the 1, 2, 3, and 4 keys to make your responses.  </p><div class=""mem-choice-instructions-grid""><div class=""choice-option"" id=""choice-option-1"" ><img src=""images/definitely_old.png"" id=""choice-option-img-1"" class=""choice-option-img"" stage=""1""></div><div class=""choice-option"" id=""choice-option-2"" ><img src=""images/maybe_old.png"" id=""choice-option-img-2"" class=""choice-option-img"" stage=""1""></div><div class=""choice-option"" id=""choice-option-3"" ><img src=""images/maybe_new.png"" id=""choice-option-img-3"" class=""choice-option-img"" stage=""1""></div><div class=""choice-option"" id=""choice-option-4"" > <img src=""images/definitely_new.png"" id=""choice-option-img-4"" class=""choice-option-img"" stage=""1""></div></div>","","0","instructions","","",""
"learning-instructions","14","82082","0.0-9.0-0.5","5945","approach_avoid_sv1","""event"",""trial"",""time""
""fullscreenenter"",""1"",""3098""
","
","
","""event"",""trial"",""time""
""fullscreenenter"",""1"",""3098""
","
","","","","","","3524.4000000953674","<p> You will have 10 seconds to make each response.  </p><p>  Make sure to respond before time runs out! </p>","","0","instructions","","",""
"learning-instructions","15","89988","0.0-9.0-0.6","5945","approach_avoid_sv1","""event"",""trial"",""time""
""fullscreenenter"",""1"",""3098""
","
","
","""event"",""trial"",""time""
""fullscreenenter"",""1"",""3098""
","
","","","","","","820.1999998092651","<p> Today, you will see each image ONCE only.  </p><p>  That means none of the images will repeat. </p>","","0","instructions","","",""
"learning-instructions","16","103545","0.0-9.0-0.7","5945","approach_avoid_sv1","""event"",""trial"",""time""
""fullscreenenter"",""1"",""3098""
","
","
","""event"",""trial"",""time""
""fullscreenenter"",""1"",""3098""
","
","","","","","","888.1000003814697","<p> Before you play the real game, it is time to practice. </p><p>  Just like in the real game, some of the images in the practice will be ones you have seen before. </p><p>  Others will be entirely new. </p>","","0","instructions","","",""
"html-button-response","17","105395","0.0-10.0","5945","approach_avoid_sv1","""event"",""trial"",""time""
""fullscreenenter"",""1"",""3098""
","
","
","""event"",""trial"",""time""
""fullscreenenter"",""1"",""3098""
","
","","","","","","1745.3000001907349","<p> Ready to practice? </p><p> Remember, use the 1, 2, 3, and 4 keys to make your responses. </p>","0","","instructions","","",""
"html-keyboard-response","18","106001","0.0-11.0-0.0","5945","approach_avoid_sv1","""event"",""trial"",""time""
""fullscreenenter"",""1"",""3098""
","
","
","""event"",""trial"",""time""
""fullscreenenter"",""1"",""3098""
","
","","","","","","null","<div style=""font-size:60px;"">+</div>","null","","fixation","","",""
"memory-trial","19","109908","0.0-11.0-1.0","5945","approach_avoid_sv1","""event"",""trial"",""time""
""fullscreenenter"",""1"",""3098""
","
","
","""event"",""trial"",""time""
""fullscreenenter"",""1"",""3098""
","
","","","","","","2899.1000003814697","images/ball5.png","","","practice","3","maybe_new",""
"html-keyboard-response","20","110419","0.0-11.0-0.1","5945","approach_avoid_sv1","""event"",""trial"",""time""
""fullscreenenter"",""1"",""3098""
","
","
","""event"",""trial"",""time""
""fullscreenenter"",""1"",""3098""
","
","","","","","","null","<div style=""font-size:60px;"">+</div>","null","","fixation","","",""
"memory-trial","21","115006","0.0-11.0-1.1","5945","approach_avoid_sv1","""event"",""trial"",""time""
""fullscreenenter"",""1"",""3098""
","
","
","""event"",""trial"",""time""
""fullscreenenter"",""1"",""3098""
","
","","","","","","3575.8999996185303","images/racket2.png","","","practice","1","definitely_old",""
"html-keyboard-response","22","115517","0.0-11.0-0.2","5945","approach_avoid_sv1","""event"",""trial"",""time""
""fullscreenenter"",""1"",""3098""
","
","
","""event"",""trial"",""time""
""fullscreenenter"",""1"",""3098""
","
","","","","","","null","<div style=""font-size:60px;"">+</div>","null","","fixation","","",""
"memory-trial","23","117726","0.0-11.0-1.2","5945","approach_avoid_sv1","""event"",""trial"",""time""
""fullscreenenter"",""1"",""3098""
","
","
","""event"",""trial"",""time""
""fullscreenenter"",""1"",""3098""
","
","","","","","","1186.4000000953674","images/racket3.png","","","practice","1","definitely_old",""
"html-keyboard-response","24","118241","0.0-11.0-0.3","5945","approach_avoid_sv1","""event"",""trial"",""time""
""fullscreenenter"",""1"",""3098""
","
","
","""event"",""trial"",""time""
""fullscreenenter"",""1"",""3098""
","
","","","","","","null","<div style=""font-size:60px;"">+</div>","null","","fixation","","",""
"memory-trial","25","121053","0.0-11.0-1.3","5945","approach_avoid_sv1","""event"",""trial"",""time""
""fullscreenenter"",""1"",""3098""
","
","
","""event"",""trial"",""time""
""fullscreenenter"",""1"",""3098""
","
","","","","","","1803","images/ball1.png","","","practice","2","maybe_old",""
"html-keyboard-response","26","121561","0.0-11.0-0.4","5945","approach_avoid_sv1","""event"",""trial"",""time""
""fullscreenenter"",""1"",""3098""
","
","
","""event"",""trial"",""time""
""fullscreenenter"",""1"",""3098""
","
","","","","","","null","<div style=""font-size:60px;"">+</div>","null","","fixation","","",""
"memory-trial","27","124220","0.0-11.0-1.4","5945","approach_avoid_sv1","""event"",""trial"",""time""
""fullscreenenter"",""1"",""3098""
","
","
","""event"",""trial"",""time""
""fullscreenenter"",""1"",""3098""
","
","","","","","","1651.9000000953674","images/ball3.png","","","practice","4","definitely_new",""
"html-keyboard-response","28","124732","0.0-11.0-0.5","5945","approach_avoid_sv1","""event"",""trial"",""time""
""fullscreenenter"",""1"",""3098""
","
","
","""event"",""trial"",""time""
""fullscreenenter"",""1"",""3098""
","
","","","","","","null","<div style=""font-size:60px;"">+</div>","null","","fixation","","",""
"memory-trial","29","127970","0.0-11.0-1.5","5945","approach_avoid_sv1","""event"",""trial"",""time""
""fullscreenenter"",""1"",""3098""
","
","
","""event"",""trial"",""time""
""fullscreenenter"",""1"",""3098""
","
","","","","","","2219.9000000953674","images/ball2.png","","","practice","3","maybe_new",""
"html-keyboard-response","30","128482","0.0-11.0-0.6","5945","approach_avoid_sv1","""event"",""trial"",""time""
""fullscreenenter"",""1"",""3098""
","
","
","""event"",""trial"",""time""
""fullscreenenter"",""1"",""3098""
","
","","","","","","null","<div style=""font-size:60px;"">+</div>","null","","fixation","","",""
"memory-trial","31","130981","0.0-11.0-1.6","5945","approach_avoid_sv1","""event"",""trial"",""time""
""fullscreenenter"",""1"",""3098""
","
","
","""event"",""trial"",""time""
""fullscreenenter"",""1"",""3098""
","
","","","","","","1486.9000000953674","images/racket1.png","","","practice","3","maybe_new",""
"html-keyboard-response","32","131494","0.0-11.0-0.7","5945","approach_avoid_sv1","""event"",""trial"",""time""
""fullscreenenter"",""1"",""3098""
","
","
","""event"",""trial"",""time""
""fullscreenenter"",""1"",""3098""
","
","","","","","","null","<div style=""font-size:60px;"">+</div>","null","","fixation","","",""
"memory-trial","33","134314","0.0-11.0-1.7","5945","approach_avoid_sv1","""event"",""trial"",""time""
""fullscreenenter"",""1"",""3098""
","
","
","""event"",""trial"",""time""
""fullscreenenter"",""1"",""3098""
","
","","","","","","1813.1999998092651","images/racket5.png","","","practice","4","definitely_new",""
"learning-instructions","34","143074","0.0-12.0-0.0","5945","approach_avoid_sv1","""event"",""trial"",""time""
""fullscreenenter"",""1"",""3098""
","
","
","""event"",""trial"",""time""
""fullscreenenter"",""1"",""3098""
","
","","","","","","1464","<p> Great! You have completed the practice. </p><p> Before you start, we're going to ask you a few questions about how the game works.  </p>","","0","instructions","","",""
"preload","35","145781","0.0-13.0","5945","approach_avoid_sv1","""event"",""trial"",""time""
""fullscreenenter"",""1"",""3098""
","
","
","""event"",""trial"",""time""
""fullscreenenter"",""1"",""3098""
","
","true","false","[]","[]","[]","","","","","","","",""
"comp-q","36","153873","0.0-14.0-0.0","5945","approach_avoid_sv1","""event"",""trial"",""time""
""fullscreenenter"",""1"",""3098""
","
","
","""event"",""trial"",""time""
""fullscreenenter"",""1"",""3098""
","
","","","","","","2264.199999809265","<p> <b> True or False? </b> </p><p> In this game, you will only see each image once. </p>","","0","comp_question","","","true"
"comp-q","37","161772","0.0-14.0-1.0","5945","approach_avoid_sv1","""event"",""trial"",""time""
""fullscreenenter"",""1"",""3098""
","
","
","""event"",""trial"",""time""
""fullscreenenter"",""1"",""3098""
","
","","","","","","1561.6999998092651","<p> <b> That's right! </b> You will see many different images <i> one time each </i> in this game. </p>","","0","comp_answer","","",""
"comp-q","38","167369","0.0-15.0-0.0","5945","approach_avoid_sv1","""event"",""trial"",""time""
""fullscreenenter"",""1"",""3098""
","
","
","""event"",""trial"",""time""
""fullscreenenter"",""1"",""3098""
","
","","","","","","579","<p> <b> True or False? </b> </p><p> You should use the mouse and click to make your response. </p>","","1","comp_question","","","true"
"comp-q","39","175001","0.0-15.0-1.0","5945","approach_avoid_sv1","""event"",""trial"",""time""
""fullscreenenter"",""1"",""3098""
","
","
","""event"",""trial"",""time""
""fullscreenenter"",""1"",""3098""
","
","","","","","","1120.4000000953674","<p><b> That's right! </b> You should use the '1', '2', '3', and '4' keys to make your response. </p>","","0","comp_answer","","",""
"comp-q","40","181577","0.0-16.0-0.0","5945","approach_avoid_sv1","""event"",""trial"",""time""
""fullscreenenter"",""1"",""3098""
","
","
","""event"",""trial"",""time""
""fullscreenenter"",""1"",""3098""
","
","","","","","","907","<p> <b> True or False? </b> </p><p> You will have as much time as you want to make each choice. </p>","","1","comp_question","","","true"
"comp-q","41","187603","0.0-16.0-1.0","5945","approach_avoid_sv1","""event"",""trial"",""time""
""fullscreenenter"",""1"",""3098""
","
","
","""event"",""trial"",""time""
""fullscreenenter"",""1"",""3098""
","
","","","","","","1324.7000002861023","<p> <b> That's right! </b> You will only have 10 seconds to make each choice. </p>","","0","comp_answer","","",""
"learning-instructions","42","197761","0.0-17.0","5945","approach_avoid_sv1","""event"",""trial"",""time""
""fullscreenenter"",""1"",""3098""
","
","
","""event"",""trial"",""time""
""fullscreenenter"",""1"",""3098""
","
","","","","","","1491.9000000953674","<p> Great! You are now ready to begin the game. </p><p> Remember, use the 1, 2, 3, and 4 keys to make your responses. </p>","","0","instructions","","",""
"html-keyboard-response","43","198376","0.0-18.0-0.0","5945","approach_avoid_sv1","""event"",""trial"",""time""
""fullscreenenter"",""1"",""3098""
","
","
","""event"",""trial"",""time""
""fullscreenenter"",""1"",""3098""
","
","","","","","","null","<div style=""font-size:60px;"">+</div>","null","","fixation","","",""
"memory-trial","44","202079","0.0-18.0-1.0","5945","approach_avoid_sv1","""event"",""trial"",""time""
""fullscreenenter"",""1"",""3098""
","
","
","""event"",""trial"",""time""
""fullscreenenter"",""1"",""3098""
","
","","","","","","2688.5","images/table2.png","","","memory_trial","1","definitely_old",""
"html-keyboard-response","45","202594","0.0-18.0-0.1","5945","approach_avoid_sv1","""event"",""trial"",""time""
""fullscreenenter"",""1"",""3098""
","
","
","""event"",""trial"",""time""
""fullscreenenter"",""1"",""3098""
","
","","","","","","null","<div style=""font-size:60px;"">+</div>","null","","fixation","","",""
"memory-trial","46","206344","0.0-18.0-1.1","5945","approach_avoid_sv1","""event"",""trial"",""time""
""fullscreenenter"",""1"",""3098""
","
","
","""event"",""trial"",""time""
""fullscreenenter"",""1"",""3098""
","
","","","","","","2734.7999997138977","images/table3.png","","","memory_trial","4","definitely_new",""
"html-keyboard-response","47","206855","0.0-18.0-0.2","5945","approach_avoid_sv1","""event"",""trial"",""time""
""fullscreenenter"",""1"",""3098""
","
","
","""event"",""trial"",""time""
""fullscreenenter"",""1"",""3098""
","
","","","","","","null","<div style=""font-size:60px;"">+</div>","null","","fixation","","",""
"memory-trial","48","209077","0.0-18.0-1.2","5945","approach_avoid_sv1","""event"",""trial"",""time""
""fullscreenenter"",""1"",""3098""
","
","
","""event"",""trial"",""time""
""fullscreenenter"",""1"",""3098""
","
","","","","","","1204.1999998092651","images/sofa1.png","","","memory_trial","4","definitely_new",""
"html-keyboard-response","49","209591","0.0-18.0-0.3","5945","approach_avoid_sv1","""event"",""trial"",""time""
""fullscreenenter"",""1"",""3098""
","
","
","""event"",""trial"",""time""
""fullscreenenter"",""1"",""3098""
","
","","","","","","null","<div style=""font-size:60px;"">+</div>","null","","fixation","","",""
"memory-trial","50","212334","0.0-18.0-1.3","5945","approach_avoid_sv1","""event"",""trial"",""time""
""fullscreenenter"",""1"",""3098""
","
","
","""event"",""trial"",""time""
""fullscreenenter"",""1"",""3098""
","
","","","","","","1723.3000001907349","images/rabbit7.png","","","memory_trial","1","definitely_old",""
"html-keyboard-response","51","212845","0.0-18.0-0.4","5945","approach_avoid_sv1","""event"",""trial"",""time""
""fullscreenenter"",""1"",""3098""
","
","
","""event"",""trial"",""time""
""fullscreenenter"",""1"",""3098""
","
","","","","","","null","<div style=""font-size:60px;"">+</div>","null","","fixation","","",""
"memory-trial","52","215396","0.0-18.0-1.4","5945","approach_avoid_sv1","""event"",""trial"",""time""
""fullscreenenter"",""1"",""3098""
","
","
","""event"",""trial"",""time""
""fullscreenenter"",""1"",""3098""
","
","","","","","","1542.9000000953674","images/bush1.png","","","memory_trial","4","definitely_new",""
"html-keyboard-response","53","215911","0.0-18.0-0.5","5945","approach_avoid_sv1","""event"",""trial"",""time""
""fullscreenenter"",""1"",""3098""
","
","
","""event"",""trial"",""time""
""fullscreenenter"",""1"",""3098""
","
","","","","","","null","<div style=""font-size:60px;"">+</div>","null","","fixation","","",""
"memory-trial","54","218243","0.0-18.0-1.5","5945","approach_avoid_sv1","""event"",""trial"",""time""
""fullscreenenter"",""1"",""3098""
","
","
","""event"",""trial"",""time""
""fullscreenenter"",""1"",""3098""
","
","","","","","","1313.6999998092651","images/sofa7.png","","","memory_trial","4","definitely_new",""
"html-keyboard-response","55","218754","0.0-18.0-0.6","5945","approach_avoid_sv1","""event"",""trial"",""time""
""fullscreenenter"",""1"",""3098""
","
","
","""event"",""trial"",""time""
""fullscreenenter"",""1"",""3098""
","
","","","","","","null","<div style=""font-size:60px;"">+</div>","null","","fixation","","",""
"memory-trial","56","222126","0.0-18.0-1.6","5945","approach_avoid_sv1","""event"",""trial"",""time""
""fullscreenenter"",""1"",""3098""
","
","
","""event"",""trial"",""time""
""fullscreenenter"",""1"",""3098""
","
","","","","","","2353.2999997138977","images/cow1.png","","","memory_trial","2","maybe_old",""
"html-keyboard-response","57","222640","0.0-18.0-0.7","5945","approach_avoid_sv1","""event"",""trial"",""time""
""fullscreenenter"",""1"",""3098""
","
","
","""event"",""trial"",""time""
""fullscreenenter"",""1"",""3098""
","
","","","","","","null","<div style=""font-size:60px;"">+</div>","null","","fixation","","",""
"memory-trial","58","226327","0.0-18.0-1.7","5945","approach_avoid_sv1","""event"",""trial"",""time""
""fullscreenenter"",""1"",""3098""
","
","
","""event"",""trial"",""time""
""fullscreenenter"",""1"",""3098""
","
","","","","","","2666.0999999046326","images/flower6.png","","","memory_trial","2","maybe_old",""
"html-keyboard-response","59","226834","0.0-18.0-0.8","5945","approach_avoid_sv1","""event"",""trial"",""time""
""fullscreenenter"",""1"",""3098""
","
","
","""event"",""trial"",""time""
""fullscreenenter"",""1"",""3098""
","
","","","","","","null","<div style=""font-size:60px;"">+</div>","null","","fixation","","",""
"memory-trial","60","229417","0.0-18.0-1.8","5945","approach_avoid_sv1","""event"",""trial"",""time""
""fullscreenenter"",""1"",""3098""
","
","
","""event"",""trial"",""time""
""fullscreenenter"",""1"",""3098""
","
","","","","","","1576.0999999046326","images/straw5.png","","","memory_trial","1","definitely_old",""
"html-keyboard-response","61","229921","0.0-18.0-0.9","5945","approach_avoid_sv1","""event"",""trial"",""time""
""fullscreenenter"",""1"",""3098""
","
","
","""event"",""trial"",""time""
""fullscreenenter"",""1"",""3098""
","
","","","","","","null","<div style=""font-size:60px;"">+</div>","null","","fixation","","",""
"memory-trial","62","233178","0.0-18.0-1.9","5945","approach_avoid_sv1","""event"",""trial"",""time""
""fullscreenenter"",""1"",""3098""
","
","
","""event"",""trial"",""time""
""fullscreenenter"",""1"",""3098""
","
","","","","","","2251.1000003814697","images/train1.png","","","memory_trial","1","definitely_old",""
"html-keyboard-response","63","233681","0.0-18.0-0.10","5945","approach_avoid_sv1","""event"",""trial"",""time""
""fullscreenenter"",""1"",""3098""
","
","
","""event"",""trial"",""time""
""fullscreenenter"",""1"",""3098""
","
","","","","","","null","<div style=""font-size:60px;"">+</div>","null","","fixation","","",""
"memory-trial","64","236377","0.0-18.0-1.10","5945","approach_avoid_sv1","""event"",""trial"",""time""
""fullscreenenter"",""1"",""3098""
","
","
","""event"",""trial"",""time""
""fullscreenenter"",""1"",""3098""
","
","","","","","","1688.6999998092651","images/rodent7.png","","","memory_trial","4","definitely_new",""
"html-keyboard-response","65","236881","0.0-18.0-0.11","5945","approach_avoid_sv1","""event"",""trial"",""time""
""fullscreenenter"",""1"",""3098""
","
","
","""event"",""trial"",""time""
""fullscreenenter"",""1"",""3098""
","
","","","","","","null","<div style=""font-size:60px;"">+</div>","null","","fixation","","",""
"memory-trial","66","239705","0.0-18.0-1.11","5945","approach_avoid_sv1","""event"",""trial"",""time""
""fullscreenenter"",""1"",""3098""
","
","
","""event"",""trial"",""time""
""fullscreenenter"",""1"",""3098""
","
","","","","","","1817.5","images/boat2.png","","","memory_trial","4","definitely_new",""
"html-keyboard-response","67","240209","0.0-18.0-0.12","5945","approach_avoid_sv1","""event"",""trial"",""time""
""fullscreenenter"",""1"",""3098""
","
","
","""event"",""trial"",""time""
""fullscreenenter"",""1"",""3098""
","
","","","","","","null","<div style=""font-size:60px;"">+</div>","null","","fixation","","",""
"memory-trial","68","242521","0.0-18.0-1.12","5945","approach_avoid_sv1","""event"",""trial"",""time""
""fullscreenenter"",""1"",""3098""
","
","
","""event"",""trial"",""time""
""fullscreenenter"",""1"",""3098""
","
","","","","","","1303.5","images/apple1.png","","","memory_trial","4","definitely_new",""
"html-keyboard-response","69","243025","0.0-18.0-0.13","5945","approach_avoid_sv1","""event"",""trial"",""time""
""fullscreenenter"",""1"",""3098""
","
","
","""event"",""trial"",""time""
""fullscreenenter"",""1"",""3098""
","
","","","","","","null","<div style=""font-size:60px;"">+</div>","null","","fixation","","",""
"memory-trial","70","245370","0.0-18.0-1.13","5945","approach_avoid_sv1","""event"",""trial"",""time""
""fullscreenenter"",""1"",""3098""
","
","
","""event"",""trial"",""time""
""fullscreenenter"",""1"",""3098""
","
","","","","","","1338.7000002861023","images/plane1.png","","","memory_trial","4","definitely_new",""
"html-keyboard-response","71","245872","0.0-18.0-0.14","5945","approach_avoid_sv1","""event"",""trial"",""time""
""fullscreenenter"",""1"",""3098""
","
","
","""event"",""trial"",""time""
""fullscreenenter"",""1"",""3098""
","
","","","","","","null","<div style=""font-size:60px;"">+</div>","null","","fixation","","",""
"memory-trial","72","247994","0.0-18.0-1.14","5945","approach_avoid_sv1","""event"",""trial"",""time""
""fullscreenenter"",""1"",""3098""
","
","
","""event"",""trial"",""time""
""fullscreenenter"",""1"",""3098""
","
","","","","","","1112.5","images/goat8.png","","","memory_trial","4","definitely_new",""
"html-keyboard-response","73","248496","0.0-18.0-0.15","5945","approach_avoid_sv1","""event"",""trial"",""time""
""fullscreenenter"",""1"",""3098""
","
","
","""event"",""trial"",""time""
""fullscreenenter"",""1"",""3098""
","
","","","","","","null","<div style=""font-size:60px;"">+</div>","null","","fixation","","",""
"memory-trial","74","250737","0.0-18.0-1.15","5945","approach_avoid_sv1","""event"",""trial"",""time""
""fullscreenenter"",""1"",""3098""
","
","
","""event"",""trial"",""time""
""fullscreenenter"",""1"",""3098""
","
","","","","","","1233.2000002861023","images/dog6.png","","","memory_trial","1","definitely_old",""
"html-keyboard-response","75","251252","0.0-18.0-0.16","5945","approach_avoid_sv1","""event"",""trial"",""time""
""fullscreenenter"",""1"",""3098""
","
","
","""event"",""trial"",""time""
""fullscreenenter"",""1"",""3098""
","
","","","","","","null","<div style=""font-size:60px;"">+</div>","null","","fixation","","",""
"memory-trial","76","253377","0.0-18.0-1.16","5945","approach_avoid_sv1","""event"",""trial"",""time""
""fullscreenenter"",""1"",""3098""
","
","
","""event"",""trial"",""time""
""fullscreenenter"",""1"",""3098""
","
","","","","","","1119.9000000953674","images/train3.png","","","memory_trial","1","definitely_old",""
"html-keyboard-response","77","253881","0.0-18.0-0.17","5945","approach_avoid_sv1","""event"",""trial"",""time""
""fullscreenenter"",""1"",""3098""
","
","
","""event"",""trial"",""time""
""fullscreenenter"",""1"",""3098""
","
","","","","","","null","<div style=""font-size:60px;"">+</div>","null","","fixation","","",""
"memory-trial","78","256466","0.0-18.0-1.17","5945","approach_avoid_sv1","""event"",""trial"",""time""
""fullscreenenter"",""1"",""3098""
","
","
","""event"",""trial"",""time""
""fullscreenenter"",""1"",""3098""
","
","","","","","","1575.5999999046326","images/sheep8.png","","","memory_trial","4","definitely_new",""
"html-keyboard-response","79","256970","0.0-18.0-0.18","5945","approach_avoid_sv1","""event"",""trial"",""time""
""fullscreenenter"",""1"",""3098""
","
","
","""event"",""trial"",""time""
""fullscreenenter"",""1"",""3098""
","
","","","","","","null","<div style=""font-size:60px;"">+</div>","null","","fixation","","",""
"memory-trial","80","260425","0.0-18.0-1.18","5945","approach_avoid_sv1","""event"",""trial"",""time""
""fullscreenenter"",""1"",""3098""
","
","
","""event"",""trial"",""time""
""fullscreenenter"",""1"",""3098""
","
","","","","","","2449.800000190735","images/straw3.png","","","memory_trial","2","maybe_old",""
"html-keyboard-response","81","260929","0.0-18.0-0.19","5945","approach_avoid_sv1","""event"",""trial"",""time""
""fullscreenenter"",""1"",""3098""
","
","
","""event"",""trial"",""time""
""fullscreenenter"",""1"",""3098""
","
","","","","","","null","<div style=""font-size:60px;"">+</div>","null","","fixation","","",""
"memory-trial","82","263753","0.0-18.0-1.19","5945","approach_avoid_sv1","""event"",""trial"",""time""
""fullscreenenter"",""1"",""3098""
","
","
","""event"",""trial"",""time""
""fullscreenenter"",""1"",""3098""
","
","","","","","","1814.2000002861023","images/rodent2.png","","","memory_trial","4","definitely_new",""
"html-keyboard-response","83","264257","0.0-18.0-0.20","5945","approach_avoid_sv1","""event"",""trial"",""time""
""fullscreenenter"",""1"",""3098""
","
","
","""event"",""trial"",""time""
""fullscreenenter"",""1"",""3098""
","
","","","","","","null","<div style=""font-size:60px;"">+</div>","null","","fixation","","",""
"memory-trial","84","267018","0.0-18.0-1.20","5945","approach_avoid_sv1","""event"",""trial"",""time""
""fullscreenenter"",""1"",""3098""
","
","
","""event"",""trial"",""time""
""fullscreenenter"",""1"",""3098""
","
","","","","","","1755.1999998092651","images/flower8.png","","","memory_trial","3","maybe_new",""
"html-keyboard-response","85","267521","0.0-18.0-0.21","5945","approach_avoid_sv1","""event"",""trial"",""time""
""fullscreenenter"",""1"",""3098""
","
","
","""event"",""trial"",""time""
""fullscreenenter"",""1"",""3098""
","
","","","","","","null","<div style=""font-size:60px;"">+</div>","null","","fixation","","",""
"memory-trial","86","269849","0.0-18.0-1.21","5945","approach_avoid_sv1","""event"",""trial"",""time""
""fullscreenenter"",""1"",""3098""
","
","
","""event"",""trial"",""time""
""fullscreenenter"",""1"",""3098""
","
","","","","","","1321.8000001907349","images/dog4.png","","","memory_trial","1","definitely_old",""
"html-keyboard-response","87","270353","0.0-18.0-0.22","5945","approach_avoid_sv1","""event"",""trial"",""time""
""fullscreenenter"",""1"",""3098""
","
","
","""event"",""trial"",""time""
""fullscreenenter"",""1"",""3098""
","
","","","","","","null","<div style=""font-size:60px;"">+</div>","null","","fixation","","",""
"memory-trial","88","273170","0.0-18.0-1.22","5945","approach_avoid_sv1","""event"",""trial"",""time""
""fullscreenenter"",""1"",""3098""
","
","
","""event"",""trial"",""time""
""fullscreenenter"",""1"",""3098""
","
","","","","","","1808.5999999046326","images/cat7.png","","","memory_trial","4","definitely_new",""
"html-keyboard-response","89","273673","0.0-18.0-0.23","5945","approach_avoid_sv1","""event"",""trial"",""time""
""fullscreenenter"",""1"",""3098""
","
","
","""event"",""trial"",""time""
""fullscreenenter"",""1"",""3098""
","
","","","","","","null","<div style=""font-size:60px;"">+</div>","null","","fixation","","",""
"memory-trial","90","276225","0.0-18.0-1.23","5945","approach_avoid_sv1","""event"",""trial"",""time""
""fullscreenenter"",""1"",""3098""
","
","
","""event"",""trial"",""time""
""fullscreenenter"",""1"",""3098""
","
","","","","","","1542.7999997138977","images/table1.png","","","memory_trial","2","maybe_old",""
"html-keyboard-response","91","276729","0.0-18.0-0.24","5945","approach_avoid_sv1","""event"",""trial"",""time""
""fullscreenenter"",""1"",""3098""
","
","
","""event"",""trial"",""time""
""fullscreenenter"",""1"",""3098""
","
","","","","","","null","<div style=""font-size:60px;"">+</div>","null","","fixation","","",""
"memory-trial","92","279281","0.0-18.0-1.24","5945","approach_avoid_sv1","""event"",""trial"",""time""
""fullscreenenter"",""1"",""3098""
","
","
","""event"",""trial"",""time""
""fullscreenenter"",""1"",""3098""
","
","","","","","","1546","images/boat4.png","","","memory_trial","4","definitely_new",""
"html-keyboard-response","93","279784","0.0-18.0-0.25","5945","approach_avoid_sv1","""event"",""trial"",""time""
""fullscreenenter"",""1"",""3098""
","
","
","""event"",""trial"",""time""
""fullscreenenter"",""1"",""3098""
","
","","","","","","null","<div style=""font-size:60px;"">+</div>","null","","fixation","","",""
"memory-trial","94","281993","0.0-18.0-1.25","5945","approach_avoid_sv1","""event"",""trial"",""time""
""fullscreenenter"",""1"",""3098""
","
","
","""event"",""trial"",""time""
""fullscreenenter"",""1"",""3098""
","
","","","","","","1200.4000000953674","images/boat8.png","","","memory_trial","4","definitely_new",""
"html-keyboard-response","95","282496","0.0-18.0-0.26","5945","approach_avoid_sv1","""event"",""trial"",""time""
""fullscreenenter"",""1"",""3098""
","
","
","""event"",""trial"",""time""
""fullscreenenter"",""1"",""3098""
","
","","","","","","null","<div style=""font-size:60px;"">+</div>","null","","fixation","","",""
"memory-trial","96","284856","0.0-18.0-1.26","5945","approach_avoid_sv1","""event"",""trial"",""time""
""fullscreenenter"",""1"",""3098""
","
","
","""event"",""trial"",""time""
""fullscreenenter"",""1"",""3098""
","
","","","","","","1352.3000001907349","images/plane8.png","","","memory_trial","1","definitely_old",""
"html-keyboard-response","97","285361","0.0-18.0-0.27","5945","approach_avoid_sv1","""event"",""trial"",""time""
""fullscreenenter"",""1"",""3098""
","
","
","""event"",""trial"",""time""
""fullscreenenter"",""1"",""3098""
","
","","","","","","null","<div style=""font-size:60px;"">+</div>","null","","fixation","","",""
"memory-trial","98","287689","0.0-18.0-1.27","5945","approach_avoid_sv1","""event"",""trial"",""time""
""fullscreenenter"",""1"",""3098""
","
","
","""event"",""trial"",""time""
""fullscreenenter"",""1"",""3098""
","
","","","","","","1321.5","images/rodent6.png","","","memory_trial","2","maybe_old",""
"html-keyboard-response","99","288193","0.0-18.0-0.28","5945","approach_avoid_sv1","""event"",""trial"",""time""
""fullscreenenter"",""1"",""3098""
","
","
","""event"",""trial"",""time""
""fullscreenenter"",""1"",""3098""
","
","","","","","","null","<div style=""font-size:60px;"">+</div>","null","","fixation","","",""
"memory-trial","100","290345","0.0-18.0-1.28","5945","approach_avoid_sv1","""event"",""trial"",""time""
""fullscreenenter"",""1"",""3098""
","
","
","""event"",""trial"",""time""
""fullscreenenter"",""1"",""3098""
","
","","","","","","1147.7999997138977","images/cactus4.png","","","memory_trial","2","maybe_old",""
"html-keyboard-response","101","290849","0.0-18.0-0.29","5945","approach_avoid_sv1","""event"",""trial"",""time""
""fullscreenenter"",""1"",""3098""
","
","
","""event"",""trial"",""time""
""fullscreenenter"",""1"",""3098""
","
","","","","","","null","<div style=""font-size:60px;"">+</div>","null","","fixation","","",""
"memory-trial","102","292888","0.0-18.0-1.29","5945","approach_avoid_sv1","""event"",""trial"",""time""
""fullscreenenter"",""1"",""3098""
","
","
","""event"",""trial"",""time""
""fullscreenenter"",""1"",""3098""
","
","","","","","","1030.6000003814697","images/flower2.png","","","memory_trial","1","definitely_old",""
"html-keyboard-response","103","293392","0.0-18.0-0.30","5945","approach_avoid_sv1","""event"",""trial"",""time""
""fullscreenenter"",""1"",""3098""
","
","
","""event"",""trial"",""time""
""fullscreenenter"",""1"",""3098""
","
","","","","","","null","<div style=""font-size:60px;"">+</div>","null","","fixation","","",""
"memory-trial","104","295394","0.0-18.0-1.30","5945","approach_avoid_sv1","""event"",""trial"",""time""
""fullscreenenter"",""1"",""3098""
","
","
","""event"",""trial"",""time""
""fullscreenenter"",""1"",""3098""
","
","","","","","","995","images/cactus7.png","","","memory_trial","4","definitely_new",""
"html-keyboard-response","105","295897","0.0-18.0-0.31","5945","approach_avoid_sv1","""event"",""trial"",""time""
""fullscreenenter"",""1"",""3098""
","
","
","""event"",""trial"",""time""
""fullscreenenter"",""1"",""3098""
","
","","","","","","null","<div style=""font-size:60px;"">+</div>","null","","fixation","","",""
"memory-trial","106","297793","0.0-18.0-1.31","5945","approach_avoid_sv1","""event"",""trial"",""time""
""fullscreenenter"",""1"",""3098""
","
","
","""event"",""trial"",""time""
""fullscreenenter"",""1"",""3098""
","
","","","","","","887.5","images/boat6.png","","","memory_trial","4","definitely_new",""
"html-keyboard-response","107","298297","0.0-18.0-0.32","5945","approach_avoid_sv1","""event"",""trial"",""time""
""fullscreenenter"",""1"",""3098""
","
","
","""event"",""trial"",""time""
""fullscreenenter"",""1"",""3098""
","
","","","","","","null","<div style=""font-size:60px;"">+</div>","null","","fixation","","",""
"memory-trial","108","300250","0.0-18.0-1.32","5945","approach_avoid_sv1","""event"",""trial"",""time""
""fullscreenenter"",""1"",""3098""
","
","
","""event"",""trial"",""time""
""fullscreenenter"",""1"",""3098""
","
","","","","","","943.6999998092651","images/chair4.png","","","memory_trial","4","definitely_new",""
"html-keyboard-response","109","300753","0.0-18.0-0.33","5945","approach_avoid_sv1","""event"",""trial"",""time""
""fullscreenenter"",""1"",""3098""
","
","
","""event"",""trial"",""time""
""fullscreenenter"",""1"",""3098""
","
","","","","","","null","<div style=""font-size:60px;"">+</div>","null","","fixation","","",""
"memory-trial","110","302737","0.0-18.0-1.33","5945","approach_avoid_sv1","""event"",""trial"",""time""
""fullscreenenter"",""1"",""3098""
","
","
","""event"",""trial"",""time""
""fullscreenenter"",""1"",""3098""
","
","","","","","","979.2999997138977","images/bed2.png","","","memory_trial","1","definitely_old",""
"html-keyboard-response","111","303241","0.0-18.0-0.34","5945","approach_avoid_sv1","""event"",""trial"",""time""
""fullscreenenter"",""1"",""3098""
","
","
","""event"",""trial"",""time""
""fullscreenenter"",""1"",""3098""
","
","","","","","","null","<div style=""font-size:60px;"">+</div>","null","","fixation","","",""
"memory-trial","112","306072","0.0-18.0-1.34","5945","approach_avoid_sv1","""event"",""trial"",""time""
""fullscreenenter"",""1"",""3098""
","
","
","""event"",""trial"",""time""
""fullscreenenter"",""1"",""3098""
","
","","","","","","1822.8000001907349","images/flower1.png","","","memory_trial","2","maybe_old",""
"html-keyboard-response","113","306577","0.0-18.0-0.35","5945","approach_avoid_sv1","""event"",""trial"",""time""
""fullscreenenter"",""1"",""3098""
","
","
","""event"",""trial"",""time""
""fullscreenenter"",""1"",""3098""
","
","","","","","","null","<div style=""font-size:60px;"">+</div>","null","","fixation","","",""
"memory-trial","114","310504","0.0-18.0-1.35","5945","approach_avoid_sv1","""event"",""trial"",""time""
""fullscreenenter"",""1"",""3098""
","
","
","""event"",""trial"",""time""
""fullscreenenter"",""1"",""3098""
","
","","","","","","2919","images/cow5.png","","","memory_trial","1","definitely_old",""
"html-keyboard-response","115","311008","0.0-18.0-0.36","5945","approach_avoid_sv1","""event"",""trial"",""time""
""fullscreenenter"",""1"",""3098""
","
","
","""event"",""trial"",""time""
""fullscreenenter"",""1"",""3098""
","
","","","","","","null","<div style=""font-size:60px;"">+</div>","null","","fixation","","",""
"memory-trial","116","312937","0.0-18.0-1.36","5945","approach_avoid_sv1","""event"",""trial"",""time""
""fullscreenenter"",""1"",""3098""
","
","
","""event"",""trial"",""time""
""fullscreenenter"",""1"",""3098""
","
","","","","","","919.5","images/tree3.png","","","memory_trial","1","definitely_old",""
"html-keyboard-response","117","313441","0.0-18.0-0.37","5945","approach_avoid_sv1","""event"",""trial"",""time""
""fullscreenenter"",""1"",""3098""
","
","
","""event"",""trial"",""time""
""fullscreenenter"",""1"",""3098""
","
","","","","","","null","<div style=""font-size:60px;"">+</div>","null","","fixation","","",""
"memory-trial","118","315313","0.0-18.0-1.37","5945","approach_avoid_sv1","""event"",""trial"",""time""
""fullscreenenter"",""1"",""3098""
","
","
","""event"",""trial"",""time""
""fullscreenenter"",""1"",""3098""
","
","","","","","","864.6999998092651","images/sheep2.png","","","memory_trial","4","definitely_new",""
"html-keyboard-response","119","315816","0.0-18.0-0.38","5945","approach_avoid_sv1","""event"",""trial"",""time""
""fullscreenenter"",""1"",""3098""
","
","
","""event"",""trial"",""time""
""fullscreenenter"",""1"",""3098""
","
","","","","","","null","<div style=""font-size:60px;"">+</div>","null","","fixation","","",""
"memory-trial","120","317464","0.0-18.0-1.38","5945","approach_avoid_sv1","""event"",""trial"",""time""
""fullscreenenter"",""1"",""3098""
","
","
","""event"",""trial"",""time""
""fullscreenenter"",""1"",""3098""
","
","","","","","","638.3000001907349","images/goat1.png","","","memory_trial","4","definitely_new",""
"html-keyboard-response","121","317968","0.0-18.0-0.39","5945","approach_avoid_sv1","""event"",""trial"",""time""
""fullscreenenter"",""1"",""3098""
","
","
","""event"",""trial"",""time""
""fullscreenenter"",""1"",""3098""
","
","","","","","","null","<div style=""font-size:60px;"">+</div>","null","","fixation","","",""
"memory-trial","122","320169","0.0-18.0-1.39","5945","approach_avoid_sv1","""event"",""trial"",""time""
""fullscreenenter"",""1"",""3098""
","
","
","""event"",""trial"",""time""
""fullscreenenter"",""1"",""3098""
","
","","","","","","1191.9000000953674","images/sheep6.png","","","memory_trial","4","definitely_new",""
"html-keyboard-response","123","320673","0.0-18.0-0.40","5945","approach_avoid_sv1","""event"",""trial"",""time""
""fullscreenenter"",""1"",""3098""
","
","
","""event"",""trial"",""time""
""fullscreenenter"",""1"",""3098""
","
","","","","","","null","<div style=""font-size:60px;"">+</div>","null","","fixation","","",""
"memory-trial","124","322281","0.0-18.0-1.40","5945","approach_avoid_sv1","""event"",""trial"",""time""
""fullscreenenter"",""1"",""3098""
","
","
","""event"",""trial"",""time""
""fullscreenenter"",""1"",""3098""
","
","","","","","","602.3000001907349","images/sheep4.png","","","memory_trial","4","definitely_new",""
"html-keyboard-response","125","322785","0.0-18.0-0.41","5945","approach_avoid_sv1","""event"",""trial"",""time""
""fullscreenenter"",""1"",""3098""
","
","
","""event"",""trial"",""time""
""fullscreenenter"",""1"",""3098""
","
","","","","","","null","<div style=""font-size:60px;"">+</div>","null","","fixation","","",""
"memory-trial","126","324585","0.0-18.0-1.41","5945","approach_avoid_sv1","""event"",""trial"",""time""
""fullscreenenter"",""1"",""3098""
","
","
","""event"",""trial"",""time""
""fullscreenenter"",""1"",""3098""
","
","","","","","","795.2000002861023","images/boat5.png","","","memory_trial","4","definitely_new",""
"html-button-response","127","329458","0.0-18.0-2.41-0.41","5945","approach_avoid_sv1","""event"",""trial"",""time""
""fullscreenenter"",""1"",""3098""
","
","
","""event"",""trial"",""time""
""fullscreenenter"",""1"",""3098""
","
","","","","","","4872.099999904633","<p> Take a break! </p><p> Click the button to continue. </p>","0","","break","","",""
"html-keyboard-response","128","329961","0.0-18.0-0.42","5945","approach_avoid_sv1","""event"",""trial"",""time""
""fullscreenenter"",""1"",""3098""
","
","
","""event"",""trial"",""time""
""fullscreenenter"",""1"",""3098""
","
","","","","","","null","<div style=""font-size:60px;"">+</div>","null","","fixation","","",""
"memory-trial","129","332145","0.0-18.0-1.42","5945","approach_avoid_sv1","""event"",""trial"",""time""
""fullscreenenter"",""1"",""3098""
","
","
","""event"",""trial"",""time""
""fullscreenenter"",""1"",""3098""
","
","","","","","","1177.4000000953674","images/apple6.png","","","memory_trial","4","definitely_new",""
"html-keyboard-response","130","332662","0.0-18.0-0.43","5945","approach_avoid_sv1","""event"",""trial"",""time""
""fullscreenenter"",""1"",""3098""
","
","
","""event"",""trial"",""time""
""fullscreenenter"",""1"",""3098""
","
","","","","","","null","<div style=""font-size:60px;"">+</div>","null","","fixation","","",""
"memory-trial","131","334602","0.0-18.0-1.43","5945","approach_avoid_sv1","""event"",""trial"",""time""
""fullscreenenter"",""1"",""3098""
","
","
","""event"",""trial"",""time""
""fullscreenenter"",""1"",""3098""
","
","","","","","","933.0999999046326","images/banana1.png","","","memory_trial","4","definitely_new",""
"html-keyboard-response","132","335112","0.0-18.0-0.44","5945","approach_avoid_sv1","""event"",""trial"",""time""
""fullscreenenter"",""1"",""3098""
","
","
","""event"",""trial"",""time""
""fullscreenenter"",""1"",""3098""
","
","","","","","","null","<div style=""font-size:60px;"">+</div>","null","","fixation","","",""
"memory-trial","133","336713","0.0-18.0-1.44","5945","approach_avoid_sv1","""event"",""trial"",""time""
""fullscreenenter"",""1"",""3098""
","
","
","""event"",""trial"",""time""
""fullscreenenter"",""1"",""3098""
","
","","","","","","592.5","images/horse7.png","","","memory_trial","4","definitely_new",""
"html-keyboard-response","134","337217","0.0-18.0-0.45","5945","approach_avoid_sv1","""event"",""trial"",""time""
""fullscreenenter"",""1"",""3098""
","
","
","""event"",""trial"",""time""
""fullscreenenter"",""1"",""3098""
","
","","","","","","null","<div style=""font-size:60px;"">+</div>","null","","fixation","","",""
"memory-trial","135","339841","0.0-18.0-1.45","5945","approach_avoid_sv1","""event"",""trial"",""time""
""fullscreenenter"",""1"",""3098""
","
","
","""event"",""trial"",""time""
""fullscreenenter"",""1"",""3098""
","
","","","","","","1619","images/rabbit5.png","","","memory_trial","1","definitely_old",""
"html-keyboard-response","136","340345","0.0-18.0-0.46","5945","approach_avoid_sv1","""event"",""trial"",""time""
""fullscreenenter"",""1"",""3098""
","
","
","""event"",""trial"",""time""
""fullscreenenter"",""1"",""3098""
","
","","","","","","null","<div style=""font-size:60px;"">+</div>","null","","fixation","","",""
"memory-trial","137","342825","0.0-18.0-1.46","5945","approach_avoid_sv1","""event"",""trial"",""time""
""fullscreenenter"",""1"",""3098""
","
","
","""event"",""trial"",""time""
""fullscreenenter"",""1"",""3098""
","
","","","","","","1473.7000002861023","images/table8.png","","","memory_trial","2","maybe_old",""
"html-keyboard-response","138","343330","0.0-18.0-0.47","5945","approach_avoid_sv1","""event"",""trial"",""time""
""fullscreenenter"",""1"",""3098""
","
","
","""event"",""trial"",""time""
""fullscreenenter"",""1"",""3098""
","
","","","","","","null","<div style=""font-size:60px;"">+</div>","null","","fixation","","",""
"memory-trial","139","345681","0.0-18.0-1.47","5945","approach_avoid_sv1","""event"",""trial"",""time""
""fullscreenenter"",""1"",""3098""
","
","
","""event"",""trial"",""time""
""fullscreenenter"",""1"",""3098""
","
","","","","","","1343.3000001907349","images/horse5.png","","","memory_trial","2","maybe_old",""
"html-keyboard-response","140","346185","0.0-18.0-0.48","5945","approach_avoid_sv1","""event"",""trial"",""time""
""fullscreenenter"",""1"",""3098""
","
","
","""event"",""trial"",""time""
""fullscreenenter"",""1"",""3098""
","
","","","","","","null","<div style=""font-size:60px;"">+</div>","null","","fixation","","",""
"memory-trial","141","348377","0.0-18.0-1.48","5945","approach_avoid_sv1","""event"",""trial"",""time""
""fullscreenenter"",""1"",""3098""
","
","
","""event"",""trial"",""time""
""fullscreenenter"",""1"",""3098""
","
","","","","","","1186.3000001907349","images/cat1.png","","","memory_trial","4","definitely_new",""
"html-keyboard-response","142","348880","0.0-18.0-0.49","5945","approach_avoid_sv1","""event"",""trial"",""time""
""fullscreenenter"",""1"",""3098""
","
","
","""event"",""trial"",""time""
""fullscreenenter"",""1"",""3098""
","
","","","","","","null","<div style=""font-size:60px;"">+</div>","null","","fixation","","",""
"memory-trial","143","351145","0.0-18.0-1.49","5945","approach_avoid_sv1","""event"",""trial"",""time""
""fullscreenenter"",""1"",""3098""
","
","
","""event"",""trial"",""time""
""fullscreenenter"",""1"",""3098""
","
","","","","","","1258.2999997138977","images/horse1.png","","","memory_trial","2","maybe_old",""
"html-keyboard-response","144","351648","0.0-18.0-0.50","5945","approach_avoid_sv1","""event"",""trial"",""time""
""fullscreenenter"",""1"",""3098""
","
","
","""event"",""trial"",""time""
""fullscreenenter"",""1"",""3098""
","
","","","","","","null","<div style=""font-size:60px;"">+</div>","null","","fixation","","",""
"memory-trial","145","354481","0.0-18.0-1.50","5945","approach_avoid_sv1","""event"",""trial"",""time""
""fullscreenenter"",""1"",""3098""
","
","
","""event"",""trial"",""time""
""fullscreenenter"",""1"",""3098""
","
","","","","","","1824","images/cow4.png","","","memory_trial","2","maybe_old",""
"html-keyboard-response","146","354985","0.0-18.0-0.51","5945","approach_avoid_sv1","""event"",""trial"",""time""
""fullscreenenter"",""1"",""3098""
","
","
","""event"",""trial"",""time""
""fullscreenenter"",""1"",""3098""
","
","","","","","","null","<div style=""font-size:60px;"">+</div>","null","","fixation","","",""
"memory-trial","147","358457","0.0-18.0-1.51","5945","approach_avoid_sv1","""event"",""trial"",""time""
""fullscreenenter"",""1"",""3098""
","
","
","""event"",""trial"",""time""
""fullscreenenter"",""1"",""3098""
","
","","","","","","2467.800000190735","images/truck5.png","","","memory_trial","2","maybe_old",""
"html-keyboard-response","148","358961","0.0-18.0-0.52","5945","approach_avoid_sv1","""event"",""trial"",""time""
""fullscreenenter"",""1"",""3098""
","
","
","""event"",""trial"",""time""
""fullscreenenter"",""1"",""3098""
","
","","","","","","null","<div style=""font-size:60px;"">+</div>","null","","fixation","","",""
"memory-trial","149","360889","0.0-18.0-1.52","5945","approach_avoid_sv1","""event"",""trial"",""time""
""fullscreenenter"",""1"",""3098""
","
","
","""event"",""trial"",""time""
""fullscreenenter"",""1"",""3098""
","
","","","","","","919.0999999046326","images/truck4.png","","","memory_trial","1","definitely_old",""
"html-keyboard-response","150","361392","0.0-18.0-0.53","5945","approach_avoid_sv1","""event"",""trial"",""time""
""fullscreenenter"",""1"",""3098""
","
","
","""event"",""trial"",""time""
""fullscreenenter"",""1"",""3098""
","
","","","","","","null","<div style=""font-size:60px;"">+</div>","null","","fixation","","",""
"memory-trial","151","363617","0.0-18.0-1.53","5945","approach_avoid_sv1","""event"",""trial"",""time""
""fullscreenenter"",""1"",""3098""
","
","
","""event"",""trial"",""time""
""fullscreenenter"",""1"",""3098""
","
","","","","","","1215.7999997138977","images/cow3.png","","","memory_trial","2","maybe_old",""
"html-keyboard-response","152","364121","0.0-18.0-0.54","5945","approach_avoid_sv1","""event"",""trial"",""time""
""fullscreenenter"",""1"",""3098""
","
","
","""event"",""trial"",""time""
""fullscreenenter"",""1"",""3098""
","
","","","","","","null","<div style=""font-size:60px;"">+</div>","null","","fixation","","",""
"memory-trial","153","365973","0.0-18.0-1.54","5945","approach_avoid_sv1","""event"",""trial"",""time""
""fullscreenenter"",""1"",""3098""
","
","
","""event"",""trial"",""time""
""fullscreenenter"",""1"",""3098""
","
","","","","","","833.4000000953674","images/rabbit1.png","","","memory_trial","2","maybe_old",""
"html-keyboard-response","154","366481","0.0-18.0-0.55","5945","approach_avoid_sv1","""event"",""trial"",""time""
""fullscreenenter"",""1"",""3098""
","
","
","""event"",""trial"",""time""
""fullscreenenter"",""1"",""3098""
","
","","","","","","null","<div style=""font-size:60px;"">+</div>","null","","fixation","","",""
"memory-trial","155","370490","0.0-18.0-1.55","5945","approach_avoid_sv1","""event"",""trial"",""time""
""fullscreenenter"",""1"",""3098""
","
","
","""event"",""trial"",""time""
""fullscreenenter"",""1"",""3098""
","
","","","","","","3002.9000000953674","images/flower5.png","","","memory_trial","1","definitely_old",""
"html-keyboard-response","156","370994","0.0-18.0-0.56","5945","approach_avoid_sv1","""event"",""trial"",""time""
""fullscreenenter"",""1"",""3098""
","
","
","""event"",""trial"",""time""
""fullscreenenter"",""1"",""3098""
","
","","","","","","null","<div style=""font-size:60px;"">+</div>","null","","fixation","","",""
"memory-trial","157","374786","0.0-18.0-1.56","5945","approach_avoid_sv1","""event"",""trial"",""time""
""fullscreenenter"",""1"",""3098""
","
","
","""event"",""trial"",""time""
""fullscreenenter"",""1"",""3098""
","
","","","","","","2784.800000190735","images/cow6.png","","","memory_trial","2","maybe_old",""
"html-keyboard-response","158","375290","0.0-18.0-0.57","5945","approach_avoid_sv1","""event"",""trial"",""time""
""fullscreenenter"",""1"",""3098""
","
","
","""event"",""trial"",""time""
""fullscreenenter"",""1"",""3098""
","
","","","","","","null","<div style=""font-size:60px;"">+</div>","null","","fixation","","",""
"memory-trial","159","377849","0.0-18.0-1.57","5945","approach_avoid_sv1","""event"",""trial"",""time""
""fullscreenenter"",""1"",""3098""
","
","
","""event"",""trial"",""time""
""fullscreenenter"",""1"",""3098""
","
","","","","","","1552.7999997138977","images/rodent4.png","","","memory_trial","1","definitely_old",""
"html-keyboard-response","160","378353","0.0-18.0-0.58","5945","approach_avoid_sv1","""event"",""trial"",""time""
""fullscreenenter"",""1"",""3098""
","
","
","""event"",""trial"",""time""
""fullscreenenter"",""1"",""3098""
","
","","","","","","null","<div style=""font-size:60px;"">+</div>","null","","fixation","","",""
"memory-trial","161","380537","0.0-18.0-1.58","5945","approach_avoid_sv1","""event"",""trial"",""time""
""fullscreenenter"",""1"",""3098""
","
","
","""event"",""trial"",""time""
""fullscreenenter"",""1"",""3098""
","
","","","","","","1175.7999997138977","images/tree8.png","","","memory_trial","1","definitely_old",""
"html-keyboard-response","162","381041","0.0-18.0-0.59","5945","approach_avoid_sv1","""event"",""trial"",""time""
""fullscreenenter"",""1"",""3098""
","
","
","""event"",""trial"",""time""
""fullscreenenter"",""1"",""3098""
","
","","","","","","null","<div style=""font-size:60px;"">+</div>","null","","fixation","","",""
"memory-trial","163","384065","0.0-18.0-1.59","5945","approach_avoid_sv1","""event"",""trial"",""time""
""fullscreenenter"",""1"",""3098""
","
","
","""event"",""trial"",""time""
""fullscreenenter"",""1"",""3098""
","
","","","","","","2016.6000003814697","images/table4.png","","","memory_trial","1","definitely_old",""
"html-keyboard-response","164","384569","0.0-18.0-0.60","5945","approach_avoid_sv1","""event"",""trial"",""time""
""fullscreenenter"",""1"",""3098""
","
","
","""event"",""trial"",""time""
""fullscreenenter"",""1"",""3098""
","
","","","","","","null","<div style=""font-size:60px;"">+</div>","null","","fixation","","",""
"memory-trial","165","386674","0.0-18.0-1.60","5945","approach_avoid_sv1","""event"",""trial"",""time""
""fullscreenenter"",""1"",""3098""
","
","
","""event"",""trial"",""time""
""fullscreenenter"",""1"",""3098""
","
","","","","","","1097","images/goat3.png","","","memory_trial","4","definitely_new",""
"html-keyboard-response","166","387177","0.0-18.0-0.61","5945","approach_avoid_sv1","""event"",""trial"",""time""
""fullscreenenter"",""1"",""3098""
","
","
","""event"",""trial"",""time""
""fullscreenenter"",""1"",""3098""
","
","","","","","","null","<div style=""font-size:60px;"">+</div>","null","","fixation","","",""
"memory-trial","167","389545","0.0-18.0-1.61","5945","approach_avoid_sv1","""event"",""trial"",""time""
""fullscreenenter"",""1"",""3098""
","
","
","""event"",""trial"",""time""
""fullscreenenter"",""1"",""3098""
","
","","","","","","1360.1000003814697","images/apple8.png","","","memory_trial","4","definitely_new",""
"html-keyboard-response","168","390049","0.0-18.0-0.62","5945","approach_avoid_sv1","""event"",""trial"",""time""
""fullscreenenter"",""1"",""3098""
","
","
","""event"",""trial"",""time""
""fullscreenenter"",""1"",""3098""
","
","","","","","","null","<div style=""font-size:60px;"">+</div>","null","","fixation","","",""
"memory-trial","169","392122","0.0-18.0-1.62","5945","approach_avoid_sv1","""event"",""trial"",""time""
""fullscreenenter"",""1"",""3098""
","
","
","""event"",""trial"",""time""
""fullscreenenter"",""1"",""3098""
","
","","","","","","1063","images/rabbit3.png","","","memory_trial","1","definitely_old",""
"html-keyboard-response","170","392626","0.0-18.0-0.63","5945","approach_avoid_sv1","""event"",""trial"",""time""
""fullscreenenter"",""1"",""3098""
","
","
","""event"",""trial"",""time""
""fullscreenenter"",""1"",""3098""
","
","","","","","","null","<div style=""font-size:60px;"">+</div>","null","","fixation","","",""
"memory-trial","171","394969","0.0-18.0-1.63","5945","approach_avoid_sv1","""event"",""trial"",""time""
""fullscreenenter"",""1"",""3098""
","
","
","""event"",""trial"",""time""
""fullscreenenter"",""1"",""3098""
","
","","","","","","1336.5999999046326","images/apple5.png","","","memory_trial","4","definitely_new",""
"html-keyboard-response","172","395474","0.0-18.0-0.64","5945","approach_avoid_sv1","""event"",""trial"",""time""
""fullscreenenter"",""1"",""3098""
","
","
","""event"",""trial"",""time""
""fullscreenenter"",""1"",""3098""
","
","","","","","","null","<div style=""font-size:60px;"">+</div>","null","","fixation","","",""
"memory-trial","173","397561","0.0-18.0-1.64","5945","approach_avoid_sv1","""event"",""trial"",""time""
""fullscreenenter"",""1"",""3098""
","
","
","""event"",""trial"",""time""
""fullscreenenter"",""1"",""3098""
","
","","","","","","1082.0999999046326","images/bed8.png","","","memory_trial","1","definitely_old",""
"html-keyboard-response","174","398066","0.0-18.0-0.65","5945","approach_avoid_sv1","""event"",""trial"",""time""
""fullscreenenter"",""1"",""3098""
","
","
","""event"",""trial"",""time""
""fullscreenenter"",""1"",""3098""
","
","","","","","","null","<div style=""font-size:60px;"">+</div>","null","","fixation","","",""
"memory-trial","175","400066","0.0-18.0-1.65","5945","approach_avoid_sv1","""event"",""trial"",""time""
""fullscreenenter"",""1"",""3098""
","
","
","""event"",""trial"",""time""
""fullscreenenter"",""1"",""3098""
","
","","","","","","992.3999996185303","images/train4.png","","","memory_trial","4","definitely_new",""
"html-keyboard-response","176","400570","0.0-18.0-0.66","5945","approach_avoid_sv1","""event"",""trial"",""time""
""fullscreenenter"",""1"",""3098""
","
","
","""event"",""trial"",""time""
""fullscreenenter"",""1"",""3098""
","
","","","","","","null","<div style=""font-size:60px;"">+</div>","null","","fixation","","",""
"memory-trial","177","403842","0.0-18.0-1.66","5945","approach_avoid_sv1","""event"",""trial"",""time""
""fullscreenenter"",""1"",""3098""
","
","
","""event"",""trial"",""time""
""fullscreenenter"",""1"",""3098""
","
","","","","","","2264.4000000953674","images/table5.png","","","memory_trial","3","maybe_new",""
"html-keyboard-response","178","404346","0.0-18.0-0.67","5945","approach_avoid_sv1","""event"",""trial"",""time""
""fullscreenenter"",""1"",""3098""
","
","
","""event"",""trial"",""time""
""fullscreenenter"",""1"",""3098""
","
","","","","","","null","<div style=""font-size:60px;"">+</div>","null","","fixation","","",""
"memory-trial","179","407065","0.0-18.0-1.67","5945","approach_avoid_sv1","""event"",""trial"",""time""
""fullscreenenter"",""1"",""3098""
","
","
","""event"",""trial"",""time""
""fullscreenenter"",""1"",""3098""
","
","","","","","","1715.2000002861023","images/sofa3.png","","","memory_trial","3","maybe_new",""
"html-keyboard-response","180","407569","0.0-18.0-0.68","5945","approach_avoid_sv1","""event"",""trial"",""time""
""fullscreenenter"",""1"",""3098""
","
","
","""event"",""trial"",""time""
""fullscreenenter"",""1"",""3098""
","
","","","","","","null","<div style=""font-size:60px;"">+</div>","null","","fixation","","",""
"memory-trial","181","412185","0.0-18.0-1.68","5945","approach_avoid_sv1","""event"",""trial"",""time""
""fullscreenenter"",""1"",""3098""
","
","
","""event"",""trial"",""time""
""fullscreenenter"",""1"",""3098""
","
","","","","","","3608.0999999046326","images/orange1.png","","","memory_trial","2","maybe_old",""
"html-keyboard-response","182","412690","0.0-18.0-0.69","5945","approach_avoid_sv1","""event"",""trial"",""time""
""fullscreenenter"",""1"",""3098""
","
","
","""event"",""trial"",""time""
""fullscreenenter"",""1"",""3098""
","
","","","","","","null","<div style=""font-size:60px;"">+</div>","null","","fixation","","",""
"memory-trial","183","414905","0.0-18.0-1.69","5945","approach_avoid_sv1","""event"",""trial"",""time""
""fullscreenenter"",""1"",""3098""
","
","
","""event"",""trial"",""time""
""fullscreenenter"",""1"",""3098""
","
","","","","","","1208.2999997138977","images/orange6.png","","","memory_trial","2","maybe_old",""
"html-keyboard-response","184","415409","0.0-18.0-0.70","5945","approach_avoid_sv1","""event"",""trial"",""time""
""fullscreenenter"",""1"",""3098""
","
","
","""event"",""trial"",""time""
""fullscreenenter"",""1"",""3098""
","
","","","","","","null","<div style=""font-size:60px;"">+</div>","null","","fixation","","",""
"memory-trial","185","418673","0.0-18.0-1.70","5945","approach_avoid_sv1","""event"",""trial"",""time""
""fullscreenenter"",""1"",""3098""
","
","
","""event"",""trial"",""time""
""fullscreenenter"",""1"",""3098""
","
","","","","","","2255.7999997138977","images/cow2.png","","","memory_trial","1","definitely_old",""
"html-keyboard-response","186","419177","0.0-18.0-0.71","5945","approach_avoid_sv1","""event"",""trial"",""time""
""fullscreenenter"",""1"",""3098""
","
","
","""event"",""trial"",""time""
""fullscreenenter"",""1"",""3098""
","
","","","","","","null","<div style=""font-size:60px;"">+</div>","null","","fixation","","",""
"memory-trial","187","421018","0.0-18.0-1.71","5945","approach_avoid_sv1","""event"",""trial"",""time""
""fullscreenenter"",""1"",""3098""
","
","
","""event"",""trial"",""time""
""fullscreenenter"",""1"",""3098""
","
","","","","","","832.9000000953674","images/goat2.png","","","memory_trial","4","definitely_new",""
"html-keyboard-response","188","421522","0.0-18.0-0.72","5945","approach_avoid_sv1","""event"",""trial"",""time""
""fullscreenenter"",""1"",""3098""
","
","
","""event"",""trial"",""time""
""fullscreenenter"",""1"",""3098""
","
","","","","","","null","<div style=""font-size:60px;"">+</div>","null","","fixation","","",""
"memory-trial","189","424617","0.0-18.0-1.72","5945","approach_avoid_sv1","""event"",""trial"",""time""
""fullscreenenter"",""1"",""3098""
","
","
","""event"",""trial"",""time""
""fullscreenenter"",""1"",""3098""
","
","","","","","","2088.699999809265","images/cow8.png","","","memory_trial","3","maybe_new",""
"html-keyboard-response","190","425121","0.0-18.0-0.73","5945","approach_avoid_sv1","""event"",""trial"",""time""
""fullscreenenter"",""1"",""3098""
","
","
","""event"",""trial"",""time""
""fullscreenenter"",""1"",""3098""
","
","","","","","","null","<div style=""font-size:60px;"">+</div>","null","","fixation","","",""
"memory-trial","191","427586","0.0-18.0-1.73","5945","approach_avoid_sv1","""event"",""trial"",""time""
""fullscreenenter"",""1"",""3098""
","
","
","""event"",""trial"",""time""
""fullscreenenter"",""1"",""3098""
","
","","","","","","1455.8000001907349","images/flower4.png","","","memory_trial","4","definitely_new",""
"html-keyboard-response","192","428089","0.0-18.0-0.74","5945","approach_avoid_sv1","""event"",""trial"",""time""
""fullscreenenter"",""1"",""3098""
","
","
","""event"",""trial"",""time""
""fullscreenenter"",""1"",""3098""
","
","","","","","","null","<div style=""font-size:60px;"">+</div>","null","","fixation","","",""
"memory-trial","193","429938","0.0-18.0-1.74","5945","approach_avoid_sv1","""event"",""trial"",""time""
""fullscreenenter"",""1"",""3098""
","
","
","""event"",""trial"",""time""
""fullscreenenter"",""1"",""3098""
","
","","","","","","839.1999998092651","images/orange3.png","","","memory_trial","1","definitely_old",""
"html-keyboard-response","194","430441","0.0-18.0-0.75","5945","approach_avoid_sv1","""event"",""trial"",""time""
""fullscreenenter"",""1"",""3098""
","
","
","""event"",""trial"",""time""
""fullscreenenter"",""1"",""3098""
","
","","","","","","null","<div style=""font-size:60px;"">+</div>","null","","fixation","","",""
"memory-trial","195","434537","0.0-18.0-1.75","5945","approach_avoid_sv1","""event"",""trial"",""time""
""fullscreenenter"",""1"",""3098""
","
","
","""event"",""trial"",""time""
""fullscreenenter"",""1"",""3098""
","
","","","","","","3089.0999999046326","images/sofa4.png","","","memory_trial","4","definitely_new",""
"html-keyboard-response","196","435040","0.0-18.0-0.76","5945","approach_avoid_sv1","""event"",""trial"",""time""
""fullscreenenter"",""1"",""3098""
","
","
","""event"",""trial"",""time""
""fullscreenenter"",""1"",""3098""
","
","","","","","","null","<div style=""font-size:60px;"">+</div>","null","","fixation","","",""
"memory-trial","197","437696","0.0-18.0-1.76","5945","approach_avoid_sv1","""event"",""trial"",""time""
""fullscreenenter"",""1"",""3098""
","
","
","""event"",""trial"",""time""
""fullscreenenter"",""1"",""3098""
","
","","","","","","1648","images/horse3.png","","","memory_trial","2","maybe_old",""
"html-keyboard-response","198","438201","0.0-18.0-0.77","5945","approach_avoid_sv1","""event"",""trial"",""time""
""fullscreenenter"",""1"",""3098""
","
","
","""event"",""trial"",""time""
""fullscreenenter"",""1"",""3098""
","
","","","","","","null","<div style=""font-size:60px;"">+</div>","null","","fixation","","",""
"memory-trial","199","440872","0.0-18.0-1.77","5945","approach_avoid_sv1","""event"",""trial"",""time""
""fullscreenenter"",""1"",""3098""
","
","
","""event"",""trial"",""time""
""fullscreenenter"",""1"",""3098""
","
","","","","","","1663.1999998092651","images/dog7.png","","","memory_trial","1","definitely_old",""
"html-keyboard-response","200","441377","0.0-18.0-0.78","5945","approach_avoid_sv1","""event"",""trial"",""time""
""fullscreenenter"",""1"",""3098""
","
","
","""event"",""trial"",""time""
""fullscreenenter"",""1"",""3098""
","
","","","","","","null","<div style=""font-size:60px;"">+</div>","null","","fixation","","",""
"memory-trial","201","444722","0.0-18.0-1.78","5945","approach_avoid_sv1","""event"",""trial"",""time""
""fullscreenenter"",""1"",""3098""
","
","
","""event"",""trial"",""time""
""fullscreenenter"",""1"",""3098""
","
","","","","","","2337","images/bush3.png","","","memory_trial","3","maybe_new",""
"html-keyboard-response","202","445225","0.0-18.0-0.79","5945","approach_avoid_sv1","""event"",""trial"",""time""
""fullscreenenter"",""1"",""3098""
","
","
","""event"",""trial"",""time""
""fullscreenenter"",""1"",""3098""
","
","","","","","","null","<div style=""font-size:60px;"">+</div>","null","","fixation","","",""
"memory-trial","203","447905","0.0-18.0-1.79","5945","approach_avoid_sv1","""event"",""trial"",""time""
""fullscreenenter"",""1"",""3098""
","
","
","""event"",""trial"",""time""
""fullscreenenter"",""1"",""3098""
","
","","","","","","1674.8000001907349","images/straw4.png","","","memory_trial","1","definitely_old",""
"html-keyboard-response","204","448409","0.0-18.0-0.80","5945","approach_avoid_sv1","""event"",""trial"",""time""
""fullscreenenter"",""1"",""3098""
","
","
","""event"",""trial"",""time""
""fullscreenenter"",""1"",""3098""
","
","","","","","","null","<div style=""font-size:60px;"">+</div>","null","","fixation","","",""
"memory-trial","205","453745","0.0-18.0-1.80","5945","approach_avoid_sv1","""event"",""trial"",""time""
""fullscreenenter"",""1"",""3098""
","
","
","""event"",""trial"",""time""
""fullscreenenter"",""1"",""3098""
","
","","","","","","4327.199999809265","images/rabbit6.png","","","memory_trial","4","definitely_new",""
"html-keyboard-response","206","454250","0.0-18.0-0.81","5945","approach_avoid_sv1","""event"",""trial"",""time""
""fullscreenenter"",""1"",""3098""
","
","
","""event"",""trial"",""time""
""fullscreenenter"",""1"",""3098""
","
","","","","","","null","<div style=""font-size:60px;"">+</div>","null","","fixation","","",""
"memory-trial","207","456841","0.0-18.0-1.81","5945","approach_avoid_sv1","""event"",""trial"",""time""
""fullscreenenter"",""1"",""3098""
","
","
","""event"",""trial"",""time""
""fullscreenenter"",""1"",""3098""
","
","","","","","","1583.4000000953674","images/train8.png","","","memory_trial","3","maybe_new",""
"html-keyboard-response","208","457346","0.0-18.0-0.82","5945","approach_avoid_sv1","""event"",""trial"",""time""
""fullscreenenter"",""1"",""3098""
","
","
","""event"",""trial"",""time""
""fullscreenenter"",""1"",""3098""
","
","","","","","","null","<div style=""font-size:60px;"">+</div>","null","","fixation","","",""
"memory-trial","209","460305","0.0-18.0-1.82","5945","approach_avoid_sv1","""event"",""trial"",""time""
""fullscreenenter"",""1"",""3098""
","
","
","""event"",""trial"",""time""
""fullscreenenter"",""1"",""3098""
","
","","","","","","1954","images/straw7.png","","","memory_trial","2","maybe_old",""
"html-keyboard-response","210","460809","0.0-18.0-0.83","5945","approach_avoid_sv1","""event"",""trial"",""time""
""fullscreenenter"",""1"",""3098""
","
","
","""event"",""trial"",""time""
""fullscreenenter"",""1"",""3098""
","
","","","","","","null","<div style=""font-size:60px;"">+</div>","null","","fixation","","",""
"memory-trial","211","463369","0.0-18.0-1.83","5945","approach_avoid_sv1","""event"",""trial"",""time""
""fullscreenenter"",""1"",""3098""
","
","
","""event"",""trial"",""time""
""fullscreenenter"",""1"",""3098""
","
","","","","","","1554.5999999046326","images/sofa6.png","","","memory_trial","2","maybe_old",""
"html-keyboard-response","212","463873","0.0-18.0-0.84","5945","approach_avoid_sv1","""event"",""trial"",""time""
""fullscreenenter"",""1"",""3098""
","
","
","""event"",""trial"",""time""
""fullscreenenter"",""1"",""3098""
","
","","","","","","null","<div style=""font-size:60px;"">+</div>","null","","fixation","","",""
"memory-trial","213","466561","0.0-18.0-1.84","5945","approach_avoid_sv1","""event"",""trial"",""time""
""fullscreenenter"",""1"",""3098""
","
","
","""event"",""trial"",""time""
""fullscreenenter"",""1"",""3098""
","
","","","","","","1682.5999999046326","images/banana3.png","","","memory_trial","4","definitely_new",""
"html-keyboard-response","214","467064","0.0-18.0-0.85","5945","approach_avoid_sv1","""event"",""trial"",""time""
""fullscreenenter"",""1"",""3098""
","
","
","""event"",""trial"",""time""
""fullscreenenter"",""1"",""3098""
","
","","","","","","null","<div style=""font-size:60px;"">+</div>","null","","fixation","","",""
"memory-trial","215","470800","0.0-18.0-1.85","5945","approach_avoid_sv1","""event"",""trial"",""time""
""fullscreenenter"",""1"",""3098""
","
","
","""event"",""trial"",""time""
""fullscreenenter"",""1"",""3098""
","
","","","","","","2729","images/bush4.png","","","memory_trial","4","definitely_new",""
"html-keyboard-response","216","471305","0.0-18.0-0.86","5945","approach_avoid_sv1","""event"",""trial"",""time""
""fullscreenenter"",""1"",""3098""
","
","
","""event"",""trial"",""time""
""fullscreenenter"",""1"",""3098""
","
","","","","","","null","<div style=""font-size:60px;"">+</div>","null","","fixation","","",""
"memory-trial","217","474233","0.0-18.0-1.86","5945","approach_avoid_sv1","""event"",""trial"",""time""
""fullscreenenter"",""1"",""3098""
","
","
","""event"",""trial"",""time""
""fullscreenenter"",""1"",""3098""
","
","","","","","","1918.9000000953674","images/rabbit8.png","","","memory_trial","2","maybe_old",""
"html-keyboard-response","218","474736","0.0-18.0-0.87","5945","approach_avoid_sv1","""event"",""trial"",""time""
""fullscreenenter"",""1"",""3098""
","
","
","""event"",""trial"",""time""
""fullscreenenter"",""1"",""3098""
","
","","","","","","null","<div style=""font-size:60px;"">+</div>","null","","fixation","","",""
"memory-trial","219","477232","0.0-18.0-1.87","5945","approach_avoid_sv1","""event"",""trial"",""time""
""fullscreenenter"",""1"",""3098""
","
","
","""event"",""trial"",""time""
""fullscreenenter"",""1"",""3098""
","
","","","","","","1490.6999998092651","images/chair5.png","","","memory_trial","1","definitely_old",""
"html-keyboard-response","220","477738","0.0-18.0-0.88","5945","approach_avoid_sv1","""event"",""trial"",""time""
""fullscreenenter"",""1"",""3098""
","
","
","""event"",""trial"",""time""
""fullscreenenter"",""1"",""3098""
","
","","","","","","null","<div style=""font-size:60px;"">+</div>","null","","fixation","","",""
"memory-trial","221","481537","0.0-18.0-1.88","5945","approach_avoid_sv1","""event"",""trial"",""time""
""fullscreenenter"",""1"",""3098""
","
","
","""event"",""trial"",""time""
""fullscreenenter"",""1"",""3098""
","
","","","","","","2793","images/tree5.png","","","memory_trial","1","definitely_old",""
"html-keyboard-response","222","482041","0.0-18.0-0.89","5945","approach_avoid_sv1","""event"",""trial"",""time""
""fullscreenenter"",""1"",""3098""
","
","
","""event"",""trial"",""time""
""fullscreenenter"",""1"",""3098""
","
","","","","","","null","<div style=""font-size:60px;"">+</div>","null","","fixation","","",""
"memory-trial","223","484249","0.0-18.0-1.89","5945","approach_avoid_sv1","""event"",""trial"",""time""
""fullscreenenter"",""1"",""3098""
","
","
","""event"",""trial"",""time""
""fullscreenenter"",""1"",""3098""
","
","","","","","","1201.6000003814697","images/dog8.png","","","memory_trial","2","maybe_old",""
"html-keyboard-response","224","484764","0.0-18.0-0.90","5945","approach_avoid_sv1","""event"",""trial"",""time""
""fullscreenenter"",""1"",""3098""
","
","
","""event"",""trial"",""time""
""fullscreenenter"",""1"",""3098""
","
","","","","","","null","<div style=""font-size:60px;"">+</div>","null","","fixation","","",""
"memory-trial","225","486697","0.0-18.0-1.90","5945","approach_avoid_sv1","""event"",""trial"",""time""
""fullscreenenter"",""1"",""3098""
","
","
","""event"",""trial"",""time""
""fullscreenenter"",""1"",""3098""
","
","","","","","","923.6999998092651","images/cactus1.png","","","memory_trial","1","definitely_old",""
"html-keyboard-response","226","487201","0.0-18.0-0.91","5945","approach_avoid_sv1","""event"",""trial"",""time""
""fullscreenenter"",""1"",""3098""
","
","
","""event"",""trial"",""time""
""fullscreenenter"",""1"",""3098""
","
","","","","","","null","<div style=""font-size:60px;"">+</div>","null","","fixation","","",""
"memory-trial","227","489162","0.0-18.0-1.91","5945","approach_avoid_sv1","""event"",""trial"",""time""
""fullscreenenter"",""1"",""3098""
","
","
","""event"",""trial"",""time""
""fullscreenenter"",""1"",""3098""
","
","","","","","","954.1999998092651","images/sofa2.png","","","memory_trial","3","maybe_new",""
"html-button-response","228","492105","0.0-18.0-2.91-0.91","5945","approach_avoid_sv1","""event"",""trial"",""time""
""fullscreenenter"",""1"",""3098""
","
","
","""event"",""trial"",""time""
""fullscreenenter"",""1"",""3098""
","
","","","","","","2942.2000002861023","<p> Take a break! </p><p> Click the button to continue. </p>","0","","break","","",""
"html-keyboard-response","229","492609","0.0-18.0-0.92","5945","approach_avoid_sv1","""event"",""trial"",""time""
""fullscreenenter"",""1"",""3098""
","
","
","""event"",""trial"",""time""
""fullscreenenter"",""1"",""3098""
","
","","","","","","null","<div style=""font-size:60px;"">+</div>","null","","fixation","","",""
"memory-trial","230","494634","0.0-18.0-1.92","5945","approach_avoid_sv1","""event"",""trial"",""time""
""fullscreenenter"",""1"",""3098""
","
","
","""event"",""trial"",""time""
""fullscreenenter"",""1"",""3098""
","
","","","","","","1013.7000002861023","images/sheep5.png","","","memory_trial","4","definitely_new",""
"html-keyboard-response","231","495137","0.0-18.0-0.93","5945","approach_avoid_sv1","""event"",""trial"",""time""
""fullscreenenter"",""1"",""3098""
","
","
","""event"",""trial"",""time""
""fullscreenenter"",""1"",""3098""
","
","","","","","","null","<div style=""font-size:60px;"">+</div>","null","","fixation","","",""
"memory-trial","232","497233","0.0-18.0-1.93","5945","approach_avoid_sv1","""event"",""trial"",""time""
""fullscreenenter"",""1"",""3098""
","
","
","""event"",""trial"",""time""
""fullscreenenter"",""1"",""3098""
","
","","","","","","1086","images/banana8.png","","","memory_trial","4","definitely_new",""
"html-keyboard-response","233","497737","0.0-18.0-0.94","5945","approach_avoid_sv1","""event"",""trial"",""time""
""fullscreenenter"",""1"",""3098""
","
","
","""event"",""trial"",""time""
""fullscreenenter"",""1"",""3098""
","
","","","","","","null","<div style=""font-size:60px;"">+</div>","null","","fixation","","",""
"memory-trial","234","499593","0.0-18.0-1.94","5945","approach_avoid_sv1","""event"",""trial"",""time""
""fullscreenenter"",""1"",""3098""
","
","
","""event"",""trial"",""time""
""fullscreenenter"",""1"",""3098""
","
","","","","","","847.0999999046326","images/goat6.png","","","memory_trial","4","definitely_new",""
"html-keyboard-response","235","500097","0.0-18.0-0.95","5945","approach_avoid_sv1","""event"",""trial"",""time""
""fullscreenenter"",""1"",""3098""
","
","
","""event"",""trial"",""time""
""fullscreenenter"",""1"",""3098""
","
","","","","","","null","<div style=""font-size:60px;"">+</div>","null","","fixation","","",""
"memory-trial","236","501922","0.0-18.0-1.95","5945","approach_avoid_sv1","""event"",""trial"",""time""
""fullscreenenter"",""1"",""3098""
","
","
","""event"",""trial"",""time""
""fullscreenenter"",""1"",""3098""
","
","","","","","","815.4000000953674","images/chair3.png","","","memory_trial","1","definitely_old",""
"html-keyboard-response","237","502425","0.0-18.0-0.96","5945","approach_avoid_sv1","""event"",""trial"",""time""
""fullscreenenter"",""1"",""3098""
","
","
","""event"",""trial"",""time""
""fullscreenenter"",""1"",""3098""
","
","","","","","","null","<div style=""font-size:60px;"">+</div>","null","","fixation","","",""
"memory-trial","238","504185","0.0-18.0-1.96","5945","approach_avoid_sv1","""event"",""trial"",""time""
""fullscreenenter"",""1"",""3098""
","
","
","""event"",""trial"",""time""
""fullscreenenter"",""1"",""3098""
","
","","","","","","751.8000001907349","images/tree7.png","","","memory_trial","1","definitely_old",""
"html-keyboard-response","239","504689","0.0-18.0-0.97","5945","approach_avoid_sv1","""event"",""trial"",""time""
""fullscreenenter"",""1"",""3098""
","
","
","""event"",""trial"",""time""
""fullscreenenter"",""1"",""3098""
","
","","","","","","null","<div style=""font-size:60px;"">+</div>","null","","fixation","","",""
"memory-trial","240","506457","0.0-18.0-1.97","5945","approach_avoid_sv1","""event"",""trial"",""time""
""fullscreenenter"",""1"",""3098""
","
","
","""event"",""trial"",""time""
""fullscreenenter"",""1"",""3098""
","
","","","","","","760.0999999046326","images/apple3.png","","","memory_trial","4","definitely_new",""
"html-keyboard-response","241","506961","0.0-18.0-0.98","5945","approach_avoid_sv1","""event"",""trial"",""time""
""fullscreenenter"",""1"",""3098""
","
","
","""event"",""trial"",""time""
""fullscreenenter"",""1"",""3098""
","
","","","","","","null","<div style=""font-size:60px;"">+</div>","null","","fixation","","",""
"memory-trial","242","509165","0.0-18.0-1.98","5945","approach_avoid_sv1","""event"",""trial"",""time""
""fullscreenenter"",""1"",""3098""
","
","
","""event"",""trial"",""time""
""fullscreenenter"",""1"",""3098""
","
","","","","","","1183.3000001907349","images/orange7.png","","","memory_trial","4","definitely_new",""
"html-keyboard-response","243","509673","0.0-18.0-0.99","5945","approach_avoid_sv1","""event"",""trial"",""time""
""fullscreenenter"",""1"",""3098""
","
","
","""event"",""trial"",""time""
""fullscreenenter"",""1"",""3098""
","
","","","","","","null","<div style=""font-size:60px;"">+</div>","null","","fixation","","",""
"memory-trial","244","512105","0.0-18.0-1.99","5945","approach_avoid_sv1","""event"",""trial"",""time""
""fullscreenenter"",""1"",""3098""
","
","
","""event"",""trial"",""time""
""fullscreenenter"",""1"",""3098""
","
","","","","","","1423.9000000953674","images/truck1.png","","","memory_trial","4","definitely_new",""
"html-keyboard-response","245","512609","0.0-18.0-0.100","5945","approach_avoid_sv1","""event"",""trial"",""time""
""fullscreenenter"",""1"",""3098""
","
","
","""event"",""trial"",""time""
""fullscreenenter"",""1"",""3098""
","
","","","","","","null","<div style=""font-size:60px;"">+</div>","null","","fixation","","",""
"memory-trial","246","514249","0.0-18.0-1.100","5945","approach_avoid_sv1","""event"",""trial"",""time""
""fullscreenenter"",""1"",""3098""
","
","
","""event"",""trial"",""time""
""fullscreenenter"",""1"",""3098""
","
","","","","","","632.2999997138977","images/bush8.png","","","memory_trial","4","definitely_new",""
"html-keyboard-response","247","514753","0.0-18.0-0.101","5945","approach_avoid_sv1","""event"",""trial"",""time""
""fullscreenenter"",""1"",""3098""
","
","
","""event"",""trial"",""time""
""fullscreenenter"",""1"",""3098""
","
","","","","","","null","<div style=""font-size:60px;"">+</div>","null","","fixation","","",""
"memory-trial","248","516650","0.0-18.0-1.101","5945","approach_avoid_sv1","""event"",""trial"",""time""
""fullscreenenter"",""1"",""3098""
","
","
","""event"",""trial"",""time""
""fullscreenenter"",""1"",""3098""
","
","","","","","","888.5","images/cactus8.png","","","memory_trial","4","definitely_new",""
"html-keyboard-response","249","517153","0.0-18.0-0.102","5945","approach_avoid_sv1","""event"",""trial"",""time""
""fullscreenenter"",""1"",""3098""
","
","
","""event"",""trial"",""time""
""fullscreenenter"",""1"",""3098""
","
","","","","","","null","<div style=""font-size:60px;"">+</div>","null","","fixation","","",""
"memory-trial","250","519474","0.0-18.0-1.102","5945","approach_avoid_sv1","""event"",""trial"",""time""
""fullscreenenter"",""1"",""3098""
","
","
","""event"",""trial"",""time""
""fullscreenenter"",""1"",""3098""
","
","","","","","","1314.5999999046326","images/train6.png","","","memory_trial","1","definitely_old",""
"html-keyboard-response","251","519976","0.0-18.0-0.103","5945","approach_avoid_sv1","""event"",""trial"",""time""
""fullscreenenter"",""1"",""3098""
","
","
","""event"",""trial"",""time""
""fullscreenenter"",""1"",""3098""
","
","","","","","","null","<div style=""font-size:60px;"">+</div>","null","","fixation","","",""
"memory-trial","252","523209","0.0-18.0-1.103","5945","approach_avoid_sv1","""event"",""trial"",""time""
""fullscreenenter"",""1"",""3098""
","
","
","""event"",""trial"",""time""
""fullscreenenter"",""1"",""3098""
","
","","","","","","2226.0999999046326","images/tree1.png","","","memory_trial","2","maybe_old",""
"html-keyboard-response","253","523713","0.0-18.0-0.104","5945","approach_avoid_sv1","""event"",""trial"",""time""
""fullscreenenter"",""1"",""3098""
","
","
","""event"",""trial"",""time""
""fullscreenenter"",""1"",""3098""
","
","","","","","","null","<div style=""font-size:60px;"">+</div>","null","","fixation","","",""
"memory-trial","254","527161","0.0-18.0-1.104","5945","approach_avoid_sv1","""event"",""trial"",""time""
""fullscreenenter"",""1"",""3098""
","
","
","""event"",""trial"",""time""
""fullscreenenter"",""1"",""3098""
","
","","","","","","2439.2999997138977","images/tree4.png","","","memory_trial","1","definitely_old",""
"html-keyboard-response","255","527665","0.0-18.0-0.105","5945","approach_avoid_sv1","""event"",""trial"",""time""
""fullscreenenter"",""1"",""3098""
","
","
","""event"",""trial"",""time""
""fullscreenenter"",""1"",""3098""
","
","","","","","","null","<div style=""font-size:60px;"">+</div>","null","","fixation","","",""
"memory-trial","256","529473","0.0-18.0-1.105","5945","approach_avoid_sv1","""event"",""trial"",""time""
""fullscreenenter"",""1"",""3098""
","
","
","""event"",""trial"",""time""
""fullscreenenter"",""1"",""3098""
","
","","","","","","801.3999996185303","images/goat4.png","","","memory_trial","4","definitely_new",""
"html-keyboard-response","257","529977","0.0-18.0-0.106","5945","approach_avoid_sv1","""event"",""trial"",""time""
""fullscreenenter"",""1"",""3098""
","
","
","""event"",""trial"",""time""
""fullscreenenter"",""1"",""3098""
","
","","","","","","null","<div style=""font-size:60px;"">+</div>","null","","fixation","","",""
"memory-trial","258","532017","0.0-18.0-1.106","5945","approach_avoid_sv1","""event"",""trial"",""time""
""fullscreenenter"",""1"",""3098""
","
","
","""event"",""trial"",""time""
""fullscreenenter"",""1"",""3098""
","
","","","","","","1034.5999999046326","images/bed7.png","","","memory_trial","1","definitely_old",""
"html-keyboard-response","259","532522","0.0-18.0-0.107","5945","approach_avoid_sv1","""event"",""trial"",""time""
""fullscreenenter"",""1"",""3098""
","
","
","""event"",""trial"",""time""
""fullscreenenter"",""1"",""3098""
","
","","","","","","null","<div style=""font-size:60px;"">+</div>","null","","fixation","","",""
"memory-trial","260","534410","0.0-18.0-1.107","5945","approach_avoid_sv1","""event"",""trial"",""time""
""fullscreenenter"",""1"",""3098""
","
","
","""event"",""trial"",""time""
""fullscreenenter"",""1"",""3098""
","
","","","","","","880.3000001907349","images/rabbit2.png","","","memory_trial","1","definitely_old",""
"html-keyboard-response","261","534914","0.0-18.0-0.108","5945","approach_avoid_sv1","""event"",""trial"",""time""
""fullscreenenter"",""1"",""3098""
","
","
","""event"",""trial"",""time""
""fullscreenenter"",""1"",""3098""
","
","","","","","","null","<div style=""font-size:60px;"">+</div>","null","","fixation","","",""
"memory-trial","262","537362","0.0-18.0-1.108","5945","approach_avoid_sv1","""event"",""trial"",""time""
""fullscreenenter"",""1"",""3098""
","
","
","""event"",""trial"",""time""
""fullscreenenter"",""1"",""3098""
","
","","","","","","1440.3000001907349","images/cow7.png","","","memory_trial","4","definitely_new",""
"html-keyboard-response","263","537865","0.0-18.0-0.109","5945","approach_avoid_sv1","""event"",""trial"",""time""
""fullscreenenter"",""1"",""3098""
","
","
","""event"",""trial"",""time""
""fullscreenenter"",""1"",""3098""
","
","","","","","","null","<div style=""font-size:60px;"">+</div>","null","","fixation","","",""
"memory-trial","264","541033","0.0-18.0-1.109","5945","approach_avoid_sv1","""event"",""trial"",""time""
""fullscreenenter"",""1"",""3098""
","
","
","""event"",""trial"",""time""
""fullscreenenter"",""1"",""3098""
","
","","","","","","2161.4000000953674","images/bush5.png","","","memory_trial","4","definitely_new",""
"html-keyboard-response","265","541537","0.0-18.0-0.110","5945","approach_avoid_sv1","""event"",""trial"",""time""
""fullscreenenter"",""1"",""3098""
","
","
","""event"",""trial"",""time""
""fullscreenenter"",""1"",""3098""
","
","","","","","","null","<div style=""font-size:60px;"">+</div>","null","","fixation","","",""
"memory-trial","266","543889","0.0-18.0-1.110","5945","approach_avoid_sv1","""event"",""trial"",""time""
""fullscreenenter"",""1"",""3098""
","
","
","""event"",""trial"",""time""
""fullscreenenter"",""1"",""3098""
","
","","","","","","1342.7999997138977","images/orange5.png","","","memory_trial","2","maybe_old",""
"html-keyboard-response","267","544393","0.0-18.0-0.111","5945","approach_avoid_sv1","""event"",""trial"",""time""
""fullscreenenter"",""1"",""3098""
","
","
","""event"",""trial"",""time""
""fullscreenenter"",""1"",""3098""
","
","","","","","","null","<div style=""font-size:60px;"">+</div>","null","","fixation","","",""
"memory-trial","268","546609","0.0-18.0-1.111","5945","approach_avoid_sv1","""event"",""trial"",""time""
""fullscreenenter"",""1"",""3098""
","
","
","""event"",""trial"",""time""
""fullscreenenter"",""1"",""3098""
","
","","","","","","1207.8999996185303","images/cactus5.png","","","memory_trial","1","definitely_old",""
"html-keyboard-response","269","547113","0.0-18.0-0.112","5945","approach_avoid_sv1","""event"",""trial"",""time""
""fullscreenenter"",""1"",""3098""
","
","
","""event"",""trial"",""time""
""fullscreenenter"",""1"",""3098""
","
","","","","","","null","<div style=""font-size:60px;"">+</div>","null","","fixation","","",""
"memory-trial","270","549913","0.0-18.0-1.112","5945","approach_avoid_sv1","""event"",""trial"",""time""
""fullscreenenter"",""1"",""3098""
","
","
","""event"",""trial"",""time""
""fullscreenenter"",""1"",""3098""
","
","","","","","","1793.9000000953674","images/cat5.png","","","memory_trial","4","definitely_new",""
"html-keyboard-response","271","550417","0.0-18.0-0.113","5945","approach_avoid_sv1","""event"",""trial"",""time""
""fullscreenenter"",""1"",""3098""
","
","
","""event"",""trial"",""time""
""fullscreenenter"",""1"",""3098""
","
","","","","","","null","<div style=""font-size:60px;"">+</div>","null","","fixation","","",""
"memory-trial","272","552185","0.0-18.0-1.113","5945","approach_avoid_sv1","""event"",""trial"",""time""
""fullscreenenter"",""1"",""3098""
","
","
","""event"",""trial"",""time""
""fullscreenenter"",""1"",""3098""
","
","","","","","","759.4000000953674","images/bed6.png","","","memory_trial","1","definitely_old",""
"html-keyboard-response","273","552689","0.0-18.0-0.114","5945","approach_avoid_sv1","""event"",""trial"",""time""
""fullscreenenter"",""1"",""3098""
","
","
","""event"",""trial"",""time""
""fullscreenenter"",""1"",""3098""
","
","","","","","","null","<div style=""font-size:60px;"">+</div>","null","","fixation","","",""
"memory-trial","274","555370","0.0-18.0-1.114","5945","approach_avoid_sv1","""event"",""trial"",""time""
""fullscreenenter"",""1"",""3098""
","
","
","""event"",""trial"",""time""
""fullscreenenter"",""1"",""3098""
","
","","","","","","1674.9000000953674","images/tree2.png","","","memory_trial","4","definitely_new",""
"html-keyboard-response","275","555873","0.0-18.0-0.115","5945","approach_avoid_sv1","""event"",""trial"",""time""
""fullscreenenter"",""1"",""3098""
","
","
","""event"",""trial"",""time""
""fullscreenenter"",""1"",""3098""
","
","","","","","","null","<div style=""font-size:60px;"">+</div>","null","","fixation","","",""
"memory-trial","276","558601","0.0-18.0-1.115","5945","approach_avoid_sv1","""event"",""trial"",""time""
""fullscreenenter"",""1"",""3098""
","
","
","""event"",""trial"",""time""
""fullscreenenter"",""1"",""3098""
","
","","","","","","1721.5","images/plane7.png","","","memory_trial","4","definitely_new",""
"html-keyboard-response","277","559106","0.0-18.0-0.116","5945","approach_avoid_sv1","""event"",""trial"",""time""
""fullscreenenter"",""1"",""3098""
","
","
","""event"",""trial"",""time""
""fullscreenenter"",""1"",""3098""
","
","","","","","","null","<div style=""font-size:60px;"">+</div>","null","","fixation","","",""
"memory-trial","278","560769","0.0-18.0-1.116","5945","approach_avoid_sv1","""event"",""trial"",""time""
""fullscreenenter"",""1"",""3098""
","
","
","""event"",""trial"",""time""
""fullscreenenter"",""1"",""3098""
","
","","","","","","657.5999999046326","images/horse2.png","","","memory_trial","4","definitely_new",""
"html-keyboard-response","279","561273","0.0-18.0-0.117","5945","approach_avoid_sv1","""event"",""trial"",""time""
""fullscreenenter"",""1"",""3098""
","
","
","""event"",""trial"",""time""
""fullscreenenter"",""1"",""3098""
","
","","","","","","null","<div style=""font-size:60px;"">+</div>","null","","fixation","","",""
"memory-trial","280","564281","0.0-18.0-1.117","5945","approach_avoid_sv1","""event"",""trial"",""time""
""fullscreenenter"",""1"",""3098""
","
","
","""event"",""trial"",""time""
""fullscreenenter"",""1"",""3098""
","
","","","","","","1999.3000001907349","images/bed4.png","","","memory_trial","1","definitely_old",""
"html-keyboard-response","281","564785","0.0-18.0-0.118","5945","approach_avoid_sv1","""event"",""trial"",""time""
""fullscreenenter"",""1"",""3098""
","
","
","""event"",""trial"",""time""
""fullscreenenter"",""1"",""3098""
","
","","","","","","null","<div style=""font-size:60px;"">+</div>","null","","fixation","","",""
"memory-trial","282","566633","0.0-18.0-1.118","5945","approach_avoid_sv1","""event"",""trial"",""time""
""fullscreenenter"",""1"",""3098""
","
","
","""event"",""trial"",""time""
""fullscreenenter"",""1"",""3098""
","
","","","","","","841.2000002861023","images/chair8.png","","","memory_trial","1","definitely_old",""
"html-keyboard-response","283","567137","0.0-18.0-0.119","5945","approach_avoid_sv1","""event"",""trial"",""time""
""fullscreenenter"",""1"",""3098""
","
","
","""event"",""trial"",""time""
""fullscreenenter"",""1"",""3098""
","
","","","","","","null","<div style=""font-size:60px;"">+</div>","null","","fixation","","",""
"memory-trial","284","569642","0.0-18.0-1.119","5945","approach_avoid_sv1","""event"",""trial"",""time""
""fullscreenenter"",""1"",""3098""
","
","
","""event"",""trial"",""time""
""fullscreenenter"",""1"",""3098""
","
","","","","","","1499.0999999046326","images/chair1.png","","","memory_trial","1","definitely_old",""
"html-keyboard-response","285","570145","0.0-18.0-0.120","5945","approach_avoid_sv1","""event"",""trial"",""time""
""fullscreenenter"",""1"",""3098""
","
","
","""event"",""trial"",""time""
""fullscreenenter"",""1"",""3098""
","
","","","","","","null","<div style=""font-size:60px;"">+</div>","null","","fixation","","",""
"memory-trial","286","574202","0.0-18.0-1.120","5945","approach_avoid_sv1","""event"",""trial"",""time""
""fullscreenenter"",""1"",""3098""
","
","
","""event"",""trial"",""time""
""fullscreenenter"",""1"",""3098""
","
","","","","","","3049.7999997138977","images/rodent1.png","","","memory_trial","4","definitely_new",""
"html-keyboard-response","287","574706","0.0-18.0-0.121","5945","approach_avoid_sv1","""event"",""trial"",""time""
""fullscreenenter"",""1"",""3098""
","
","
","""event"",""trial"",""time""
""fullscreenenter"",""1"",""3098""
","
","","","","","","null","<div style=""font-size:60px;"">+</div>","null","","fixation","","",""
"memory-trial","288","577073","0.0-18.0-1.121","5945","approach_avoid_sv1","""event"",""trial"",""time""
""fullscreenenter"",""1"",""3098""
","
","
","""event"",""trial"",""time""
""fullscreenenter"",""1"",""3098""
","
","","","","","","1357.5","images/orange4.png","","","memory_trial","2","maybe_old",""
"html-keyboard-response","289","577577","0.0-18.0-0.122","5945","approach_avoid_sv1","""event"",""trial"",""time""
""fullscreenenter"",""1"",""3098""
","
","
","""event"",""trial"",""time""
""fullscreenenter"",""1"",""3098""
","
","","","","","","null","<div style=""font-size:60px;"">+</div>","null","","fixation","","",""
"memory-trial","290","581610","0.0-18.0-1.122","5945","approach_avoid_sv1","""event"",""trial"",""time""
""fullscreenenter"",""1"",""3098""
","
","
","""event"",""trial"",""time""
""fullscreenenter"",""1"",""3098""
","
","","","","","","3025.300000190735","images/straw2.png","","","memory_trial","2","maybe_old",""
"html-keyboard-response","291","582128","0.0-18.0-0.123","5945","approach_avoid_sv1","""event"",""trial"",""time""
""fullscreenenter"",""1"",""3098""
","
","
","""event"",""trial"",""time""
""fullscreenenter"",""1"",""3098""
","
","","","","","","null","<div style=""font-size:60px;"">+</div>","null","","fixation","","",""
"memory-trial","292","585442","0.0-18.0-1.123","5945","approach_avoid_sv1","""event"",""trial"",""time""
""fullscreenenter"",""1"",""3098""
","
","
","""event"",""trial"",""time""
""fullscreenenter"",""1"",""3098""
","
","","","","","","2307.300000190735","images/rabbit4.png","","","memory_trial","3","maybe_new",""
"html-keyboard-response","293","585945","0.0-18.0-0.124","5945","approach_avoid_sv1","""event"",""trial"",""time""
""fullscreenenter"",""1"",""3098""
","
","
","""event"",""trial"",""time""
""fullscreenenter"",""1"",""3098""
","
","","","","","","null","<div style=""font-size:60px;"">+</div>","null","","fixation","","",""
"memory-trial","294","588753","0.0-18.0-1.124","5945","approach_avoid_sv1","""event"",""trial"",""time""
""fullscreenenter"",""1"",""3098""
","
","
","""event"",""trial"",""time""
""fullscreenenter"",""1"",""3098""
","
","","","","","","1799.8000001907349","images/chair2.png","","","memory_trial","1","definitely_old",""
"html-keyboard-response","295","589258","0.0-18.0-0.125","5945","approach_avoid_sv1","""event"",""trial"",""time""
""fullscreenenter"",""1"",""3098""
","
","
","""event"",""trial"",""time""
""fullscreenenter"",""1"",""3098""
","
","","","","","","null","<div style=""font-size:60px;"">+</div>","null","","fixation","","",""
"memory-trial","296","592569","0.0-18.0-1.125","5945","approach_avoid_sv1","""event"",""trial"",""time""
""fullscreenenter"",""1"",""3098""
","
","
","""event"",""trial"",""time""
""fullscreenenter"",""1"",""3098""
","
","","","","","","2304.800000190735","images/tree6.png","","","memory_trial","1","definitely_old",""
"html-keyboard-response","297","593073","0.0-18.0-0.126","5945","approach_avoid_sv1","""event"",""trial"",""time""
