"trial_type","trial_index","time_elapsed","internal_node_id","subject_id","task_version","interactions","blur_events","focus_events","fullscreenenter_events","fullscreenexit_events","success","timeout","failed_images","failed_audio","failed_video","rt","stimulus","response","button_pressed","task_part","key_press","answer","correct"
"pavlovia","0","3","0.0-0.0","4657","approach_avoid_sv1","""event"",""trial"",""time""
""fullscreenenter"",""1"",""2953""
","
","
","""event"",""trial"",""time""
""fullscreenenter"",""1"",""2953""
","
","","","","","","","","","","","","",""
"fullscreen","1","3945","0.0-1.0","4657","approach_avoid_sv1","""event"",""trial"",""time""
""fullscreenenter"",""1"",""2953""
","
","
","""event"",""trial"",""time""
""fullscreenenter"",""1"",""2953""
","
","true","","","","","","","","","","","",""
"preload","2","5393","0.0-2.0","4657","approach_avoid_sv1","""event"",""trial"",""time""
""fullscreenenter"",""1"",""2953""
","
","
","""event"",""trial"",""time""
""fullscreenenter"",""1"",""2953""
","
","true","false","[]","[]","[]","","","","","","","",""
"preload","3","6632","0.0-3.0","4657","approach_avoid_sv1","""event"",""trial"",""time""
""fullscreenenter"",""1"",""2953""
","
","
","""event"",""trial"",""time""
""fullscreenenter"",""1"",""2953""
","
","true","false","[]","[]","[]","","","","","","","",""
"preload","4","6924","0.0-4.0","4657","approach_avoid_sv1","""event"",""trial"",""time""
""fullscreenenter"",""1"",""2953""
","
","
","""event"",""trial"",""time""
""fullscreenenter"",""1"",""2953""
","
","true","false","[]","[]","[]","","","","","","","",""
"audio-keyboard-response","5","9249","0.0-5.0","4657","approach_avoid_sv1","""event"",""trial"",""time""
""fullscreenenter"",""1"",""2953""
","
","
","""event"",""trial"",""time""
""fullscreenenter"",""1"",""2953""
","
","","","","","","2320.0000000000005","audio/beep_loop.wav"," ","","","","",""
"audio-button-response","6","11136","0.0-6.0","4657","approach_avoid_sv1","""event"",""trial"",""time""
""fullscreenenter"",""1"",""2953""
","
","
","""event"",""trial"",""time""
""fullscreenenter"",""1"",""2953""
","
","","","","","","1891","audio/turtle.wav","3","","","","",""
"audio-button-response","7","13350","0.0-7.0","4657","approach_avoid_sv1","""event"",""trial"",""time""
""fullscreenenter"",""1"",""2953""
","
","
","""event"",""trial"",""time""
""fullscreenenter"",""1"",""2953""
","
","","","","","","1208","audio/shark.wav","2","","","","",""
"preload","8","23978","0.0-8.0","4657","approach_avoid_sv1","""event"",""trial"",""time""
""fullscreenenter"",""1"",""2953""
","
","
","""event"",""trial"",""time""
""fullscreenenter"",""1"",""2953""
","
","true","false","[]","[]","[]","","","","","","","",""
"learning-instructions","9","36951","0.0-9.0-0.0","4657","approach_avoid_sv1","""event"",""trial"",""time""
""fullscreenenter"",""1"",""2953""
","
","
","""event"",""trial"",""time""
""fullscreenenter"",""1"",""2953""
","
","","","","","","8497.100000143051","<p> Welcome back! </p><p> Last week, you had to make choices about lots of different items.  </p>","","0","instructions","","",""
"learning-instructions","10","43463","0.0-9.0-0.1","4657","approach_avoid_sv1","""event"",""trial"",""time""
""fullscreenenter"",""1"",""2953""
","
","
","""event"",""trial"",""time""
""fullscreenenter"",""1"",""2953""
","
","","","","","","2389.5","<p> Today, we are going to ask you to try to remember all the items. </p>","","0","instructions","","",""
"learning-instructions","11","55550","0.0-9.0-0.2","4657","approach_avoid_sv1","""event"",""trial"",""time""
""fullscreenenter"",""1"",""2953""
","
","
","""event"",""trial"",""time""
""fullscreenenter"",""1"",""2953""
","
","","","","","","1946.7000000476837","<p> On every trial, you will see an image. </p><p> The image may be an OLD image you saw during the games last week or it may be a NEW image that was not presented. </p>","","0","instructions","","",""
"learning-instructions","12","64760","0.0-9.0-0.3","4657","approach_avoid_sv1","""event"",""trial"",""time""
""fullscreenenter"",""1"",""2953""
","
","
","""event"",""trial"",""time""
""fullscreenenter"",""1"",""2953""
","
","","","","","","705.7999999523163","<p> You need to select whether the image is:  </p><p>  'Definitely old', 'Maybe old', 'Maybe new', or 'Definitely new.'  </p><div class=""mem-choice-instructions-grid""><div class=""choice-option"" id=""choice-option-1"" ><img src=""images/definitely_old_1.png"" id=""choice-option-img-1"" class=""choice-option-img"" stage=""1""></div><div class=""choice-option"" id=""choice-option-2"" ><img src=""images/maybe_old_1.png"" id=""choice-option-img-2"" class=""choice-option-img"" stage=""1""></div><div class=""choice-option"" id=""choice-option-3"" ><img src=""images/maybe_new_1.png"" id=""choice-option-img-3"" class=""choice-option-img"" stage=""1""></div><div class=""choice-option"" id=""choice-option-4"" > <img src=""images/definitely_new_1.png"" id=""choice-option-img-4"" class=""choice-option-img"" stage=""1""></div></div>","","0","instructions","","",""
"learning-instructions","13","72712","0.0-9.0-0.4","4657","approach_avoid_sv1","""event"",""trial"",""time""
""fullscreenenter"",""1"",""2953""
","
","
","""event"",""trial"",""time""
""fullscreenenter"",""1"",""2953""
","
","","","","","","1437.7999999523163","<p> You should use the 1, 2, 3, and 4 keys to make your responses.  </p><div class=""mem-choice-instructions-grid""><div class=""choice-option"" id=""choice-option-1"" ><img src=""images/definitely_old.png"" id=""choice-option-img-1"" class=""choice-option-img"" stage=""1""></div><div class=""choice-option"" id=""choice-option-2"" ><img src=""images/maybe_old.png"" id=""choice-option-img-2"" class=""choice-option-img"" stage=""1""></div><div class=""choice-option"" id=""choice-option-3"" ><img src=""images/maybe_new.png"" id=""choice-option-img-3"" class=""choice-option-img"" stage=""1""></div><div class=""choice-option"" id=""choice-option-4"" > <img src=""images/definitely_new.png"" id=""choice-option-img-4"" class=""choice-option-img"" stage=""1""></div></div>","","0","instructions","","",""
"learning-instructions","14","79671","0.0-9.0-0.5","4657","approach_avoid_sv1","""event"",""trial"",""time""
""fullscreenenter"",""1"",""2953""
","
","
","""event"",""trial"",""time""
""fullscreenenter"",""1"",""2953""
","
","","","","","","617.5","<p> You will have 10 seconds to make each response.  </p><p>  Make sure to respond before time runs out! </p>","","0","instructions","","",""
"learning-instructions","15","93686","0.0-9.0-0.6","4657","approach_avoid_sv1","""event"",""trial"",""time""
""fullscreenenter"",""1"",""2953""
","
","
","""event"",""trial"",""time""
""fullscreenenter"",""1"",""2953""
","
","","","","","","6933.099999904633","<p> Today, you will see each image ONCE only.  </p><p>  That means none of the images will repeat. </p>","","0","instructions","","",""
"learning-instructions","16","107002","0.0-9.0-0.7","4657","approach_avoid_sv1","""event"",""trial"",""time""
""fullscreenenter"",""1"",""2953""
","
","
","""event"",""trial"",""time""
""fullscreenenter"",""1"",""2953""
","
","","","","","","648.8000001907349","<p> Before you play the real game, it is time to practice. </p><p>  Just like in the real game, some of the images in the practice will be ones you have seen before. </p><p>  Others will be entirely new. </p>","","0","instructions","","",""
"html-button-response","17","108928","0.0-10.0","4657","approach_avoid_sv1","""event"",""trial"",""time""
""fullscreenenter"",""1"",""2953""
","
","
","""event"",""trial"",""time""
""fullscreenenter"",""1"",""2953""
","
","","","","","","1809","<p> Ready to practice? </p><p> Remember, use the 1, 2, 3, and 4 keys to make your responses. </p>","0","","instructions","","",""
"html-keyboard-response","18","109562","0.0-11.0-0.0","4657","approach_avoid_sv1","""event"",""trial"",""time""
""fullscreenenter"",""1"",""2953""
","
","
","""event"",""trial"",""time""
""fullscreenenter"",""1"",""2953""
","
","","","","","","null","<div style=""font-size:60px;"">+</div>","null","","fixation","","",""
"memory-trial","19","112148","0.0-11.0-1.0","4657","approach_avoid_sv1","""event"",""trial"",""time""
""fullscreenenter"",""1"",""2953""
","
","
","""event"",""trial"",""time""
""fullscreenenter"",""1"",""2953""
","
","","","","","","1578.9000000953674","images/racket1.png","","","practice","4","definitely_new",""
"html-keyboard-response","20","112653","0.0-11.0-0.1","4657","approach_avoid_sv1","""event"",""trial"",""time""
""fullscreenenter"",""1"",""2953""
","
","
","""event"",""trial"",""time""
""fullscreenenter"",""1"",""2953""
","
","","","","","","null","<div style=""font-size:60px;"">+</div>","null","","fixation","","",""
"memory-trial","21","116964","0.0-11.0-1.1","4657","approach_avoid_sv1","""event"",""trial"",""time""
""fullscreenenter"",""1"",""2953""
","
","
","""event"",""trial"",""time""
""fullscreenenter"",""1"",""2953""
","
","","","","","","3294.7999999523163","images/racket2.png","","","practice","4","definitely_new",""
"html-keyboard-response","22","117475","0.0-11.0-0.2","4657","approach_avoid_sv1","""event"",""trial"",""time""
""fullscreenenter"",""1"",""2953""
","
","
","""event"",""trial"",""time""
""fullscreenenter"",""1"",""2953""
","
","","","","","","null","<div style=""font-size:60px;"">+</div>","null","","fixation","","",""
"memory-trial","23","120492","0.0-11.0-1.2","4657","approach_avoid_sv1","""event"",""trial"",""time""
""fullscreenenter"",""1"",""2953""
","
","
","""event"",""trial"",""time""
""fullscreenenter"",""1"",""2953""
","
","","","","","","2007.6000001430511","images/ball1.png","","","practice","4","definitely_new",""
"html-keyboard-response","24","120996","0.0-11.0-0.3","4657","approach_avoid_sv1","""event"",""trial"",""time""
""fullscreenenter"",""1"",""2953""
","
","
","""event"",""trial"",""time""
""fullscreenenter"",""1"",""2953""
","
","","","","","","null","<div style=""font-size:60px;"">+</div>","null","","fixation","","",""
"memory-trial","25","123617","0.0-11.0-1.3","4657","approach_avoid_sv1","""event"",""trial"",""time""
""fullscreenenter"",""1"",""2953""
","
","
","""event"",""trial"",""time""
""fullscreenenter"",""1"",""2953""
","
","","","","","","1613.5","images/racket5.png","","","practice","1","definitely_old",""
"html-keyboard-response","26","124132","0.0-11.0-0.4","4657","approach_avoid_sv1","""event"",""trial"",""time""
""fullscreenenter"",""1"",""2953""
","
","
","""event"",""trial"",""time""
""fullscreenenter"",""1"",""2953""
","
","","","","","","null","<div style=""font-size:60px;"">+</div>","null","","fixation","","",""
"memory-trial","27","127594","0.0-11.0-1.4","4657","approach_avoid_sv1","""event"",""trial"",""time""
""fullscreenenter"",""1"",""2953""
","
","
","""event"",""trial"",""time""
""fullscreenenter"",""1"",""2953""
","
","","","","","","2451.2000000476837","images/ball5.png","","","practice","4","definitely_new",""
"html-keyboard-response","28","128108","0.0-11.0-0.5","4657","approach_avoid_sv1","""event"",""trial"",""time""
""fullscreenenter"",""1"",""2953""
","
","
","""event"",""trial"",""time""
""fullscreenenter"",""1"",""2953""
","
","","","","","","null","<div style=""font-size:60px;"">+</div>","null","","fixation","","",""
"memory-trial","29","130732","0.0-11.0-1.5","4657","approach_avoid_sv1","""event"",""trial"",""time""
""fullscreenenter"",""1"",""2953""
","
","
","""event"",""trial"",""time""
""fullscreenenter"",""1"",""2953""
","
","","","","","","1615.2999999523163","images/racket3.png","","","practice","1","definitely_old",""
"html-keyboard-response","30","131240","0.0-11.0-0.6","4657","approach_avoid_sv1","""event"",""trial"",""time""
""fullscreenenter"",""1"",""2953""
","
","
","""event"",""trial"",""time""
""fullscreenenter"",""1"",""2953""
","
","","","","","","null","<div style=""font-size:60px;"">+</div>","null","","fixation","","",""
"memory-trial","31","134253","0.0-11.0-1.6","4657","approach_avoid_sv1","""event"",""trial"",""time""
""fullscreenenter"",""1"",""2953""
","
","
","""event"",""trial"",""time""
""fullscreenenter"",""1"",""2953""
","
","","","","","","1995.2999999523163","images/ball3.png","","","practice","4","definitely_new",""
"html-keyboard-response","32","134762","0.0-11.0-0.7","4657","approach_avoid_sv1","""event"",""trial"",""time""
""fullscreenenter"",""1"",""2953""
","
","
","""event"",""trial"",""time""
""fullscreenenter"",""1"",""2953""
","
","","","","","","null","<div style=""font-size:60px;"">+</div>","null","","fixation","","",""
"memory-trial","33","138332","0.0-11.0-1.7","4657","approach_avoid_sv1","""event"",""trial"",""time""
""fullscreenenter"",""1"",""2953""
","
","
","""event"",""trial"",""time""
""fullscreenenter"",""1"",""2953""
","
","","","","","","2566.5","images/ball2.png","","","practice","1","definitely_old",""
"learning-instructions","34","147318","0.0-12.0-0.0","4657","approach_avoid_sv1","""event"",""trial"",""time""
""fullscreenenter"",""1"",""2953""
","
","
","""event"",""trial"",""time""
""fullscreenenter"",""1"",""2953""
","
","","","","","","1686.2000000476837","<p> Great! You have completed the practice. </p><p> Before you start, we're going to ask you a few questions about how the game works.  </p>","","0","instructions","","",""
"preload","35","154918","0.0-13.0","4657","approach_avoid_sv1","""event"",""trial"",""time""
""fullscreenenter"",""1"",""2953""
","
","
","""event"",""trial"",""time""
""fullscreenenter"",""1"",""2953""
","
","true","false","[]","[]","[]","","","","","","","",""
"comp-q","36","161623","0.0-14.0-0.0","4657","approach_avoid_sv1","""event"",""trial"",""time""
""fullscreenenter"",""1"",""2953""
""fullscreenexit"",""37"",""165971""
","
","
","""event"",""trial"",""time""
""fullscreenenter"",""1"",""2953""
","""event"",""trial"",""time""
""fullscreenexit"",""37"",""165971""
","","","","","","872.2999999523163","<p> <b> True or False? </b> </p><p> In this game, you will only see each image once. </p>","","0","comp_question","","","true"
"comp-q","37","169431","0.0-14.0-1.0","4657","approach_avoid_sv1","""event"",""trial"",""time""
""fullscreenenter"",""1"",""2953""
""fullscreenexit"",""37"",""165971""
","
","
","""event"",""trial"",""time""
""fullscreenenter"",""1"",""2953""
","""event"",""trial"",""time""
""fullscreenexit"",""37"",""165971""
","","","","","","1470.4000000953674","<p> <b> That's right! </b> You will see many different images <i> one time each </i> in this game. </p>","","0","comp_answer","","",""
"comp-q","38","175415","0.0-15.0-0.0","4657","approach_avoid_sv1","""event"",""trial"",""time""
""fullscreenenter"",""1"",""2953""
""fullscreenexit"",""37"",""165971""
""blur"",""39"",""179663""
""focus"",""39"",""181573""
","""event"",""trial"",""time""
""blur"",""39"",""179663""
","""event"",""trial"",""time""
""focus"",""39"",""181573""
","""event"",""trial"",""time""
""fullscreenenter"",""1"",""2953""
","""event"",""trial"",""time""
""fullscreenexit"",""37"",""165971""
","","","","","","983.6000001430511","<p> <b> True or False? </b> </p><p> You should use the mouse and click to make your response. </p>","","1","comp_question","","","true"
"comp-q","39","184961","0.0-15.0-1.0","4657","approach_avoid_sv1","""event"",""trial"",""time""
""fullscreenenter"",""1"",""2953""
""fullscreenexit"",""37"",""165971""
""blur"",""39"",""179663""
""focus"",""39"",""181573""
","""event"",""trial"",""time""
""blur"",""39"",""179663""
","""event"",""trial"",""time""
""focus"",""39"",""181573""
","""event"",""trial"",""time""
""fullscreenenter"",""1"",""2953""
","""event"",""trial"",""time""
""fullscreenexit"",""37"",""165971""
","","","","","","3029.9000000953674","<p><b> That's right! </b> You should use the '1', '2', '3', and '4' keys to make your response. </p>","","0","comp_answer","","",""
"comp-q","40","191254","0.0-16.0-0.0","4657","approach_avoid_sv1","""event"",""trial"",""time""
""fullscreenenter"",""1"",""2953""
""fullscreenexit"",""37"",""165971""
""blur"",""39"",""179663""
""focus"",""39"",""181573""
","""event"",""trial"",""time""
""blur"",""39"",""179663""
","""event"",""trial"",""time""
""focus"",""39"",""181573""
","""event"",""trial"",""time""
""fullscreenenter"",""1"",""2953""
","""event"",""trial"",""time""
""fullscreenexit"",""37"",""165971""
","","","","","","612.8999998569489","<p> <b> True or False? </b> </p><p> You will have as much time as you want to make each choice. </p>","","1","comp_question","","","true"
"comp-q","41","198638","0.0-16.0-1.0","4657","approach_avoid_sv1","""event"",""trial"",""time""
""fullscreenenter"",""1"",""2953""
""fullscreenexit"",""37"",""165971""
""blur"",""39"",""179663""
""focus"",""39"",""181573""
","""event"",""trial"",""time""
""blur"",""39"",""179663""
","""event"",""trial"",""time""
""focus"",""39"",""181573""
","""event"",""trial"",""time""
""fullscreenenter"",""1"",""2953""
","""event"",""trial"",""time""
""fullscreenexit"",""37"",""165971""
","","","","","","2687.5999999046326","<p> <b> That's right! </b> You will only have 10 seconds to make each choice. </p>","","0","comp_answer","","",""
"learning-instructions","42","208446","0.0-17.0","4657","approach_avoid_sv1","""event"",""trial"",""time""
""fullscreenenter"",""1"",""2953""
""fullscreenexit"",""37"",""165971""
""blur"",""39"",""179663""
""focus"",""39"",""181573""
","""event"",""trial"",""time""
""blur"",""39"",""179663""
","""event"",""trial"",""time""
""focus"",""39"",""181573""
","""event"",""trial"",""time""
""fullscreenenter"",""1"",""2953""
","""event"",""trial"",""time""
""fullscreenexit"",""37"",""165971""
","","","","","","1125.2999999523163","<p> Great! You are now ready to begin the game. </p><p> Remember, use the 1, 2, 3, and 4 keys to make your responses. </p>","","0","instructions","","",""
"html-keyboard-response","43","209070","0.0-18.0-0.0","4657","approach_avoid_sv1","""event"",""trial"",""time""
""fullscreenenter"",""1"",""2953""
""fullscreenexit"",""37"",""165971""
""blur"",""39"",""179663""
""focus"",""39"",""181573""
","""event"",""trial"",""time""
""blur"",""39"",""179663""
","""event"",""trial"",""time""
""focus"",""39"",""181573""
","""event"",""trial"",""time""
""fullscreenenter"",""1"",""2953""
","""event"",""trial"",""time""
""fullscreenexit"",""37"",""165971""
","","","","","","null","<div style=""font-size:60px;"">+</div>","null","","fixation","","",""
"memory-trial","44","211971","0.0-18.0-1.0","4657","approach_avoid_sv1","""event"",""trial"",""time""
""fullscreenenter"",""1"",""2953""
""fullscreenexit"",""37"",""165971""
""blur"",""39"",""179663""
""focus"",""39"",""181573""
","""event"",""trial"",""time""
""blur"",""39"",""179663""
","""event"",""trial"",""time""
""focus"",""39"",""181573""
","""event"",""trial"",""time""
""fullscreenenter"",""1"",""2953""
","""event"",""trial"",""time""
""fullscreenexit"",""37"",""165971""
","","","","","","1883.7999999523163","images/sheep2.png","","","memory_trial","4","definitely_new",""
"html-keyboard-response","45","212481","0.0-18.0-0.1","4657","approach_avoid_sv1","""event"",""trial"",""time""
""fullscreenenter"",""1"",""2953""
""fullscreenexit"",""37"",""165971""
""blur"",""39"",""179663""
""focus"",""39"",""181573""
","""event"",""trial"",""time""
""blur"",""39"",""179663""
","""event"",""trial"",""time""
""focus"",""39"",""181573""
","""event"",""trial"",""time""
""fullscreenenter"",""1"",""2953""
","""event"",""trial"",""time""
""fullscreenexit"",""37"",""165971""
","","","","","","null","<div style=""font-size:60px;"">+</div>","null","","fixation","","",""
"memory-trial","46","215499","0.0-18.0-1.1","4657","approach_avoid_sv1","""event"",""trial"",""time""
""fullscreenenter"",""1"",""2953""
""fullscreenexit"",""37"",""165971""
""blur"",""39"",""179663""
""focus"",""39"",""181573""
","""event"",""trial"",""time""
""blur"",""39"",""179663""
","""event"",""trial"",""time""
""focus"",""39"",""181573""
","""event"",""trial"",""time""
""fullscreenenter"",""1"",""2953""
","""event"",""trial"",""time""
""fullscreenexit"",""37"",""165971""
","","","","","","2008.9000000953674","images/sheep1.png","","","memory_trial","4","definitely_new",""
"html-keyboard-response","47","216015","0.0-18.0-0.2","4657","approach_avoid_sv1","""event"",""trial"",""time""
""fullscreenenter"",""1"",""2953""
""fullscreenexit"",""37"",""165971""
""blur"",""39"",""179663""
""focus"",""39"",""181573""
","""event"",""trial"",""time""
""blur"",""39"",""179663""
","""event"",""trial"",""time""
""focus"",""39"",""181573""
","""event"",""trial"",""time""
""fullscreenenter"",""1"",""2953""
","""event"",""trial"",""time""
""fullscreenexit"",""37"",""165971""
","","","","","","null","<div style=""font-size:60px;"">+</div>","null","","fixation","","",""
"memory-trial","48","219019","0.0-18.0-1.2","4657","approach_avoid_sv1","""event"",""trial"",""time""
""fullscreenenter"",""1"",""2953""
""fullscreenexit"",""37"",""165971""
""blur"",""39"",""179663""
""focus"",""39"",""181573""
","""event"",""trial"",""time""
""blur"",""39"",""179663""
","""event"",""trial"",""time""
""focus"",""39"",""181573""
","""event"",""trial"",""time""
""fullscreenenter"",""1"",""2953""
","""event"",""trial"",""time""
""fullscreenexit"",""37"",""165971""
","","","","","","1994","images/apple1.png","","","memory_trial","1","definitely_old",""
"html-keyboard-response","49","219529","0.0-18.0-0.3","4657","approach_avoid_sv1","""event"",""trial"",""time""
""fullscreenenter"",""1"",""2953""
""fullscreenexit"",""37"",""165971""
""blur"",""39"",""179663""
""focus"",""39"",""181573""
","""event"",""trial"",""time""
""blur"",""39"",""179663""
","""event"",""trial"",""time""
""focus"",""39"",""181573""
","""event"",""trial"",""time""
""fullscreenenter"",""1"",""2953""
","""event"",""trial"",""time""
""fullscreenexit"",""37"",""165971""
","","","","","","null","<div style=""font-size:60px;"">+</div>","null","","fixation","","",""
"memory-trial","50","222303","0.0-18.0-1.3","4657","approach_avoid_sv1","""event"",""trial"",""time""
""fullscreenenter"",""1"",""2953""
""fullscreenexit"",""37"",""165971""
""blur"",""39"",""179663""
""focus"",""39"",""181573""
","""event"",""trial"",""time""
""blur"",""39"",""179663""
","""event"",""trial"",""time""
""focus"",""39"",""181573""
","""event"",""trial"",""time""
""fullscreenenter"",""1"",""2953""
","""event"",""trial"",""time""
""fullscreenexit"",""37"",""165971""
","","","","","","1755.7000000476837","images/goat3.png","","","memory_trial","1","definitely_old",""
"html-keyboard-response","51","222826","0.0-18.0-0.4","4657","approach_avoid_sv1","""event"",""trial"",""time""
""fullscreenenter"",""1"",""2953""
""fullscreenexit"",""37"",""165971""
""blur"",""39"",""179663""
""focus"",""39"",""181573""
","""event"",""trial"",""time""
""blur"",""39"",""179663""
","""event"",""trial"",""time""
""focus"",""39"",""181573""
","""event"",""trial"",""time""
""fullscreenenter"",""1"",""2953""
","""event"",""trial"",""time""
""fullscreenexit"",""37"",""165971""
","","","","","","null","<div style=""font-size:60px;"">+</div>","null","","fixation","","",""
"memory-trial","52","225499","0.0-18.0-1.4","4657","approach_avoid_sv1","""event"",""trial"",""time""
""fullscreenenter"",""1"",""2953""
""fullscreenexit"",""37"",""165971""
""blur"",""39"",""179663""
""focus"",""39"",""181573""
","""event"",""trial"",""time""
""blur"",""39"",""179663""
","""event"",""trial"",""time""
""focus"",""39"",""181573""
","""event"",""trial"",""time""
""fullscreenenter"",""1"",""2953""
","""event"",""trial"",""time""
""fullscreenexit"",""37"",""165971""
","","","","","","1667.2999999523163","images/bush4.png","","","memory_trial","4","definitely_new",""
"html-keyboard-response","53","226003","0.0-18.0-0.5","4657","approach_avoid_sv1","""event"",""trial"",""time""
""fullscreenenter"",""1"",""2953""
""fullscreenexit"",""37"",""165971""
""blur"",""39"",""179663""
""focus"",""39"",""181573""
","""event"",""trial"",""time""
""blur"",""39"",""179663""
","""event"",""trial"",""time""
""focus"",""39"",""181573""
","""event"",""trial"",""time""
""fullscreenenter"",""1"",""2953""
","""event"",""trial"",""time""
""fullscreenexit"",""37"",""165971""
","","","","","","null","<div style=""font-size:60px;"">+</div>","null","","fixation","","",""
"memory-trial","54","228131","0.0-18.0-1.5","4657","approach_avoid_sv1","""event"",""trial"",""time""
""fullscreenenter"",""1"",""2953""
""fullscreenexit"",""37"",""165971""
""blur"",""39"",""179663""
""focus"",""39"",""181573""
","""event"",""trial"",""time""
""blur"",""39"",""179663""
","""event"",""trial"",""time""
""focus"",""39"",""181573""
","""event"",""trial"",""time""
""fullscreenenter"",""1"",""2953""
","""event"",""trial"",""time""
""fullscreenexit"",""37"",""165971""
","","","","","","1125.3999998569489","images/cow5.png","","","memory_trial","1","definitely_old",""
"html-keyboard-response","55","228650","0.0-18.0-0.6","4657","approach_avoid_sv1","""event"",""trial"",""time""
""fullscreenenter"",""1"",""2953""
""fullscreenexit"",""37"",""165971""
""blur"",""39"",""179663""
""focus"",""39"",""181573""
","""event"",""trial"",""time""
""blur"",""39"",""179663""
","""event"",""trial"",""time""
""focus"",""39"",""181573""
","""event"",""trial"",""time""
""fullscreenenter"",""1"",""2953""
","""event"",""trial"",""time""
""fullscreenexit"",""37"",""165971""
","","","","","","null","<div style=""font-size:60px;"">+</div>","null","","fixation","","",""
"memory-trial","56","231010","0.0-18.0-1.6","4657","approach_avoid_sv1","""event"",""trial"",""time""
""fullscreenenter"",""1"",""2953""
""fullscreenexit"",""37"",""165971""
""blur"",""39"",""179663""
""focus"",""39"",""181573""
","""event"",""trial"",""time""
""blur"",""39"",""179663""
","""event"",""trial"",""time""
""focus"",""39"",""181573""
","""event"",""trial"",""time""
""fullscreenenter"",""1"",""2953""
","""event"",""trial"",""time""
""fullscreenexit"",""37"",""165971""
","","","","","","1345.7000000476837","images/table2.png","","","memory_trial","1","definitely_old",""
"html-keyboard-response","57","231529","0.0-18.0-0.7","4657","approach_avoid_sv1","""event"",""trial"",""time""
""fullscreenenter"",""1"",""2953""
""fullscreenexit"",""37"",""165971""
""blur"",""39"",""179663""
""focus"",""39"",""181573""
","""event"",""trial"",""time""
""blur"",""39"",""179663""
","""event"",""trial"",""time""
""focus"",""39"",""181573""
","""event"",""trial"",""time""
""fullscreenenter"",""1"",""2953""
","""event"",""trial"",""time""
""fullscreenexit"",""37"",""165971""
","","","","","","null","<div style=""font-size:60px;"">+</div>","null","","fixation","","",""
"memory-trial","58","234758","0.0-18.0-1.7","4657","approach_avoid_sv1","""event"",""trial"",""time""
""fullscreenenter"",""1"",""2953""
""fullscreenexit"",""37"",""165971""
""blur"",""39"",""179663""
""focus"",""39"",""181573""
","""event"",""trial"",""time""
""blur"",""39"",""179663""
","""event"",""trial"",""time""
""focus"",""39"",""181573""
","""event"",""trial"",""time""
""fullscreenenter"",""1"",""2953""
","""event"",""trial"",""time""
""fullscreenexit"",""37"",""165971""
","","","","","","2214.9000000953674","images/goat7.png","","","memory_trial","1","definitely_old",""
"html-keyboard-response","59","235277","0.0-18.0-0.8","4657","approach_avoid_sv1","""event"",""trial"",""time""
""fullscreenenter"",""1"",""2953""
""fullscreenexit"",""37"",""165971""
""blur"",""39"",""179663""
""focus"",""39"",""181573""
","""event"",""trial"",""time""
""blur"",""39"",""179663""
","""event"",""trial"",""time""
""focus"",""39"",""181573""
","""event"",""trial"",""time""
""fullscreenenter"",""1"",""2953""
","""event"",""trial"",""time""
""fullscreenexit"",""37"",""165971""
","","","","","","null","<div style=""font-size:60px;"">+</div>","null","","fixation","","",""
"memory-trial","60","237223","0.0-18.0-1.8","4657","approach_avoid_sv1","""event"",""trial"",""time""
""fullscreenenter"",""1"",""2953""
""fullscreenexit"",""37"",""165971""
""blur"",""39"",""179663""
""focus"",""39"",""181573""
","""event"",""trial"",""time""
""blur"",""39"",""179663""
","""event"",""trial"",""time""
""focus"",""39"",""181573""
","""event"",""trial"",""time""
""fullscreenenter"",""1"",""2953""
","""event"",""trial"",""time""
""fullscreenexit"",""37"",""165971""
","","","","","","924.4000000953674","images/cat1.png","","","memory_trial","1","definitely_old",""
"html-keyboard-response","61","237732","0.0-18.0-0.9","4657","approach_avoid_sv1","""event"",""trial"",""time""
""fullscreenenter"",""1"",""2953""
""fullscreenexit"",""37"",""165971""
""blur"",""39"",""179663""
""focus"",""39"",""181573""
","""event"",""trial"",""time""
""blur"",""39"",""179663""
","""event"",""trial"",""time""
""focus"",""39"",""181573""
","""event"",""trial"",""time""
""fullscreenenter"",""1"",""2953""
","""event"",""trial"",""time""
""fullscreenexit"",""37"",""165971""
","","","","","","null","<div style=""font-size:60px;"">+</div>","null","","fixation","","",""
"memory-trial","62","240019","0.0-18.0-1.9","4657","approach_avoid_sv1","""event"",""trial"",""time""
""fullscreenenter"",""1"",""2953""
""fullscreenexit"",""37"",""165971""
""blur"",""39"",""179663""
""focus"",""39"",""181573""
","""event"",""trial"",""time""
""blur"",""39"",""179663""
","""event"",""trial"",""time""
""focus"",""39"",""181573""
","""event"",""trial"",""time""
""fullscreenenter"",""1"",""2953""
","""event"",""trial"",""time""
""fullscreenexit"",""37"",""165971""
","","","","","","1279.2999999523163","images/dog4.png","","","memory_trial","4","definitely_new",""
"html-keyboard-response","63","240523","0.0-18.0-0.10","4657","approach_avoid_sv1","""event"",""trial"",""time""
""fullscreenenter"",""1"",""2953""
""fullscreenexit"",""37"",""165971""
""blur"",""39"",""179663""
""focus"",""39"",""181573""
","""event"",""trial"",""time""
""blur"",""39"",""179663""
","""event"",""trial"",""time""
""focus"",""39"",""181573""
","""event"",""trial"",""time""
""fullscreenenter"",""1"",""2953""
","""event"",""trial"",""time""
""fullscreenexit"",""37"",""165971""
","","","","","","null","<div style=""font-size:60px;"">+</div>","null","","fixation","","",""
"memory-trial","64","242780","0.0-18.0-1.10","4657","approach_avoid_sv1","""event"",""trial"",""time""
""fullscreenenter"",""1"",""2953""
""fullscreenexit"",""37"",""165971""
""blur"",""39"",""179663""
""focus"",""39"",""181573""
","""event"",""trial"",""time""
""blur"",""39"",""179663""
","""event"",""trial"",""time""
""focus"",""39"",""181573""
","""event"",""trial"",""time""
""fullscreenenter"",""1"",""2953""
","""event"",""trial"",""time""
""fullscreenexit"",""37"",""165971""
","","","","","","1247.7999999523163","images/plane4.png","","","memory_trial","1","definitely_old",""
"html-keyboard-response","65","243284","0.0-18.0-0.11","4657","approach_avoid_sv1","""event"",""trial"",""time""
""fullscreenenter"",""1"",""2953""
""fullscreenexit"",""37"",""165971""
""blur"",""39"",""179663""
""focus"",""39"",""181573""
","""event"",""trial"",""time""
""blur"",""39"",""179663""
","""event"",""trial"",""time""
""focus"",""39"",""181573""
","""event"",""trial"",""time""
""fullscreenenter"",""1"",""2953""
","""event"",""trial"",""time""
""fullscreenexit"",""37"",""165971""
","","","","","","null","<div style=""font-size:60px;"">+</div>","null","","fixation","","",""
"memory-trial","66","245691","0.0-18.0-1.11","4657","approach_avoid_sv1","""event"",""trial"",""time""
""fullscreenenter"",""1"",""2953""
""fullscreenexit"",""37"",""165971""
""blur"",""39"",""179663""
""focus"",""39"",""181573""
","""event"",""trial"",""time""
""blur"",""39"",""179663""
","""event"",""trial"",""time""
""focus"",""39"",""181573""
","""event"",""trial"",""time""
""fullscreenenter"",""1"",""2953""
","""event"",""trial"",""time""
""fullscreenexit"",""37"",""165971""
","","","","","","1401.7000000476837","images/bush3.png","","","memory_trial","1","definitely_old",""
"html-keyboard-response","67","246200","0.0-18.0-0.12","4657","approach_avoid_sv1","""event"",""trial"",""time""
""fullscreenenter"",""1"",""2953""
""fullscreenexit"",""37"",""165971""
""blur"",""39"",""179663""
""focus"",""39"",""181573""
","""event"",""trial"",""time""
""blur"",""39"",""179663""
","""event"",""trial"",""time""
""focus"",""39"",""181573""
","""event"",""trial"",""time""
""fullscreenenter"",""1"",""2953""
","""event"",""trial"",""time""
""fullscreenexit"",""37"",""165971""
","","","","","","null","<div style=""font-size:60px;"">+</div>","null","","fixation","","",""
"memory-trial","68","248019","0.0-18.0-1.12","4657","approach_avoid_sv1","""event"",""trial"",""time""
""fullscreenenter"",""1"",""2953""
""fullscreenexit"",""37"",""165971""
""blur"",""39"",""179663""
""focus"",""39"",""181573""
","""event"",""trial"",""time""
""blur"",""39"",""179663""
","""event"",""trial"",""time""
""focus"",""39"",""181573""
","""event"",""trial"",""time""
""fullscreenenter"",""1"",""2953""
","""event"",""trial"",""time""
""fullscreenexit"",""37"",""165971""
","","","","","","816.2000000476837","images/banana4.png","","","memory_trial","1","definitely_old",""
"html-keyboard-response","69","248535","0.0-18.0-0.13","4657","approach_avoid_sv1","""event"",""trial"",""time""
""fullscreenenter"",""1"",""2953""
""fullscreenexit"",""37"",""165971""
""blur"",""39"",""179663""
""focus"",""39"",""181573""
","""event"",""trial"",""time""
""blur"",""39"",""179663""
","""event"",""trial"",""time""
""focus"",""39"",""181573""
","""event"",""trial"",""time""
""fullscreenenter"",""1"",""2953""
","""event"",""trial"",""time""
""fullscreenexit"",""37"",""165971""
","","","","","","null","<div style=""font-size:60px;"">+</div>","null","","fixation","","",""
"memory-trial","70","250211","0.0-18.0-1.13","4657","approach_avoid_sv1","""event"",""trial"",""time""
""fullscreenenter"",""1"",""2953""
""fullscreenexit"",""37"",""165971""
""blur"",""39"",""179663""
""focus"",""39"",""181573""
","""event"",""trial"",""time""
""blur"",""39"",""179663""
","""event"",""trial"",""time""
""focus"",""39"",""181573""
","""event"",""trial"",""time""
""fullscreenenter"",""1"",""2953""
","""event"",""trial"",""time""
""fullscreenexit"",""37"",""165971""
","","","","","","671.3999998569489","images/plane5.png","","","memory_trial","1","definitely_old",""
"html-keyboard-response","71","250715","0.0-18.0-0.14","4657","approach_avoid_sv1","""event"",""trial"",""time""
""fullscreenenter"",""1"",""2953""
""fullscreenexit"",""37"",""165971""
""blur"",""39"",""179663""
""focus"",""39"",""181573""
","""event"",""trial"",""time""
""blur"",""39"",""179663""
","""event"",""trial"",""time""
""focus"",""39"",""181573""
","""event"",""trial"",""time""
""fullscreenenter"",""1"",""2953""
","""event"",""trial"",""time""
""fullscreenexit"",""37"",""165971""
","","","","","","null","<div style=""font-size:60px;"">+</div>","null","","fixation","","",""
"memory-trial","72","252836","0.0-18.0-1.14","4657","approach_avoid_sv1","""event"",""trial"",""time""
""fullscreenenter"",""1"",""2953""
""fullscreenexit"",""37"",""165971""
""blur"",""39"",""179663""
""focus"",""39"",""181573""
","""event"",""trial"",""time""
""blur"",""39"",""179663""
","""event"",""trial"",""time""
""focus"",""39"",""181573""
","""event"",""trial"",""time""
""fullscreenenter"",""1"",""2953""
","""event"",""trial"",""time""
""fullscreenexit"",""37"",""165971""
","","","","","","1118.1000001430511","images/chair2.png","","","memory_trial","4","definitely_new",""
"html-keyboard-response","73","253340","0.0-18.0-0.15","4657","approach_avoid_sv1","""event"",""trial"",""time""
""fullscreenenter"",""1"",""2953""
""fullscreenexit"",""37"",""165971""
""blur"",""39"",""179663""
""focus"",""39"",""181573""
","""event"",""trial"",""time""
""blur"",""39"",""179663""
","""event"",""trial"",""time""
""focus"",""39"",""181573""
","""event"",""trial"",""time""
""fullscreenenter"",""1"",""2953""
","""event"",""trial"",""time""
""fullscreenexit"",""37"",""165971""
","","","","","","null","<div style=""font-size:60px;"">+</div>","null","","fixation","","",""
"memory-trial","74","257035","0.0-18.0-1.15","4657","approach_avoid_sv1","""event"",""trial"",""time""
""fullscreenenter"",""1"",""2953""
""fullscreenexit"",""37"",""165971""
""blur"",""39"",""179663""
""focus"",""39"",""181573""
","""event"",""trial"",""time""
""blur"",""39"",""179663""
","""event"",""trial"",""time""
""focus"",""39"",""181573""
","""event"",""trial"",""time""
""fullscreenenter"",""1"",""2953""
","""event"",""trial"",""time""
""fullscreenexit"",""37"",""165971""
","","","","","","2693.399999856949","images/flower5.png","","","memory_trial","2","maybe_old",""
"html-keyboard-response","75","257539","0.0-18.0-0.16","4657","approach_avoid_sv1","""event"",""trial"",""time""
""fullscreenenter"",""1"",""2953""
""fullscreenexit"",""37"",""165971""
""blur"",""39"",""179663""
""focus"",""39"",""181573""
","""event"",""trial"",""time""
""blur"",""39"",""179663""
","""event"",""trial"",""time""
""focus"",""39"",""181573""
","""event"",""trial"",""time""
""fullscreenenter"",""1"",""2953""
","""event"",""trial"",""time""
""fullscreenexit"",""37"",""165971""
","","","","","","null","<div style=""font-size:60px;"">+</div>","null","","fixation","","",""
"memory-trial","76","259507","0.0-18.0-1.16","4657","approach_avoid_sv1","""event"",""trial"",""time""
""fullscreenenter"",""1"",""2953""
""fullscreenexit"",""37"",""165971""
""blur"",""39"",""179663""
""focus"",""39"",""181573""
","""event"",""trial"",""time""
""blur"",""39"",""179663""
","""event"",""trial"",""time""
""focus"",""39"",""181573""
","""event"",""trial"",""time""
""fullscreenenter"",""1"",""2953""
","""event"",""trial"",""time""
""fullscreenexit"",""37"",""165971""
","","","","","","959.9000000953674","images/boat3.png","","","memory_trial","1","definitely_old",""
"html-keyboard-response","77","260011","0.0-18.0-0.17","4657","approach_avoid_sv1","""event"",""trial"",""time""
""fullscreenenter"",""1"",""2953""
""fullscreenexit"",""37"",""165971""
""blur"",""39"",""179663""
""focus"",""39"",""181573""
","""event"",""trial"",""time""
""blur"",""39"",""179663""
","""event"",""trial"",""time""
""focus"",""39"",""181573""
","""event"",""trial"",""time""
""fullscreenenter"",""1"",""2953""
","""event"",""trial"",""time""
""fullscreenexit"",""37"",""165971""
","","","","","","null","<div style=""font-size:60px;"">+</div>","null","","fixation","","",""
"memory-trial","78","262029","0.0-18.0-1.17","4657","approach_avoid_sv1","""event"",""trial"",""time""
""fullscreenenter"",""1"",""2953""
""fullscreenexit"",""37"",""165971""
""blur"",""39"",""179663""
""focus"",""39"",""181573""
","""event"",""trial"",""time""
""blur"",""39"",""179663""
","""event"",""trial"",""time""
""focus"",""39"",""181573""
","""event"",""trial"",""time""
""fullscreenenter"",""1"",""2953""
","""event"",""trial"",""time""
""fullscreenexit"",""37"",""165971""
","","","","","","1009.5999999046326","images/sheep8.png","","","memory_trial","4","definitely_new",""
"html-keyboard-response","79","262531","0.0-18.0-0.18","4657","approach_avoid_sv1","""event"",""trial"",""time""
""fullscreenenter"",""1"",""2953""
""fullscreenexit"",""37"",""165971""
""blur"",""39"",""179663""
""focus"",""39"",""181573""
","""event"",""trial"",""time""
""blur"",""39"",""179663""
","""event"",""trial"",""time""
""focus"",""39"",""181573""
","""event"",""trial"",""time""
""fullscreenenter"",""1"",""2953""
","""event"",""trial"",""time""
""fullscreenexit"",""37"",""165971""
","","","","","","null","<div style=""font-size:60px;"">+</div>","null","","fixation","","",""
"memory-trial","80","264619","0.0-18.0-1.18","4657","approach_avoid_sv1","""event"",""trial"",""time""
""fullscreenenter"",""1"",""2953""
""fullscreenexit"",""37"",""165971""
""blur"",""39"",""179663""
""focus"",""39"",""181573""
","""event"",""trial"",""time""
""blur"",""39"",""179663""
","""event"",""trial"",""time""
""focus"",""39"",""181573""
","""event"",""trial"",""time""
""fullscreenenter"",""1"",""2953""
","""event"",""trial"",""time""
""fullscreenexit"",""37"",""165971""
","","","","","","1085.4000000953674","images/bed7.png","","","memory_trial","4","definitely_new",""
"html-keyboard-response","81","265123","0.0-18.0-0.19","4657","approach_avoid_sv1","""event"",""trial"",""time""
""fullscreenenter"",""1"",""2953""
""fullscreenexit"",""37"",""165971""
""blur"",""39"",""179663""
""focus"",""39"",""181573""
","""event"",""trial"",""time""
""blur"",""39"",""179663""
","""event"",""trial"",""time""
""focus"",""39"",""181573""
","""event"",""trial"",""time""
""fullscreenenter"",""1"",""2953""
","""event"",""trial"",""time""
""fullscreenexit"",""37"",""165971""
","","","","","","null","<div style=""font-size:60px;"">+</div>","null","","fixation","","",""
"memory-trial","82","266827","0.0-18.0-1.19","4657","approach_avoid_sv1","""event"",""trial"",""time""
""fullscreenenter"",""1"",""2953""
""fullscreenexit"",""37"",""165971""
""blur"",""39"",""179663""
""focus"",""39"",""181573""
","""event"",""trial"",""time""
""blur"",""39"",""179663""
","""event"",""trial"",""time""
""focus"",""39"",""181573""
","""event"",""trial"",""time""
""fullscreenenter"",""1"",""2953""
","""event"",""trial"",""time""
""fullscreenexit"",""37"",""165971""
","","","","","","701.2000000476837","images/rodent5.png","","","memory_trial","1","definitely_old",""
"html-keyboard-response","83","267331","0.0-18.0-0.20","4657","approach_avoid_sv1","""event"",""trial"",""time""
""fullscreenenter"",""1"",""2953""
""fullscreenexit"",""37"",""165971""
""blur"",""39"",""179663""
""focus"",""39"",""181573""
","""event"",""trial"",""time""
""blur"",""39"",""179663""
","""event"",""trial"",""time""
""focus"",""39"",""181573""
","""event"",""trial"",""time""
""fullscreenenter"",""1"",""2953""
","""event"",""trial"",""time""
""fullscreenexit"",""37"",""165971""
","","","","","","null","<div style=""font-size:60px;"">+</div>","null","","fixation","","",""
"memory-trial","84","269387","0.0-18.0-1.20","4657","approach_avoid_sv1","""event"",""trial"",""time""
""fullscreenenter"",""1"",""2953""
""fullscreenexit"",""37"",""165971""
""blur"",""39"",""179663""
""focus"",""39"",""181573""
","""event"",""trial"",""time""
""blur"",""39"",""179663""
","""event"",""trial"",""time""
""focus"",""39"",""181573""
","""event"",""trial"",""time""
""fullscreenenter"",""1"",""2953""
","""event"",""trial"",""time""
""fullscreenexit"",""37"",""165971""
","","","","","","1048.4000000953674","images/rabbit8.png","","","memory_trial","4","definitely_new",""
"html-keyboard-response","85","269904","0.0-18.0-0.21","4657","approach_avoid_sv1","""event"",""trial"",""time""
""fullscreenenter"",""1"",""2953""
""fullscreenexit"",""37"",""165971""
""blur"",""39"",""179663""
""focus"",""39"",""181573""
","""event"",""trial"",""time""
""blur"",""39"",""179663""
","""event"",""trial"",""time""
""focus"",""39"",""181573""
","""event"",""trial"",""time""
""fullscreenenter"",""1"",""2953""
","""event"",""trial"",""time""
""fullscreenexit"",""37"",""165971""
","","","","","","null","<div style=""font-size:60px;"">+</div>","null","","fixation","","",""
"memory-trial","86","271731","0.0-18.0-1.21","4657","approach_avoid_sv1","""event"",""trial"",""time""
""fullscreenenter"",""1"",""2953""
""fullscreenexit"",""37"",""165971""
""blur"",""39"",""179663""
""focus"",""39"",""181573""
","""event"",""trial"",""time""
""blur"",""39"",""179663""
","""event"",""trial"",""time""
""focus"",""39"",""181573""
","""event"",""trial"",""time""
""fullscreenenter"",""1"",""2953""
","""event"",""trial"",""time""
""fullscreenexit"",""37"",""165971""
","","","","","","817.7999999523163","images/train4.png","","","memory_trial","1","definitely_old",""
"html-keyboard-response","87","272235","0.0-18.0-0.22","4657","approach_avoid_sv1","""event"",""trial"",""time""
""fullscreenenter"",""1"",""2953""
""fullscreenexit"",""37"",""165971""
""blur"",""39"",""179663""
""focus"",""39"",""181573""
","""event"",""trial"",""time""
""blur"",""39"",""179663""
","""event"",""trial"",""time""
""focus"",""39"",""181573""
","""event"",""trial"",""time""
""fullscreenenter"",""1"",""2953""
","""event"",""trial"",""time""
""fullscreenexit"",""37"",""165971""
","","","","","","null","<div style=""font-size:60px;"">+</div>","null","","fixation","","",""
"memory-trial","88","275172","0.0-18.0-1.22","4657","approach_avoid_sv1","""event"",""trial"",""time""
""fullscreenenter"",""1"",""2953""
""fullscreenexit"",""37"",""165971""
""blur"",""39"",""179663""
""focus"",""39"",""181573""
","""event"",""trial"",""time""
""blur"",""39"",""179663""
","""event"",""trial"",""time""
""focus"",""39"",""181573""
","""event"",""trial"",""time""
""fullscreenenter"",""1"",""2953""
","""event"",""trial"",""time""
""fullscreenexit"",""37"",""165971""
","","","","","","1928.0999999046326","images/bush1.png","","","memory_trial","4","definitely_new",""
"html-keyboard-response","89","275675","0.0-18.0-0.23","4657","approach_avoid_sv1","""event"",""trial"",""time""
""fullscreenenter"",""1"",""2953""
""fullscreenexit"",""37"",""165971""
""blur"",""39"",""179663""
""focus"",""39"",""181573""
","""event"",""trial"",""time""
""blur"",""39"",""179663""
","""event"",""trial"",""time""
""focus"",""39"",""181573""
","""event"",""trial"",""time""
""fullscreenenter"",""1"",""2953""
","""event"",""trial"",""time""
""fullscreenexit"",""37"",""165971""
","","","","","","null","<div style=""font-size:60px;"">+</div>","null","","fixation","","",""
"memory-trial","90","277836","0.0-18.0-1.23","4657","approach_avoid_sv1","""event"",""trial"",""time""
""fullscreenenter"",""1"",""2953""
""fullscreenexit"",""37"",""165971""
""blur"",""39"",""179663""
""focus"",""39"",""181573""
","""event"",""trial"",""time""
""blur"",""39"",""179663""
","""event"",""trial"",""time""
""focus"",""39"",""181573""
","""event"",""trial"",""time""
""fullscreenenter"",""1"",""2953""
","""event"",""trial"",""time""
""fullscreenexit"",""37"",""165971""
","","","","","","1153.2000000476837","images/straw7.png","","","memory_trial","4","definitely_new",""
"html-keyboard-response","91","278340","0.0-18.0-0.24","4657","approach_avoid_sv1","""event"",""trial"",""time""
""fullscreenenter"",""1"",""2953""
""fullscreenexit"",""37"",""165971""
""blur"",""39"",""179663""
""focus"",""39"",""181573""
","""event"",""trial"",""time""
""blur"",""39"",""179663""
","""event"",""trial"",""time""
""focus"",""39"",""181573""
","""event"",""trial"",""time""
""fullscreenenter"",""1"",""2953""
","""event"",""trial"",""time""
""fullscreenexit"",""37"",""165971""
","","","","","","null","<div style=""font-size:60px;"">+</div>","null","","fixation","","",""
"memory-trial","92","280309","0.0-18.0-1.24","4657","approach_avoid_sv1","""event"",""trial"",""time""
""fullscreenenter"",""1"",""2953""
""fullscreenexit"",""37"",""165971""
""blur"",""39"",""179663""
""focus"",""39"",""181573""
","""event"",""trial"",""time""
""blur"",""39"",""179663""
","""event"",""trial"",""time""
""focus"",""39"",""181573""
","""event"",""trial"",""time""
""fullscreenenter"",""1"",""2953""
","""event"",""trial"",""time""
""fullscreenexit"",""37"",""165971""
","","","","","","966.2000000476837","images/table3.png","","","memory_trial","4","definitely_new",""
"html-keyboard-response","93","280814","0.0-18.0-0.25","4657","approach_avoid_sv1","""event"",""trial"",""time""
""fullscreenenter"",""1"",""2953""
""fullscreenexit"",""37"",""165971""
""blur"",""39"",""179663""
""focus"",""39"",""181573""
","""event"",""trial"",""time""
""blur"",""39"",""179663""
","""event"",""trial"",""time""
""focus"",""39"",""181573""
","""event"",""trial"",""time""
""fullscreenenter"",""1"",""2953""
","""event"",""trial"",""time""
""fullscreenexit"",""37"",""165971""
","","","","","","null","<div style=""font-size:60px;"">+</div>","null","","fixation","","",""
"memory-trial","94","283875","0.0-18.0-1.25","4657","approach_avoid_sv1","""event"",""trial"",""time""
""fullscreenenter"",""1"",""2953""
""fullscreenexit"",""37"",""165971""
""blur"",""39"",""179663""
""focus"",""39"",""181573""
","""event"",""trial"",""time""
""blur"",""39"",""179663""
","""event"",""trial"",""time""
""focus"",""39"",""181573""
","""event"",""trial"",""time""
""fullscreenenter"",""1"",""2953""
","""event"",""trial"",""time""
""fullscreenexit"",""37"",""165971""
","","","","","","2056.100000143051","images/rodent1.png","","","memory_trial","1","definitely_old",""
"html-keyboard-response","95","284380","0.0-18.0-0.26","4657","approach_avoid_sv1","""event"",""trial"",""time""
""fullscreenenter"",""1"",""2953""
""fullscreenexit"",""37"",""165971""
""blur"",""39"",""179663""
""focus"",""39"",""181573""
","""event"",""trial"",""time""
""blur"",""39"",""179663""
","""event"",""trial"",""time""
""focus"",""39"",""181573""
","""event"",""trial"",""time""
""fullscreenenter"",""1"",""2953""
","""event"",""trial"",""time""
""fullscreenexit"",""37"",""165971""
","","","","","","null","<div style=""font-size:60px;"">+</div>","null","","fixation","","",""
"memory-trial","96","286205","0.0-18.0-1.26","4657","approach_avoid_sv1","""event"",""trial"",""time""
""fullscreenenter"",""1"",""2953""
""fullscreenexit"",""37"",""165971""
""blur"",""39"",""179663""
""focus"",""39"",""181573""
","""event"",""trial"",""time""
""blur"",""39"",""179663""
","""event"",""trial"",""time""
""focus"",""39"",""181573""
","""event"",""trial"",""time""
""fullscreenenter"",""1"",""2953""
","""event"",""trial"",""time""
""fullscreenexit"",""37"",""165971""
","","","","","","817.8999998569489","images/train3.png","","","memory_trial","1","definitely_old",""
"html-keyboard-response","97","286707","0.0-18.0-0.27","4657","approach_avoid_sv1","""event"",""trial"",""time""
""fullscreenenter"",""1"",""2953""
""fullscreenexit"",""37"",""165971""
""blur"",""39"",""179663""
""focus"",""39"",""181573""
","""event"",""trial"",""time""
""blur"",""39"",""179663""
","""event"",""trial"",""time""
""focus"",""39"",""181573""
","""event"",""trial"",""time""
""fullscreenenter"",""1"",""2953""
","""event"",""trial"",""time""
""fullscreenexit"",""37"",""165971""
","","","","","","null","<div style=""font-size:60px;"">+</div>","null","","fixation","","",""
"memory-trial","98","288724","0.0-18.0-1.27","4657","approach_avoid_sv1","""event"",""trial"",""time""
""fullscreenenter"",""1"",""2953""
""fullscreenexit"",""37"",""165971""
""blur"",""39"",""179663""
""focus"",""39"",""181573""
","""event"",""trial"",""time""
""blur"",""39"",""179663""
","""event"",""trial"",""time""
""focus"",""39"",""181573""
","""event"",""trial"",""time""
""fullscreenenter"",""1"",""2953""
","""event"",""trial"",""time""
""fullscreenexit"",""37"",""165971""
","","","","","","1006.9000000953674","images/sheep5.png","","","memory_trial","4","definitely_new",""
"html-keyboard-response","99","289228","0.0-18.0-0.28","4657","approach_avoid_sv1","""event"",""trial"",""time""
""fullscreenenter"",""1"",""2953""
""fullscreenexit"",""37"",""165971""
""blur"",""39"",""179663""
""focus"",""39"",""181573""
","""event"",""trial"",""time""
""blur"",""39"",""179663""
","""event"",""trial"",""time""
""focus"",""39"",""181573""
","""event"",""trial"",""time""
""fullscreenenter"",""1"",""2953""
","""event"",""trial"",""time""
""fullscreenexit"",""37"",""165971""
","","","","","","null","<div style=""font-size:60px;"">+</div>","null","","fixation","","",""
"memory-trial","100","291829","0.0-18.0-1.28","4657","approach_avoid_sv1","""event"",""trial"",""time""
""fullscreenenter"",""1"",""2953""
""fullscreenexit"",""37"",""165971""
""blur"",""39"",""179663""
""focus"",""39"",""181573""
","""event"",""trial"",""time""
""blur"",""39"",""179663""
","""event"",""trial"",""time""
""focus"",""39"",""181573""
","""event"",""trial"",""time""
""fullscreenenter"",""1"",""2953""
","""event"",""trial"",""time""
""fullscreenexit"",""37"",""165971""
","","","","","","1595.7999999523163","images/tree8.png","","","memory_trial","4","definitely_new",""
"html-keyboard-response","101","292332","0.0-18.0-0.29","4657","approach_avoid_sv1","""event"",""trial"",""time""
""fullscreenenter"",""1"",""2953""
""fullscreenexit"",""37"",""165971""
""blur"",""39"",""179663""
""focus"",""39"",""181573""
","""event"",""trial"",""time""
""blur"",""39"",""179663""
","""event"",""trial"",""time""
""focus"",""39"",""181573""
","""event"",""trial"",""time""
""fullscreenenter"",""1"",""2953""
","""event"",""trial"",""time""
""fullscreenexit"",""37"",""165971""
","","","","","","null","<div style=""font-size:60px;"">+</div>","null","","fixation","","",""
"memory-trial","102","295388","0.0-18.0-1.29","4657","approach_avoid_sv1","""event"",""trial"",""time""
""fullscreenenter"",""1"",""2953""
""fullscreenexit"",""37"",""165971""
""blur"",""39"",""179663""
""focus"",""39"",""181573""
","""event"",""trial"",""time""
""blur"",""39"",""179663""
","""event"",""trial"",""time""
""focus"",""39"",""181573""
","""event"",""trial"",""time""
""fullscreenenter"",""1"",""2953""
","""event"",""trial"",""time""
""fullscreenexit"",""37"",""165971""
","","","","","","2054","images/cat8.png","","","memory_trial","1","definitely_old",""
"html-keyboard-response","103","295903","0.0-18.0-0.30","4657","approach_avoid_sv1","""event"",""trial"",""time""
""fullscreenenter"",""1"",""2953""
""fullscreenexit"",""37"",""165971""
""blur"",""39"",""179663""
""focus"",""39"",""181573""
","""event"",""trial"",""time""
""blur"",""39"",""179663""
","""event"",""trial"",""time""
""focus"",""39"",""181573""
","""event"",""trial"",""time""
""fullscreenenter"",""1"",""2953""
","""event"",""trial"",""time""
""fullscreenexit"",""37"",""165971""
","","","","","","null","<div style=""font-size:60px;"">+</div>","null","","fixation","","",""
"memory-trial","104","298493","0.0-18.0-1.30","4657","approach_avoid_sv1","""event"",""trial"",""time""
""fullscreenenter"",""1"",""2953""
""fullscreenexit"",""37"",""165971""
""blur"",""39"",""179663""
""focus"",""39"",""181573""
","""event"",""trial"",""time""
""blur"",""39"",""179663""
","""event"",""trial"",""time""
""focus"",""39"",""181573""
","""event"",""trial"",""time""
""fullscreenenter"",""1"",""2953""
","""event"",""trial"",""time""
""fullscreenexit"",""37"",""165971""
","","","","","","1581.5","images/flower2.png","","","memory_trial","4","definitely_new",""
"html-keyboard-response","105","299009","0.0-18.0-0.31","4657","approach_avoid_sv1","""event"",""trial"",""time""
""fullscreenenter"",""1"",""2953""
""fullscreenexit"",""37"",""165971""
""blur"",""39"",""179663""
""focus"",""39"",""181573""
","""event"",""trial"",""time""
""blur"",""39"",""179663""
","""event"",""trial"",""time""
""focus"",""39"",""181573""
","""event"",""trial"",""time""
""fullscreenenter"",""1"",""2953""
","""event"",""trial"",""time""
""fullscreenexit"",""37"",""165971""
","","","","","","null","<div style=""font-size:60px;"">+</div>","null","","fixation","","",""
"memory-trial","106","300861","0.0-18.0-1.31","4657","approach_avoid_sv1","""event"",""trial"",""time""
""fullscreenenter"",""1"",""2953""
""fullscreenexit"",""37"",""165971""
""blur"",""39"",""179663""
""focus"",""39"",""181573""
","""event"",""trial"",""time""
""blur"",""39"",""179663""
","""event"",""trial"",""time""
""focus"",""39"",""181573""
","""event"",""trial"",""time""
""fullscreenenter"",""1"",""2953""
","""event"",""trial"",""time""
""fullscreenexit"",""37"",""165971""
","","","","","","844.7000000476837","images/dog8.png","","","memory_trial","4","definitely_new",""
"html-keyboard-response","107","301365","0.0-18.0-0.32","4657","approach_avoid_sv1","""event"",""trial"",""time""
""fullscreenenter"",""1"",""2953""
""fullscreenexit"",""37"",""165971""
""blur"",""39"",""179663""
""focus"",""39"",""181573""
","""event"",""trial"",""time""
""blur"",""39"",""179663""
","""event"",""trial"",""time""
""focus"",""39"",""181573""
","""event"",""trial"",""time""
""fullscreenenter"",""1"",""2953""
","""event"",""trial"",""time""
""fullscreenexit"",""37"",""165971""
","","","","","","null","<div style=""font-size:60px;"">+</div>","null","","fixation","","",""
"memory-trial","108","303364","0.0-18.0-1.32","4657","approach_avoid_sv1","""event"",""trial"",""time""
""fullscreenenter"",""1"",""2953""
""fullscreenexit"",""37"",""165971""
""blur"",""39"",""179663""
""focus"",""39"",""181573""
","""event"",""trial"",""time""
""blur"",""39"",""179663""
","""event"",""trial"",""time""
""focus"",""39"",""181573""
","""event"",""trial"",""time""
""fullscreenenter"",""1"",""2953""
","""event"",""trial"",""time""
""fullscreenexit"",""37"",""165971""
","","","","","","995.3999998569489","images/bed4.png","","","memory_trial","4","definitely_new",""
"html-keyboard-response","109","303869","0.0-18.0-0.33","4657","approach_avoid_sv1","""event"",""trial"",""time""
""fullscreenenter"",""1"",""2953""
""fullscreenexit"",""37"",""165971""
""blur"",""39"",""179663""
""focus"",""39"",""181573""
","""event"",""trial"",""time""
""blur"",""39"",""179663""
","""event"",""trial"",""time""
""focus"",""39"",""181573""
","""event"",""trial"",""time""
""fullscreenenter"",""1"",""2953""
","""event"",""trial"",""time""
""fullscreenexit"",""37"",""165971""
","","","","","","null","<div style=""font-size:60px;"">+</div>","null","","fixation","","",""
"memory-trial","110","306108","0.0-18.0-1.33","4657","approach_avoid_sv1","""event"",""trial"",""time""
""fullscreenenter"",""1"",""2953""
""fullscreenexit"",""37"",""165971""
""blur"",""39"",""179663""
""focus"",""39"",""181573""
","""event"",""trial"",""time""
""blur"",""39"",""179663""
","""event"",""trial"",""time""
""focus"",""39"",""181573""
","""event"",""trial"",""time""
""fullscreenenter"",""1"",""2953""
","""event"",""trial"",""time""
""fullscreenexit"",""37"",""165971""
","","","","","","1236.6000001430511","images/plane2.png","","","memory_trial","4","definitely_new",""
"html-keyboard-response","111","306609","0.0-18.0-0.34","4657","approach_avoid_sv1","""event"",""trial"",""time""
""fullscreenenter"",""1"",""2953""
""fullscreenexit"",""37"",""165971""
""blur"",""39"",""179663""
""focus"",""39"",""181573""
","""event"",""trial"",""time""
""blur"",""39"",""179663""
","""event"",""trial"",""time""
""focus"",""39"",""181573""
","""event"",""trial"",""time""
""fullscreenenter"",""1"",""2953""
","""event"",""trial"",""time""
""fullscreenexit"",""37"",""165971""
","","","","","","null","<div style=""font-size:60px;"">+</div>","null","","fixation","","",""
"memory-trial","112","309172","0.0-18.0-1.34","4657","approach_avoid_sv1","""event"",""trial"",""time""
""fullscreenenter"",""1"",""2953""
""fullscreenexit"",""37"",""165971""
""blur"",""39"",""179663""
""focus"",""39"",""181573""
","""event"",""trial"",""time""
""blur"",""39"",""179663""
","""event"",""trial"",""time""
""focus"",""39"",""181573""
","""event"",""trial"",""time""
""fullscreenenter"",""1"",""2953""
","""event"",""trial"",""time""
""fullscreenexit"",""37"",""165971""
","","","","","","1560.4000000953674","images/horse3.png","","","memory_trial","1","definitely_old",""
"html-keyboard-response","113","309676","0.0-18.0-0.35","4657","approach_avoid_sv1","""event"",""trial"",""time""
""fullscreenenter"",""1"",""2953""
""fullscreenexit"",""37"",""165971""
""blur"",""39"",""179663""
""focus"",""39"",""181573""
","""event"",""trial"",""time""
""blur"",""39"",""179663""
","""event"",""trial"",""time""
""focus"",""39"",""181573""
","""event"",""trial"",""time""
""fullscreenenter"",""1"",""2953""
","""event"",""trial"",""time""
""fullscreenexit"",""37"",""165971""
","","","","","","null","<div style=""font-size:60px;"">+</div>","null","","fixation","","",""
"memory-trial","114","313567","0.0-18.0-1.35","4657","approach_avoid_sv1","""event"",""trial"",""time""
""fullscreenenter"",""1"",""2953""
""fullscreenexit"",""37"",""165971""
""blur"",""39"",""179663""
""focus"",""39"",""181573""
","""event"",""trial"",""time""
""blur"",""39"",""179663""
","""event"",""trial"",""time""
""focus"",""39"",""181573""
","""event"",""trial"",""time""
""fullscreenenter"",""1"",""2953""
","""event"",""trial"",""time""
""fullscreenexit"",""37"",""165971""
","","","","","","2878.5","images/bed3.png","","","memory_trial","4","definitely_new",""
"html-keyboard-response","115","314077","0.0-18.0-0.36","4657","approach_avoid_sv1","""event"",""trial"",""time""
""fullscreenenter"",""1"",""2953""
""fullscreenexit"",""37"",""165971""
""blur"",""39"",""179663""
""focus"",""39"",""181573""
","""event"",""trial"",""time""
""blur"",""39"",""179663""
","""event"",""trial"",""time""
""focus"",""39"",""181573""
","""event"",""trial"",""time""
""fullscreenenter"",""1"",""2953""
","""event"",""trial"",""time""
""fullscreenexit"",""37"",""165971""
","","","","","","null","<div style=""font-size:60px;"">+</div>","null","","fixation","","",""
"memory-trial","116","315956","0.0-18.0-1.36","4657","approach_avoid_sv1","""event"",""trial"",""time""
""fullscreenenter"",""1"",""2953""
""fullscreenexit"",""37"",""165971""
""blur"",""39"",""179663""
""focus"",""39"",""181573""
","""event"",""trial"",""time""
""blur"",""39"",""179663""
","""event"",""trial"",""time""
""focus"",""39"",""181573""
","""event"",""trial"",""time""
""fullscreenenter"",""1"",""2953""
","""event"",""trial"",""time""
""fullscreenexit"",""37"",""165971""
","","","","","","875.5999999046326","images/table6.png","","","memory_trial","4","definitely_new",""
"html-keyboard-response","117","316460","0.0-18.0-0.37","4657","approach_avoid_sv1","""event"",""trial"",""time""
""fullscreenenter"",""1"",""2953""
""fullscreenexit"",""37"",""165971""
""blur"",""39"",""179663""
""focus"",""39"",""181573""
","""event"",""trial"",""time""
""blur"",""39"",""179663""
","""event"",""trial"",""time""
""focus"",""39"",""181573""
","""event"",""trial"",""time""
""fullscreenenter"",""1"",""2953""
","""event"",""trial"",""time""
""fullscreenexit"",""37"",""165971""
","","","","","","null","<div style=""font-size:60px;"">+</div>","null","","fixation","","",""
"memory-trial","118","318380","0.0-18.0-1.37","4657","approach_avoid_sv1","""event"",""trial"",""time""
""fullscreenenter"",""1"",""2953""
""fullscreenexit"",""37"",""165971""
""blur"",""39"",""179663""
""focus"",""39"",""181573""
","""event"",""trial"",""time""
""blur"",""39"",""179663""
","""event"",""trial"",""time""
""focus"",""39"",""181573""
","""event"",""trial"",""time""
""fullscreenenter"",""1"",""2953""
","""event"",""trial"",""time""
""fullscreenexit"",""37"",""165971""
","","","","","","911.7000000476837","images/rabbit4.png","","","memory_trial","4","definitely_new",""
"html-keyboard-response","119","318898","0.0-18.0-0.38","4657","approach_avoid_sv1","""event"",""trial"",""time""
""fullscreenenter"",""1"",""2953""
""fullscreenexit"",""37"",""165971""
""blur"",""39"",""179663""
""focus"",""39"",""181573""
","""event"",""trial"",""time""
""blur"",""39"",""179663""
","""event"",""trial"",""time""
""focus"",""39"",""181573""
","""event"",""trial"",""time""
""fullscreenenter"",""1"",""2953""
","""event"",""trial"",""time""
""fullscreenexit"",""37"",""165971""
","","","","","","null","<div style=""font-size:60px;"">+</div>","null","","fixation","","",""
"memory-trial","120","320931","0.0-18.0-1.38","4657","approach_avoid_sv1","""event"",""trial"",""time""
""fullscreenenter"",""1"",""2953""
""fullscreenexit"",""37"",""165971""
""blur"",""39"",""179663""
""focus"",""39"",""181573""
","""event"",""trial"",""time""
""blur"",""39"",""179663""
","""event"",""trial"",""time""
""focus"",""39"",""181573""
","""event"",""trial"",""time""
""fullscreenenter"",""1"",""2953""
","""event"",""trial"",""time""
""fullscreenexit"",""37"",""165971""
","","","","","","1024","images/apple6.png","","","memory_trial","1","definitely_old",""
"html-keyboard-response","121","321445","0.0-18.0-0.39","4657","approach_avoid_sv1","""event"",""trial"",""time""
""fullscreenenter"",""1"",""2953""
""fullscreenexit"",""37"",""165971""
""blur"",""39"",""179663""
""focus"",""39"",""181573""
","""event"",""trial"",""time""
""blur"",""39"",""179663""
","""event"",""trial"",""time""
""focus"",""39"",""181573""
","""event"",""trial"",""time""
""fullscreenenter"",""1"",""2953""
","""event"",""trial"",""time""
""fullscreenexit"",""37"",""165971""
","","","","","","null","<div style=""font-size:60px;"">+</div>","null","","fixation","","",""
"memory-trial","122","323244","0.0-18.0-1.39","4657","approach_avoid_sv1","""event"",""trial"",""time""
""fullscreenenter"",""1"",""2953""
""fullscreenexit"",""37"",""165971""
""blur"",""39"",""179663""
""focus"",""39"",""181573""
","""event"",""trial"",""time""
""blur"",""39"",""179663""
","""event"",""trial"",""time""
""focus"",""39"",""181573""
","""event"",""trial"",""time""
""fullscreenenter"",""1"",""2953""
","""event"",""trial"",""time""
""fullscreenexit"",""37"",""165971""
","","","","","","793.2999999523163","images/horse5.png","","","memory_trial","4","definitely_new",""
"html-keyboard-response","123","323749","0.0-18.0-0.40","4657","approach_avoid_sv1","""event"",""trial"",""time""
""fullscreenenter"",""1"",""2953""
""fullscreenexit"",""37"",""165971""
""blur"",""39"",""179663""
""focus"",""39"",""181573""
","""event"",""trial"",""time""
""blur"",""39"",""179663""
","""event"",""trial"",""time""
""focus"",""39"",""181573""
","""event"",""trial"",""time""
""fullscreenenter"",""1"",""2953""
","""event"",""trial"",""time""
""fullscreenexit"",""37"",""165971""
","","","","","","null","<div style=""font-size:60px;"">+</div>","null","","fixation","","",""
"memory-trial","124","325725","0.0-18.0-1.40","4657","approach_avoid_sv1","""event"",""trial"",""time""
""fullscreenenter"",""1"",""2953""
""fullscreenexit"",""37"",""165971""
""blur"",""39"",""179663""
""focus"",""39"",""181573""
","""event"",""trial"",""time""
""blur"",""39"",""179663""
","""event"",""trial"",""time""
""focus"",""39"",""181573""
","""event"",""trial"",""time""
""fullscreenenter"",""1"",""2953""
","""event"",""trial"",""time""
""fullscreenexit"",""37"",""165971""
","","","","","","969","images/rabbit6.png","","","memory_trial","4","definitely_new",""
"html-keyboard-response","125","326228","0.0-18.0-0.41","4657","approach_avoid_sv1","""event"",""trial"",""time""
""fullscreenenter"",""1"",""2953""
""fullscreenexit"",""37"",""165971""
""blur"",""39"",""179663""
""focus"",""39"",""181573""
","""event"",""trial"",""time""
""blur"",""39"",""179663""
","""event"",""trial"",""time""
""focus"",""39"",""181573""
","""event"",""trial"",""time""
""fullscreenenter"",""1"",""2953""
","""event"",""trial"",""time""
""fullscreenexit"",""37"",""165971""
","","","","","","null","<div style=""font-size:60px;"">+</div>","null","","fixation","","",""
"memory-trial","126","329229","0.0-18.0-1.41","4657","approach_avoid_sv1","""event"",""trial"",""time""
""fullscreenenter"",""1"",""2953""
""fullscreenexit"",""37"",""165971""
""blur"",""39"",""179663""
""focus"",""39"",""181573""
","""event"",""trial"",""time""
""blur"",""39"",""179663""
","""event"",""trial"",""time""
""focus"",""39"",""181573""
","""event"",""trial"",""time""
""fullscreenenter"",""1"",""2953""
","""event"",""trial"",""time""
""fullscreenexit"",""37"",""165971""
","","","","","","1991.5","images/bush8.png","","","memory_trial","1","definitely_old",""
"html-button-response","127","330922","0.0-18.0-2.41-0.41","4657","approach_avoid_sv1","""event"",""trial"",""time""
""fullscreenenter"",""1"",""2953""
""fullscreenexit"",""37"",""165971""
""blur"",""39"",""179663""
""focus"",""39"",""181573""
","""event"",""trial"",""time""
""blur"",""39"",""179663""
","""event"",""trial"",""time""
""focus"",""39"",""181573""
","""event"",""trial"",""time""
""fullscreenenter"",""1"",""2953""
","""event"",""trial"",""time""
""fullscreenexit"",""37"",""165971""
","","","","","","1692.4000000953674","<p> Take a break! </p><p> Click the button to continue. </p>","0","","break","","",""
"html-keyboard-response","128","331428","0.0-18.0-0.42","4657","approach_avoid_sv1","""event"",""trial"",""time""
""fullscreenenter"",""1"",""2953""
""fullscreenexit"",""37"",""165971""
""blur"",""39"",""179663""
""focus"",""39"",""181573""
","""event"",""trial"",""time""
""blur"",""39"",""179663""
","""event"",""trial"",""time""
""focus"",""39"",""181573""
","""event"",""trial"",""time""
""fullscreenenter"",""1"",""2953""
","""event"",""trial"",""time""
""fullscreenexit"",""37"",""165971""
","","","","","","null","<div style=""font-size:60px;"">+</div>","null","","fixation","","",""
"memory-trial","129","335045","0.0-18.0-1.42","4657","approach_avoid_sv1","""event"",""trial"",""time""
""fullscreenenter"",""1"",""2953""
""fullscreenexit"",""37"",""165971""
""blur"",""39"",""179663""
""focus"",""39"",""181573""
","""event"",""trial"",""time""
""blur"",""39"",""179663""
","""event"",""trial"",""time""
""focus"",""39"",""181573""
","""event"",""trial"",""time""
""fullscreenenter"",""1"",""2953""
","""event"",""trial"",""time""
""fullscreenexit"",""37"",""165971""
","","","","","","2607.5","images/sheep7.png","","","memory_trial","4","definitely_new",""
"html-keyboard-response","130","335548","0.0-18.0-0.43","4657","approach_avoid_sv1","""event"",""trial"",""time""
""fullscreenenter"",""1"",""2953""
""fullscreenexit"",""37"",""165971""
""blur"",""39"",""179663""
""focus"",""39"",""181573""
","""event"",""trial"",""time""
""blur"",""39"",""179663""
","""event"",""trial"",""time""
""focus"",""39"",""181573""
","""event"",""trial"",""time""
""fullscreenenter"",""1"",""2953""
","""event"",""trial"",""time""
""fullscreenexit"",""37"",""165971""
","","","","","","null","<div style=""font-size:60px;"">+</div>","null","","fixation","","",""
"memory-trial","131","337948","0.0-18.0-1.43","4657","approach_avoid_sv1","""event"",""trial"",""time""
""fullscreenenter"",""1"",""2953""
""fullscreenexit"",""37"",""165971""
""blur"",""39"",""179663""
""focus"",""39"",""181573""
","""event"",""trial"",""time""
""blur"",""39"",""179663""
","""event"",""trial"",""time""
""focus"",""39"",""181573""
","""event"",""trial"",""time""
""fullscreenenter"",""1"",""2953""
","""event"",""trial"",""time""
""fullscreenexit"",""37"",""165971""
","","","","","","1395.3999998569489","images/dog1.png","","","memory_trial","1","definitely_old",""
"html-keyboard-response","132","338451","0.0-18.0-0.44","4657","approach_avoid_sv1","""event"",""trial"",""time""
""fullscreenenter"",""1"",""2953""
""fullscreenexit"",""37"",""165971""
""blur"",""39"",""179663""
""focus"",""39"",""181573""
","""event"",""trial"",""time""
""blur"",""39"",""179663""
","""event"",""trial"",""time""
""focus"",""39"",""181573""
","""event"",""trial"",""time""
""fullscreenenter"",""1"",""2953""
","""event"",""trial"",""time""
""fullscreenexit"",""37"",""165971""
","","","","","","null","<div style=""font-size:60px;"">+</div>","null","","fixation","","",""
"memory-trial","133","340244","0.0-18.0-1.44","4657","approach_avoid_sv1","""event"",""trial"",""time""
""fullscreenenter"",""1"",""2953""
""fullscreenexit"",""37"",""165971""
""blur"",""39"",""179663""
""focus"",""39"",""181573""
","""event"",""trial"",""time""
""blur"",""39"",""179663""
","""event"",""trial"",""time""
""focus"",""39"",""181573""
","""event"",""trial"",""time""
""fullscreenenter"",""1"",""2953""
","""event"",""trial"",""time""
""fullscreenexit"",""37"",""165971""
","","","","","","782.7999999523163","images/straw1.png","","","memory_trial","4","definitely_new",""
"html-keyboard-response","134","340749","0.0-18.0-0.45","4657","approach_avoid_sv1","""event"",""trial"",""time""
""fullscreenenter"",""1"",""2953""
""fullscreenexit"",""37"",""165971""
""blur"",""39"",""179663""
""focus"",""39"",""181573""
","""event"",""trial"",""time""
""blur"",""39"",""179663""
","""event"",""trial"",""time""
""focus"",""39"",""181573""
","""event"",""trial"",""time""
""fullscreenenter"",""1"",""2953""
","""event"",""trial"",""time""
""fullscreenexit"",""37"",""165971""
","","","","","","null","<div style=""font-size:60px;"">+</div>","null","","fixation","","",""
"memory-trial","135","343733","0.0-18.0-1.45","4657","approach_avoid_sv1","""event"",""trial"",""time""
""fullscreenenter"",""1"",""2953""
""fullscreenexit"",""37"",""165971""
""blur"",""39"",""179663""
""focus"",""39"",""181573""
","""event"",""trial"",""time""
""blur"",""39"",""179663""
","""event"",""trial"",""time""
""focus"",""39"",""181573""
","""event"",""trial"",""time""
""fullscreenenter"",""1"",""2953""
","""event"",""trial"",""time""
""fullscreenexit"",""37"",""165971""
","","","","","","1974.5","images/tree2.png","","","memory_trial","2","maybe_old",""
"html-keyboard-response","136","344236","0.0-18.0-0.46","4657","approach_avoid_sv1","""event"",""trial"",""time""
""fullscreenenter"",""1"",""2953""
""fullscreenexit"",""37"",""165971""
""blur"",""39"",""179663""
""focus"",""39"",""181573""
","""event"",""trial"",""time""
""blur"",""39"",""179663""
","""event"",""trial"",""time""
""focus"",""39"",""181573""
","""event"",""trial"",""time""
""fullscreenenter"",""1"",""2953""
","""event"",""trial"",""time""
""fullscreenexit"",""37"",""165971""
","","","","","","null","<div style=""font-size:60px;"">+</div>","null","","fixation","","",""
"memory-trial","137","346972","0.0-18.0-1.46","4657","approach_avoid_sv1","""event"",""trial"",""time""
""fullscreenenter"",""1"",""2953""
""fullscreenexit"",""37"",""165971""
""blur"",""39"",""179663""
""focus"",""39"",""181573""
","""event"",""trial"",""time""
""blur"",""39"",""179663""
","""event"",""trial"",""time""
""focus"",""39"",""181573""
","""event"",""trial"",""time""
""fullscreenenter"",""1"",""2953""
","""event"",""trial"",""time""
""fullscreenexit"",""37"",""165971""
","","","","","","1730","images/sheep3.png","","","memory_trial","4","definitely_new",""
"html-keyboard-response","138","347485","0.0-18.0-0.47","4657","approach_avoid_sv1","""event"",""trial"",""time""
""fullscreenenter"",""1"",""2953""
""fullscreenexit"",""37"",""165971""
""blur"",""39"",""179663""
""focus"",""39"",""181573""
","""event"",""trial"",""time""
""blur"",""39"",""179663""
","""event"",""trial"",""time""
""focus"",""39"",""181573""
","""event"",""trial"",""time""
""fullscreenenter"",""1"",""2953""
","""event"",""trial"",""time""
""fullscreenexit"",""37"",""165971""
","","","","","","null","<div style=""font-size:60px;"">+</div>","null","","fixation","","",""
"memory-trial","139","350340","0.0-18.0-1.47","4657","approach_avoid_sv1","""event"",""trial"",""time""
""fullscreenenter"",""1"",""2953""
""fullscreenexit"",""37"",""165971""
""blur"",""39"",""179663""
""focus"",""39"",""181573""
","""event"",""trial"",""time""
""blur"",""39"",""179663""
","""event"",""trial"",""time""
""focus"",""39"",""181573""
","""event"",""trial"",""time""
""fullscreenenter"",""1"",""2953""
","""event"",""trial"",""time""
""fullscreenexit"",""37"",""165971""
","","","","","","1845.7999999523163","images/table5.png","","","memory_trial","2","maybe_old",""
"html-keyboard-response","140","350844","0.0-18.0-0.48","4657","approach_avoid_sv1","""event"",""trial"",""time""
""fullscreenenter"",""1"",""2953""
""fullscreenexit"",""37"",""165971""
""blur"",""39"",""179663""
""focus"",""39"",""181573""
","""event"",""trial"",""time""
""blur"",""39"",""179663""
","""event"",""trial"",""time""
""focus"",""39"",""181573""
","""event"",""trial"",""time""
""fullscreenenter"",""1"",""2953""
","""event"",""trial"",""time""
""fullscreenexit"",""37"",""165971""
","","","","","","null","<div style=""font-size:60px;"">+</div>","null","","fixation","","",""
"memory-trial","141","353428","0.0-18.0-1.48","4657","approach_avoid_sv1","""event"",""trial"",""time""
""fullscreenenter"",""1"",""2953""
""fullscreenexit"",""37"",""165971""
""blur"",""39"",""179663""
""focus"",""39"",""181573""
","""event"",""trial"",""time""
""blur"",""39"",""179663""
","""event"",""trial"",""time""
""focus"",""39"",""181573""
","""event"",""trial"",""time""
""fullscreenenter"",""1"",""2953""
","""event"",""trial"",""time""
""fullscreenexit"",""37"",""165971""
","","","","","","1575.5999999046326","images/truck7.png","","","memory_trial","4","definitely_new",""
"html-keyboard-response","142","353933","0.0-18.0-0.49","4657","approach_avoid_sv1","""event"",""trial"",""time""
""fullscreenenter"",""1"",""2953""
""fullscreenexit"",""37"",""165971""
""blur"",""39"",""179663""
""focus"",""39"",""181573""
","""event"",""trial"",""time""
""blur"",""39"",""179663""
","""event"",""trial"",""time""
""focus"",""39"",""181573""
","""event"",""trial"",""time""
""fullscreenenter"",""1"",""2953""
","""event"",""trial"",""time""
""fullscreenexit"",""37"",""165971""
","","","","","","null","<div style=""font-size:60px;"">+</div>","null","","fixation","","",""
"memory-trial","143","355564","0.0-18.0-1.49","4657","approach_avoid_sv1","""event"",""trial"",""time""
""fullscreenenter"",""1"",""2953""
""fullscreenexit"",""37"",""165971""
""blur"",""39"",""179663""
""focus"",""39"",""181573""
","""event"",""trial"",""time""
""blur"",""39"",""179663""
","""event"",""trial"",""time""
""focus"",""39"",""181573""
","""event"",""trial"",""time""
""fullscreenenter"",""1"",""2953""
","""event"",""trial"",""time""
""fullscreenexit"",""37"",""165971""
","","","","","","621.3999998569489","images/truck8.png","","","memory_trial","4","definitely_new",""
"html-keyboard-response","144","356069","0.0-18.0-0.50","4657","approach_avoid_sv1","""event"",""trial"",""time""
""fullscreenenter"",""1"",""2953""
""fullscreenexit"",""37"",""165971""
""blur"",""39"",""179663""
""focus"",""39"",""181573""
","""event"",""trial"",""time""
""blur"",""39"",""179663""
","""event"",""trial"",""time""
""focus"",""39"",""181573""
","""event"",""trial"",""time""
""fullscreenenter"",""1"",""2953""
","""event"",""trial"",""time""
""fullscreenexit"",""37"",""165971""
","","","","","","null","<div style=""font-size:60px;"">+</div>","null","","fixation","","",""
"memory-trial","145","358765","0.0-18.0-1.50","4657","approach_avoid_sv1","""event"",""trial"",""time""
""fullscreenenter"",""1"",""2953""
""fullscreenexit"",""37"",""165971""
""blur"",""39"",""179663""
""focus"",""39"",""181573""
","""event"",""trial"",""time""
""blur"",""39"",""179663""
","""event"",""trial"",""time""
""focus"",""39"",""181573""
","""event"",""trial"",""time""
""fullscreenenter"",""1"",""2953""
","""event"",""trial"",""time""
""fullscreenexit"",""37"",""165971""
","","","","","","1687.7999999523163","images/cat4.png","","","memory_trial","4","definitely_new",""
"html-keyboard-response","146","359269","0.0-18.0-0.51","4657","approach_avoid_sv1","""event"",""trial"",""time""
""fullscreenenter"",""1"",""2953""
""fullscreenexit"",""37"",""165971""
""blur"",""39"",""179663""
""focus"",""39"",""181573""
","""event"",""trial"",""time""
""blur"",""39"",""179663""
","""event"",""trial"",""time""
""focus"",""39"",""181573""
","""event"",""trial"",""time""
""fullscreenenter"",""1"",""2953""
","""event"",""trial"",""time""
""fullscreenexit"",""37"",""165971""
","","","","","","null","<div style=""font-size:60px;"">+</div>","null","","fixation","","",""
"memory-trial","147","361564","0.0-18.0-1.51","4657","approach_avoid_sv1","""event"",""trial"",""time""
""fullscreenenter"",""1"",""2953""
""fullscreenexit"",""37"",""165971""
""blur"",""39"",""179663""
""focus"",""39"",""181573""
","""event"",""trial"",""time""
""blur"",""39"",""179663""
","""event"",""trial"",""time""
""focus"",""39"",""181573""
","""event"",""trial"",""time""
""fullscreenenter"",""1"",""2953""
","""event"",""trial"",""time""
""fullscreenexit"",""37"",""165971""
","","","","","","1285.1999998092651","images/train8.png","","","memory_trial","4","definitely_new",""
"html-keyboard-response","148","362068","0.0-18.0-0.52","4657","approach_avoid_sv1","""event"",""trial"",""time""
""fullscreenenter"",""1"",""2953""
""fullscreenexit"",""37"",""165971""
""blur"",""39"",""179663""
""focus"",""39"",""181573""
","""event"",""trial"",""time""
""blur"",""39"",""179663""
","""event"",""trial"",""time""
""focus"",""39"",""181573""
","""event"",""trial"",""time""
""fullscreenenter"",""1"",""2953""
","""event"",""trial"",""time""
""fullscreenexit"",""37"",""165971""
","","","","","","null","<div style=""font-size:60px;"">+</div>","null","","fixation","","",""
"memory-trial","149","363695","0.0-18.0-1.52","4657","approach_avoid_sv1","""event"",""trial"",""time""
""fullscreenenter"",""1"",""2953""
""fullscreenexit"",""37"",""165971""
""blur"",""39"",""179663""
""focus"",""39"",""181573""
","""event"",""trial"",""time""
""blur"",""39"",""179663""
","""event"",""trial"",""time""
""focus"",""39"",""181573""
","""event"",""trial"",""time""
""fullscreenenter"",""1"",""2953""
","""event"",""trial"",""time""
""fullscreenexit"",""37"",""165971""
","","","","","","618.7000000476837","images/cactus5.png","","","memory_trial","4","definitely_new",""
"html-keyboard-response","150","364204","0.0-18.0-0.53","4657","approach_avoid_sv1","""event"",""trial"",""time""
""fullscreenenter"",""1"",""2953""
""fullscreenexit"",""37"",""165971""
""blur"",""39"",""179663""
""focus"",""39"",""181573""
","""event"",""trial"",""time""
""blur"",""39"",""179663""
","""event"",""trial"",""time""
""focus"",""39"",""181573""
","""event"",""trial"",""time""
""fullscreenenter"",""1"",""2953""
","""event"",""trial"",""time""
""fullscreenexit"",""37"",""165971""
","","","","","","null","<div style=""font-size:60px;"">+</div>","null","","fixation","","",""
"memory-trial","151","366052","0.0-18.0-1.53","4657","approach_avoid_sv1","""event"",""trial"",""time""
""fullscreenenter"",""1"",""2953""
""fullscreenexit"",""37"",""165971""
""blur"",""39"",""179663""
""focus"",""39"",""181573""
","""event"",""trial"",""time""
""blur"",""39"",""179663""
","""event"",""trial"",""time""
""focus"",""39"",""181573""
","""event"",""trial"",""time""
""fullscreenenter"",""1"",""2953""
","""event"",""trial"",""time""
""fullscreenexit"",""37"",""165971""
","","","","","","839.2000000476837","images/banana2.png","","","memory_trial","4","definitely_new",""
"html-keyboard-response","152","366557","0.0-18.0-0.54","4657","approach_avoid_sv1","""event"",""trial"",""time""
""fullscreenenter"",""1"",""2953""
""fullscreenexit"",""37"",""165971""
""blur"",""39"",""179663""
""focus"",""39"",""181573""
","""event"",""trial"",""time""
""blur"",""39"",""179663""
","""event"",""trial"",""time""
""focus"",""39"",""181573""
","""event"",""trial"",""time""
""fullscreenenter"",""1"",""2953""
","""event"",""trial"",""time""
""fullscreenexit"",""37"",""165971""
","","","","","","null","<div style=""font-size:60px;"">+</div>","null","","fixation","","",""
"memory-trial","153","368221","0.0-18.0-1.54","4657","approach_avoid_sv1","""event"",""trial"",""time""
""fullscreenenter"",""1"",""2953""
""fullscreenexit"",""37"",""165971""
""blur"",""39"",""179663""
""focus"",""39"",""181573""
","""event"",""trial"",""time""
""blur"",""39"",""179663""
","""event"",""trial"",""time""
""focus"",""39"",""181573""
","""event"",""trial"",""time""
""fullscreenenter"",""1"",""2953""
","""event"",""trial"",""time""
""fullscreenexit"",""37"",""165971""
","","","","","","659.2999999523163","images/straw6.png","","","memory_trial","4","definitely_new",""
"html-keyboard-response","154","368724","0.0-18.0-0.55","4657","approach_avoid_sv1","""event"",""trial"",""time""
""fullscreenenter"",""1"",""2953""
""fullscreenexit"",""37"",""165971""
""blur"",""39"",""179663""
""focus"",""39"",""181573""
","""event"",""trial"",""time""
""blur"",""39"",""179663""
","""event"",""trial"",""time""
""focus"",""39"",""181573""
","""event"",""trial"",""time""
""fullscreenenter"",""1"",""2953""
","""event"",""trial"",""time""
""fullscreenexit"",""37"",""165971""
","","","","","","null","<div style=""font-size:60px;"">+</div>","null","","fixation","","",""
"memory-trial","155","370085","0.0-18.0-1.55","4657","approach_avoid_sv1","""event"",""trial"",""time""
""fullscreenenter"",""1"",""2953""
""fullscreenexit"",""37"",""165971""
""blur"",""39"",""179663""
""focus"",""39"",""181573""
","""event"",""trial"",""time""
""blur"",""39"",""179663""
","""event"",""trial"",""time""
""focus"",""39"",""181573""
","""event"",""trial"",""time""
""fullscreenenter"",""1"",""2953""
","""event"",""trial"",""time""
""fullscreenexit"",""37"",""165971""
","","","","","","356.69999980926514","images/straw8.png","","","memory_trial","4","definitely_new",""
"html-keyboard-response","156","370587","0.0-18.0-0.56","4657","approach_avoid_sv1","""event"",""trial"",""time""
""fullscreenenter"",""1"",""2953""
""fullscreenexit"",""37"",""165971""
""blur"",""39"",""179663""
""focus"",""39"",""181573""
","""event"",""trial"",""time""
""blur"",""39"",""179663""
","""event"",""trial"",""time""
""focus"",""39"",""181573""
","""event"",""trial"",""time""
""fullscreenenter"",""1"",""2953""
","""event"",""trial"",""time""
""fullscreenexit"",""37"",""165971""
","","","","","","null","<div style=""font-size:60px;"">+</div>","null","","fixation","","",""
"memory-trial","157","372252","0.0-18.0-1.56","4657","approach_avoid_sv1","""event"",""trial"",""time""
""fullscreenenter"",""1"",""2953""
""fullscreenexit"",""37"",""165971""
""blur"",""39"",""179663""
""focus"",""39"",""181573""
","""event"",""trial"",""time""
""blur"",""39"",""179663""
","""event"",""trial"",""time""
""focus"",""39"",""181573""
","""event"",""trial"",""time""
""fullscreenenter"",""1"",""2953""
","""event"",""trial"",""time""
""fullscreenexit"",""37"",""165971""
","","","","","","659.5","images/truck6.png","","","memory_trial","4","definitely_new",""
"html-keyboard-response","158","372766","0.0-18.0-0.57","4657","approach_avoid_sv1","""event"",""trial"",""time""
""fullscreenenter"",""1"",""2953""
""fullscreenexit"",""37"",""165971""
""blur"",""39"",""179663""
""focus"",""39"",""181573""
","""event"",""trial"",""time""
""blur"",""39"",""179663""
","""event"",""trial"",""time""
""focus"",""39"",""181573""
","""event"",""trial"",""time""
""fullscreenenter"",""1"",""2953""
","""event"",""trial"",""time""
""fullscreenexit"",""37"",""165971""
","","","","","","null","<div style=""font-size:60px;"">+</div>","null","","fixation","","",""
"memory-trial","159","376100","0.0-18.0-1.57","4657","approach_avoid_sv1","""event"",""trial"",""time""
""fullscreenenter"",""1"",""2953""
""fullscreenexit"",""37"",""165971""
""blur"",""39"",""179663""
""focus"",""39"",""181573""
","""event"",""trial"",""time""
""blur"",""39"",""179663""
","""event"",""trial"",""time""
""focus"",""39"",""181573""
","""event"",""trial"",""time""
""fullscreenenter"",""1"",""2953""
","""event"",""trial"",""time""
""fullscreenexit"",""37"",""165971""
","","","","","","2325.7999999523163","images/rodent2.png","","","memory_trial","4","definitely_new",""
"html-keyboard-response","160","376604","0.0-18.0-0.58","4657","approach_avoid_sv1","""event"",""trial"",""time""
""fullscreenenter"",""1"",""2953""
""fullscreenexit"",""37"",""165971""
""blur"",""39"",""179663""
""focus"",""39"",""181573""
","""event"",""trial"",""time""
""blur"",""39"",""179663""
","""event"",""trial"",""time""
""focus"",""39"",""181573""
","""event"",""trial"",""time""
""fullscreenenter"",""1"",""2953""
","""event"",""trial"",""time""
""fullscreenexit"",""37"",""165971""
","","","","","","null","<div style=""font-size:60px;"">+</div>","null","","fixation","","",""
"memory-trial","161","379092","0.0-18.0-1.58","4657","approach_avoid_sv1","""event"",""trial"",""time""
""fullscreenenter"",""1"",""2953""
""fullscreenexit"",""37"",""165971""
""blur"",""39"",""179663""
""focus"",""39"",""181573""
","""event"",""trial"",""time""
""blur"",""39"",""179663""
","""event"",""trial"",""time""
""focus"",""39"",""181573""
","""event"",""trial"",""time""
""fullscreenenter"",""1"",""2953""
","""event"",""trial"",""time""
""fullscreenexit"",""37"",""165971""
","","","","","","1483.3000001907349","images/sofa5.png","","","memory_trial","3","maybe_new",""
"html-keyboard-response","162","379596","0.0-18.0-0.59","4657","approach_avoid_sv1","""event"",""trial"",""time""
""fullscreenenter"",""1"",""2953""
""fullscreenexit"",""37"",""165971""
""blur"",""39"",""179663""
""focus"",""39"",""181573""
","""event"",""trial"",""time""
""blur"",""39"",""179663""
","""event"",""trial"",""time""
""focus"",""39"",""181573""
","""event"",""trial"",""time""
""fullscreenenter"",""1"",""2953""
","""event"",""trial"",""time""
""fullscreenexit"",""37"",""165971""
","","","","","","null","<div style=""font-size:60px;"">+</div>","null","","fixation","","",""
"memory-trial","163","381644","0.0-18.0-1.59","4657","approach_avoid_sv1","""event"",""trial"",""time""
""fullscreenenter"",""1"",""2953""
""fullscreenexit"",""37"",""165971""
""blur"",""39"",""179663""
""focus"",""39"",""181573""
","""event"",""trial"",""time""
""blur"",""39"",""179663""
","""event"",""trial"",""time""
""focus"",""39"",""181573""
","""event"",""trial"",""time""
""fullscreenenter"",""1"",""2953""
","""event"",""trial"",""time""
""fullscreenexit"",""37"",""165971""
","","","","","","1042.4000000953674","images/cow8.png","","","memory_trial","4","definitely_new",""
"html-keyboard-response","164","382148","0.0-18.0-0.60","4657","approach_avoid_sv1","""event"",""trial"",""time""
""fullscreenenter"",""1"",""2953""
""fullscreenexit"",""37"",""165971""
""blur"",""39"",""179663""
""focus"",""39"",""181573""
","""event"",""trial"",""time""
""blur"",""39"",""179663""
","""event"",""trial"",""time""
""focus"",""39"",""181573""
","""event"",""trial"",""time""
""fullscreenenter"",""1"",""2953""
","""event"",""trial"",""time""
""fullscreenexit"",""37"",""165971""
","","","","","","null","<div style=""font-size:60px;"">+</div>","null","","fixation","","",""
"memory-trial","165","383996","0.0-18.0-1.60","4657","approach_avoid_sv1","""event"",""trial"",""time""
""fullscreenenter"",""1"",""2953""
""fullscreenexit"",""37"",""165971""
""blur"",""39"",""179663""
""focus"",""39"",""181573""
","""event"",""trial"",""time""
""blur"",""39"",""179663""
","""event"",""trial"",""time""
""focus"",""39"",""181573""
","""event"",""trial"",""time""
""fullscreenenter"",""1"",""2953""
","""event"",""trial"",""time""
""fullscreenexit"",""37"",""165971""
","","","","","","838.8000001907349","images/sofa8.png","","","memory_trial","4","definitely_new",""
"html-keyboard-response","166","384500","0.0-18.0-0.61","4657","approach_avoid_sv1","""event"",""trial"",""time""
""fullscreenenter"",""1"",""2953""
""fullscreenexit"",""37"",""165971""
""blur"",""39"",""179663""
""focus"",""39"",""181573""
","""event"",""trial"",""time""
""blur"",""39"",""179663""
","""event"",""trial"",""time""
""focus"",""39"",""181573""
","""event"",""trial"",""time""
""fullscreenenter"",""1"",""2953""
","""event"",""trial"",""time""
""fullscreenexit"",""37"",""165971""
","","","","","","null","<div style=""font-size:60px;"">+</div>","null","","fixation","","",""
"memory-trial","167","386605","0.0-18.0-1.61","4657","approach_avoid_sv1","""event"",""trial"",""time""
""fullscreenenter"",""1"",""2953""
""fullscreenexit"",""37"",""165971""
""blur"",""39"",""179663""
""focus"",""39"",""181573""
","""event"",""trial"",""time""
""blur"",""39"",""179663""
","""event"",""trial"",""time""
""focus"",""39"",""181573""
","""event"",""trial"",""time""
""fullscreenenter"",""1"",""2953""
","""event"",""trial"",""time""
""fullscreenexit"",""37"",""165971""
","","","","","","1098.9000000953674","images/dog5.png","","","memory_trial","1","definitely_old",""
"html-keyboard-response","168","387108","0.0-18.0-0.62","4657","approach_avoid_sv1","""event"",""trial"",""time""
""fullscreenenter"",""1"",""2953""
""fullscreenexit"",""37"",""165971""
""blur"",""39"",""179663""
""focus"",""39"",""181573""
","""event"",""trial"",""time""
""blur"",""39"",""179663""
","""event"",""trial"",""time""
""focus"",""39"",""181573""
","""event"",""trial"",""time""
""fullscreenenter"",""1"",""2953""
","""event"",""trial"",""time""
""fullscreenexit"",""37"",""165971""
","","","","","","null","<div style=""font-size:60px;"">+</div>","null","","fixation","","",""
"memory-trial","169","388981","0.0-18.0-1.62","4657","approach_avoid_sv1","""event"",""trial"",""time""
""fullscreenenter"",""1"",""2953""
""fullscreenexit"",""37"",""165971""
""blur"",""39"",""179663""
""focus"",""39"",""181573""
","""event"",""trial"",""time""
""blur"",""39"",""179663""
","""event"",""trial"",""time""
""focus"",""39"",""181573""
","""event"",""trial"",""time""
""fullscreenenter"",""1"",""2953""
","""event"",""trial"",""time""
""fullscreenexit"",""37"",""165971""
","","","","","","864.9000000953674","images/horse7.png","","","memory_trial","4","definitely_new",""
"html-keyboard-response","170","389484","0.0-18.0-0.63","4657","approach_avoid_sv1","""event"",""trial"",""time""
""fullscreenenter"",""1"",""2953""
""fullscreenexit"",""37"",""165971""
""blur"",""39"",""179663""
""focus"",""39"",""181573""
","""event"",""trial"",""time""
""blur"",""39"",""179663""
","""event"",""trial"",""time""
""focus"",""39"",""181573""
","""event"",""trial"",""time""
""fullscreenenter"",""1"",""2953""
","""event"",""trial"",""time""
""fullscreenexit"",""37"",""165971""
","","","","","","null","<div style=""font-size:60px;"">+</div>","null","","fixation","","",""
"memory-trial","171","391404","0.0-18.0-1.63","4657","approach_avoid_sv1","""event"",""trial"",""time""
""fullscreenenter"",""1"",""2953""
""fullscreenexit"",""37"",""165971""
""blur"",""39"",""179663""
""focus"",""39"",""181573""
","""event"",""trial"",""time""
""blur"",""39"",""179663""
","""event"",""trial"",""time""
""focus"",""39"",""181573""
","""event"",""trial"",""time""
""fullscreenenter"",""1"",""2953""
","""event"",""trial"",""time""
""fullscreenexit"",""37"",""165971""
","","","","","","916.0999999046326","images/rodent6.png","","","memory_trial","1","definitely_old",""
"html-keyboard-response","172","391908","0.0-18.0-0.64","4657","approach_avoid_sv1","""event"",""trial"",""time""
""fullscreenenter"",""1"",""2953""
""fullscreenexit"",""37"",""165971""
""blur"",""39"",""179663""
""focus"",""39"",""181573""
","""event"",""trial"",""time""
""blur"",""39"",""179663""
","""event"",""trial"",""time""
""focus"",""39"",""181573""
","""event"",""trial"",""time""
""fullscreenenter"",""1"",""2953""
","""event"",""trial"",""time""
""fullscreenexit"",""37"",""165971""
","","","","","","null","<div style=""font-size:60px;"">+</div>","null","","fixation","","",""
"memory-trial","173","393517","0.0-18.0-1.64","4657","approach_avoid_sv1","""event"",""trial"",""time""
""fullscreenenter"",""1"",""2953""
""fullscreenexit"",""37"",""165971""
""blur"",""39"",""179663""
""focus"",""39"",""181573""
","""event"",""trial"",""time""
""blur"",""39"",""179663""
","""event"",""trial"",""time""
""focus"",""39"",""181573""
","""event"",""trial"",""time""
""fullscreenenter"",""1"",""2953""
","""event"",""trial"",""time""
""fullscreenexit"",""37"",""165971""
","","","","","","602.3000001907349","images/sofa7.png","","","memory_trial","4","definitely_new",""
"html-keyboard-response","174","394029","0.0-18.0-0.65","4657","approach_avoid_sv1","""event"",""trial"",""time""
""fullscreenenter"",""1"",""2953""
""fullscreenexit"",""37"",""165971""
""blur"",""39"",""179663""
""focus"",""39"",""181573""
","""event"",""trial"",""time""
""blur"",""39"",""179663""
","""event"",""trial"",""time""
""focus"",""39"",""181573""
","""event"",""trial"",""time""
""fullscreenenter"",""1"",""2953""
","""event"",""trial"",""time""
""fullscreenexit"",""37"",""165971""
","","","","","","null","<div style=""font-size:60px;"">+</div>","null","","fixation","","",""
"memory-trial","175","396285","0.0-18.0-1.65","4657","approach_avoid_sv1","""event"",""trial"",""time""
""fullscreenenter"",""1"",""2953""
""fullscreenexit"",""37"",""165971""
""blur"",""39"",""179663""
""focus"",""39"",""181573""
","""event"",""trial"",""time""
""blur"",""39"",""179663""
","""event"",""trial"",""time""
""focus"",""39"",""181573""
","""event"",""trial"",""time""
""fullscreenenter"",""1"",""2953""
","""event"",""trial"",""time""
""fullscreenexit"",""37"",""165971""
","","","","","","1252.9000000953674","images/rodent3.png","","","memory_trial","4","definitely_new",""
"html-keyboard-response","176","396788","0.0-18.0-0.66","4657","approach_avoid_sv1","""event"",""trial"",""time""
""fullscreenenter"",""1"",""2953""
""fullscreenexit"",""37"",""165971""
""blur"",""39"",""179663""
""focus"",""39"",""181573""
","""event"",""trial"",""time""
""blur"",""39"",""179663""
","""event"",""trial"",""time""
""focus"",""39"",""181573""
","""event"",""trial"",""time""
""fullscreenenter"",""1"",""2953""
","""event"",""trial"",""time""
""fullscreenexit"",""37"",""165971""
","","","","","","null","<div style=""font-size:60px;"">+</div>","null","","fixation","","",""
"memory-trial","177","398653","0.0-18.0-1.66","4657","approach_avoid_sv1","""event"",""trial"",""time""
""fullscreenenter"",""1"",""2953""
""fullscreenexit"",""37"",""165971""
""blur"",""39"",""179663""
""focus"",""39"",""181573""
","""event"",""trial"",""time""
""blur"",""39"",""179663""
","""event"",""trial"",""time""
""focus"",""39"",""181573""
","""event"",""trial"",""time""
""fullscreenenter"",""1"",""2953""
","""event"",""trial"",""time""
""fullscreenexit"",""37"",""165971""
","","","","","","858.7999999523163","images/cow7.png","","","memory_trial","1","definitely_old",""
"html-keyboard-response","178","399156","0.0-18.0-0.67","4657","approach_avoid_sv1","""event"",""trial"",""time""
""fullscreenenter"",""1"",""2953""
""fullscreenexit"",""37"",""165971""
""blur"",""39"",""179663""
""focus"",""39"",""181573""
","""event"",""trial"",""time""
""blur"",""39"",""179663""
","""event"",""trial"",""time""
""focus"",""39"",""181573""
","""event"",""trial"",""time""
""fullscreenenter"",""1"",""2953""
","""event"",""trial"",""time""
""fullscreenexit"",""37"",""165971""
