"trial_type","trial_index","time_elapsed","internal_node_id","subject_id","task_version","interactions","blur_events","focus_events","fullscreenenter_events","fullscreenexit_events","success","timeout","failed_images","failed_audio","failed_video","rt","stimulus","response","button_pressed","task_part","key_press","answer","correct"
"pavlovia","0","6","0.0-0.0","4266","approach_avoid_sv1","""event"",""trial"",""time""
""fullscreenenter"",""1"",""1665""
","
","
","""event"",""trial"",""time""
""fullscreenenter"",""1"",""1665""
","
","","","","","","","","","","","","",""
"fullscreen","1","2648","0.0-1.0","4266","approach_avoid_sv1","""event"",""trial"",""time""
""fullscreenenter"",""1"",""1665""
","
","
","""event"",""trial"",""time""
""fullscreenenter"",""1"",""1665""
","
","true","","","","","","","","","","","",""
"preload","2","11673","0.0-2.0","4266","approach_avoid_sv1","""event"",""trial"",""time""
""fullscreenenter"",""1"",""1665""
","
","
","""event"",""trial"",""time""
""fullscreenenter"",""1"",""1665""
","
","true","false","[]","[]","[]","","","","","","","",""
"preload","3","19136","0.0-3.0","4266","approach_avoid_sv1","""event"",""trial"",""time""
""fullscreenenter"",""1"",""1665""
","
","
","""event"",""trial"",""time""
""fullscreenenter"",""1"",""1665""
","
","true","false","[]","[]","[]","","","","","","","",""
"preload","4","19643","0.0-4.0","4266","approach_avoid_sv1","""event"",""trial"",""time""
""fullscreenenter"",""1"",""1665""
","
","
","""event"",""trial"",""time""
""fullscreenenter"",""1"",""1665""
","
","true","false","[]","[]","[]","","","","","","","",""
"audio-keyboard-response","5","22434","0.0-5.0","4266","approach_avoid_sv1","""event"",""trial"",""time""
""fullscreenenter"",""1"",""1665""
","
","
","""event"",""trial"",""time""
""fullscreenenter"",""1"",""1665""
","
","","","","","","2792","audio/beep_loop.wav"," ","","","","",""
"audio-button-response","6","25109","0.0-6.0","4266","approach_avoid_sv1","""event"",""trial"",""time""
""fullscreenenter"",""1"",""1665""
","
","
","""event"",""trial"",""time""
""fullscreenenter"",""1"",""1665""
","
","","","","","","2672","audio/turtle.wav","3","","","","",""
"audio-button-response","7","27293","0.0-7.0","4266","approach_avoid_sv1","""event"",""trial"",""time""
""fullscreenenter"",""1"",""1665""
","
","
","""event"",""trial"",""time""
""fullscreenenter"",""1"",""1665""
","
","","","","","","1179","audio/shark.wav","2","","","","",""
"preload","8","33303","0.0-8.0","4266","approach_avoid_sv1","""event"",""trial"",""time""
""fullscreenenter"",""1"",""1665""
","
","
","""event"",""trial"",""time""
""fullscreenenter"",""1"",""1665""
","
","true","false","[]","[]","[]","","","","","","","",""
"learning-instructions","9","39813","0.0-9.0-0.0","4266","approach_avoid_sv1","""event"",""trial"",""time""
""fullscreenenter"",""1"",""1665""
","
","
","""event"",""trial"",""time""
""fullscreenenter"",""1"",""1665""
","
","","","","","","2037.1000001430511","<p> Welcome back! </p><p> Last week, you had to make choices about lots of different items.  </p>","","0","instructions","","",""
"learning-instructions","10","45245","0.0-9.0-0.1","4266","approach_avoid_sv1","""event"",""trial"",""time""
""fullscreenenter"",""1"",""1665""
","
","
","""event"",""trial"",""time""
""fullscreenenter"",""1"",""1665""
","
","","","","","","1319","<p> Today, we are going to ask you to try to remember all the items. </p>","","0","instructions","","",""
"learning-instructions","11","56949","0.0-9.0-0.2","4266","approach_avoid_sv1","""event"",""trial"",""time""
""fullscreenenter"",""1"",""1665""
","
","
","""event"",""trial"",""time""
""fullscreenenter"",""1"",""1665""
","
","","","","","","1552.2000000476837","<p> On every trial, you will see an image. </p><p> The image may be an OLD image you saw during the games last week or it may be a NEW image that was not presented. </p>","","0","instructions","","",""
"learning-instructions","12","67165","0.0-9.0-0.3","4266","approach_avoid_sv1","""event"",""trial"",""time""
""fullscreenenter"",""1"",""1665""
","
","
","""event"",""trial"",""time""
""fullscreenenter"",""1"",""1665""
","
","","","","","","1698","<p> You need to select whether the image is:  </p><p>  'Definitely old', 'Maybe old', 'Maybe new', or 'Definitely new.'  </p><div class=""mem-choice-instructions-grid""><div class=""choice-option"" id=""choice-option-1"" ><img src=""images/definitely_old_1.png"" id=""choice-option-img-1"" class=""choice-option-img"" stage=""1""></div><div class=""choice-option"" id=""choice-option-2"" ><img src=""images/maybe_old_1.png"" id=""choice-option-img-2"" class=""choice-option-img"" stage=""1""></div><div class=""choice-option"" id=""choice-option-3"" ><img src=""images/maybe_new_1.png"" id=""choice-option-img-3"" class=""choice-option-img"" stage=""1""></div><div class=""choice-option"" id=""choice-option-4"" > <img src=""images/definitely_new_1.png"" id=""choice-option-img-4"" class=""choice-option-img"" stage=""1""></div></div>","","0","instructions","","",""
"learning-instructions","13","75980","0.0-9.0-0.4","4266","approach_avoid_sv1","""event"",""trial"",""time""
""fullscreenenter"",""1"",""1665""
","
","
","""event"",""trial"",""time""
""fullscreenenter"",""1"",""1665""
","
","","","","","","2283.0999999046326","<p> You should use the 1, 2, 3, and 4 keys to make your responses.  </p><div class=""mem-choice-instructions-grid""><div class=""choice-option"" id=""choice-option-1"" ><img src=""images/definitely_old.png"" id=""choice-option-img-1"" class=""choice-option-img"" stage=""1""></div><div class=""choice-option"" id=""choice-option-2"" ><img src=""images/maybe_old.png"" id=""choice-option-img-2"" class=""choice-option-img"" stage=""1""></div><div class=""choice-option"" id=""choice-option-3"" ><img src=""images/maybe_new.png"" id=""choice-option-img-3"" class=""choice-option-img"" stage=""1""></div><div class=""choice-option"" id=""choice-option-4"" > <img src=""images/definitely_new.png"" id=""choice-option-img-4"" class=""choice-option-img"" stage=""1""></div></div>","","0","instructions","","",""
"learning-instructions","14","86204","0.0-9.0-0.5","4266","approach_avoid_sv1","""event"",""trial"",""time""
""fullscreenenter"",""1"",""1665""
","
","
","""event"",""trial"",""time""
""fullscreenenter"",""1"",""1665""
","
","","","","","","3898.0999999046326","<p> You will have 10 seconds to make each response.  </p><p>  Make sure to respond before time runs out! </p>","","0","instructions","","",""
"learning-instructions","15","98781","0.0-9.0-0.6","4266","approach_avoid_sv1","""event"",""trial"",""time""
""fullscreenenter"",""1"",""1665""
","
","
","""event"",""trial"",""time""
""fullscreenenter"",""1"",""1665""
","
","","","","","","5494.700000047684","<p> Today, you will see each image ONCE only.  </p><p>  That means none of the images will repeat. </p>","","0","instructions","","",""
"learning-instructions","16","114581","0.0-9.0-0.7","4266","approach_avoid_sv1","""event"",""trial"",""time""
""fullscreenenter"",""1"",""1665""
","
","
","""event"",""trial"",""time""
""fullscreenenter"",""1"",""1665""
","
","","","","","","3124.899999856949","<p> Before you play the real game, it is time to practice. </p><p>  Just like in the real game, some of the images in the practice will be ones you have seen before. </p><p>  Others will be entirely new. </p>","","0","instructions","","",""
"html-button-response","17","116165","0.0-10.0","4266","approach_avoid_sv1","""event"",""trial"",""time""
""fullscreenenter"",""1"",""1665""
","
","
","""event"",""trial"",""time""
""fullscreenenter"",""1"",""1665""
","
","","","","","","1474.4000000953674","<p> Ready to practice? </p><p> Remember, use the 1, 2, 3, and 4 keys to make your responses. </p>","0","","instructions","","",""
"html-keyboard-response","18","116790","0.0-11.0-0.0","4266","approach_avoid_sv1","""event"",""trial"",""time""
""fullscreenenter"",""1"",""1665""
","
","
","""event"",""trial"",""time""
""fullscreenenter"",""1"",""1665""
","
","","","","","","null","<div style=""font-size:60px;"">+</div>","null","","fixation","","",""
"memory-trial","19","120606","0.0-11.0-1.0","4266","approach_avoid_sv1","""event"",""trial"",""time""
""fullscreenenter"",""1"",""1665""
","
","
","""event"",""trial"",""time""
""fullscreenenter"",""1"",""1665""
","
","","","","","","2796.2999999523163","images/racket5.png","","","practice","1","definitely_old",""
"html-keyboard-response","20","121121","0.0-11.0-0.1","4266","approach_avoid_sv1","""event"",""trial"",""time""
""fullscreenenter"",""1"",""1665""
","
","
","""event"",""trial"",""time""
""fullscreenenter"",""1"",""1665""
","
","","","","","","null","<div style=""font-size:60px;"">+</div>","null","","fixation","","",""
"memory-trial","21","124116","0.0-11.0-1.1","4266","approach_avoid_sv1","""event"",""trial"",""time""
""fullscreenenter"",""1"",""1665""
","
","
","""event"",""trial"",""time""
""fullscreenenter"",""1"",""1665""
","
","","","","","","1978.2999999523163","images/racket3.png","","","practice","2","maybe_old",""
"html-keyboard-response","22","124638","0.0-11.0-0.2","4266","approach_avoid_sv1","""event"",""trial"",""time""
""fullscreenenter"",""1"",""1665""
","
","
","""event"",""trial"",""time""
""fullscreenenter"",""1"",""1665""
","
","","","","","","null","<div style=""font-size:60px;"">+</div>","null","","fixation","","",""
"memory-trial","23","127316","0.0-11.0-1.2","4266","approach_avoid_sv1","""event"",""trial"",""time""
""fullscreenenter"",""1"",""1665""
","
","
","""event"",""trial"",""time""
""fullscreenenter"",""1"",""1665""
","
","","","","","","1669.5","images/ball5.png","","","practice","2","maybe_old",""
"html-keyboard-response","24","127835","0.0-11.0-0.3","4266","approach_avoid_sv1","""event"",""trial"",""time""
""fullscreenenter"",""1"",""1665""
","
","
","""event"",""trial"",""time""
""fullscreenenter"",""1"",""1665""
","
","","","","","","null","<div style=""font-size:60px;"">+</div>","null","","fixation","","",""
"memory-trial","25","129907","0.0-11.0-1.3","4266","approach_avoid_sv1","""event"",""trial"",""time""
""fullscreenenter"",""1"",""1665""
","
","
","""event"",""trial"",""time""
""fullscreenenter"",""1"",""1665""
","
","","","","","","1062.6999998092651","images/ball3.png","","","practice","2","maybe_old",""
"html-keyboard-response","26","130425","0.0-11.0-0.4","4266","approach_avoid_sv1","""event"",""trial"",""time""
""fullscreenenter"",""1"",""1665""
","
","
","""event"",""trial"",""time""
""fullscreenenter"",""1"",""1665""
","
","","","","","","null","<div style=""font-size:60px;"">+</div>","null","","fixation","","",""
"memory-trial","27","132446","0.0-11.0-1.4","4266","approach_avoid_sv1","""event"",""trial"",""time""
""fullscreenenter"",""1"",""1665""
","
","
","""event"",""trial"",""time""
""fullscreenenter"",""1"",""1665""
","
","","","","","","1009.5999999046326","images/ball2.png","","","practice","2","maybe_old",""
"html-keyboard-response","28","132965","0.0-11.0-0.5","4266","approach_avoid_sv1","""event"",""trial"",""time""
""fullscreenenter"",""1"",""1665""
","
","
","""event"",""trial"",""time""
""fullscreenenter"",""1"",""1665""
","
","","","","","","null","<div style=""font-size:60px;"">+</div>","null","","fixation","","",""
"memory-trial","29","135396","0.0-11.0-1.5","4266","approach_avoid_sv1","""event"",""trial"",""time""
""fullscreenenter"",""1"",""1665""
","
","
","""event"",""trial"",""time""
""fullscreenenter"",""1"",""1665""
","
","","","","","","1421.2000000476837","images/racket1.png","","","practice","2","maybe_old",""
"html-keyboard-response","30","135915","0.0-11.0-0.6","4266","approach_avoid_sv1","""event"",""trial"",""time""
""fullscreenenter"",""1"",""1665""
","
","
","""event"",""trial"",""time""
""fullscreenenter"",""1"",""1665""
","
","","","","","","null","<div style=""font-size:60px;"">+</div>","null","","fixation","","",""
"memory-trial","31","138188","0.0-11.0-1.6","4266","approach_avoid_sv1","""event"",""trial"",""time""
""fullscreenenter"",""1"",""1665""
","
","
","""event"",""trial"",""time""
""fullscreenenter"",""1"",""1665""
","
","","","","","","1257.7000000476837","images/racket2.png","","","practice","2","maybe_old",""
"html-keyboard-response","32","138706","0.0-11.0-0.7","4266","approach_avoid_sv1","""event"",""trial"",""time""
""fullscreenenter"",""1"",""1665""
","
","
","""event"",""trial"",""time""
""fullscreenenter"",""1"",""1665""
","
","","","","","","null","<div style=""font-size:60px;"">+</div>","null","","fixation","","",""
"memory-trial","33","141086","0.0-11.0-1.7","4266","approach_avoid_sv1","""event"",""trial"",""time""
""fullscreenenter"",""1"",""1665""
","
","
","""event"",""trial"",""time""
""fullscreenenter"",""1"",""1665""
","
","","","","","","1361.5","images/ball1.png","","","practice","1","definitely_old",""
"learning-instructions","34","149757","0.0-12.0-0.0","4266","approach_avoid_sv1","""event"",""trial"",""time""
""fullscreenenter"",""1"",""1665""
","
","
","""event"",""trial"",""time""
""fullscreenenter"",""1"",""1665""
","
","","","","","","1359.3999998569489","<p> Great! You have completed the practice. </p><p> Before you start, we're going to ask you a few questions about how the game works.  </p>","","0","instructions","","",""
"preload","35","153198","0.0-13.0","4266","approach_avoid_sv1","""event"",""trial"",""time""
""fullscreenenter"",""1"",""1665""
","
","
","""event"",""trial"",""time""
""fullscreenenter"",""1"",""1665""
","
","true","false","[]","[]","[]","","","","","","","",""
"comp-q","36","160045","0.0-14.0-0.0","4266","approach_avoid_sv1","""event"",""trial"",""time""
""fullscreenenter"",""1"",""1665""
","
","
","""event"",""trial"",""time""
""fullscreenenter"",""1"",""1665""
","
","","","","","","1018.9000000953674","<p> <b> True or False? </b> </p><p> In this game, you will only see each image once. </p>","","0","comp_question","","","true"
"comp-q","37","168197","0.0-14.0-1.0","4266","approach_avoid_sv1","""event"",""trial"",""time""
""fullscreenenter"",""1"",""1665""
","
","
","""event"",""trial"",""time""
""fullscreenenter"",""1"",""1665""
","
","","","","","","1789.5999999046326","<p> <b> That's right! </b> You will see many different images <i> one time each </i> in this game. </p>","","0","comp_answer","","",""
"comp-q","38","177861","0.0-15.0-0.0","4266","approach_avoid_sv1","""event"",""trial"",""time""
""fullscreenenter"",""1"",""1665""
","
","
","""event"",""trial"",""time""
""fullscreenenter"",""1"",""1665""
","
","","","","","","4644","<p> <b> True or False? </b> </p><p> You should use the mouse and click to make your response. </p>","","1","comp_question","","","true"
"comp-q","39","185349","0.0-15.0-1.0","4266","approach_avoid_sv1","""event"",""trial"",""time""
""fullscreenenter"",""1"",""1665""
","
","
","""event"",""trial"",""time""
""fullscreenenter"",""1"",""1665""
","
","","","","","","962","<p><b> That's right! </b> You should use the '1', '2', '3', and '4' keys to make your response. </p>","","0","comp_answer","","",""
"comp-q","40","192517","0.0-16.0-0.0","4266","approach_avoid_sv1","""event"",""trial"",""time""
""fullscreenenter"",""1"",""1665""
","
","
","""event"",""trial"",""time""
""fullscreenenter"",""1"",""1665""
","
","","","","","","1469.9000000953674","<p> <b> True or False? </b> </p><p> You will have as much time as you want to make each choice. </p>","","1","comp_question","","","true"
"comp-q","41","198805","0.0-16.0-1.0","4266","approach_avoid_sv1","""event"",""trial"",""time""
""fullscreenenter"",""1"",""1665""
","
","
","""event"",""trial"",""time""
""fullscreenenter"",""1"",""1665""
","
","","","","","","1577.7999999523163","<p> <b> That's right! </b> You will only have 10 seconds to make each choice. </p>","","0","comp_answer","","",""
"learning-instructions","42","208677","0.0-17.0","4266","approach_avoid_sv1","""event"",""trial"",""time""
""fullscreenenter"",""1"",""1665""
","
","
","""event"",""trial"",""time""
""fullscreenenter"",""1"",""1665""
","
","","","","","","1190.2000000476837","<p> Great! You are now ready to begin the game. </p><p> Remember, use the 1, 2, 3, and 4 keys to make your responses. </p>","","0","instructions","","",""
"html-keyboard-response","43","209299","0.0-18.0-0.0","4266","approach_avoid_sv1","""event"",""trial"",""time""
""fullscreenenter"",""1"",""1665""
","
","
","""event"",""trial"",""time""
""fullscreenenter"",""1"",""1665""
","
","","","","","","null","<div style=""font-size:60px;"">+</div>","null","","fixation","","",""
"memory-trial","44","212746","0.0-18.0-1.0","4266","approach_avoid_sv1","""event"",""trial"",""time""
""fullscreenenter"",""1"",""1665""
","
","
","""event"",""trial"",""time""
""fullscreenenter"",""1"",""1665""
","
","","","","","","2423.9000000953674","images/goat1.png","","","memory_trial","4","definitely_new",""
"html-keyboard-response","45","213265","0.0-18.0-0.1","4266","approach_avoid_sv1","""event"",""trial"",""time""
""fullscreenenter"",""1"",""1665""
","
","
","""event"",""trial"",""time""
""fullscreenenter"",""1"",""1665""
","
","","","","","","null","<div style=""font-size:60px;"">+</div>","null","","fixation","","",""
"memory-trial","46","216546","0.0-18.0-1.1","4266","approach_avoid_sv1","""event"",""trial"",""time""
""fullscreenenter"",""1"",""1665""
","
","
","""event"",""trial"",""time""
""fullscreenenter"",""1"",""1665""
","
","","","","","","2265.699999809265","images/rodent3.png","","","memory_trial","2","maybe_old",""
"html-keyboard-response","47","217065","0.0-18.0-0.2","4266","approach_avoid_sv1","""event"",""trial"",""time""
""fullscreenenter"",""1"",""1665""
","
","
","""event"",""trial"",""time""
""fullscreenenter"",""1"",""1665""
","
","","","","","","null","<div style=""font-size:60px;"">+</div>","null","","fixation","","",""
"memory-trial","48","219955","0.0-18.0-1.2","4266","approach_avoid_sv1","""event"",""trial"",""time""
""fullscreenenter"",""1"",""1665""
","
","
","""event"",""trial"",""time""
""fullscreenenter"",""1"",""1665""
","
","","","","","","1858.1999998092651","images/straw6.png","","","memory_trial","2","maybe_old",""
"html-keyboard-response","49","220475","0.0-18.0-0.3","4266","approach_avoid_sv1","""event"",""trial"",""time""
""fullscreenenter"",""1"",""1665""
","
","
","""event"",""trial"",""time""
""fullscreenenter"",""1"",""1665""
","
","","","","","","null","<div style=""font-size:60px;"">+</div>","null","","fixation","","",""
"memory-trial","50","223436","0.0-18.0-1.3","4266","approach_avoid_sv1","""event"",""trial"",""time""
""fullscreenenter"",""1"",""1665""
","
","
","""event"",""trial"",""time""
""fullscreenenter"",""1"",""1665""
","
","","","","","","1951","images/sheep6.png","","","memory_trial","2","maybe_old",""
"html-keyboard-response","51","223945","0.0-18.0-0.4","4266","approach_avoid_sv1","""event"",""trial"",""time""
""fullscreenenter"",""1"",""1665""
","
","
","""event"",""trial"",""time""
""fullscreenenter"",""1"",""1665""
","
","","","","","","null","<div style=""font-size:60px;"">+</div>","null","","fixation","","",""
"memory-trial","52","227245","0.0-18.0-1.4","4266","approach_avoid_sv1","""event"",""trial"",""time""
""fullscreenenter"",""1"",""1665""
","
","
","""event"",""trial"",""time""
""fullscreenenter"",""1"",""1665""
","
","","","","","","2280.5","images/bush1.png","","","memory_trial","3","maybe_new",""
"html-keyboard-response","53","227765","0.0-18.0-0.5","4266","approach_avoid_sv1","""event"",""trial"",""time""
""fullscreenenter"",""1"",""1665""
","
","
","""event"",""trial"",""time""
""fullscreenenter"",""1"",""1665""
","
","","","","","","null","<div style=""font-size:60px;"">+</div>","null","","fixation","","",""
"memory-trial","54","231286","0.0-18.0-1.5","4266","approach_avoid_sv1","""event"",""trial"",""time""
""fullscreenenter"",""1"",""1665""
","
","
","""event"",""trial"",""time""
""fullscreenenter"",""1"",""1665""
","
","","","","","","2486.9000000953674","images/train2.png","","","memory_trial","2","maybe_old",""
"html-keyboard-response","55","231794","0.0-18.0-0.6","4266","approach_avoid_sv1","""event"",""trial"",""time""
""fullscreenenter"",""1"",""1665""
","
","
","""event"",""trial"",""time""
""fullscreenenter"",""1"",""1665""
","
","","","","","","null","<div style=""font-size:60px;"">+</div>","null","","fixation","","",""
"memory-trial","56","235115","0.0-18.0-1.6","4266","approach_avoid_sv1","""event"",""trial"",""time""
""fullscreenenter"",""1"",""1665""
","
","
","""event"",""trial"",""time""
""fullscreenenter"",""1"",""1665""
","
","","","","","","2303.0999999046326","images/plane1.png","","","memory_trial","3","maybe_new",""
"html-keyboard-response","57","235635","0.0-18.0-0.7","4266","approach_avoid_sv1","""event"",""trial"",""time""
""fullscreenenter"",""1"",""1665""
","
","
","""event"",""trial"",""time""
""fullscreenenter"",""1"",""1665""
","
","","","","","","null","<div style=""font-size:60px;"">+</div>","null","","fixation","","",""
"memory-trial","58","238981","0.0-18.0-1.7","4266","approach_avoid_sv1","""event"",""trial"",""time""
""fullscreenenter"",""1"",""1665""
","
","
","""event"",""trial"",""time""
""fullscreenenter"",""1"",""1665""
","
","","","","","","2327.2000000476837","images/sheep1.png","","","memory_trial","2","maybe_old",""
"html-keyboard-response","59","239488","0.0-18.0-0.8","4266","approach_avoid_sv1","""event"",""trial"",""time""
""fullscreenenter"",""1"",""1665""
","
","
","""event"",""trial"",""time""
""fullscreenenter"",""1"",""1665""
","
","","","","","","null","<div style=""font-size:60px;"">+</div>","null","","fixation","","",""
"memory-trial","60","242690","0.0-18.0-1.8","4266","approach_avoid_sv1","""event"",""trial"",""time""
""fullscreenenter"",""1"",""1665""
","
","
","""event"",""trial"",""time""
""fullscreenenter"",""1"",""1665""
","
","","","","","","2196","images/orange4.png","","","memory_trial","1","definitely_old",""
"html-keyboard-response","61","243194","0.0-18.0-0.9","4266","approach_avoid_sv1","""event"",""trial"",""time""
""fullscreenenter"",""1"",""1665""
","
","
","""event"",""trial"",""time""
""fullscreenenter"",""1"",""1665""
","
","","","","","","null","<div style=""font-size:60px;"">+</div>","null","","fixation","","",""
"memory-trial","62","245114","0.0-18.0-1.9","4266","approach_avoid_sv1","""event"",""trial"",""time""
""fullscreenenter"",""1"",""1665""
","
","
","""event"",""trial"",""time""
""fullscreenenter"",""1"",""1665""
","
","","","","","","912.7000000476837","images/banana3.png","","","memory_trial","1","definitely_old",""
"html-keyboard-response","63","245616","0.0-18.0-0.10","4266","approach_avoid_sv1","""event"",""trial"",""time""
""fullscreenenter"",""1"",""1665""
","
","
","""event"",""trial"",""time""
""fullscreenenter"",""1"",""1665""
","
","","","","","","null","<div style=""font-size:60px;"">+</div>","null","","fixation","","",""
"memory-trial","64","248257","0.0-18.0-1.10","4266","approach_avoid_sv1","""event"",""trial"",""time""
""fullscreenenter"",""1"",""1665""
","
","
","""event"",""trial"",""time""
""fullscreenenter"",""1"",""1665""
","
","","","","","","1634.2000000476837","images/horse8.png","","","memory_trial","1","definitely_old",""
"html-keyboard-response","65","248760","0.0-18.0-0.11","4266","approach_avoid_sv1","""event"",""trial"",""time""
""fullscreenenter"",""1"",""1665""
","
","
","""event"",""trial"",""time""
""fullscreenenter"",""1"",""1665""
","
","","","","","","null","<div style=""font-size:60px;"">+</div>","null","","fixation","","",""
"memory-trial","66","251209","0.0-18.0-1.11","4266","approach_avoid_sv1","""event"",""trial"",""time""
""fullscreenenter"",""1"",""1665""
","
","
","""event"",""trial"",""time""
""fullscreenenter"",""1"",""1665""
","
","","","","","","1443","images/banana1.png","","","memory_trial","2","maybe_old",""
"html-keyboard-response","67","251712","0.0-18.0-0.12","4266","approach_avoid_sv1","""event"",""trial"",""time""
""fullscreenenter"",""1"",""1665""
","
","
","""event"",""trial"",""time""
""fullscreenenter"",""1"",""1665""
","
","","","","","","null","<div style=""font-size:60px;"">+</div>","null","","fixation","","",""
"memory-trial","68","254659","0.0-18.0-1.12","4266","approach_avoid_sv1","""event"",""trial"",""time""
""fullscreenenter"",""1"",""1665""
","
","
","""event"",""trial"",""time""
""fullscreenenter"",""1"",""1665""
","
","","","","","","1940.2999999523163","images/table2.png","","","memory_trial","3","maybe_new",""
"html-keyboard-response","69","255160","0.0-18.0-0.13","4266","approach_avoid_sv1","""event"",""trial"",""time""
""fullscreenenter"",""1"",""1665""
","
","
","""event"",""trial"",""time""
""fullscreenenter"",""1"",""1665""
","
","","","","","","null","<div style=""font-size:60px;"">+</div>","null","","fixation","","",""
"memory-trial","70","258113","0.0-18.0-1.13","4266","approach_avoid_sv1","""event"",""trial"",""time""
""fullscreenenter"",""1"",""1665""
","
","
","""event"",""trial"",""time""
""fullscreenenter"",""1"",""1665""
","
","","","","","","1947.0999999046326","images/apple6.png","","","memory_trial","4","definitely_new",""
"html-keyboard-response","71","258617","0.0-18.0-0.14","4266","approach_avoid_sv1","""event"",""trial"",""time""
""fullscreenenter"",""1"",""1665""
","
","
","""event"",""trial"",""time""
""fullscreenenter"",""1"",""1665""
","
","","","","","","null","<div style=""font-size:60px;"">+</div>","null","","fixation","","",""
"memory-trial","72","261654","0.0-18.0-1.14","4266","approach_avoid_sv1","""event"",""trial"",""time""
""fullscreenenter"",""1"",""1665""
","
","
","""event"",""trial"",""time""
""fullscreenenter"",""1"",""1665""
","
","","","","","","2026.0999999046326","images/sofa5.png","","","memory_trial","2","maybe_old",""
"html-keyboard-response","73","262168","0.0-18.0-0.15","4266","approach_avoid_sv1","""event"",""trial"",""time""
""fullscreenenter"",""1"",""1665""
","
","
","""event"",""trial"",""time""
""fullscreenenter"",""1"",""1665""
","
","","","","","","null","<div style=""font-size:60px;"">+</div>","null","","fixation","","",""
"memory-trial","74","265634","0.0-18.0-1.15","4266","approach_avoid_sv1","""event"",""trial"",""time""
""fullscreenenter"",""1"",""1665""
","
","
","""event"",""trial"",""time""
""fullscreenenter"",""1"",""1665""
","
","","","","","","2460.2999999523163","images/flower6.png","","","memory_trial","1","definitely_old",""
"html-keyboard-response","75","266147","0.0-18.0-0.16","4266","approach_avoid_sv1","""event"",""trial"",""time""
""fullscreenenter"",""1"",""1665""
","
","
","""event"",""trial"",""time""
""fullscreenenter"",""1"",""1665""
","
","","","","","","null","<div style=""font-size:60px;"">+</div>","null","","fixation","","",""
"memory-trial","76","268521","0.0-18.0-1.16","4266","approach_avoid_sv1","""event"",""trial"",""time""
""fullscreenenter"",""1"",""1665""
","
","
","""event"",""trial"",""time""
""fullscreenenter"",""1"",""1665""
","
","","","","","","1367.7999999523163","images/plane6.png","","","memory_trial","2","maybe_old",""
"html-keyboard-response","77","269026","0.0-18.0-0.17","4266","approach_avoid_sv1","""event"",""trial"",""time""
""fullscreenenter"",""1"",""1665""
","
","
","""event"",""trial"",""time""
""fullscreenenter"",""1"",""1665""
","
","","","","","","null","<div style=""font-size:60px;"">+</div>","null","","fixation","","",""
"memory-trial","78","271353","0.0-18.0-1.17","4266","approach_avoid_sv1","""event"",""trial"",""time""
""fullscreenenter"",""1"",""1665""
","
","
","""event"",""trial"",""time""
""fullscreenenter"",""1"",""1665""
","
","","","","","","1321.7000000476837","images/rabbit8.png","","","memory_trial","2","maybe_old",""
"html-keyboard-response","79","271857","0.0-18.0-0.18","4266","approach_avoid_sv1","""event"",""trial"",""time""
""fullscreenenter"",""1"",""1665""
","
","
","""event"",""trial"",""time""
""fullscreenenter"",""1"",""1665""
","
","","","","","","null","<div style=""font-size:60px;"">+</div>","null","","fixation","","",""
"memory-trial","80","274346","0.0-18.0-1.18","4266","approach_avoid_sv1","""event"",""trial"",""time""
""fullscreenenter"",""1"",""1665""
","
","
","""event"",""trial"",""time""
""fullscreenenter"",""1"",""1665""
","
","","","","","","1481.9000000953674","images/rabbit4.png","","","memory_trial","3","maybe_new",""
"html-keyboard-response","81","274864","0.0-18.0-0.19","4266","approach_avoid_sv1","""event"",""trial"",""time""
""fullscreenenter"",""1"",""1665""
","
","
","""event"",""trial"",""time""
""fullscreenenter"",""1"",""1665""
","
","","","","","","null","<div style=""font-size:60px;"">+</div>","null","","fixation","","",""
"memory-trial","82","277737","0.0-18.0-1.19","4266","approach_avoid_sv1","""event"",""trial"",""time""
""fullscreenenter"",""1"",""1665""
","
","
","""event"",""trial"",""time""
""fullscreenenter"",""1"",""1665""
","
","","","","","","1869.2000000476837","images/sheep3.png","","","memory_trial","2","maybe_old",""
"html-keyboard-response","83","278241","0.0-18.0-0.20","4266","approach_avoid_sv1","""event"",""trial"",""time""
""fullscreenenter"",""1"",""1665""
","
","
","""event"",""trial"",""time""
""fullscreenenter"",""1"",""1665""
","
","","","","","","null","<div style=""font-size:60px;"">+</div>","null","","fixation","","",""
"memory-trial","84","280866","0.0-18.0-1.20","4266","approach_avoid_sv1","""event"",""trial"",""time""
""fullscreenenter"",""1"",""1665""
","
","
","""event"",""trial"",""time""
""fullscreenenter"",""1"",""1665""
","
","","","","","","1618.2000000476837","images/bed3.png","","","memory_trial","3","maybe_new",""
"html-keyboard-response","85","281378","0.0-18.0-0.21","4266","approach_avoid_sv1","""event"",""trial"",""time""
""fullscreenenter"",""1"",""1665""
","
","
","""event"",""trial"",""time""
""fullscreenenter"",""1"",""1665""
","
","","","","","","null","<div style=""font-size:60px;"">+</div>","null","","fixation","","",""
"memory-trial","86","283442","0.0-18.0-1.21","4266","approach_avoid_sv1","""event"",""trial"",""time""
""fullscreenenter"",""1"",""1665""
","
","
","""event"",""trial"",""time""
""fullscreenenter"",""1"",""1665""
","
","","","","","","1058.3999998569489","images/cow7.png","","","memory_trial","2","maybe_old",""
"html-keyboard-response","87","283945","0.0-18.0-0.22","4266","approach_avoid_sv1","""event"",""trial"",""time""
""fullscreenenter"",""1"",""1665""
","
","
","""event"",""trial"",""time""
""fullscreenenter"",""1"",""1665""
","
","","","","","","null","<div style=""font-size:60px;"">+</div>","null","","fixation","","",""
"memory-trial","88","286361","0.0-18.0-1.22","4266","approach_avoid_sv1","""event"",""trial"",""time""
""fullscreenenter"",""1"",""1665""
","
","
","""event"",""trial"",""time""
""fullscreenenter"",""1"",""1665""
","
","","","","","","1409.7000000476837","images/goat7.png","","","memory_trial","2","maybe_old",""
"html-keyboard-response","89","286864","0.0-18.0-0.23","4266","approach_avoid_sv1","""event"",""trial"",""time""
""fullscreenenter"",""1"",""1665""
","
","
","""event"",""trial"",""time""
""fullscreenenter"",""1"",""1665""
","
","","","","","","null","<div style=""font-size:60px;"">+</div>","null","","fixation","","",""
"memory-trial","90","289170","0.0-18.0-1.23","4266","approach_avoid_sv1","""event"",""trial"",""time""
""fullscreenenter"",""1"",""1665""
","
","
","""event"",""trial"",""time""
""fullscreenenter"",""1"",""1665""
","
","","","","","","1301","images/rodent7.png","","","memory_trial","2","maybe_old",""
"html-keyboard-response","91","289674","0.0-18.0-0.24","4266","approach_avoid_sv1","""event"",""trial"",""time""
""fullscreenenter"",""1"",""1665""
","
","
","""event"",""trial"",""time""
""fullscreenenter"",""1"",""1665""
","
","","","","","","null","<div style=""font-size:60px;"">+</div>","null","","fixation","","",""
"memory-trial","92","292433","0.0-18.0-1.24","4266","approach_avoid_sv1","""event"",""trial"",""time""
""fullscreenenter"",""1"",""1665""
","
","
","""event"",""trial"",""time""
""fullscreenenter"",""1"",""1665""
","
","","","","","","1753.7999999523163","images/cat8.png","","","memory_trial","3","maybe_new",""
"html-keyboard-response","93","292937","0.0-18.0-0.25","4266","approach_avoid_sv1","""event"",""trial"",""time""
""fullscreenenter"",""1"",""1665""
","
","
","""event"",""trial"",""time""
""fullscreenenter"",""1"",""1665""
","
","","","","","","null","<div style=""font-size:60px;"">+</div>","null","","fixation","","",""
"memory-trial","94","295839","0.0-18.0-1.25","4266","approach_avoid_sv1","""event"",""trial"",""time""
""fullscreenenter"",""1"",""1665""
","
","
","""event"",""trial"",""time""
""fullscreenenter"",""1"",""1665""
","
","","","","","","1889.1000001430511","images/table3.png","","","memory_trial","2","maybe_old",""
"html-keyboard-response","95","296355","0.0-18.0-0.26","4266","approach_avoid_sv1","""event"",""trial"",""time""
""fullscreenenter"",""1"",""1665""
","
","
","""event"",""trial"",""time""
""fullscreenenter"",""1"",""1665""
","
","","","","","","null","<div style=""font-size:60px;"">+</div>","null","","fixation","","",""
"memory-trial","96","298898","0.0-18.0-1.26","4266","approach_avoid_sv1","""event"",""trial"",""time""
""fullscreenenter"",""1"",""1665""
","
","
","""event"",""trial"",""time""
""fullscreenenter"",""1"",""1665""
","
","","","","","","1535.5","images/rodent8.png","","","memory_trial","3","maybe_new",""
"html-keyboard-response","97","299401","0.0-18.0-0.27","4266","approach_avoid_sv1","""event"",""trial"",""time""
""fullscreenenter"",""1"",""1665""
","
","
","""event"",""trial"",""time""
""fullscreenenter"",""1"",""1665""
","
","","","","","","null","<div style=""font-size:60px;"">+</div>","null","","fixation","","",""
"memory-trial","98","302593","0.0-18.0-1.27","4266","approach_avoid_sv1","""event"",""trial"",""time""
""fullscreenenter"",""1"",""1665""
","
","
","""event"",""trial"",""time""
""fullscreenenter"",""1"",""1665""
","
","","","","","","2188.5","images/tree5.png","","","memory_trial","4","definitely_new",""
"html-keyboard-response","99","303097","0.0-18.0-0.28","4266","approach_avoid_sv1","""event"",""trial"",""time""
""fullscreenenter"",""1"",""1665""
","
","
","""event"",""trial"",""time""
""fullscreenenter"",""1"",""1665""
","
","","","","","","null","<div style=""font-size:60px;"">+</div>","null","","fixation","","",""
"memory-trial","100","306049","0.0-18.0-1.28","4266","approach_avoid_sv1","""event"",""trial"",""time""
""fullscreenenter"",""1"",""1665""
","
","
","""event"",""trial"",""time""
""fullscreenenter"",""1"",""1665""
","
","","","","","","1945.8000001907349","images/goat8.png","","","memory_trial","2","maybe_old",""
"html-keyboard-response","101","306557","0.0-18.0-0.29","4266","approach_avoid_sv1","""event"",""trial"",""time""
""fullscreenenter"",""1"",""1665""
","
","
","""event"",""trial"",""time""
""fullscreenenter"",""1"",""1665""
","
","","","","","","null","<div style=""font-size:60px;"">+</div>","null","","fixation","","",""
"memory-trial","102","309497","0.0-18.0-1.29","4266","approach_avoid_sv1","""event"",""trial"",""time""
""fullscreenenter"",""1"",""1665""
","
","
","""event"",""trial"",""time""
""fullscreenenter"",""1"",""1665""
","
","","","","","","1933.7999999523163","images/cow6.png","","","memory_trial","4","definitely_new",""
"html-keyboard-response","103","310000","0.0-18.0-0.30","4266","approach_avoid_sv1","""event"",""trial"",""time""
""fullscreenenter"",""1"",""1665""
","
","
","""event"",""trial"",""time""
""fullscreenenter"",""1"",""1665""
","
","","","","","","null","<div style=""font-size:60px;"">+</div>","null","","fixation","","",""
"memory-trial","104","312425","0.0-18.0-1.30","4266","approach_avoid_sv1","""event"",""trial"",""time""
""fullscreenenter"",""1"",""1665""
","
","
","""event"",""trial"",""time""
""fullscreenenter"",""1"",""1665""
","
","","","","","","1418.2000000476837","images/orange6.png","","","memory_trial","1","definitely_old",""
"html-keyboard-response","105","312929","0.0-18.0-0.31","4266","approach_avoid_sv1","""event"",""trial"",""time""
""fullscreenenter"",""1"",""1665""
","
","
","""event"",""trial"",""time""
""fullscreenenter"",""1"",""1665""
","
","","","","","","null","<div style=""font-size:60px;"">+</div>","null","","fixation","","",""
"memory-trial","106","315633","0.0-18.0-1.31","4266","approach_avoid_sv1","""event"",""trial"",""time""
""fullscreenenter"",""1"",""1665""
","
","
","""event"",""trial"",""time""
""fullscreenenter"",""1"",""1665""
","
","","","","","","1693","images/cow8.png","","","memory_trial","1","definitely_old",""
"html-keyboard-response","107","316137","0.0-18.0-0.32","4266","approach_avoid_sv1","""event"",""trial"",""time""
""fullscreenenter"",""1"",""1665""
","
","
","""event"",""trial"",""time""
""fullscreenenter"",""1"",""1665""
","
","","","","","","null","<div style=""font-size:60px;"">+</div>","null","","fixation","","",""
"memory-trial","108","318769","0.0-18.0-1.32","4266","approach_avoid_sv1","""event"",""trial"",""time""
""fullscreenenter"",""1"",""1665""
","
","
","""event"",""trial"",""time""
""fullscreenenter"",""1"",""1665""
","
","","","","","","1625.8000001907349","images/sofa8.png","","","memory_trial","4","definitely_new",""
"html-keyboard-response","109","319285","0.0-18.0-0.33","4266","approach_avoid_sv1","""event"",""trial"",""time""
""fullscreenenter"",""1"",""1665""
","
","
","""event"",""trial"",""time""
""fullscreenenter"",""1"",""1665""
","
","","","","","","null","<div style=""font-size:60px;"">+</div>","null","","fixation","","",""
"memory-trial","110","322546","0.0-18.0-1.33","4266","approach_avoid_sv1","""event"",""trial"",""time""
""fullscreenenter"",""1"",""1665""
","
","
","""event"",""trial"",""time""
""fullscreenenter"",""1"",""1665""
","
","","","","","","2253.2000000476837","images/tree8.png","","","memory_trial","1","definitely_old",""
"html-keyboard-response","111","323059","0.0-18.0-0.34","4266","approach_avoid_sv1","""event"",""trial"",""time""
""fullscreenenter"",""1"",""1665""
","
","
","""event"",""trial"",""time""
""fullscreenenter"",""1"",""1665""
","
","","","","","","null","<div style=""font-size:60px;"">+</div>","null","","fixation","","",""
"memory-trial","112","325745","0.0-18.0-1.34","4266","approach_avoid_sv1","""event"",""trial"",""time""
""fullscreenenter"",""1"",""1665""
","
","
","""event"",""trial"",""time""
""fullscreenenter"",""1"",""1665""
","
","","","","","","1681.3000001907349","images/sheep5.png","","","memory_trial","1","definitely_old",""
"html-keyboard-response","113","326250","0.0-18.0-0.35","4266","approach_avoid_sv1","""event"",""trial"",""time""
""fullscreenenter"",""1"",""1665""
","
","
","""event"",""trial"",""time""
""fullscreenenter"",""1"",""1665""
","
","","","","","","null","<div style=""font-size:60px;"">+</div>","null","","fixation","","",""
"memory-trial","114","328633","0.0-18.0-1.35","4266","approach_avoid_sv1","""event"",""trial"",""time""
""fullscreenenter"",""1"",""1665""
","
","
","""event"",""trial"",""time""
""fullscreenenter"",""1"",""1665""
","
","","","","","","1376.6000001430511","images/chair5.png","","","memory_trial","2","maybe_old",""
"html-keyboard-response","115","329137","0.0-18.0-0.36","4266","approach_avoid_sv1","""event"",""trial"",""time""
""fullscreenenter"",""1"",""1665""
","
","
","""event"",""trial"",""time""
""fullscreenenter"",""1"",""1665""
","
","","","","","","null","<div style=""font-size:60px;"">+</div>","null","","fixation","","",""
"memory-trial","116","331385","0.0-18.0-1.36","4266","approach_avoid_sv1","""event"",""trial"",""time""
""fullscreenenter"",""1"",""1665""
","
","
","""event"",""trial"",""time""
""fullscreenenter"",""1"",""1665""
","
","","","","","","1242.4000000953674","images/orange8.png","","","memory_trial","2","maybe_old",""
"html-keyboard-response","117","331896","0.0-18.0-0.37","4266","approach_avoid_sv1","""event"",""trial"",""time""
""fullscreenenter"",""1"",""1665""
","
","
","""event"",""trial"",""time""
""fullscreenenter"",""1"",""1665""
","
","","","","","","null","<div style=""font-size:60px;"">+</div>","null","","fixation","","",""
"memory-trial","118","334776","0.0-18.0-1.37","4266","approach_avoid_sv1","""event"",""trial"",""time""
""fullscreenenter"",""1"",""1665""
","
","
","""event"",""trial"",""time""
""fullscreenenter"",""1"",""1665""
","
","","","","","","1875.7000000476837","images/bush6.png","","","memory_trial","4","definitely_new",""
"html-keyboard-response","119","335280","0.0-18.0-0.38","4266","approach_avoid_sv1","""event"",""trial"",""time""
""fullscreenenter"",""1"",""1665""
","
","
","""event"",""trial"",""time""
""fullscreenenter"",""1"",""1665""
","
","","","","","","null","<div style=""font-size:60px;"">+</div>","null","","fixation","","",""
"memory-trial","120","337593","0.0-18.0-1.38","4266","approach_avoid_sv1","""event"",""trial"",""time""
""fullscreenenter"",""1"",""1665""
","
","
","""event"",""trial"",""time""
""fullscreenenter"",""1"",""1665""
","
","","","","","","1307.5","images/straw3.png","","","memory_trial","2","maybe_old",""
"html-keyboard-response","121","338097","0.0-18.0-0.39","4266","approach_avoid_sv1","""event"",""trial"",""time""
""fullscreenenter"",""1"",""1665""
","
","
","""event"",""trial"",""time""
""fullscreenenter"",""1"",""1665""
","
","","","","","","null","<div style=""font-size:60px;"">+</div>","null","","fixation","","",""
"memory-trial","122","341012","0.0-18.0-1.39","4266","approach_avoid_sv1","""event"",""trial"",""time""
""fullscreenenter"",""1"",""1665""
","
","
","""event"",""trial"",""time""
""fullscreenenter"",""1"",""1665""
","
","","","","","","1905.7000000476837","images/rabbit3.png","","","memory_trial","2","maybe_old",""
"html-keyboard-response","123","341521","0.0-18.0-0.40","4266","approach_avoid_sv1","""event"",""trial"",""time""
""fullscreenenter"",""1"",""1665""
","
","
","""event"",""trial"",""time""
""fullscreenenter"",""1"",""1665""
","
","","","","","","null","<div style=""font-size:60px;"">+</div>","null","","fixation","","",""
"memory-trial","124","343921","0.0-18.0-1.40","4266","approach_avoid_sv1","""event"",""trial"",""time""
""fullscreenenter"",""1"",""1665""
","
","
","""event"",""trial"",""time""
""fullscreenenter"",""1"",""1665""
","
","","","","","","1394.7000000476837","images/bed2.png","","","memory_trial","2","maybe_old",""
"html-keyboard-response","125","344424","0.0-18.0-0.41","4266","approach_avoid_sv1","""event"",""trial"",""time""
""fullscreenenter"",""1"",""1665""
","
","
","""event"",""trial"",""time""
""fullscreenenter"",""1"",""1665""
","
","","","","","","null","<div style=""font-size:60px;"">+</div>","null","","fixation","","",""
"memory-trial","126","346457","0.0-18.0-1.41","4266","approach_avoid_sv1","""event"",""trial"",""time""
""fullscreenenter"",""1"",""1665""
","
","
","""event"",""trial"",""time""
""fullscreenenter"",""1"",""1665""
","
","","","","","","1026.2000000476837","images/table7.png","","","memory_trial","2","maybe_old",""
"html-button-response","127","351253","0.0-18.0-2.41-0.41","4266","approach_avoid_sv1","""event"",""trial"",""time""
""fullscreenenter"",""1"",""1665""
","
","
","""event"",""trial"",""time""
""fullscreenenter"",""1"",""1665""
","
","","","","","","4794.5","<p> Take a break! </p><p> Click the button to continue. </p>","0","","break","","",""
"html-keyboard-response","128","351757","0.0-18.0-0.42","4266","approach_avoid_sv1","""event"",""trial"",""time""
""fullscreenenter"",""1"",""1665""
","
","
","""event"",""trial"",""time""
""fullscreenenter"",""1"",""1665""
","
","","","","","","null","<div style=""font-size:60px;"">+</div>","null","","fixation","","",""
"memory-trial","129","355161","0.0-18.0-1.42","4266","approach_avoid_sv1","""event"",""trial"",""time""
""fullscreenenter"",""1"",""1665""
","
","
","""event"",""trial"",""time""
""fullscreenenter"",""1"",""1665""
","
","","","","","","2398.600000143051","images/goat6.png","","","memory_trial","3","maybe_new",""
"html-keyboard-response","130","355670","0.0-18.0-0.43","4266","approach_avoid_sv1","""event"",""trial"",""time""
""fullscreenenter"",""1"",""1665""
","
","
","""event"",""trial"",""time""
""fullscreenenter"",""1"",""1665""
","
","","","","","","null","<div style=""font-size:60px;"">+</div>","null","","fixation","","",""
"memory-trial","131","357962","0.0-18.0-1.43","4266","approach_avoid_sv1","""event"",""trial"",""time""
""fullscreenenter"",""1"",""1665""
","
","
","""event"",""trial"",""time""
""fullscreenenter"",""1"",""1665""
","
","","","","","","1283.0999999046326","images/cow4.png","","","memory_trial","3","maybe_new",""
"html-keyboard-response","132","358466","0.0-18.0-0.44","4266","approach_avoid_sv1","""event"",""trial"",""time""
""fullscreenenter"",""1"",""1665""
","
","
","""event"",""trial"",""time""
""fullscreenenter"",""1"",""1665""
","
","","","","","","null","<div style=""font-size:60px;"">+</div>","null","","fixation","","",""
"memory-trial","133","360809","0.0-18.0-1.44","4266","approach_avoid_sv1","""event"",""trial"",""time""
""fullscreenenter"",""1"",""1665""
","
","
","""event"",""trial"",""time""
""fullscreenenter"",""1"",""1665""
","
","","","","","","1336.8000001907349","images/train5.png","","","memory_trial","3","maybe_new",""
"html-keyboard-response","134","361312","0.0-18.0-0.45","4266","approach_avoid_sv1","""event"",""trial"",""time""
""fullscreenenter"",""1"",""1665""
","
","
","""event"",""trial"",""time""
""fullscreenenter"",""1"",""1665""
","
","","","","","","null","<div style=""font-size:60px;"">+</div>","null","","fixation","","",""
"memory-trial","135","363424","0.0-18.0-1.45","4266","approach_avoid_sv1","""event"",""trial"",""time""
""fullscreenenter"",""1"",""1665""
","
","
","""event"",""trial"",""time""
""fullscreenenter"",""1"",""1665""
","
","","","","","","1108.3999998569489","images/cactus5.png","","","memory_trial","2","maybe_old",""
"html-keyboard-response","136","363944","0.0-18.0-0.46","4266","approach_avoid_sv1","""event"",""trial"",""time""
""fullscreenenter"",""1"",""1665""
","
","
","""event"",""trial"",""time""
""fullscreenenter"",""1"",""1665""
","
","","","","","","null","<div style=""font-size:60px;"">+</div>","null","","fixation","","",""
"memory-trial","137","366793","0.0-18.0-1.46","4266","approach_avoid_sv1","""event"",""trial"",""time""
""fullscreenenter"",""1"",""1665""
","
","
","""event"",""trial"",""time""
""fullscreenenter"",""1"",""1665""
","
","","","","","","1843.3999998569489","images/truck6.png","","","memory_trial","2","maybe_old",""
"html-keyboard-response","138","367297","0.0-18.0-0.47","4266","approach_avoid_sv1","""event"",""trial"",""time""
""fullscreenenter"",""1"",""1665""
","
","
","""event"",""trial"",""time""
""fullscreenenter"",""1"",""1665""
","
","","","","","","null","<div style=""font-size:60px;"">+</div>","null","","fixation","","",""
"memory-trial","139","369455","0.0-18.0-1.47","4266","approach_avoid_sv1","""event"",""trial"",""time""
""fullscreenenter"",""1"",""1665""
","
","
","""event"",""trial"",""time""
""fullscreenenter"",""1"",""1665""
","
","","","","","","1137.1000001430511","images/rodent4.png","","","memory_trial","3","maybe_new",""
"html-keyboard-response","140","369962","0.0-18.0-0.48","4266","approach_avoid_sv1","""event"",""trial"",""time""
""fullscreenenter"",""1"",""1665""
","
","
","""event"",""trial"",""time""
""fullscreenenter"",""1"",""1665""
","
","","","","","","null","<div style=""font-size:60px;"">+</div>","null","","fixation","","",""
"memory-trial","141","372137","0.0-18.0-1.48","4266","approach_avoid_sv1","""event"",""trial"",""time""
""fullscreenenter"",""1"",""1665""
","
","
","""event"",""trial"",""time""
""fullscreenenter"",""1"",""1665""
","
","","","","","","1169.5","images/sheep7.png","","","memory_trial","2","maybe_old",""
"html-keyboard-response","142","372645","0.0-18.0-0.49","4266","approach_avoid_sv1","""event"",""trial"",""time""
""fullscreenenter"",""1"",""1665""
","
","
","""event"",""trial"",""time""
""fullscreenenter"",""1"",""1665""
","
","","","","","","null","<div style=""font-size:60px;"">+</div>","null","","fixation","","",""
"memory-trial","143","374937","0.0-18.0-1.49","4266","approach_avoid_sv1","""event"",""trial"",""time""
""fullscreenenter"",""1"",""1665""
","
","
","""event"",""trial"",""time""
""fullscreenenter"",""1"",""1665""
","
","","","","","","1288.3999998569489","images/truck1.png","","","memory_trial","3","maybe_new",""
"html-keyboard-response","144","375452","0.0-18.0-0.50","4266","approach_avoid_sv1","""event"",""trial"",""time""
""fullscreenenter"",""1"",""1665""
","
","
","""event"",""trial"",""time""
""fullscreenenter"",""1"",""1665""
","
","","","","","","null","<div style=""font-size:60px;"">+</div>","null","","fixation","","",""
"memory-trial","145","377937","0.0-18.0-1.50","4266","approach_avoid_sv1","""event"",""trial"",""time""
""fullscreenenter"",""1"",""1665""
","
","
","""event"",""trial"",""time""
""fullscreenenter"",""1"",""1665""
","
","","","","","","1479","images/dog6.png","","","memory_trial","3","maybe_new",""
"html-keyboard-response","146","378442","0.0-18.0-0.51","4266","approach_avoid_sv1","""event"",""trial"",""time""
""fullscreenenter"",""1"",""1665""
","
","
","""event"",""trial"",""time""
""fullscreenenter"",""1"",""1665""
","
","","","","","","null","<div style=""font-size:60px;"">+</div>","null","","fixation","","",""
"memory-trial","147","380849","0.0-18.0-1.51","4266","approach_avoid_sv1","""event"",""trial"",""time""
""fullscreenenter"",""1"",""1665""
","
","
","""event"",""trial"",""time""
""fullscreenenter"",""1"",""1665""
","
","","","","","","1401.2000000476837","images/boat4.png","","","memory_trial","3","maybe_new",""
"html-keyboard-response","148","381353","0.0-18.0-0.52","4266","approach_avoid_sv1","""event"",""trial"",""time""
""fullscreenenter"",""1"",""1665""
","
","
","""event"",""trial"",""time""
""fullscreenenter"",""1"",""1665""
","
","","","","","","null","<div style=""font-size:60px;"">+</div>","null","","fixation","","",""
"memory-trial","149","383617","0.0-18.0-1.52","4266","approach_avoid_sv1","""event"",""trial"",""time""
""fullscreenenter"",""1"",""1665""
","
","
","""event"",""trial"",""time""
""fullscreenenter"",""1"",""1665""
","
","","","","","","1258","images/goat5.png","","","memory_trial","3","maybe_new",""
"html-keyboard-response","150","384134","0.0-18.0-0.53","4266","approach_avoid_sv1","""event"",""trial"",""time""
""fullscreenenter"",""1"",""1665""
","
","
","""event"",""trial"",""time""
""fullscreenenter"",""1"",""1665""
","
","","","","","","null","<div style=""font-size:60px;"">+</div>","null","","fixation","","",""
"memory-trial","151","386305","0.0-18.0-1.53","4266","approach_avoid_sv1","""event"",""trial"",""time""
""fullscreenenter"",""1"",""1665""
","
","
","""event"",""trial"",""time""
""fullscreenenter"",""1"",""1665""
","
","","","","","","1166.9000000953674","images/bed1.png","","","memory_trial","2","maybe_old",""
"html-keyboard-response","152","386809","0.0-18.0-0.54","4266","approach_avoid_sv1","""event"",""trial"",""time""
""fullscreenenter"",""1"",""1665""
","
","
","""event"",""trial"",""time""
""fullscreenenter"",""1"",""1665""
","
","","","","","","null","<div style=""font-size:60px;"">+</div>","null","","fixation","","",""
"memory-trial","153","389329","0.0-18.0-1.54","4266","approach_avoid_sv1","""event"",""trial"",""time""
""fullscreenenter"",""1"",""1665""
","
","
","""event"",""trial"",""time""
""fullscreenenter"",""1"",""1665""
","
","","","","","","1514.4000000953674","images/cactus1.png","","","memory_trial","2","maybe_old",""
"html-keyboard-response","154","389832","0.0-18.0-0.55","4266","approach_avoid_sv1","""event"",""trial"",""time""
""fullscreenenter"",""1"",""1665""
","
","
","""event"",""trial"",""time""
""fullscreenenter"",""1"",""1665""
","
","","","","","","null","<div style=""font-size:60px;"">+</div>","null","","fixation","","",""
"memory-trial","155","392040","0.0-18.0-1.55","4266","approach_avoid_sv1","""event"",""trial"",""time""
""fullscreenenter"",""1"",""1665""
","
","
","""event"",""trial"",""time""
""fullscreenenter"",""1"",""1665""
","
","","","","","","1186","images/boat2.png","","","memory_trial","3","maybe_new",""
"html-keyboard-response","156","392545","0.0-18.0-0.56","4266","approach_avoid_sv1","""event"",""trial"",""time""
""fullscreenenter"",""1"",""1665""
","
","
","""event"",""trial"",""time""
""fullscreenenter"",""1"",""1665""
","
","","","","","","null","<div style=""font-size:60px;"">+</div>","null","","fixation","","",""
"memory-trial","157","394975","0.0-18.0-1.56","4266","approach_avoid_sv1","""event"",""trial"",""time""
""fullscreenenter"",""1"",""1665""
","
","
","""event"",""trial"",""time""
""fullscreenenter"",""1"",""1665""
","
","","","","","","1410.0999999046326","images/bush2.png","","","memory_trial","4","definitely_new",""
"html-keyboard-response","158","395480","0.0-18.0-0.57","4266","approach_avoid_sv1","""event"",""trial"",""time""
""fullscreenenter"",""1"",""1665""
","
","
","""event"",""trial"",""time""
""fullscreenenter"",""1"",""1665""
","
","","","","","","null","<div style=""font-size:60px;"">+</div>","null","","fixation","","",""
"memory-trial","159","398345","0.0-18.0-1.57","4266","approach_avoid_sv1","""event"",""trial"",""time""
""fullscreenenter"",""1"",""1665""
","
","
","""event"",""trial"",""time""
""fullscreenenter"",""1"",""1665""
","
","","","","","","1860.9000000953674","images/banana6.png","","","memory_trial","3","maybe_new",""
"html-keyboard-response","160","398849","0.0-18.0-0.58","4266","approach_avoid_sv1","""event"",""trial"",""time""
""fullscreenenter"",""1"",""1665""
","
","
","""event"",""trial"",""time""
""fullscreenenter"",""1"",""1665""
","
","","","","","","null","<div style=""font-size:60px;"">+</div>","null","","fixation","","",""
"memory-trial","161","401433","0.0-18.0-1.58","4266","approach_avoid_sv1","""event"",""trial"",""time""
""fullscreenenter"",""1"",""1665""
","
","
","""event"",""trial"",""time""
""fullscreenenter"",""1"",""1665""
","
","","","","","","1577.2999999523163","images/straw1.png","","","memory_trial","1","definitely_old",""
"html-keyboard-response","162","401937","0.0-18.0-0.59","4266","approach_avoid_sv1","""event"",""trial"",""time""
""fullscreenenter"",""1"",""1665""
","
","
","""event"",""trial"",""time""
""fullscreenenter"",""1"",""1665""
","
","","","","","","null","<div style=""font-size:60px;"">+</div>","null","","fixation","","",""
"memory-trial","163","404649","0.0-18.0-1.59","4266","approach_avoid_sv1","""event"",""trial"",""time""
""fullscreenenter"",""1"",""1665""
","
","
","""event"",""trial"",""time""
""fullscreenenter"",""1"",""1665""
","
","","","","","","1706.5","images/truck4.png","","","memory_trial","4","definitely_new",""
"html-keyboard-response","164","405152","0.0-18.0-0.60","4266","approach_avoid_sv1","""event"",""trial"",""time""
""fullscreenenter"",""1"",""1665""
","
","
","""event"",""trial"",""time""
""fullscreenenter"",""1"",""1665""
","
","","","","","","null","<div style=""font-size:60px;"">+</div>","null","","fixation","","",""
"memory-trial","165","408082","0.0-18.0-1.60","4266","approach_avoid_sv1","""event"",""trial"",""time""
""fullscreenenter"",""1"",""1665""
","
","
","""event"",""trial"",""time""
""fullscreenenter"",""1"",""1665""
","
","","","","","","1921.5999999046326","images/apple1.png","","","memory_trial","3","maybe_new",""
"html-keyboard-response","166","408586","0.0-18.0-0.61","4266","approach_avoid_sv1","""event"",""trial"",""time""
""fullscreenenter"",""1"",""1665""
","
","
","""event"",""trial"",""time""
""fullscreenenter"",""1"",""1665""
","
","","","","","","null","<div style=""font-size:60px;"">+</div>","null","","fixation","","",""
"memory-trial","167","411273","0.0-18.0-1.61","4266","approach_avoid_sv1","""event"",""trial"",""time""
""fullscreenenter"",""1"",""1665""
","
","
","""event"",""trial"",""time""
""fullscreenenter"",""1"",""1665""
","
","","","","","","1682","images/dog7.png","","","memory_trial","4","definitely_new",""
"html-keyboard-response","168","411777","0.0-18.0-0.62","4266","approach_avoid_sv1","""event"",""trial"",""time""
""fullscreenenter"",""1"",""1665""
","
","
","""event"",""trial"",""time""
""fullscreenenter"",""1"",""1665""
","
","","","","","","null","<div style=""font-size:60px;"">+</div>","null","","fixation","","",""
"memory-trial","169","414121","0.0-18.0-1.62","4266","approach_avoid_sv1","""event"",""trial"",""time""
""fullscreenenter"",""1"",""1665""
","
","
","""event"",""trial"",""time""
""fullscreenenter"",""1"",""1665""
","
","","","","","","1338.9000000953674","images/horse5.png","","","memory_trial","4","definitely_new",""
"html-keyboard-response","170","414625","0.0-18.0-0.63","4266","approach_avoid_sv1","""event"",""trial"",""time""
""fullscreenenter"",""1"",""1665""
","
","
","""event"",""trial"",""time""
""fullscreenenter"",""1"",""1665""
","
","","","","","","null","<div style=""font-size:60px;"">+</div>","null","","fixation","","",""
"memory-trial","171","417129","0.0-18.0-1.63","4266","approach_avoid_sv1","""event"",""trial"",""time""
""fullscreenenter"",""1"",""1665""
","
","
","""event"",""trial"",""time""
""fullscreenenter"",""1"",""1665""
","
","","","","","","1497.7999999523163","images/flower8.png","","","memory_trial","4","definitely_new",""
"html-keyboard-response","172","417633","0.0-18.0-0.64","4266","approach_avoid_sv1","""event"",""trial"",""time""
""fullscreenenter"",""1"",""1665""
","
","
","""event"",""trial"",""time""
""fullscreenenter"",""1"",""1665""
","
","","","","","","null","<div style=""font-size:60px;"">+</div>","null","","fixation","","",""
"memory-trial","173","420569","0.0-18.0-1.64","4266","approach_avoid_sv1","""event"",""trial"",""time""
""fullscreenenter"",""1"",""1665""
","
","
","""event"",""trial"",""time""
""fullscreenenter"",""1"",""1665""
","
","","","","","","1930.5999999046326","images/cow5.png","","","memory_trial","2","maybe_old",""
"html-keyboard-response","174","421073","0.0-18.0-0.65","4266","approach_avoid_sv1","""event"",""trial"",""time""
""fullscreenenter"",""1"",""1665""
","
","
","""event"",""trial"",""time""
""fullscreenenter"",""1"",""1665""
","
","","","","","","null","<div style=""font-size:60px;"">+</div>","null","","fixation","","",""
"memory-trial","175","423746","0.0-18.0-1.65","4266","approach_avoid_sv1","""event"",""trial"",""time""
""fullscreenenter"",""1"",""1665""
","
","
","""event"",""trial"",""time""
""fullscreenenter"",""1"",""1665""
","
","","","","","","1667","images/horse6.png","","","memory_trial","2","maybe_old",""
"html-keyboard-response","176","424254","0.0-18.0-0.66","4266","approach_avoid_sv1","""event"",""trial"",""time""
""fullscreenenter"",""1"",""1665""
","
","
","""event"",""trial"",""time""
""fullscreenenter"",""1"",""1665""
","
","","","","","","null","<div style=""font-size:60px;"">+</div>","null","","fixation","","",""
"memory-trial","177","427072","0.0-18.0-1.66","4266","approach_avoid_sv1","""event"",""trial"",""time""
""fullscreenenter"",""1"",""1665""
","
","
","""event"",""trial"",""time""
""fullscreenenter"",""1"",""1665""
","
","","","","","","1813","images/flower5.png","","","memory_trial","2","maybe_old",""
"html-keyboard-response","178","427576","0.0-18.0-0.67","4266","approach_avoid_sv1","""event"",""trial"",""time""
""fullscreenenter"",""1"",""1665""
","
","
","""event"",""trial"",""time""
""fullscreenenter"",""1"",""1665""
","
","","","","","","null","<div style=""font-size:60px;"">+</div>","null","","fixation","","",""
"memory-trial","179","429761","0.0-18.0-1.67","4266","approach_avoid_sv1","""event"",""trial"",""time""
""fullscreenenter"",""1"",""1665""
","
","
","""event"",""trial"",""time""
""fullscreenenter"",""1"",""1665""
","
","","","","","","1177.7999999523163","images/straw2.png","","","memory_trial","2","maybe_old",""
"html-keyboard-response","180","430264","0.0-18.0-0.68","4266","approach_avoid_sv1","""event"",""trial"",""time""
""fullscreenenter"",""1"",""1665""
","
","
","""event"",""trial"",""time""
""fullscreenenter"",""1"",""1665""
","
","","","","","","null","<div style=""font-size:60px;"">+</div>","null","","fixation","","",""
"memory-trial","181","432609","0.0-18.0-1.68","4266","approach_avoid_sv1","""event"",""trial"",""time""
""fullscreenenter"",""1"",""1665""
","
","
","""event"",""trial"",""time""
""fullscreenenter"",""1"",""1665""
","
","","","","","","1338.7999999523163","images/rodent2.png","","","memory_trial","4","definitely_new",""
"html-keyboard-response","182","433119","0.0-18.0-0.69","4266","approach_avoid_sv1","""event"",""trial"",""time""
""fullscreenenter"",""1"",""1665""
","
","
","""event"",""trial"",""time""
""fullscreenenter"",""1"",""1665""
","
","","","","","","null","<div style=""font-size:60px;"">+</div>","null","","fixation","","",""
"memory-trial","183","435329","0.0-18.0-1.69","4266","approach_avoid_sv1","""event"",""trial"",""time""
""fullscreenenter"",""1"",""1665""
","
","
","""event"",""trial"",""time""
""fullscreenenter"",""1"",""1665""
","
","","","","","","1204.6000001430511","images/orange3.png","","","memory_trial","2","maybe_old",""
"html-keyboard-response","184","435833","0.0-18.0-0.70","4266","approach_avoid_sv1","""event"",""trial"",""time""
""fullscreenenter"",""1"",""1665""
","
","
","""event"",""trial"",""time""
""fullscreenenter"",""1"",""1665""
","
","","","","","","null","<div style=""font-size:60px;"">+</div>","null","","fixation","","",""
"memory-trial","185","438137","0.0-18.0-1.70","4266","approach_avoid_sv1","""event"",""trial"",""time""
""fullscreenenter"",""1"",""1665""
","
","
","""event"",""trial"",""time""
""fullscreenenter"",""1"",""1665""
","
","","","","","","1298.7000000476837","images/cactus8.png","","","memory_trial","4","definitely_new",""
"html-keyboard-response","186","438641","0.0-18.0-0.71","4266","approach_avoid_sv1","""event"",""trial"",""time""
""fullscreenenter"",""1"",""1665""
","
","
","""event"",""trial"",""time""
""fullscreenenter"",""1"",""1665""
","
","","","","","","null","<div style=""font-size:60px;"">+</div>","null","","fixation","","",""
"memory-trial","187","441330","0.0-18.0-1.71","4266","approach_avoid_sv1","""event"",""trial"",""time""
""fullscreenenter"",""1"",""1665""
","
","
","""event"",""trial"",""time""
""fullscreenenter"",""1"",""1665""
","
","","","","","","1681.7000000476837","images/flower2.png","","","memory_trial","3","maybe_new",""
"html-keyboard-response","188","441834","0.0-18.0-0.72","4266","approach_avoid_sv1","""event"",""trial"",""time""
""fullscreenenter"",""1"",""1665""
","
","
","""event"",""trial"",""time""
""fullscreenenter"",""1"",""1665""
","
","","","","","","null","<div style=""font-size:60px;"">+</div>","null","","fixation","","",""
"memory-trial","189","444777","0.0-18.0-1.72","4266","approach_avoid_sv1","""event"",""trial"",""time""
""fullscreenenter"",""1"",""1665""
","
","
","""event"",""trial"",""time""
""fullscreenenter"",""1"",""1665""
","
","","","","","","1936.9000000953674","images/flower4.png","","","memory_trial","2","maybe_old",""
"html-keyboard-response","190","445280","0.0-18.0-0.73","4266","approach_avoid_sv1","""event"",""trial"",""time""
""fullscreenenter"",""1"",""1665""
","
","
","""event"",""trial"",""time""
""fullscreenenter"",""1"",""1665""
","
","","","","","","null","<div style=""font-size:60px;"">+</div>","null","","fixation","","",""
"memory-trial","191","447697","0.0-18.0-1.73","4266","approach_avoid_sv1","""event"",""trial"",""time""
""fullscreenenter"",""1"",""1665""
","
","
","""event"",""trial"",""time""
""fullscreenenter"",""1"",""1665""
","
","","","","","","1411.7999999523163","images/bed8.png","","","memory_trial","4","definitely_new",""
"html-keyboard-response","192","448201","0.0-18.0-0.74","4266","approach_avoid_sv1","""event"",""trial"",""time""
""fullscreenenter"",""1"",""1665""
","
","
","""event"",""trial"",""time""
""fullscreenenter"",""1"",""1665""
","
","","","","","","null","<div style=""font-size:60px;"">+</div>","null","","fixation","","",""
"memory-trial","193","450561","0.0-18.0-1.74","4266","approach_avoid_sv1","""event"",""trial"",""time""
""fullscreenenter"",""1"",""1665""
","
","
","""event"",""trial"",""time""
""fullscreenenter"",""1"",""1665""
","
","","","","","","1353.8999998569489","images/tree1.png","","","memory_trial","2","maybe_old",""
"html-keyboard-response","194","451065","0.0-18.0-0.75","4266","approach_avoid_sv1","""event"",""trial"",""time""
""fullscreenenter"",""1"",""1665""
","
","
","""event"",""trial"",""time""
""fullscreenenter"",""1"",""1665""
","
","","","","","","null","<div style=""font-size:60px;"">+</div>","null","","fixation","","",""
"memory-trial","195","453329","0.0-18.0-1.75","4266","approach_avoid_sv1","""event"",""trial"",""time""
""fullscreenenter"",""1"",""1665""
","
","
","""event"",""trial"",""time""
""fullscreenenter"",""1"",""1665""
","
","","","","","","1257.5","images/plane7.png","","","memory_trial","2","maybe_old",""
"html-keyboard-response","196","453834","0.0-18.0-0.76","4266","approach_avoid_sv1","""event"",""trial"",""time""
""fullscreenenter"",""1"",""1665""
","
","
","""event"",""trial"",""time""
""fullscreenenter"",""1"",""1665""
","
","","","","","","null","<div style=""font-size:60px;"">+</div>","null","","fixation","","",""
"memory-trial","197","456081","0.0-18.0-1.76","4266","approach_avoid_sv1","""event"",""trial"",""time""
""fullscreenenter"",""1"",""1665""
","
","
","""event"",""trial"",""time""
""fullscreenenter"",""1"",""1665""
","
","","","","","","1241.0999999046326","images/apple8.png","","","memory_trial","4","definitely_new",""
"html-keyboard-response","198","456587","0.0-18.0-0.77","4266","approach_avoid_sv1","""event"",""trial"",""time""
""fullscreenenter"",""1"",""1665""
","
","
","""event"",""trial"",""time""
""fullscreenenter"",""1"",""1665""
","
","","","","","","null","<div style=""font-size:60px;"">+</div>","null","","fixation","","",""
"memory-trial","199","458777","0.0-18.0-1.77","4266","approach_avoid_sv1","""event"",""trial"",""time""
""fullscreenenter"",""1"",""1665""
","
","
","""event"",""trial"",""time""
""fullscreenenter"",""1"",""1665""
","
","","","","","","1185.4000000953674","images/cactus6.png","","","memory_trial","2","maybe_old",""
"html-keyboard-response","200","459280","0.0-18.0-0.78","4266","approach_avoid_sv1","""event"",""trial"",""time""
""fullscreenenter"",""1"",""1665""
","
","
","""event"",""trial"",""time""
""fullscreenenter"",""1"",""1665""
","
","","","","","","null","<div style=""font-size:60px;"">+</div>","null","","fixation","","",""
"memory-trial","201","461641","0.0-18.0-1.78","4266","approach_avoid_sv1","""event"",""trial"",""time""
""fullscreenenter"",""1"",""1665""
","
","
","""event"",""trial"",""time""
""fullscreenenter"",""1"",""1665""
","
","","","","","","1354.1999998092651","images/dog3.png","","","memory_trial","4","definitely_new",""
"html-keyboard-response","202","462154","0.0-18.0-0.79","4266","approach_avoid_sv1","""event"",""trial"",""time""
""fullscreenenter"",""1"",""1665""
","
","
","""event"",""trial"",""time""
""fullscreenenter"",""1"",""1665""
","
","","","","","","null","<div style=""font-size:60px;"">+</div>","null","","fixation","","",""
"memory-trial","203","465092","0.0-18.0-1.79","4266","approach_avoid_sv1","""event"",""trial"",""time""
""fullscreenenter"",""1"",""1665""
","
","
","""event"",""trial"",""time""
""fullscreenenter"",""1"",""1665""
","
","","","","","","1929.7999999523163","images/horse7.png","","","memory_trial","2","maybe_old",""
"html-keyboard-response","204","465610","0.0-18.0-0.80","4266","approach_avoid_sv1","""event"",""trial"",""time""
""fullscreenenter"",""1"",""1665""
","
","
","""event"",""trial"",""time""
""fullscreenenter"",""1"",""1665""
","
","","","","","","null","<div style=""font-size:60px;"">+</div>","null","","fixation","","",""
"memory-trial","205","468073","0.0-18.0-1.80","4266","approach_avoid_sv1","""event"",""trial"",""time""
""fullscreenenter"",""1"",""1665""
","
","
","""event"",""trial"",""time""
""fullscreenenter"",""1"",""1665""
","
","","","","","","1457.8999998569489","images/table4.png","","","memory_trial","2","maybe_old",""
"html-keyboard-response","206","468577","0.0-18.0-0.81","4266","approach_avoid_sv1","""event"",""trial"",""time""
""fullscreenenter"",""1"",""1665""
","
","
","""event"",""trial"",""time""
""fullscreenenter"",""1"",""1665""
","
","","","","","","null","<div style=""font-size:60px;"">+</div>","null","","fixation","","",""
"memory-trial","207","471561","0.0-18.0-1.81","4266","approach_avoid_sv1","""event"",""trial"",""time""
""fullscreenenter"",""1"",""1665""
","
","
","""event"",""trial"",""time""
""fullscreenenter"",""1"",""1665""
","
","","","","","","1972","images/plane5.png","","","memory_trial","3","maybe_new",""
"html-keyboard-response","208","472066","0.0-18.0-0.82","4266","approach_avoid_sv1","""event"",""trial"",""time""
""fullscreenenter"",""1"",""1665""
","
","
","""event"",""trial"",""time""
""fullscreenenter"",""1"",""1665""
","
","","","","","","null","<div style=""font-size:60px;"">+</div>","null","","fixation","","",""
"memory-trial","209","475322","0.0-18.0-1.82","4266","approach_avoid_sv1","""event"",""trial"",""time""
""fullscreenenter"",""1"",""1665""
","
","
","""event"",""trial"",""time""
""fullscreenenter"",""1"",""1665""
","
","","","","","","2249.5","images/train7.png","","","memory_trial","3","maybe_new",""
"html-keyboard-response","210","475833","0.0-18.0-0.83","4266","approach_avoid_sv1","""event"",""trial"",""time""
""fullscreenenter"",""1"",""1665""
","
","
","""event"",""trial"",""time""
""fullscreenenter"",""1"",""1665""
","
","","","","","","null","<div style=""font-size:60px;"">+</div>","null","","fixation","","",""
"memory-trial","211","477762","0.0-18.0-1.83","4266","approach_avoid_sv1","""event"",""trial"",""time""
""fullscreenenter"",""1"",""1665""
","
","
","""event"",""trial"",""time""
""fullscreenenter"",""1"",""1665""
","
","","","","","","920.5999999046326","images/chair8.png","","","memory_trial","2","maybe_old",""
"html-keyboard-response","212","478274","0.0-18.0-0.84","4266","approach_avoid_sv1","""event"",""trial"",""time""
""fullscreenenter"",""1"",""1665""
","
","
","""event"",""trial"",""time""
""fullscreenenter"",""1"",""1665""
","
","","","","","","null","<div style=""font-size:60px;"">+</div>","null","","fixation","","",""
"memory-trial","213","480986","0.0-18.0-1.84","4266","approach_avoid_sv1","""event"",""trial"",""time""
""fullscreenenter"",""1"",""1665""
","
","
","""event"",""trial"",""time""
""fullscreenenter"",""1"",""1665""
","
","","","","","","1705.3000001907349","images/bush7.png","","","memory_trial","4","definitely_new",""
"html-keyboard-response","214","481488","0.0-18.0-0.85","4266","approach_avoid_sv1","""event"",""trial"",""time""
""fullscreenenter"",""1"",""1665""
","
","
","""event"",""trial"",""time""
""fullscreenenter"",""1"",""1665""
","
","","","","","","null","<div style=""font-size:60px;"">+</div>","null","","fixation","","",""
"memory-trial","215","483585","0.0-18.0-1.85","4266","approach_avoid_sv1","""event"",""trial"",""time""
""fullscreenenter"",""1"",""1665""
","
","
","""event"",""trial"",""time""
""fullscreenenter"",""1"",""1665""
","
","","","","","","1091.9000000953674","images/dog1.png","","","memory_trial","4","definitely_new",""
"html-keyboard-response","216","484090","0.0-18.0-0.86","4266","approach_avoid_sv1","""event"",""trial"",""time""
""fullscreenenter"",""1"",""1665""
","
","
","""event"",""trial"",""time""
""fullscreenenter"",""1"",""1665""
","
","","","","","","null","<div style=""font-size:60px;"">+</div>","null","","fixation","","",""
"memory-trial","217","486776","0.0-18.0-1.86","4266","approach_avoid_sv1","""event"",""trial"",""time""
""fullscreenenter"",""1"",""1665""
","
","
","""event"",""trial"",""time""
""fullscreenenter"",""1"",""1665""
","
","","","","","","1680.5","images/boat8.png","","","memory_trial","4","definitely_new",""
"html-keyboard-response","218","487282","0.0-18.0-0.87","4266","approach_avoid_sv1","""event"",""trial"",""time""
""fullscreenenter"",""1"",""1665""
","
","
","""event"",""trial"",""time""
""fullscreenenter"",""1"",""1665""
","
","","","","","","null","<div style=""font-size:60px;"">+</div>","null","","fixation","","",""
"memory-trial","219","489178","0.0-18.0-1.87","4266","approach_avoid_sv1","""event"",""trial"",""time""
""fullscreenenter"",""1"",""1665""
","
","
","""event"",""trial"",""time""
""fullscreenenter"",""1"",""1665""
","
","","","","","","888.2000000476837","images/orange7.png","","","memory_trial","2","maybe_old",""
"html-keyboard-response","220","489689","0.0-18.0-0.88","4266","approach_avoid_sv1","""event"",""trial"",""time""
""fullscreenenter"",""1"",""1665""
","
","
","""event"",""trial"",""time""
""fullscreenenter"",""1"",""1665""
","
","","","","","","null","<div style=""font-size:60px;"">+</div>","null","","fixation","","",""
"memory-trial","221","492454","0.0-18.0-1.88","4266","approach_avoid_sv1","""event"",""trial"",""time""
""fullscreenenter"",""1"",""1665""
","
","
","""event"",""trial"",""time""
""fullscreenenter"",""1"",""1665""
","
","","","","","","1745.7000000476837","images/truck2.png","","","memory_trial","4","definitely_new",""
"html-keyboard-response","222","492961","0.0-18.0-0.89","4266","approach_avoid_sv1","""event"",""trial"",""time""
""fullscreenenter"",""1"",""1665""
","
","
","""event"",""trial"",""time""
""fullscreenenter"",""1"",""1665""
","
","","","","","","null","<div style=""font-size:60px;"">+</div>","null","","fixation","","",""
"memory-trial","223","495178","0.0-18.0-1.89","4266","approach_avoid_sv1","""event"",""trial"",""time""
""fullscreenenter"",""1"",""1665""
","
","
","""event"",""trial"",""time""
""fullscreenenter"",""1"",""1665""
","
","","","","","","1209.5","images/horse2.png","","","memory_trial","4","definitely_new",""
"html-keyboard-response","224","495693","0.0-18.0-0.90","4266","approach_avoid_sv1","""event"",""trial"",""time""
""fullscreenenter"",""1"",""1665""
","
","
","""event"",""trial"",""time""
""fullscreenenter"",""1"",""1665""
","
","","","","","","null","<div style=""font-size:60px;"">+</div>","null","","fixation","","",""
"memory-trial","225","498938","0.0-18.0-1.90","4266","approach_avoid_sv1","""event"",""trial"",""time""
""fullscreenenter"",""1"",""1665""
","
","
","""event"",""trial"",""time""
""fullscreenenter"",""1"",""1665""
","
","","","","","","2237.600000143051","images/sofa3.png","","","memory_trial","4","definitely_new",""
"html-keyboard-response","226","499440","0.0-18.0-0.91","4266","approach_avoid_sv1","""event"",""trial"",""time""
""fullscreenenter"",""1"",""1665""
","
","
","""event"",""trial"",""time""
""fullscreenenter"",""1"",""1665""
","
","","","","","","null","<div style=""font-size:60px;"">+</div>","null","","fixation","","",""
"memory-trial","227","502168","0.0-18.0-1.91","4266","approach_avoid_sv1","""event"",""trial"",""time""
""fullscreenenter"",""1"",""1665""
","
","
","""event"",""trial"",""time""
""fullscreenenter"",""1"",""1665""
","
","","","","","","1721.6999998092651","images/bed7.png","","","memory_trial","1","definitely_old",""
"html-button-response","228","537485","0.0-18.0-2.91-0.91","4266","approach_avoid_sv1","""event"",""trial"",""time""
""fullscreenenter"",""1"",""1665""
","
","
","""event"",""trial"",""time""
""fullscreenenter"",""1"",""1665""
","
","","","","","","35314.89999985695","<p> Take a break! </p><p> Click the button to continue. </p>","0","","break","","",""
"html-keyboard-response","229","537990","0.0-18.0-0.92","4266","approach_avoid_sv1","""event"",""trial"",""time""
""fullscreenenter"",""1"",""1665""
","
","
","""event"",""trial"",""time""
""fullscreenenter"",""1"",""1665""
","
","","","","","","null","<div style=""font-size:60px;"">+</div>","null","","fixation","","",""
"memory-trial","230","540506","0.0-18.0-1.92","4266","approach_avoid_sv1","""event"",""trial"",""time""
""fullscreenenter"",""1"",""1665""
","
","
","""event"",""trial"",""time""
""fullscreenenter"",""1"",""1665""
","
","","","","","","1508.7999999523163","images/banana5.png","","","memory_trial","1","definitely_old",""
"html-keyboard-response","231","541010","0.0-18.0-0.93","4266","approach_avoid_sv1","""event"",""trial"",""time""
""fullscreenenter"",""1"",""1665""
","
","
","""event"",""trial"",""time""
""fullscreenenter"",""1"",""1665""
","
","","","","","","null","<div style=""font-size:60px;"">+</div>","null","","fixation","","",""
"memory-trial","232","543521","0.0-18.0-1.93","4266","approach_avoid_sv1","""event"",""trial"",""time""
""fullscreenenter"",""1"",""1665""
","
","
","""event"",""trial"",""time""
""fullscreenenter"",""1"",""1665""
","
","","","","","","1504.9000000953674","images/horse3.png","","","memory_trial","3","maybe_new",""
"html-keyboard-response","233","544027","0.0-18.0-0.94","4266","approach_avoid_sv1","""event"",""trial"",""time""
""fullscreenenter"",""1"",""1665""
","
","
","""event"",""trial"",""time""
""fullscreenenter"",""1"",""1665""
","
","","","","","","null","<div style=""font-size:60px;"">+</div>","null","","fixation","","",""
"memory-trial","234","546250","0.0-18.0-1.94","4266","approach_avoid_sv1","""event"",""trial"",""time""
""fullscreenenter"",""1"",""1665""
","
","
","""event"",""trial"",""time""
""fullscreenenter"",""1"",""1665""
","
","","","","","","1214.5999999046326","images/cactus7.png","","","memory_trial","2","maybe_old",""
"html-keyboard-response","235","546754","0.0-18.0-0.95","4266","approach_avoid_sv1","""event"",""trial"",""time""
""fullscreenenter"",""1"",""1665""
","
","
","""event"",""trial"",""time""
""fullscreenenter"",""1"",""1665""
","
","","","","","","null","<div style=""font-size:60px;"">+</div>","null","","fixation","","",""
"memory-trial","236","548924","0.0-18.0-1.95","4266","approach_avoid_sv1","""event"",""trial"",""time""
""fullscreenenter"",""1"",""1665""
","
","
","""event"",""trial"",""time""
""fullscreenenter"",""1"",""1665""
","
","","","","","","1154.7000000476837","images/cow1.png","","","memory_trial","4","definitely_new",""
"html-keyboard-response","237","549438","0.0-18.0-0.96","4266","approach_avoid_sv1","""event"",""trial"",""time""
""fullscreenenter"",""1"",""1665""
","
","
","""event"",""trial"",""time""
""fullscreenenter"",""1"",""1665""
","
","","","","","","null","<div style=""font-size:60px;"">+</div>","null","","fixation","","",""
"memory-trial","238","551617","0.0-18.0-1.96","4266","approach_avoid_sv1","""event"",""trial"",""time""
""fullscreenenter"",""1"",""1665""
","
","
","""event"",""trial"",""time""
""fullscreenenter"",""1"",""1665""
","
","","","","","","1173.0999999046326","images/orange5.png","","","memory_trial","2","maybe_old",""
"html-keyboard-response","239","552120","0.0-18.0-0.97","4266","approach_avoid_sv1","""event"",""trial"",""time""
""fullscreenenter"",""1"",""1665""
","
","
","""event"",""trial"",""time""
""fullscreenenter"",""1"",""1665""
","
","","","","","","null","<div style=""font-size:60px;"">+</div>","null","","fixation","","",""
"memory-trial","240","554705","0.0-18.0-1.97","4266","approach_avoid_sv1","""event"",""trial"",""time""
""fullscreenenter"",""1"",""1665""
","
","
","""event"",""trial"",""time""
""fullscreenenter"",""1"",""1665""
","
","","","","","","1577.7000000476837","images/truck8.png","","","memory_trial","4","definitely_new",""
"html-keyboard-response","241","555209","0.0-18.0-0.98","4266","approach_avoid_sv1","""event"",""trial"",""time""
""fullscreenenter"",""1"",""1665""
","
","
","""event"",""trial"",""time""
""fullscreenenter"",""1"",""1665""
","
","","","","","","null","<div style=""font-size:60px;"">+</div>","null","","fixation","","",""
"memory-trial","242","558057","0.0-18.0-1.98","4266","approach_avoid_sv1","""event"",""trial"",""time""
""fullscreenenter"",""1"",""1665""
","
","
","""event"",""trial"",""time""
""fullscreenenter"",""1"",""1665""
","
","","","","","","1842","images/rabbit7.png","","","memory_trial","2","maybe_old",""
"html-keyboard-response","243","558564","0.0-18.0-0.99","4266","approach_avoid_sv1","""event"",""trial"",""time""
""fullscreenenter"",""1"",""1665""
","
","
","""event"",""trial"",""time""
""fullscreenenter"",""1"",""1665""
","
","","","","","","null","<div style=""font-size:60px;"">+</div>","null","","fixation","","",""
"memory-trial","244","561050","0.0-18.0-1.99","4266","approach_avoid_sv1","""event"",""trial"",""time""
""fullscreenenter"",""1"",""1665""
","
","
","""event"",""trial"",""time""
""fullscreenenter"",""1"",""1665""
","
","","","","","","1479.2000000476837","images/boat3.png","","","memory_trial","4","definitely_new",""
"html-keyboard-response","245","561555","0.0-18.0-0.100","4266","approach_avoid_sv1","""event"",""trial"",""time""
""fullscreenenter"",""1"",""1665""
","
","
","""event"",""trial"",""time""
""fullscreenenter"",""1"",""1665""
","
","","","","","","null","<div style=""font-size:60px;"">+</div>","null","","fixation","","",""
"memory-trial","246","564257","0.0-18.0-1.100","4266","approach_avoid_sv1","""event"",""trial"",""time""
""fullscreenenter"",""1"",""1665""
","
","
","""event"",""trial"",""time""
""fullscreenenter"",""1"",""1665""
","
","","","","","","1694.6999998092651","images/apple7.png","","","memory_trial","4","definitely_new",""
"html-keyboard-response","247","564761","0.0-18.0-0.101","4266","approach_avoid_sv1","""event"",""trial"",""time""
""fullscreenenter"",""1"",""1665""
","
","
","""event"",""trial"",""time""
""fullscreenenter"",""1"",""1665""
","
","","","","","","null","<div style=""font-size:60px;"">+</div>","null","","fixation","","",""
"memory-trial","248","566906","0.0-18.0-1.101","4266","approach_avoid_sv1","""event"",""trial"",""time""
""fullscreenenter"",""1"",""1665""
","
","
","""event"",""trial"",""time""
""fullscreenenter"",""1"",""1665""
","
","","","","","","1137.1999998092651","images/tree7.png","","","memory_trial","2","maybe_old",""
"html-keyboard-response","249","567409","0.0-18.0-0.102","4266","approach_avoid_sv1","""event"",""trial"",""time""
""fullscreenenter"",""1"",""1665""
","
","
","""event"",""trial"",""time""
""fullscreenenter"",""1"",""1665""
","
","","","","","","null","<div style=""font-size:60px;"">+</div>","null","","fixation","","",""
"memory-trial","250","569722","0.0-18.0-1.102","4266","approach_avoid_sv1","""event"",""trial"",""time""
""fullscreenenter"",""1"",""1665""
","
","
","""event"",""trial"",""time""
""fullscreenenter"",""1"",""1665""
","
","","","","","","1306","images/truck5.png","","","memory_trial","4","definitely_new",""
"html-keyboard-response","251","570225","0.0-18.0-0.103","4266","approach_avoid_sv1","""event"",""trial"",""time""
""fullscreenenter"",""1"",""1665""
","
","
","""event"",""trial"",""time""
""fullscreenenter"",""1"",""1665""
","
","","","","","","null","<div style=""font-size:60px;"">+</div>","null","","fixation","","",""
"memory-trial","252","572865","0.0-18.0-1.103","4266","approach_avoid_sv1","""event"",""trial"",""time""
""fullscreenenter"",""1"",""1665""
","
","
","""event"",""trial"",""time""
""fullscreenenter"",""1"",""1665""
","
","","","","","","1635.0999999046326","images/horse1.png","","","memory_trial","1","definitely_old",""
"html-keyboard-response","253","573369","0.0-18.0-0.104","4266","approach_avoid_sv1","""event"",""trial"",""time""
""fullscreenenter"",""1"",""1665""
","
","
","""event"",""trial"",""time""
""fullscreenenter"",""1"",""1665""
","
","","","","","","null","<div style=""font-size:60px;"">+</div>","null","","fixation","","",""
"memory-trial","254","576360","0.0-18.0-1.104","4266","approach_avoid_sv1","""event"",""trial"",""time""
""fullscreenenter"",""1"",""1665""
","
","
","""event"",""trial"",""time""
""fullscreenenter"",""1"",""1665""
","
","","","","","","1986.2999999523163","images/dog4.png","","","memory_trial","2","maybe_old",""
"html-keyboard-response","255","576865","0.0-18.0-0.105","4266","approach_avoid_sv1","""event"",""trial"",""time""
""fullscreenenter"",""1"",""1665""
","
","
","""event"",""trial"",""time""
""fullscreenenter"",""1"",""1665""
","
","","","","","","null","<div style=""font-size:60px;"">+</div>","null","","fixation","","",""
"memory-trial","256","579496","0.0-18.0-1.105","4266","approach_avoid_sv1","""event"",""trial"",""time""
""fullscreenenter"",""1"",""1665""
","
","
","""event"",""trial"",""time""
""fullscreenenter"",""1"",""1665""
","
","","","","","","1625.2000000476837","images/straw8.png","","","memory_trial","1","definitely_old",""
"html-keyboard-response","257","580009","0.0-18.0-0.106","4266","approach_avoid_sv1","""event"",""trial"",""time""
""fullscreenenter"",""1"",""1665""
","
","
","""event"",""trial"",""time""
""fullscreenenter"",""1"",""1665""
","
","","","","","","null","<div style=""font-size:60px;"">+</div>","null","","fixation","","",""
"memory-trial","258","582426","0.0-18.0-1.106","4266","approach_avoid_sv1","""event"",""trial"",""time""
""fullscreenenter"",""1"",""1665""
","
","
","""event"",""trial"",""time""
""fullscreenenter"",""1"",""1665""
","
","","","","","","1410.2999999523163","images/goat4.png","","","memory_trial","4","definitely_new",""
"html-keyboard-response","259","582939","0.0-18.0-0.107","4266","approach_avoid_sv1","""event"",""trial"",""time""
""fullscreenenter"",""1"",""1665""
","
","
","""event"",""trial"",""time""
""fullscreenenter"",""1"",""1665""
","
","","","","","","null","<div style=""font-size:60px;"">+</div>","null","","fixation","","",""
"memory-trial","260","585273","0.0-18.0-1.107","4266","approach_avoid_sv1","""event"",""trial"",""time""
""fullscreenenter"",""1"",""1665""
","
","
","""event"",""trial"",""time""
""fullscreenenter"",""1"",""1665""
","
","","","","","","1329.3000001907349","images/apple4.png","","","memory_trial","4","definitely_new",""
"html-keyboard-response","261","585777","0.0-18.0-0.108","4266","approach_avoid_sv1","""event"",""trial"",""time""
""fullscreenenter"",""1"",""1665""
","
","
","""event"",""trial"",""time""
""fullscreenenter"",""1"",""1665""
","
","","","","","","null","<div style=""font-size:60px;"">+</div>","null","","fixation","","",""
"memory-trial","262","588569","0.0-18.0-1.108","4266","approach_avoid_sv1","""event"",""trial"",""time""
""fullscreenenter"",""1"",""1665""
","
","
","""event"",""trial"",""time""
""fullscreenenter"",""1"",""1665""
","
","","","","","","1785.7000000476837","images/cat1.png","","","memory_trial","3","maybe_new",""
"html-keyboard-response","263","589085","0.0-18.0-0.109","4266","approach_avoid_sv1","""event"",""trial"",""time""
""fullscreenenter"",""1"",""1665""
","
","
","""event"",""trial"",""time""
""fullscreenenter"",""1"",""1665""
","
","","","","","","null","<div style=""font-size:60px;"">+</div>","null","","fixation","","",""
"memory-trial","264","591673","0.0-18.0-1.109","4266","approach_avoid_sv1","""event"",""trial"",""time""
""fullscreenenter"",""1"",""1665""
","
","
","""event"",""trial"",""time""
""fullscreenenter"",""1"",""1665""
","
","","","","","","1580.5999999046326","images/bed4.png","","","memory_trial","2","maybe_old",""
"html-keyboard-response","265","592177","0.0-18.0-0.110","4266","approach_avoid_sv1","""event"",""trial"",""time""
""fullscreenenter"",""1"",""1665""
","
","
","""event"",""trial"",""time""
""fullscreenenter"",""1"",""1665""
","
","","","","","","null","<div style=""font-size:60px;"">+</div>","null","","fixation","","",""
"memory-trial","266","594257","0.0-18.0-1.110","4266","approach_avoid_sv1","""event"",""trial"",""time""
""fullscreenenter"",""1"",""1665""
","
","
","""event"",""trial"",""time""
""fullscreenenter"",""1"",""1665""
","
","","","","","","1074","images/chair6.png","","","memory_trial","2","maybe_old",""
"html-keyboard-response","267","594761","0.0-18.0-0.111","4266","approach_avoid_sv1","""event"",""trial"",""time""
""fullscreenenter"",""1"",""1665""
","
","
","""event"",""trial"",""time""
""fullscreenenter"",""1"",""1665""
","
","","","","","","null","<div style=""font-size:60px;"">+</div>","null","","fixation","","",""
"memory-trial","268","597937","0.0-18.0-1.111","4266","approach_avoid_sv1","""event"",""trial"",""time""
""fullscreenenter"",""1"",""1665""
","
","
","""event"",""trial"",""time""
""fullscreenenter"",""1"",""1665""
","
","","","","","","2170.899999856949","images/flower7.png","","","memory_trial","2","maybe_old",""
"html-keyboard-response","269","598441","0.0-18.0-0.112","4266","approach_avoid_sv1","""event"",""trial"",""time""
""fullscreenenter"",""1"",""1665""
","
","
","""event"",""trial"",""time""
""fullscreenenter"",""1"",""1665""
","
","","","","","","null","<div style=""font-size:60px;"">+</div>","null","","fixation","","",""
"memory-trial","270","600953","0.0-18.0-1.112","4266","approach_avoid_sv1","""event"",""trial"",""time""
""fullscreenenter"",""1"",""1665""
","
","
","""event"",""trial"",""time""
""fullscreenenter"",""1"",""1665""
","
","","","","","","1505.2000000476837","images/bush8.png","","","memory_trial","2","maybe_old",""
"html-keyboard-response","271","601457","0.0-18.0-0.113","4266","approach_avoid_sv1","""event"",""trial"",""time""
""fullscreenenter"",""1"",""1665""
","
","
","""event"",""trial"",""time""
""fullscreenenter"",""1"",""1665""
","
","","","","","","null","<div style=""font-size:60px;"">+</div>","null","","fixation","","",""
"memory-trial","272","603778","0.0-18.0-1.113","4266","approach_avoid_sv1","""event"",""trial"",""time""
""fullscreenenter"",""1"",""1665""
","
","
","""event"",""trial"",""time""
""fullscreenenter"",""1"",""1665""
","
","","","","","","1314.7999999523163","images/sheep2.png","","","memory_trial","2","maybe_old",""
"html-keyboard-response","273","604280","0.0-18.0-0.114","4266","approach_avoid_sv1","""event"",""trial"",""time""
""fullscreenenter"",""1"",""1665""
","
","
","""event"",""trial"",""time""
""fullscreenenter"",""1"",""1665""
","
","","","","","","null","<div style=""font-size:60px;"">+</div>","null","","fixation","","",""
"memory-trial","274","606289","0.0-18.0-1.114","4266","approach_avoid_sv1","""event"",""trial"",""time""
""fullscreenenter"",""1"",""1665""
","
","
","""event"",""trial"",""time""
""fullscreenenter"",""1"",""1665""
","
","","","","","","1001.6000001430511","images/cat3.png","","","memory_trial","4","definitely_new",""
"html-keyboard-response","275","606793","0.0-18.0-0.115","4266","approach_avoid_sv1","""event"",""trial"",""time""
""fullscreenenter"",""1"",""1665""
","
","
","""event"",""trial"",""time""
""fullscreenenter"",""1"",""1665""
","
","","","","","","null","<div style=""font-size:60px;"">+</div>","null","","fixation","","",""
"memory-trial","276","609113","0.0-18.0-1.115","4266","approach_avoid_sv1","""event"",""trial"",""time""
""fullscreenenter"",""1"",""1665""
","
","
","""event"",""trial"",""time""
""fullscreenenter"",""1"",""1665""
","
","","","","","","1315.5","images/rabbit1.png","","","memory_trial","3","maybe_new",""
"html-keyboard-response","277","609616","0.0-18.0-0.116","4266","approach_avoid_sv1","""event"",""trial"",""time""
""fullscreenenter"",""1"",""1665""
","
","
","""event"",""trial"",""time""
""fullscreenenter"",""1"",""1665""
","
","","","","","","null","<div style=""font-size:60px;"">+</div>","null","","fixation","","",""
"memory-trial","278","612369","0.0-18.0-1.116","4266","approach_avoid_sv1","""event"",""trial"",""time""
""fullscreenenter"",""1"",""1665""
","
","
","""event"",""trial"",""time""
""fullscreenenter"",""1"",""1665""
","
","","","","","","1746.5999999046326","images/rodent6.png","","","memory_trial","2","maybe_old",""
"html-keyboard-response","279","612884","0.0-18.0-0.117","4266","approach_avoid_sv1","""event"",""trial"",""time""
""fullscreenenter"",""1"",""1665""
","
","
","""event"",""trial"",""time""
""fullscreenenter"",""1"",""1665""
","
","","","","","","null","<div style=""font-size:60px;"">+</div>","null","","fixation","","",""
"memory-trial","280","615609","0.0-18.0-1.117","4266","approach_avoid_sv1","""event"",""trial"",""time""
""fullscreenenter"",""1"",""1665""
","
","
","""event"",""trial"",""time""
""fullscreenenter"",""1"",""1665""
","
","","","","","","1717.9000000953674","images/rabbit5.png","","","memory_trial","4","definitely_new",""
"html-keyboard-response","281","616112","0.0-18.0-0.118","4266","approach_avoid_sv1","""event"",""trial"",""time""
""fullscreenenter"",""1"",""1665""
","
","
","""event"",""trial"",""time""
""fullscreenenter"",""1"",""1665""
","
","","","","","","null","<div style=""font-size:60px;"">+</div>","null","","fixation","","",""
"memory-trial","282","618192","0.0-18.0-1.118","4266","approach_avoid_sv1","""event"",""trial"",""time""
""fullscreenenter"",""1"",""1665""
","
","
","""event"",""trial"",""time""
""fullscreenenter"",""1"",""1665""
","
","","","","","","1074.2999999523163","images/orange1.png","","","memory_trial","2","maybe_old",""
"html-keyboard-response","283","618697","0.0-18.0-0.119","4266","approach_avoid_sv1","""event"",""trial"",""time""
""fullscreenenter"",""1"",""1665""
","
","
","""event"",""trial"",""time""
""fullscreenenter"",""1"",""1665""
","
","","","","","","null","<div style=""font-size:60px;"">+</div>","null","","fixation","","",""
"memory-trial","284","620793","0.0-18.0-1.119","4266","approach_avoid_sv1","""event"",""trial"",""time""
""fullscreenenter"",""1"",""1665""
","
","
","""event"",""trial"",""time""
""fullscreenenter"",""1"",""1665""
","
","","","","","","1090.8999998569489","images/cat6.png","","","memory_trial","4","definitely_new",""
"html-keyboard-response","285","621297","0.0-18.0-0.120","4266","approach_avoid_sv1","""event"",""trial"",""time""
""fullscreenenter"",""1"",""1665""
","
","
","""event"",""trial"",""time""
""fullscreenenter"",""1"",""1665""
","
","","","","","","null","<div style=""font-size:60px;"">+</div>","null","","fixation","","",""
"memory-trial","286","623450","0.0-18.0-1.120","4266","approach_avoid_sv1","""event"",""trial"",""time""
""fullscreenenter"",""1"",""1665""
","
","
","""event"",""trial"",""time""
""fullscreenenter"",""1"",""1665""
","
","","","","","","1145.9000000953674","images/chair3.png","","","memory_trial","2","maybe_old",""
"html-keyboard-response","287","623954","0.0-18.0-0.121","4266","approach_avoid_sv1","""event"",""trial"",""time""
""fullscreenenter"",""1"",""1665""
","
","
","""event"",""trial"",""time""
""fullscreenenter"",""1"",""1665""
","
","","","","","","null","<div style=""font-size:60px;"">+</div>","null","","fixation","","",""
"memory-trial","288","626225","0.0-18.0-1.121","4266","approach_avoid_sv1","""event"",""trial"",""time""
""fullscreenenter"",""1"",""1665""
","
","
","""event"",""trial"",""time""
""fullscreenenter"",""1"",""1665""
","
","","","","","","1265","images/sheep8.png","","","memory_trial","4","definitely_new",""
"html-keyboard-response","289","626728","0.0-18.0-0.122","4266","approach_avoid_sv1","""event"",""trial"",""time""
""fullscreenenter"",""1"",""1665""
","
","
","""event"",""trial"",""time""
""fullscreenenter"",""1"",""1665""
","
","","","","","","null","<div style=""font-size:60px;"">+</div>","null","","fixation","","",""
"memory-trial","290","628842","0.0-18.0-1.122","4266","approach_avoid_sv1","""event"",""trial"",""time""
""fullscreenenter"",""1"",""1665""
","
","
","""event"",""trial"",""time""
""fullscreenenter"",""1"",""1665""
","
","","","","","","1105.8000001907349","images/goat2.png","","","memory_trial","4","definitely_new",""
"html-keyboard-response","291","629344","0.0-18.0-0.123","4266","approach_avoid_sv1","""event"",""trial"",""time""
""fullscreenenter"",""1"",""1665""
","
","
","""event"",""trial"",""time""
""fullscreenenter"",""1"",""1665""
","
","","","","","","null","<div style=""font-size:60px;"">+</div>","null","","fixation","","",""
"memory-trial","292","631530","0.0-18.0-1.123","4266","approach_avoid_sv1","""event"",""trial"",""time""
""fullscreenenter"",""1"",""1665""
","
","
","""event"",""trial"",""time""
""fullscreenenter"",""1"",""1665""
","
","","","","","","1172.0999999046326","images/cat4.png","","","memory_trial","3","maybe_new",""
"html-keyboard-response","293","632032","0.0-18.0-0.124","4266","approach_avoid_sv1","""event"",""trial"",""time""
""fullscreenenter"",""1"",""1665""
","
","
","""event"",""trial"",""time""
""fullscreenenter"",""1"",""1665""
","
","","","","","","null","<div style=""font-size:60px;"">+</div>","null","","fixation","","",""
"memory-trial","294","634824","0.0-18.0-1.124","4266","approach_avoid_sv1","""event"",""trial"",""time""
""fullscreenenter"",""1"",""1665""
","
","
","""event"",""trial"",""time""
""fullscreenenter"",""1"",""1665""
","
","","","","","","1786.2999999523163","images/truck3.png","","","memory_trial","1","definitely_old",""
"html-keyboard-response","295","635328","0.0-18.0-0.125","4266","approach_avoid_sv1","""event"",""trial"",""time""
""fullscreenenter"",""1"",""1665""
","
","
","""event"",""trial"",""time""
""fullscreenenter"",""1"",""1665""
","
","","","","","","null","<div style=""font-size:60px;"">+</div>","null","","fixation","","",""
"memory-trial","296","637913","0.0-18.0-1.125","4266","approach_avoid_sv1","""event"",""trial"",""time""
""fullscreenenter"",""1"",""1665""
","
","
","""event"",""trial"",""time""
""fullscreenenter"",""1"",""1665""
","
","","","","","","1577.7999999523163","images/dog5.png","","","memory_trial","3","maybe_new",""
"html-keyboard-response","297","638417","0.0-18.0-0.126","4266","approach_avoid_sv1","""event"",""trial"",""time""
""fullscreenenter"",""1"",""1665""
","
","
","""event"",""trial"",""time""
""fullscreenenter"",""1"",""1665""
","
","","","","","","null","<div style=""font-size:60px;"">+</div>","null","","fixation","","",""
