"trial_type","trial_index","time_elapsed","internal_node_id","subject_id","task_version","interactions","blur_events","focus_events","fullscreenenter_events","fullscreenexit_events","success","timeout","failed_images","failed_audio","failed_video","rt","stimulus","response","button_pressed","task_part","key_press","answer","correct"
"pavlovia","0","2","0.0-0.0","4463","approach_avoid_sv1","""event"",""trial"",""time""
""fullscreenenter"",""1"",""7699""
","
","
","""event"",""trial"",""time""
""fullscreenenter"",""1"",""7699""
","
","","","","","","","","","","","","",""
"fullscreen","1","8674","0.0-1.0","4463","approach_avoid_sv1","""event"",""trial"",""time""
""fullscreenenter"",""1"",""7699""
","
","
","""event"",""trial"",""time""
""fullscreenenter"",""1"",""7699""
","
","true","","","","","","","","","","","",""
"preload","2","15612","0.0-2.0","4463","approach_avoid_sv1","""event"",""trial"",""time""
""fullscreenenter"",""1"",""7699""
","
","
","""event"",""trial"",""time""
""fullscreenenter"",""1"",""7699""
","
","true","false","[]","[]","[]","","","","","","","",""
"preload","3","32898","0.0-3.0","4463","approach_avoid_sv1","""event"",""trial"",""time""
""fullscreenenter"",""1"",""7699""
","
","
","""event"",""trial"",""time""
""fullscreenenter"",""1"",""7699""
","
","true","false","[]","[]","[]","","","","","","","",""
"preload","4","34198","0.0-4.0","4463","approach_avoid_sv1","""event"",""trial"",""time""
""fullscreenenter"",""1"",""7699""
","
","
","""event"",""trial"",""time""
""fullscreenenter"",""1"",""7699""
","
","true","false","[]","[]","[]","","","","","","","",""
"audio-keyboard-response","5","36143","0.0-5.0","4463","approach_avoid_sv1","""event"",""trial"",""time""
""fullscreenenter"",""1"",""7699""
","
","
","""event"",""trial"",""time""
""fullscreenenter"",""1"",""7699""
","
","","","","","","1938.6666666666665","audio/beep_loop.wav"," ","","","","",""
"audio-button-response","6","40909","0.0-6.0","4463","approach_avoid_sv1","""event"",""trial"",""time""
""fullscreenenter"",""1"",""7699""
","
","
","""event"",""trial"",""time""
""fullscreenenter"",""1"",""7699""
","
","","","","","","4779","audio/turtle.wav","3","","","","",""
"audio-button-response","7","43132","0.0-7.0","4463","approach_avoid_sv1","""event"",""trial"",""time""
""fullscreenenter"",""1"",""7699""
","
","
","""event"",""trial"",""time""
""fullscreenenter"",""1"",""7699""
","
","","","","","","1211","audio/shark.wav","2","","","","",""
"preload","8","87237","0.0-8.0","4463","approach_avoid_sv1","""event"",""trial"",""time""
""fullscreenenter"",""1"",""7699""
","
","
","""event"",""trial"",""time""
""fullscreenenter"",""1"",""7699""
","
","true","false","[]","[]","[]","","","","","","","",""
"learning-instructions","9","93460","0.0-9.0-0.0","4463","approach_avoid_sv1","""event"",""trial"",""time""
""fullscreenenter"",""1"",""7699""
","
","
","""event"",""trial"",""time""
""fullscreenenter"",""1"",""7699""
","
","","","","","","894","<p> Welcome back! </p><p> Last week, you had to make choices about lots of different items.  </p>","","0","instructions","","",""
"learning-instructions","10","98818","0.0-9.0-0.1","4463","approach_avoid_sv1","""event"",""trial"",""time""
""fullscreenenter"",""1"",""7699""
","
","
","""event"",""trial"",""time""
""fullscreenenter"",""1"",""7699""
","
","","","","","","1155.4000000953674","<p> Today, we are going to ask you to try to remember all the items. </p>","","0","instructions","","",""
"learning-instructions","11","109393","0.0-9.0-0.2","4463","approach_avoid_sv1","""event"",""trial"",""time""
""fullscreenenter"",""1"",""7699""
","
","
","""event"",""trial"",""time""
""fullscreenenter"",""1"",""7699""
","
","","","","","","407.40000009536743","<p> On every trial, you will see an image. </p><p> The image may be an OLD image you saw during the games last week or it may be a NEW image that was not presented. </p>","","0","instructions","","",""
"learning-instructions","12","118421","0.0-9.0-0.3","4463","approach_avoid_sv1","""event"",""trial"",""time""
""fullscreenenter"",""1"",""7699""
","
","
","""event"",""trial"",""time""
""fullscreenenter"",""1"",""7699""
","
","","","","","","478.90000009536743","<p> You need to select whether the image is:  </p><p>  'Definitely old', 'Maybe old', 'Maybe new', or 'Definitely new.'  </p><div class=""mem-choice-instructions-grid""><div class=""choice-option"" id=""choice-option-1"" ><img src=""images/definitely_old_1.png"" id=""choice-option-img-1"" class=""choice-option-img"" stage=""1""></div><div class=""choice-option"" id=""choice-option-2"" ><img src=""images/maybe_old_1.png"" id=""choice-option-img-2"" class=""choice-option-img"" stage=""1""></div><div class=""choice-option"" id=""choice-option-3"" ><img src=""images/maybe_new_1.png"" id=""choice-option-img-3"" class=""choice-option-img"" stage=""1""></div><div class=""choice-option"" id=""choice-option-4"" > <img src=""images/definitely_new_1.png"" id=""choice-option-img-4"" class=""choice-option-img"" stage=""1""></div></div>","","0","instructions","","",""
"learning-instructions","13","126129","0.0-9.0-0.4","4463","approach_avoid_sv1","""event"",""trial"",""time""
""fullscreenenter"",""1"",""7699""
","
","
","""event"",""trial"",""time""
""fullscreenenter"",""1"",""7699""
","
","","","","","","1137.6000001430511","<p> You should use the 1, 2, 3, and 4 keys to make your responses.  </p><div class=""mem-choice-instructions-grid""><div class=""choice-option"" id=""choice-option-1"" ><img src=""images/definitely_old.png"" id=""choice-option-img-1"" class=""choice-option-img"" stage=""1""></div><div class=""choice-option"" id=""choice-option-2"" ><img src=""images/maybe_old.png"" id=""choice-option-img-2"" class=""choice-option-img"" stage=""1""></div><div class=""choice-option"" id=""choice-option-3"" ><img src=""images/maybe_new.png"" id=""choice-option-img-3"" class=""choice-option-img"" stage=""1""></div><div class=""choice-option"" id=""choice-option-4"" > <img src=""images/definitely_new.png"" id=""choice-option-img-4"" class=""choice-option-img"" stage=""1""></div></div>","","0","instructions","","",""
"learning-instructions","14","133007","0.0-9.0-0.5","4463","approach_avoid_sv1","""event"",""trial"",""time""
""fullscreenenter"",""1"",""7699""
","
","
","""event"",""trial"",""time""
""fullscreenenter"",""1"",""7699""
","
","","","","","","511.10000014305115","<p> You will have 10 seconds to make each response.  </p><p>  Make sure to respond before time runs out! </p>","","0","instructions","","",""
"learning-instructions","15","142065","0.0-9.0-0.6","4463","approach_avoid_sv1","""event"",""trial"",""time""
""fullscreenenter"",""1"",""7699""
","
","
","""event"",""trial"",""time""
""fullscreenenter"",""1"",""7699""
","
","","","","","","1959.5","<p> Today, you will see each image ONCE only.  </p><p>  That means none of the images will repeat. </p>","","0","instructions","","",""
"learning-instructions","16","155195","0.0-9.0-0.7","4463","approach_avoid_sv1","""event"",""trial"",""time""
""fullscreenenter"",""1"",""7699""
","
","
","""event"",""trial"",""time""
""fullscreenenter"",""1"",""7699""
","
","","","","","","379.5","<p> Before you play the real game, it is time to practice. </p><p>  Just like in the real game, some of the images in the practice will be ones you have seen before. </p><p>  Others will be entirely new. </p>","","0","instructions","","",""
"html-button-response","17","157187","0.0-10.0","4463","approach_avoid_sv1","""event"",""trial"",""time""
""fullscreenenter"",""1"",""7699""
","
","
","""event"",""trial"",""time""
""fullscreenenter"",""1"",""7699""
","
","","","","","","1876.5","<p> Ready to practice? </p><p> Remember, use the 1, 2, 3, and 4 keys to make your responses. </p>","0","","instructions","","",""
"html-keyboard-response","18","157818","0.0-11.0-0.0","4463","approach_avoid_sv1","""event"",""trial"",""time""
""fullscreenenter"",""1"",""7699""
","
","
","""event"",""trial"",""time""
""fullscreenenter"",""1"",""7699""
","
","","","","","","null","<div style=""font-size:60px;"">+</div>","null","","fixation","","",""
"memory-trial","19","160599","0.0-11.0-1.0","4463","approach_avoid_sv1","""event"",""trial"",""time""
""fullscreenenter"",""1"",""7699""
","
","
","""event"",""trial"",""time""
""fullscreenenter"",""1"",""7699""
","
","","","","","","1740.1999998092651","images/ball3.png","","","practice","4","definitely_new",""
"html-keyboard-response","20","161147","0.0-11.0-0.1","4463","approach_avoid_sv1","""event"",""trial"",""time""
""fullscreenenter"",""1"",""7699""
","
","
","""event"",""trial"",""time""
""fullscreenenter"",""1"",""7699""
","
","","","","","","null","<div style=""font-size:60px;"">+</div>","null","","fixation","","",""
"memory-trial","21","164003","0.0-11.0-1.1","4463","approach_avoid_sv1","""event"",""trial"",""time""
""fullscreenenter"",""1"",""7699""
","
","
","""event"",""trial"",""time""
""fullscreenenter"",""1"",""7699""
","
","","","","","","1853.1000001430511","images/racket1.png","","","practice","1","definitely_old",""
"html-keyboard-response","22","164516","0.0-11.0-0.2","4463","approach_avoid_sv1","""event"",""trial"",""time""
""fullscreenenter"",""1"",""7699""
","
","
","""event"",""trial"",""time""
""fullscreenenter"",""1"",""7699""
","
","","","","","","null","<div style=""font-size:60px;"">+</div>","null","","fixation","","",""
"memory-trial","23","166879","0.0-11.0-1.2","4463","approach_avoid_sv1","""event"",""trial"",""time""
""fullscreenenter"",""1"",""7699""
","
","
","""event"",""trial"",""time""
""fullscreenenter"",""1"",""7699""
","
","","","","","","1316.7000000476837","images/racket2.png","","","practice","4","definitely_new",""
"html-keyboard-response","24","167421","0.0-11.0-0.3","4463","approach_avoid_sv1","""event"",""trial"",""time""
""fullscreenenter"",""1"",""7699""
","
","
","""event"",""trial"",""time""
""fullscreenenter"",""1"",""7699""
","
","","","","","","null","<div style=""font-size:60px;"">+</div>","null","","fixation","","",""
"memory-trial","25","169728","0.0-11.0-1.3","4463","approach_avoid_sv1","""event"",""trial"",""time""
""fullscreenenter"",""1"",""7699""
","
","
","""event"",""trial"",""time""
""fullscreenenter"",""1"",""7699""
","
","","","","","","1292","images/racket3.png","","","practice","1","definitely_old",""
"html-keyboard-response","26","170274","0.0-11.0-0.4","4463","approach_avoid_sv1","""event"",""trial"",""time""
""fullscreenenter"",""1"",""7699""
","
","
","""event"",""trial"",""time""
""fullscreenenter"",""1"",""7699""
","
","","","","","","null","<div style=""font-size:60px;"">+</div>","null","","fixation","","",""
"memory-trial","27","172753","0.0-11.0-1.4","4463","approach_avoid_sv1","""event"",""trial"",""time""
""fullscreenenter"",""1"",""7699""
","
","
","""event"",""trial"",""time""
""fullscreenenter"",""1"",""7699""
","
","","","","","","1415.5999999046326","images/ball1.png","","","practice","2","maybe_old",""
"html-keyboard-response","28","173287","0.0-11.0-0.5","4463","approach_avoid_sv1","""event"",""trial"",""time""
""fullscreenenter"",""1"",""7699""
","
","
","""event"",""trial"",""time""
""fullscreenenter"",""1"",""7699""
","
","","","","","","null","<div style=""font-size:60px;"">+</div>","null","","fixation","","",""
"memory-trial","29","175864","0.0-11.0-1.5","4463","approach_avoid_sv1","""event"",""trial"",""time""
""fullscreenenter"",""1"",""7699""
","
","
","""event"",""trial"",""time""
""fullscreenenter"",""1"",""7699""
","
","","","","","","1530.7999999523163","images/ball5.png","","","practice","3","maybe_new",""
"html-keyboard-response","30","176371","0.0-11.0-0.6","4463","approach_avoid_sv1","""event"",""trial"",""time""
""fullscreenenter"",""1"",""7699""
","
","
","""event"",""trial"",""time""
""fullscreenenter"",""1"",""7699""
","
","","","","","","null","<div style=""font-size:60px;"">+</div>","null","","fixation","","",""
"memory-trial","31","179458","0.0-11.0-1.6","4463","approach_avoid_sv1","""event"",""trial"",""time""
""fullscreenenter"",""1"",""7699""
","
","
","""event"",""trial"",""time""
""fullscreenenter"",""1"",""7699""
","
","","","","","","2044.0999999046326","images/ball2.png","","","practice","3","maybe_new",""
"html-keyboard-response","32","179966","0.0-11.0-0.7","4463","approach_avoid_sv1","""event"",""trial"",""time""
""fullscreenenter"",""1"",""7699""
","
","
","""event"",""trial"",""time""
""fullscreenenter"",""1"",""7699""
","
","","","","","","null","<div style=""font-size:60px;"">+</div>","null","","fixation","","",""
"memory-trial","33","183204","0.0-11.0-1.7","4463","approach_avoid_sv1","""event"",""trial"",""time""
""fullscreenenter"",""1"",""7699""
","
","
","""event"",""trial"",""time""
""fullscreenenter"",""1"",""7699""
","
","","","","","","2219.5","images/racket5.png","","","practice","4","definitely_new",""
"learning-instructions","34","191498","0.0-12.0-0.0","4463","approach_avoid_sv1","""event"",""trial"",""time""
""fullscreenenter"",""1"",""7699""
","
","
","""event"",""trial"",""time""
""fullscreenenter"",""1"",""7699""
","
","","","","","","922.5","<p> Great! You have completed the practice. </p><p> Before you start, we're going to ask you a few questions about how the game works.  </p>","","0","instructions","","",""
"preload","35","216279","0.0-13.0","4463","approach_avoid_sv1","""event"",""trial"",""time""
""fullscreenenter"",""1"",""7699""
","
","
","""event"",""trial"",""time""
""fullscreenenter"",""1"",""7699""
","
","true","false","[]","[]","[]","","","","","","","",""
"comp-q","36","223062","0.0-14.0-0.0","4463","approach_avoid_sv1","""event"",""trial"",""time""
""fullscreenenter"",""1"",""7699""
","
","
","""event"",""trial"",""time""
""fullscreenenter"",""1"",""7699""
","
","","","","","","885.1999998092651","<p> <b> True or False? </b> </p><p> In this game, you will only see each image once. </p>","","0","comp_question","","","true"
"comp-q","37","230238","0.0-14.0-1.0","4463","approach_avoid_sv1","""event"",""trial"",""time""
""fullscreenenter"",""1"",""7699""
","
","
","""event"",""trial"",""time""
""fullscreenenter"",""1"",""7699""
","
","","","","","","813","<p> <b> That's right! </b> You will see many different images <i> one time each </i> in this game. </p>","","0","comp_answer","","",""
"comp-q","38","235776","0.0-15.0-0.0","4463","approach_avoid_sv1","""event"",""trial"",""time""
""fullscreenenter"",""1"",""7699""
","
","
","""event"",""trial"",""time""
""fullscreenenter"",""1"",""7699""
","
","","","","","","489.7000000476837","<p> <b> True or False? </b> </p><p> You should use the mouse and click to make your response. </p>","","1","comp_question","","","true"
"comp-q","39","243052","0.0-15.0-1.0","4463","approach_avoid_sv1","""event"",""trial"",""time""
""fullscreenenter"",""1"",""7699""
","
","
","""event"",""trial"",""time""
""fullscreenenter"",""1"",""7699""
","
","","","","","","765.9000000953674","<p><b> That's right! </b> You should use the '1', '2', '3', and '4' keys to make your response. </p>","","0","comp_answer","","",""
"comp-q","40","249458","0.0-16.0-0.0","4463","approach_avoid_sv1","""event"",""trial"",""time""
""fullscreenenter"",""1"",""7699""
","
","
","""event"",""trial"",""time""
""fullscreenenter"",""1"",""7699""
","
","","","","","","680.8999998569489","<p> <b> True or False? </b> </p><p> You will have as much time as you want to make each choice. </p>","","1","comp_question","","","true"
"comp-q","41","255386","0.0-16.0-1.0","4463","approach_avoid_sv1","""event"",""trial"",""time""
""fullscreenenter"",""1"",""7699""
","
","
","""event"",""trial"",""time""
""fullscreenenter"",""1"",""7699""
","
","","","","","","1239.5","<p> <b> That's right! </b> You will only have 10 seconds to make each choice. </p>","","0","comp_answer","","",""
"learning-instructions","42","264998","0.0-17.0","4463","approach_avoid_sv1","""event"",""trial"",""time""
""fullscreenenter"",""1"",""7699""
","
","
","""event"",""trial"",""time""
""fullscreenenter"",""1"",""7699""
","
","","","","","","942","<p> Great! You are now ready to begin the game. </p><p> Remember, use the 1, 2, 3, and 4 keys to make your responses. </p>","","0","instructions","","",""
"html-keyboard-response","43","265645","0.0-18.0-0.0","4463","approach_avoid_sv1","""event"",""trial"",""time""
""fullscreenenter"",""1"",""7699""
","
","
","""event"",""trial"",""time""
""fullscreenenter"",""1"",""7699""
","
","","","","","","null","<div style=""font-size:60px;"">+</div>","null","","fixation","","",""
"memory-trial","44","268289","0.0-18.0-1.0","4463","approach_avoid_sv1","""event"",""trial"",""time""
""fullscreenenter"",""1"",""7699""
","
","
","""event"",""trial"",""time""
""fullscreenenter"",""1"",""7699""
","
","","","","","","1629.6999998092651","images/train1.png","","","memory_trial","1","definitely_old",""
"html-keyboard-response","45","268833","0.0-18.0-0.1","4463","approach_avoid_sv1","""event"",""trial"",""time""
""fullscreenenter"",""1"",""7699""
","
","
","""event"",""trial"",""time""
""fullscreenenter"",""1"",""7699""
","
","","","","","","null","<div style=""font-size:60px;"">+</div>","null","","fixation","","",""
"memory-trial","46","270966","0.0-18.0-1.1","4463","approach_avoid_sv1","""event"",""trial"",""time""
""fullscreenenter"",""1"",""7699""
","
","
","""event"",""trial"",""time""
""fullscreenenter"",""1"",""7699""
","
","","","","","","1063.4000000953674","images/cactus2.png","","","memory_trial","4","definitely_new",""
"html-keyboard-response","47","271488","0.0-18.0-0.2","4463","approach_avoid_sv1","""event"",""trial"",""time""
""fullscreenenter"",""1"",""7699""
","
","
","""event"",""trial"",""time""
""fullscreenenter"",""1"",""7699""
","
","","","","","","null","<div style=""font-size:60px;"">+</div>","null","","fixation","","",""
"memory-trial","48","273488","0.0-18.0-1.2","4463","approach_avoid_sv1","""event"",""trial"",""time""
""fullscreenenter"",""1"",""7699""
","
","
","""event"",""trial"",""time""
""fullscreenenter"",""1"",""7699""
","
","","","","","","957.2000000476837","images/sheep6.png","","","memory_trial","4","definitely_new",""
"html-keyboard-response","49","274028","0.0-18.0-0.3","4463","approach_avoid_sv1","""event"",""trial"",""time""
""fullscreenenter"",""1"",""7699""
","
","
","""event"",""trial"",""time""
""fullscreenenter"",""1"",""7699""
","
","","","","","","null","<div style=""font-size:60px;"">+</div>","null","","fixation","","",""
"memory-trial","50","278071","0.0-18.0-1.3","4463","approach_avoid_sv1","""event"",""trial"",""time""
""fullscreenenter"",""1"",""7699""
","
","
","""event"",""trial"",""time""
""fullscreenenter"",""1"",""7699""
","
","","","","","","2998.7000000476837","images/cow1.png","","","memory_trial","3","maybe_new",""
"html-keyboard-response","51","278601","0.0-18.0-0.4","4463","approach_avoid_sv1","""event"",""trial"",""time""
""fullscreenenter"",""1"",""7699""
","
","
","""event"",""trial"",""time""
""fullscreenenter"",""1"",""7699""
","
","","","","","","null","<div style=""font-size:60px;"">+</div>","null","","fixation","","",""
"memory-trial","52","281408","0.0-18.0-1.4","4463","approach_avoid_sv1","""event"",""trial"",""time""
""fullscreenenter"",""1"",""7699""
","
","
","""event"",""trial"",""time""
""fullscreenenter"",""1"",""7699""
","
","","","","","","1790.4000000953674","images/truck7.png","","","memory_trial","4","definitely_new",""
"html-keyboard-response","53","281955","0.0-18.0-0.5","4463","approach_avoid_sv1","""event"",""trial"",""time""
""fullscreenenter"",""1"",""7699""
","
","
","""event"",""trial"",""time""
""fullscreenenter"",""1"",""7699""
","
","","","","","","null","<div style=""font-size:60px;"">+</div>","null","","fixation","","",""
"memory-trial","54","284307","0.0-18.0-1.5","4463","approach_avoid_sv1","""event"",""trial"",""time""
""fullscreenenter"",""1"",""7699""
","
","
","""event"",""trial"",""time""
""fullscreenenter"",""1"",""7699""
","
","","","","","","1336","images/boat8.png","","","memory_trial","2","maybe_old",""
"html-keyboard-response","55","284851","0.0-18.0-0.6","4463","approach_avoid_sv1","""event"",""trial"",""time""
""fullscreenenter"",""1"",""7699""
","
","
","""event"",""trial"",""time""
""fullscreenenter"",""1"",""7699""
","
","","","","","","null","<div style=""font-size:60px;"">+</div>","null","","fixation","","",""
"memory-trial","56","287513","0.0-18.0-1.6","4463","approach_avoid_sv1","""event"",""trial"",""time""
""fullscreenenter"",""1"",""7699""
","
","
","""event"",""trial"",""time""
""fullscreenenter"",""1"",""7699""
","
","","","","","","1649.7999999523163","images/cat2.png","","","memory_trial","2","maybe_old",""
"html-keyboard-response","57","288052","0.0-18.0-0.7","4463","approach_avoid_sv1","""event"",""trial"",""time""
""fullscreenenter"",""1"",""7699""
","
","
","""event"",""trial"",""time""
""fullscreenenter"",""1"",""7699""
","
","","","","","","null","<div style=""font-size:60px;"">+</div>","null","","fixation","","",""
"memory-trial","58","291801","0.0-18.0-1.7","4463","approach_avoid_sv1","""event"",""trial"",""time""
""fullscreenenter"",""1"",""7699""
","
","
","""event"",""trial"",""time""
""fullscreenenter"",""1"",""7699""
","
","","","","","","2672.0999999046326","images/chair7.png","","","memory_trial","4","definitely_new",""
"html-keyboard-response","59","292337","0.0-18.0-0.8","4463","approach_avoid_sv1","""event"",""trial"",""time""
""fullscreenenter"",""1"",""7699""
","
","
","""event"",""trial"",""time""
""fullscreenenter"",""1"",""7699""
","
","","","","","","null","<div style=""font-size:60px;"">+</div>","null","","fixation","","",""
"memory-trial","60","294219","0.0-18.0-1.8","4463","approach_avoid_sv1","""event"",""trial"",""time""
""fullscreenenter"",""1"",""7699""
","
","
","""event"",""trial"",""time""
""fullscreenenter"",""1"",""7699""
","
","","","","","","851.5999999046326","images/flower4.png","","","memory_trial","1","definitely_old",""
"html-keyboard-response","61","294749","0.0-18.0-0.9","4463","approach_avoid_sv1","""event"",""trial"",""time""
""fullscreenenter"",""1"",""7699""
","
","
","""event"",""trial"",""time""
""fullscreenenter"",""1"",""7699""
","
","","","","","","null","<div style=""font-size:60px;"">+</div>","null","","fixation","","",""
"memory-trial","62","297829","0.0-18.0-1.9","4463","approach_avoid_sv1","""event"",""trial"",""time""
""fullscreenenter"",""1"",""7699""
","
","
","""event"",""trial"",""time""
""fullscreenenter"",""1"",""7699""
","
","","","","","","2021.7999999523163","images/table5.png","","","memory_trial","3","maybe_new",""
"html-keyboard-response","63","298364","0.0-18.0-0.10","4463","approach_avoid_sv1","""event"",""trial"",""time""
""fullscreenenter"",""1"",""7699""
","
","
","""event"",""trial"",""time""
""fullscreenenter"",""1"",""7699""
","
","","","","","","null","<div style=""font-size:60px;"">+</div>","null","","fixation","","",""
"memory-trial","64","300756","0.0-18.0-1.10","4463","approach_avoid_sv1","""event"",""trial"",""time""
""fullscreenenter"",""1"",""7699""
","
","
","""event"",""trial"",""time""
""fullscreenenter"",""1"",""7699""
","
","","","","","","1330.7000000476837","images/flower1.png","","","memory_trial","1","definitely_old",""
"html-keyboard-response","65","301284","0.0-18.0-0.11","4463","approach_avoid_sv1","""event"",""trial"",""time""
""fullscreenenter"",""1"",""7699""
","
","
","""event"",""trial"",""time""
""fullscreenenter"",""1"",""7699""
","
","","","","","","null","<div style=""font-size:60px;"">+</div>","null","","fixation","","",""
"memory-trial","66","303797","0.0-18.0-1.11","4463","approach_avoid_sv1","""event"",""trial"",""time""
""fullscreenenter"",""1"",""7699""
","
","
","""event"",""trial"",""time""
""fullscreenenter"",""1"",""7699""
","
","","","","","","1454.5999999046326","images/cow6.png","","","memory_trial","4","definitely_new",""
"html-keyboard-response","67","304333","0.0-18.0-0.12","4463","approach_avoid_sv1","""event"",""trial"",""time""
""fullscreenenter"",""1"",""7699""
","
","
","""event"",""trial"",""time""
""fullscreenenter"",""1"",""7699""
","
","","","","","","null","<div style=""font-size:60px;"">+</div>","null","","fixation","","",""
"memory-trial","68","306560","0.0-18.0-1.12","4463","approach_avoid_sv1","""event"",""trial"",""time""
""fullscreenenter"",""1"",""7699""
","
","
","""event"",""trial"",""time""
""fullscreenenter"",""1"",""7699""
","
","","","","","","1160.1000001430511","images/dog3.png","","","memory_trial","4","definitely_new",""
"html-keyboard-response","69","307092","0.0-18.0-0.13","4463","approach_avoid_sv1","""event"",""trial"",""time""
""fullscreenenter"",""1"",""7699""
","
","
","""event"",""trial"",""time""
""fullscreenenter"",""1"",""7699""
","
","","","","","","null","<div style=""font-size:60px;"">+</div>","null","","fixation","","",""
"memory-trial","70","310323","0.0-18.0-1.13","4463","approach_avoid_sv1","""event"",""trial"",""time""
""fullscreenenter"",""1"",""7699""
","
","
","""event"",""trial"",""time""
""fullscreenenter"",""1"",""7699""
","
","","","","","","2171.9000000953674","images/tree2.png","","","memory_trial","3","maybe_new",""
"html-keyboard-response","71","310852","0.0-18.0-0.14","4463","approach_avoid_sv1","""event"",""trial"",""time""
""fullscreenenter"",""1"",""7699""
","
","
","""event"",""trial"",""time""
""fullscreenenter"",""1"",""7699""
","
","","","","","","null","<div style=""font-size:60px;"">+</div>","null","","fixation","","",""
"memory-trial","72","313365","0.0-18.0-1.14","4463","approach_avoid_sv1","""event"",""trial"",""time""
""fullscreenenter"",""1"",""7699""
","
","
","""event"",""trial"",""time""
""fullscreenenter"",""1"",""7699""
","
","","","","","","1449.9000000953674","images/bed8.png","","","memory_trial","2","maybe_old",""
"html-keyboard-response","73","313901","0.0-18.0-0.15","4463","approach_avoid_sv1","""event"",""trial"",""time""
""fullscreenenter"",""1"",""7699""
","
","
","""event"",""trial"",""time""
""fullscreenenter"",""1"",""7699""
","
","","","","","","null","<div style=""font-size:60px;"">+</div>","null","","fixation","","",""
"memory-trial","74","315853","0.0-18.0-1.15","4463","approach_avoid_sv1","""event"",""trial"",""time""
""fullscreenenter"",""1"",""7699""
","
","
","""event"",""trial"",""time""
""fullscreenenter"",""1"",""7699""
","
","","","","","","889.7999999523163","images/rabbit3.png","","","memory_trial","1","definitely_old",""
"html-keyboard-response","75","316388","0.0-18.0-0.16","4463","approach_avoid_sv1","""event"",""trial"",""time""
""fullscreenenter"",""1"",""7699""
","
","
","""event"",""trial"",""time""
""fullscreenenter"",""1"",""7699""
","
","","","","","","null","<div style=""font-size:60px;"">+</div>","null","","fixation","","",""
"memory-trial","76","318173","0.0-18.0-1.16","4463","approach_avoid_sv1","""event"",""trial"",""time""
""fullscreenenter"",""1"",""7699""
","
","
","""event"",""trial"",""time""
""fullscreenenter"",""1"",""7699""
","
","","","","","","753.2000000476837","images/straw2.png","","","memory_trial","1","definitely_old",""
"html-keyboard-response","77","318708","0.0-18.0-0.17","4463","approach_avoid_sv1","""event"",""trial"",""time""
""fullscreenenter"",""1"",""7699""
","
","
","""event"",""trial"",""time""
""fullscreenenter"",""1"",""7699""
","
","","","","","","null","<div style=""font-size:60px;"">+</div>","null","","fixation","","",""
"memory-trial","78","320410","0.0-18.0-1.17","4463","approach_avoid_sv1","""event"",""trial"",""time""
""fullscreenenter"",""1"",""7699""
","
","
","""event"",""trial"",""time""
""fullscreenenter"",""1"",""7699""
","
","","","","","","699.1000001430511","images/orange2.png","","","memory_trial","1","definitely_old",""
"html-keyboard-response","79","320939","0.0-18.0-0.18","4463","approach_avoid_sv1","""event"",""trial"",""time""
""fullscreenenter"",""1"",""7699""
","
","
","""event"",""trial"",""time""
""fullscreenenter"",""1"",""7699""
","
","","","","","","null","<div style=""font-size:60px;"">+</div>","null","","fixation","","",""
"memory-trial","80","323244","0.0-18.0-1.18","4463","approach_avoid_sv1","""event"",""trial"",""time""
""fullscreenenter"",""1"",""7699""
","
","
","""event"",""trial"",""time""
""fullscreenenter"",""1"",""7699""
","
","","","","","","1250.3000001907349","images/plane7.png","","","memory_trial","1","definitely_old",""
"html-keyboard-response","81","323755","0.0-18.0-0.19","4463","approach_avoid_sv1","""event"",""trial"",""time""
""fullscreenenter"",""1"",""7699""
","
","
","""event"",""trial"",""time""
""fullscreenenter"",""1"",""7699""
","
","","","","","","null","<div style=""font-size:60px;"">+</div>","null","","fixation","","",""
"memory-trial","82","325917","0.0-18.0-1.19","4463","approach_avoid_sv1","""event"",""trial"",""time""
""fullscreenenter"",""1"",""7699""
","
","
","""event"",""trial"",""time""
""fullscreenenter"",""1"",""7699""
","
","","","","","","1129.7999999523163","images/apple6.png","","","memory_trial","2","maybe_old",""
"html-keyboard-response","83","326451","0.0-18.0-0.20","4463","approach_avoid_sv1","""event"",""trial"",""time""
""fullscreenenter"",""1"",""7699""
","
","
","""event"",""trial"",""time""
""fullscreenenter"",""1"",""7699""
","
","","","","","","null","<div style=""font-size:60px;"">+</div>","null","","fixation","","",""
"memory-trial","84","328356","0.0-18.0-1.20","4463","approach_avoid_sv1","""event"",""trial"",""time""
""fullscreenenter"",""1"",""7699""
","
","
","""event"",""trial"",""time""
""fullscreenenter"",""1"",""7699""
","
","","","","","","843","images/apple5.png","","","memory_trial","1","definitely_old",""
"html-keyboard-response","85","328892","0.0-18.0-0.21","4463","approach_avoid_sv1","""event"",""trial"",""time""
""fullscreenenter"",""1"",""7699""
","
","
","""event"",""trial"",""time""
""fullscreenenter"",""1"",""7699""
","
","","","","","","null","<div style=""font-size:60px;"">+</div>","null","","fixation","","",""
"memory-trial","86","331052","0.0-18.0-1.21","4463","approach_avoid_sv1","""event"",""trial"",""time""
""fullscreenenter"",""1"",""7699""
","
","
","""event"",""trial"",""time""
""fullscreenenter"",""1"",""7699""
","
","","","","","","1105.2999999523163","images/orange5.png","","","memory_trial","1","definitely_old",""
"html-keyboard-response","87","331581","0.0-18.0-0.22","4463","approach_avoid_sv1","""event"",""trial"",""time""
""fullscreenenter"",""1"",""7699""
","
","
","""event"",""trial"",""time""
""fullscreenenter"",""1"",""7699""
","
","","","","","","null","<div style=""font-size:60px;"">+</div>","null","","fixation","","",""
"memory-trial","88","333965","0.0-18.0-1.22","4463","approach_avoid_sv1","""event"",""trial"",""time""
""fullscreenenter"",""1"",""7699""
","
","
","""event"",""trial"",""time""
""fullscreenenter"",""1"",""7699""
","
","","","","","","1321.4000000953674","images/chair4.png","","","memory_trial","4","definitely_new",""
"html-keyboard-response","89","334500","0.0-18.0-0.23","4463","approach_avoid_sv1","""event"",""trial"",""time""
""fullscreenenter"",""1"",""7699""
","
","
","""event"",""trial"",""time""
""fullscreenenter"",""1"",""7699""
","
","","","","","","null","<div style=""font-size:60px;"">+</div>","null","","fixation","","",""
"memory-trial","90","336291","0.0-18.0-1.23","4463","approach_avoid_sv1","""event"",""trial"",""time""
""fullscreenenter"",""1"",""7699""
","
","
","""event"",""trial"",""time""
""fullscreenenter"",""1"",""7699""
","
","","","","","","760.7999999523163","images/chair8.png","","","memory_trial","4","definitely_new",""
"html-keyboard-response","91","336794","0.0-18.0-0.24","4463","approach_avoid_sv1","""event"",""trial"",""time""
""fullscreenenter"",""1"",""7699""
","
","
","""event"",""trial"",""time""
""fullscreenenter"",""1"",""7699""
","
","","","","","","null","<div style=""font-size:60px;"">+</div>","null","","fixation","","",""
"memory-trial","92","339797","0.0-18.0-1.24","4463","approach_avoid_sv1","""event"",""trial"",""time""
""fullscreenenter"",""1"",""7699""
","
","
","""event"",""trial"",""time""
""fullscreenenter"",""1"",""7699""
","
","","","","","","1944.9000000953674","images/plane1.png","","","memory_trial","4","definitely_new",""
"html-keyboard-response","93","340333","0.0-18.0-0.25","4463","approach_avoid_sv1","""event"",""trial"",""time""
""fullscreenenter"",""1"",""7699""
","
","
","""event"",""trial"",""time""
""fullscreenenter"",""1"",""7699""
","
","","","","","","null","<div style=""font-size:60px;"">+</div>","null","","fixation","","",""
"memory-trial","94","342421","0.0-18.0-1.25","4463","approach_avoid_sv1","""event"",""trial"",""time""
""fullscreenenter"",""1"",""7699""
","
","
","""event"",""trial"",""time""
""fullscreenenter"",""1"",""7699""
","
","","","","","","1029.7000000476837","images/cactus7.png","","","memory_trial","4","definitely_new",""
"html-keyboard-response","95","342956","0.0-18.0-0.26","4463","approach_avoid_sv1","""event"",""trial"",""time""
""fullscreenenter"",""1"",""7699""
","
","
","""event"",""trial"",""time""
""fullscreenenter"",""1"",""7699""
","
","","","","","","null","<div style=""font-size:60px;"">+</div>","null","","fixation","","",""
"memory-trial","96","346089","0.0-18.0-1.26","4463","approach_avoid_sv1","""event"",""trial"",""time""
""fullscreenenter"",""1"",""7699""
","
","
","""event"",""trial"",""time""
""fullscreenenter"",""1"",""7699""
","
","","","","","","2065.899999856949","images/flower6.png","","","memory_trial","1","definitely_old",""
"html-keyboard-response","97","346620","0.0-18.0-0.27","4463","approach_avoid_sv1","""event"",""trial"",""time""
""fullscreenenter"",""1"",""7699""
","
","
","""event"",""trial"",""time""
""fullscreenenter"",""1"",""7699""
","
","","","","","","null","<div style=""font-size:60px;"">+</div>","null","","fixation","","",""
"memory-trial","98","349301","0.0-18.0-1.27","4463","approach_avoid_sv1","""event"",""trial"",""time""
""fullscreenenter"",""1"",""7699""
","
","
","""event"",""trial"",""time""
""fullscreenenter"",""1"",""7699""
","
","","","","","","1620.8000001907349","images/boat1.png","","","memory_trial","3","maybe_new",""
"html-keyboard-response","99","349836","0.0-18.0-0.28","4463","approach_avoid_sv1","""event"",""trial"",""time""
""fullscreenenter"",""1"",""7699""
","
","
","""event"",""trial"",""time""
""fullscreenenter"",""1"",""7699""
","
","","","","","","null","<div style=""font-size:60px;"">+</div>","null","","fixation","","",""
"memory-trial","100","352989","0.0-18.0-1.28","4463","approach_avoid_sv1","""event"",""trial"",""time""
""fullscreenenter"",""1"",""7699""
","
","
","""event"",""trial"",""time""
""fullscreenenter"",""1"",""7699""
","
","","","","","","2090.5999999046326","images/straw8.png","","","memory_trial","4","definitely_new",""
"html-keyboard-response","101","353524","0.0-18.0-0.29","4463","approach_avoid_sv1","""event"",""trial"",""time""
""fullscreenenter"",""1"",""7699""
","
","
","""event"",""trial"",""time""
""fullscreenenter"",""1"",""7699""
","
","","","","","","null","<div style=""font-size:60px;"">+</div>","null","","fixation","","",""
"memory-trial","102","355245","0.0-18.0-1.29","4463","approach_avoid_sv1","""event"",""trial"",""time""
""fullscreenenter"",""1"",""7699""
","
","
","""event"",""trial"",""time""
""fullscreenenter"",""1"",""7699""
","
","","","","","","658.6000001430511","images/cactus8.png","","","memory_trial","4","definitely_new",""
"html-keyboard-response","103","355779","0.0-18.0-0.30","4463","approach_avoid_sv1","""event"",""trial"",""time""
""fullscreenenter"",""1"",""7699""
","
","
","""event"",""trial"",""time""
""fullscreenenter"",""1"",""7699""
","
","","","","","","null","<div style=""font-size:60px;"">+</div>","null","","fixation","","",""
"memory-trial","104","358477","0.0-18.0-1.30","4463","approach_avoid_sv1","""event"",""trial"",""time""
""fullscreenenter"",""1"",""7699""
","
","
","""event"",""trial"",""time""
""fullscreenenter"",""1"",""7699""
","
","","","","","","1640.2000000476837","images/horse8.png","","","memory_trial","2","maybe_old",""
"html-keyboard-response","105","359012","0.0-18.0-0.31","4463","approach_avoid_sv1","""event"",""trial"",""time""
""fullscreenenter"",""1"",""7699""
","
","
","""event"",""trial"",""time""
""fullscreenenter"",""1"",""7699""
","
","","","","","","null","<div style=""font-size:60px;"">+</div>","null","","fixation","","",""
"memory-trial","106","361453","0.0-18.0-1.31","4463","approach_avoid_sv1","""event"",""trial"",""time""
""fullscreenenter"",""1"",""7699""
","
","
","""event"",""trial"",""time""
""fullscreenenter"",""1"",""7699""
","
","","","","","","1407.9000000953674","images/orange3.png","","","memory_trial","2","maybe_old",""
"html-keyboard-response","107","361993","0.0-18.0-0.32","4463","approach_avoid_sv1","""event"",""trial"",""time""
""fullscreenenter"",""1"",""7699""
","
","
","""event"",""trial"",""time""
""fullscreenenter"",""1"",""7699""
","
","","","","","","null","<div style=""font-size:60px;"">+</div>","null","","fixation","","",""
"memory-trial","108","364324","0.0-18.0-1.32","4463","approach_avoid_sv1","""event"",""trial"",""time""
""fullscreenenter"",""1"",""7699""
","
","
","""event"",""trial"",""time""
""fullscreenenter"",""1"",""7699""
","
","","","","","","1271.4000000953674","images/tree5.png","","","memory_trial","3","maybe_new",""
"html-keyboard-response","109","364852","0.0-18.0-0.33","4463","approach_avoid_sv1","""event"",""trial"",""time""
""fullscreenenter"",""1"",""7699""
","
","
","""event"",""trial"",""time""
""fullscreenenter"",""1"",""7699""
","
","","","","","","null","<div style=""font-size:60px;"">+</div>","null","","fixation","","",""
"memory-trial","110","366876","0.0-18.0-1.33","4463","approach_avoid_sv1","""event"",""trial"",""time""
""fullscreenenter"",""1"",""7699""
","
","
","""event"",""trial"",""time""
""fullscreenenter"",""1"",""7699""
","
","","","","","","967.0999999046326","images/orange6.png","","","memory_trial","4","definitely_new",""
"html-keyboard-response","111","367379","0.0-18.0-0.34","4463","approach_avoid_sv1","""event"",""trial"",""time""
""fullscreenenter"",""1"",""7699""
","
","
","""event"",""trial"",""time""
""fullscreenenter"",""1"",""7699""
","
","","","","","","null","<div style=""font-size:60px;"">+</div>","null","","fixation","","",""
"memory-trial","112","369804","0.0-18.0-1.34","4463","approach_avoid_sv1","""event"",""trial"",""time""
""fullscreenenter"",""1"",""7699""
","
","
","""event"",""trial"",""time""
""fullscreenenter"",""1"",""7699""
","
","","","","","","1364.6000001430511","images/sheep2.png","","","memory_trial","3","maybe_new",""
"html-keyboard-response","113","370333","0.0-18.0-0.35","4463","approach_avoid_sv1","""event"",""trial"",""time""
""fullscreenenter"",""1"",""7699""
","
","
","""event"",""trial"",""time""
""fullscreenenter"",""1"",""7699""
","
","","","","","","null","<div style=""font-size:60px;"">+</div>","null","","fixation","","",""
"memory-trial","114","372427","0.0-18.0-1.35","4463","approach_avoid_sv1","""event"",""trial"",""time""
""fullscreenenter"",""1"",""7699""
","
","
","""event"",""trial"",""time""
""fullscreenenter"",""1"",""7699""
","
","","","","","","1059.2000000476837","images/truck5.png","","","memory_trial","3","maybe_new",""
"html-keyboard-response","115","372964","0.0-18.0-0.36","4463","approach_avoid_sv1","""event"",""trial"",""time""
""fullscreenenter"",""1"",""7699""
","
","
","""event"",""trial"",""time""
""fullscreenenter"",""1"",""7699""
","
","","","","","","null","<div style=""font-size:60px;"">+</div>","null","","fixation","","",""
"memory-trial","116","374764","0.0-18.0-1.36","4463","approach_avoid_sv1","""event"",""trial"",""time""
""fullscreenenter"",""1"",""7699""
","
","
","""event"",""trial"",""time""
""fullscreenenter"",""1"",""7699""
","
","","","","","","744.1000001430511","images/dog1.png","","","memory_trial","4","definitely_new",""
"html-keyboard-response","117","375292","0.0-18.0-0.37","4463","approach_avoid_sv1","""event"",""trial"",""time""
""fullscreenenter"",""1"",""7699""
","
","
","""event"",""trial"",""time""
""fullscreenenter"",""1"",""7699""
","
","","","","","","null","<div style=""font-size:60px;"">+</div>","null","","fixation","","",""
"memory-trial","118","378307","0.0-18.0-1.37","4463","approach_avoid_sv1","""event"",""trial"",""time""
""fullscreenenter"",""1"",""7699""
","
","
","""event"",""trial"",""time""
""fullscreenenter"",""1"",""7699""
","
","","","","","","1983.7999999523163","images/apple2.png","","","memory_trial","4","definitely_new",""
"html-keyboard-response","119","378836","0.0-18.0-0.38","4463","approach_avoid_sv1","""event"",""trial"",""time""
""fullscreenenter"",""1"",""7699""
","
","
","""event"",""trial"",""time""
""fullscreenenter"",""1"",""7699""
","
","","","","","","null","<div style=""font-size:60px;"">+</div>","null","","fixation","","",""
"memory-trial","120","381674","0.0-18.0-1.38","4463","approach_avoid_sv1","""event"",""trial"",""time""
""fullscreenenter"",""1"",""7699""
","
","
","""event"",""trial"",""time""
""fullscreenenter"",""1"",""7699""
","
","","","","","","1804.2000000476837","images/train4.png","","","memory_trial","2","maybe_old",""
"html-keyboard-response","121","382177","0.0-18.0-0.39","4463","approach_avoid_sv1","""event"",""trial"",""time""
""fullscreenenter"",""1"",""7699""
","
","
","""event"",""trial"",""time""
""fullscreenenter"",""1"",""7699""
","
","","","","","","null","<div style=""font-size:60px;"">+</div>","null","","fixation","","",""
"memory-trial","122","383971","0.0-18.0-1.39","4463","approach_avoid_sv1","""event"",""trial"",""time""
""fullscreenenter"",""1"",""7699""
","
","
","""event"",""trial"",""time""
""fullscreenenter"",""1"",""7699""
","
","","","","","","785.5","images/bush7.png","","","memory_trial","1","definitely_old",""
"html-keyboard-response","123","384474","0.0-18.0-0.40","4463","approach_avoid_sv1","""event"",""trial"",""time""
""fullscreenenter"",""1"",""7699""
","
","
","""event"",""trial"",""time""
""fullscreenenter"",""1"",""7699""
","
","","","","","","null","<div style=""font-size:60px;"">+</div>","null","","fixation","","",""
"memory-trial","124","387675","0.0-18.0-1.40","4463","approach_avoid_sv1","""event"",""trial"",""time""
""fullscreenenter"",""1"",""7699""
","
","
","""event"",""trial"",""time""
""fullscreenenter"",""1"",""7699""
","
","","","","","","2166.7999999523163","images/apple7.png","","","memory_trial","4","definitely_new",""
"html-keyboard-response","125","388203","0.0-18.0-0.41","4463","approach_avoid_sv1","""event"",""trial"",""time""
""fullscreenenter"",""1"",""7699""
","
","
","""event"",""trial"",""time""
""fullscreenenter"",""1"",""7699""
","
","","","","","","null","<div style=""font-size:60px;"">+</div>","null","","fixation","","",""
"memory-trial","126","390363","0.0-18.0-1.41","4463","approach_avoid_sv1","""event"",""trial"",""time""
""fullscreenenter"",""1"",""7699""
","
","
","""event"",""trial"",""time""
""fullscreenenter"",""1"",""7699""
","
","","","","","","1105.3000001907349","images/boat4.png","","","memory_trial","3","maybe_new",""
"html-button-response","127","392324","0.0-18.0-2.41-0.41","4463","approach_avoid_sv1","""event"",""trial"",""time""
""fullscreenenter"",""1"",""7699""
","
","
","""event"",""trial"",""time""
""fullscreenenter"",""1"",""7699""
","
","","","","","","1959.6000001430511","<p> Take a break! </p><p> Click the button to continue. </p>","0","","break","","",""
"html-keyboard-response","128","392859","0.0-18.0-0.42","4463","approach_avoid_sv1","""event"",""trial"",""time""
""fullscreenenter"",""1"",""7699""
","
","
","""event"",""trial"",""time""
""fullscreenenter"",""1"",""7699""
","
","","","","","","null","<div style=""font-size:60px;"">+</div>","null","","fixation","","",""
"memory-trial","129","395868","0.0-18.0-1.42","4463","approach_avoid_sv1","""event"",""trial"",""time""
""fullscreenenter"",""1"",""7699""
","
","
","""event"",""trial"",""time""
""fullscreenenter"",""1"",""7699""
","
","","","","","","2001.1999998092651","images/cow8.png","","","memory_trial","4","definitely_new",""
"html-keyboard-response","130","396396","0.0-18.0-0.43","4463","approach_avoid_sv1","""event"",""trial"",""time""
""fullscreenenter"",""1"",""7699""
","
","
","""event"",""trial"",""time""
""fullscreenenter"",""1"",""7699""
","
","","","","","","null","<div style=""font-size:60px;"">+</div>","null","","fixation","","",""
"memory-trial","131","398324","0.0-18.0-1.43","4463","approach_avoid_sv1","""event"",""trial"",""time""
""fullscreenenter"",""1"",""7699""
","
","
","""event"",""trial"",""time""
""fullscreenenter"",""1"",""7699""
","
","","","","","","897.2000000476837","images/cat3.png","","","memory_trial","1","definitely_old",""
"html-keyboard-response","132","398852","0.0-18.0-0.44","4463","approach_avoid_sv1","""event"",""trial"",""time""
""fullscreenenter"",""1"",""7699""
","
","
","""event"",""trial"",""time""
""fullscreenenter"",""1"",""7699""
","
","","","","","","null","<div style=""font-size:60px;"">+</div>","null","","fixation","","",""
"memory-trial","133","401028","0.0-18.0-1.44","4463","approach_avoid_sv1","""event"",""trial"",""time""
""fullscreenenter"",""1"",""7699""
","
","
","""event"",""trial"",""time""
""fullscreenenter"",""1"",""7699""
","
","","","","","","1116.4000000953674","images/truck4.png","","","memory_trial","3","maybe_new",""
"html-keyboard-response","134","401563","0.0-18.0-0.45","4463","approach_avoid_sv1","""event"",""trial"",""time""
""fullscreenenter"",""1"",""7699""
","
","
","""event"",""trial"",""time""
""fullscreenenter"",""1"",""7699""
","
","","","","","","null","<div style=""font-size:60px;"">+</div>","null","","fixation","","",""
"memory-trial","135","404185","0.0-18.0-1.45","4463","approach_avoid_sv1","""event"",""trial"",""time""
""fullscreenenter"",""1"",""7699""
","
","
","""event"",""trial"",""time""
""fullscreenenter"",""1"",""7699""
","
","","","","","","1591.7999999523163","images/plane5.png","","","memory_trial","2","maybe_old",""
"html-keyboard-response","136","404716","0.0-18.0-0.46","4463","approach_avoid_sv1","""event"",""trial"",""time""
""fullscreenenter"",""1"",""7699""
","
","
","""event"",""trial"",""time""
""fullscreenenter"",""1"",""7699""
","
","","","","","","null","<div style=""font-size:60px;"">+</div>","null","","fixation","","",""
"memory-trial","137","407155","0.0-18.0-1.46","4463","approach_avoid_sv1","""event"",""trial"",""time""
""fullscreenenter"",""1"",""7699""
","
","
","""event"",""trial"",""time""
""fullscreenenter"",""1"",""7699""
","
","","","","","","1380.5999999046326","images/sheep3.png","","","memory_trial","4","definitely_new",""
"html-keyboard-response","138","407685","0.0-18.0-0.47","4463","approach_avoid_sv1","""event"",""trial"",""time""
""fullscreenenter"",""1"",""7699""
","
","
","""event"",""trial"",""time""
""fullscreenenter"",""1"",""7699""
","
","","","","","","null","<div style=""font-size:60px;"">+</div>","null","","fixation","","",""
"memory-trial","139","409778","0.0-18.0-1.47","4463","approach_avoid_sv1","""event"",""trial"",""time""
""fullscreenenter"",""1"",""7699""
","
","
","""event"",""trial"",""time""
""fullscreenenter"",""1"",""7699""
","
","","","","","","1062.2999999523163","images/train8.png","","","memory_trial","1","definitely_old",""
"html-keyboard-response","140","410306","0.0-18.0-0.48","4463","approach_avoid_sv1","""event"",""trial"",""time""
""fullscreenenter"",""1"",""7699""
","
","
","""event"",""trial"",""time""
""fullscreenenter"",""1"",""7699""
","
","","","","","","null","<div style=""font-size:60px;"">+</div>","null","","fixation","","",""
"memory-trial","141","412739","0.0-18.0-1.48","4463","approach_avoid_sv1","""event"",""trial"",""time""
""fullscreenenter"",""1"",""7699""
","
","
","""event"",""trial"",""time""
""fullscreenenter"",""1"",""7699""
","
","","","","","","1376.0999999046326","images/truck2.png","","","memory_trial","2","maybe_old",""
"html-keyboard-response","142","413266","0.0-18.0-0.49","4463","approach_avoid_sv1","""event"",""trial"",""time""
""fullscreenenter"",""1"",""7699""
","
","
","""event"",""trial"",""time""
""fullscreenenter"",""1"",""7699""
","
","","","","","","null","<div style=""font-size:60px;"">+</div>","null","","fixation","","",""
"memory-trial","143","416492","0.0-18.0-1.49","4463","approach_avoid_sv1","""event"",""trial"",""time""
""fullscreenenter"",""1"",""7699""
","
","
","""event"",""trial"",""time""
""fullscreenenter"",""1"",""7699""
","
","","","","","","2165.4000000953674","images/straw1.png","","","memory_trial","4","definitely_new",""
"html-keyboard-response","144","417026","0.0-18.0-0.50","4463","approach_avoid_sv1","""event"",""trial"",""time""
""fullscreenenter"",""1"",""7699""
","
","
","""event"",""trial"",""time""
""fullscreenenter"",""1"",""7699""
","
","","","","","","null","<div style=""font-size:60px;"">+</div>","null","","fixation","","",""
"memory-trial","145","418836","0.0-18.0-1.50","4463","approach_avoid_sv1","""event"",""trial"",""time""
""fullscreenenter"",""1"",""7699""
","
","
","""event"",""trial"",""time""
""fullscreenenter"",""1"",""7699""
","
","","","","","","749.2000000476837","images/dog4.png","","","memory_trial","4","definitely_new",""
"html-keyboard-response","146","419369","0.0-18.0-0.51","4463","approach_avoid_sv1","""event"",""trial"",""time""
""fullscreenenter"",""1"",""7699""
","
","
","""event"",""trial"",""time""
""fullscreenenter"",""1"",""7699""
","
","","","","","","null","<div style=""font-size:60px;"">+</div>","null","","fixation","","",""
"memory-trial","147","421475","0.0-18.0-1.51","4463","approach_avoid_sv1","""event"",""trial"",""time""
""fullscreenenter"",""1"",""7699""
","
","
","""event"",""trial"",""time""
""fullscreenenter"",""1"",""7699""
","
","","","","","","1049.2999999523163","images/goat1.png","","","memory_trial","1","definitely_old",""
"html-keyboard-response","148","421977","0.0-18.0-0.52","4463","approach_avoid_sv1","""event"",""trial"",""time""
""fullscreenenter"",""1"",""7699""
","
","
","""event"",""trial"",""time""
""fullscreenenter"",""1"",""7699""
","
","","","","","","null","<div style=""font-size:60px;"">+</div>","null","","fixation","","",""
"memory-trial","149","424531","0.0-18.0-1.52","4463","approach_avoid_sv1","""event"",""trial"",""time""
""fullscreenenter"",""1"",""7699""
","
","
","""event"",""trial"",""time""
""fullscreenenter"",""1"",""7699""
","
","","","","","","1499.5","images/plane4.png","","","memory_trial","2","maybe_old",""
"html-keyboard-response","150","425059","0.0-18.0-0.53","4463","approach_avoid_sv1","""event"",""trial"",""time""
""fullscreenenter"",""1"",""7699""
","
","
","""event"",""trial"",""time""
""fullscreenenter"",""1"",""7699""
","
","","","","","","null","<div style=""font-size:60px;"">+</div>","null","","fixation","","",""
"memory-trial","151","426754","0.0-18.0-1.53","4463","approach_avoid_sv1","""event"",""trial"",""time""
""fullscreenenter"",""1"",""7699""
","
","
","""event"",""trial"",""time""
""fullscreenenter"",""1"",""7699""
","
","","","","","","635.4000000953674","images/cactus5.png","","","memory_trial","4","definitely_new",""
"html-keyboard-response","152","427283","0.0-18.0-0.54","4463","approach_avoid_sv1","""event"",""trial"",""time""
""fullscreenenter"",""1"",""7699""
","
","
","""event"",""trial"",""time""
""fullscreenenter"",""1"",""7699""
","
","","","","","","null","<div style=""font-size:60px;"">+</div>","null","","fixation","","",""
"memory-trial","153","429802","0.0-18.0-1.54","4463","approach_avoid_sv1","""event"",""trial"",""time""
""fullscreenenter"",""1"",""7699""
","
","
","""event"",""trial"",""time""
""fullscreenenter"",""1"",""7699""
","
","","","","","","1488.2999999523163","images/sofa3.png","","","memory_trial","3","maybe_new",""
"html-keyboard-response","154","430331","0.0-18.0-0.55","4463","approach_avoid_sv1","""event"",""trial"",""time""
""fullscreenenter"",""1"",""7699""
","
","
","""event"",""trial"",""time""
""fullscreenenter"",""1"",""7699""
","
","","","","","","null","<div style=""font-size:60px;"">+</div>","null","","fixation","","",""
"memory-trial","155","432561","0.0-18.0-1.55","4463","approach_avoid_sv1","""event"",""trial"",""time""
""fullscreenenter"",""1"",""7699""
","
","
","""event"",""trial"",""time""
""fullscreenenter"",""1"",""7699""
","
","","","","","","1228.1000001430511","images/tree3.png","","","memory_trial","3","maybe_new",""
"html-keyboard-response","156","433064","0.0-18.0-0.56","4463","approach_avoid_sv1","""event"",""trial"",""time""
""fullscreenenter"",""1"",""7699""
","
","
","""event"",""trial"",""time""
""fullscreenenter"",""1"",""7699""
","
","","","","","","null","<div style=""font-size:60px;"">+</div>","null","","fixation","","",""
"memory-trial","157","435659","0.0-18.0-1.56","4463","approach_avoid_sv1","""event"",""trial"",""time""
""fullscreenenter"",""1"",""7699""
","
","
","""event"",""trial"",""time""
""fullscreenenter"",""1"",""7699""
","
","","","","","","1535.4000000953674","images/chair3.png","","","memory_trial","2","maybe_old",""
"html-keyboard-response","158","436189","0.0-18.0-0.57","4463","approach_avoid_sv1","""event"",""trial"",""time""
""fullscreenenter"",""1"",""7699""
","
","
","""event"",""trial"",""time""
""fullscreenenter"",""1"",""7699""
","
","","","","","","null","<div style=""font-size:60px;"">+</div>","null","","fixation","","",""
"memory-trial","159","438645","0.0-18.0-1.57","4463","approach_avoid_sv1","""event"",""trial"",""time""
""fullscreenenter"",""1"",""7699""
","
","
","""event"",""trial"",""time""
""fullscreenenter"",""1"",""7699""
","
","","","","","","1420.6999998092651","images/cat4.png","","","memory_trial","3","maybe_new",""
"html-keyboard-response","160","439179","0.0-18.0-0.58","4463","approach_avoid_sv1","""event"",""trial"",""time""
""fullscreenenter"",""1"",""7699""
","
","
","""event"",""trial"",""time""
""fullscreenenter"",""1"",""7699""
","
","","","","","","null","<div style=""font-size:60px;"">+</div>","null","","fixation","","",""
"memory-trial","161","441195","0.0-18.0-1.58","4463","approach_avoid_sv1","""event"",""trial"",""time""
""fullscreenenter"",""1"",""7699""
","
","
","""event"",""trial"",""time""
""fullscreenenter"",""1"",""7699""
","
","","","","","","953.5","images/apple1.png","","","memory_trial","4","definitely_new",""
"html-keyboard-response","162","441723","0.0-18.0-0.59","4463","approach_avoid_sv1","""event"",""trial"",""time""
""fullscreenenter"",""1"",""7699""
","
","
","""event"",""trial"",""time""
""fullscreenenter"",""1"",""7699""
","
","","","","","","null","<div style=""font-size:60px;"">+</div>","null","","fixation","","",""
"memory-trial","163","444156","0.0-18.0-1.59","4463","approach_avoid_sv1","""event"",""trial"",""time""
""fullscreenenter"",""1"",""7699""
","
","
","""event"",""trial"",""time""
""fullscreenenter"",""1"",""7699""
","
","","","","","","1377.2999999523163","images/bed1.png","","","memory_trial","3","maybe_new",""
"html-keyboard-response","164","444666","0.0-18.0-0.60","4463","approach_avoid_sv1","""event"",""trial"",""time""
""fullscreenenter"",""1"",""7699""
","
","
","""event"",""trial"",""time""
""fullscreenenter"",""1"",""7699""
","
","","","","","","null","<div style=""font-size:60px;"">+</div>","null","","fixation","","",""
"memory-trial","165","446689","0.0-18.0-1.60","4463","approach_avoid_sv1","""event"",""trial"",""time""
""fullscreenenter"",""1"",""7699""
","
","
","""event"",""trial"",""time""
""fullscreenenter"",""1"",""7699""
","
","","","","","","991.0999999046326","images/bush5.png","","","memory_trial","4","definitely_new",""
"html-keyboard-response","166","447193","0.0-18.0-0.61","4463","approach_avoid_sv1","""event"",""trial"",""time""
""fullscreenenter"",""1"",""7699""
","
","
","""event"",""trial"",""time""
""fullscreenenter"",""1"",""7699""
","
","","","","","","null","<div style=""font-size:60px;"">+</div>","null","","fixation","","",""
"memory-trial","167","449665","0.0-18.0-1.61","4463","approach_avoid_sv1","""event"",""trial"",""time""
""fullscreenenter"",""1"",""7699""
","
","
","""event"",""trial"",""time""
""fullscreenenter"",""1"",""7699""
","
","","","","","","1464.7999999523163","images/table4.png","","","memory_trial","1","definitely_old",""
"html-keyboard-response","168","450180","0.0-18.0-0.62","4463","approach_avoid_sv1","""event"",""trial"",""time""
""fullscreenenter"",""1"",""7699""
","
","
","""event"",""trial"",""time""
""fullscreenenter"",""1"",""7699""
","
","","","","","","null","<div style=""font-size:60px;"">+</div>","null","","fixation","","",""
"memory-trial","169","452460","0.0-18.0-1.62","4463","approach_avoid_sv1","""event"",""trial"",""time""
""fullscreenenter"",""1"",""7699""
","
","
","""event"",""trial"",""time""
""fullscreenenter"",""1"",""7699""
","
","","","","","","1248.5999999046326","images/goat4.png","","","memory_trial","1","definitely_old",""
"html-keyboard-response","170","452995","0.0-18.0-0.63","4463","approach_avoid_sv1","""event"",""trial"",""time""
""fullscreenenter"",""1"",""7699""
","
","
","""event"",""trial"",""time""
""fullscreenenter"",""1"",""7699""
","
","","","","","","null","<div style=""font-size:60px;"">+</div>","null","","fixation","","",""
"memory-trial","171","454876","0.0-18.0-1.63","4463","approach_avoid_sv1","""event"",""trial"",""time""
""fullscreenenter"",""1"",""7699""
","
","
","""event"",""trial"",""time""
""fullscreenenter"",""1"",""7699""
","
","","","","","","824.7000000476837","images/cow2.png","","","memory_trial","1","definitely_old",""
"html-keyboard-response","172","455411","0.0-18.0-0.64","4463","approach_avoid_sv1","""event"",""trial"",""time""
""fullscreenenter"",""1"",""7699""
","
","
","""event"",""trial"",""time""
""fullscreenenter"",""1"",""7699""
","
","","","","","","null","<div style=""font-size:60px;"">+</div>","null","","fixation","","",""
"memory-trial","173","457948","0.0-18.0-1.64","4463","approach_avoid_sv1","""event"",""trial"",""time""
""fullscreenenter"",""1"",""7699""
","
","
","""event"",""trial"",""time""
""fullscreenenter"",""1"",""7699""
","
","","","","","","1480.5","images/cow3.png","","","memory_trial","1","definitely_old",""
"html-keyboard-response","174","458483","0.0-18.0-0.65","4463","approach_avoid_sv1","""event"",""trial"",""time""
""fullscreenenter"",""1"",""7699""
","
","
","""event"",""trial"",""time""
""fullscreenenter"",""1"",""7699""
","
","","","","","","null","<div style=""font-size:60px;"">+</div>","null","","fixation","","",""
"memory-trial","175","460763","0.0-18.0-1.65","4463","approach_avoid_sv1","""event"",""trial"",""time""
""fullscreenenter"",""1"",""7699""
","
","
","""event"",""trial"",""time""
""fullscreenenter"",""1"",""7699""
","
","","","","","","1219.4000000953674","images/truck6.png","","","memory_trial","4","definitely_new",""
"html-keyboard-response","176","461291","0.0-18.0-0.66","4463","approach_avoid_sv1","""event"",""trial"",""time""
""fullscreenenter"",""1"",""7699""
","
","
","""event"",""trial"",""time""
""fullscreenenter"",""1"",""7699""
","
","","","","","","null","<div style=""font-size:60px;"">+</div>","null","","fixation","","",""
"memory-trial","177","463068","0.0-18.0-1.66","4463","approach_avoid_sv1","""event"",""trial"",""time""
""fullscreenenter"",""1"",""7699""
","
","
","""event"",""trial"",""time""
""fullscreenenter"",""1"",""7699""
","
","","","","","","715.6999998092651","images/cat5.png","","","memory_trial","1","definitely_old",""
"html-keyboard-response","178","463603","0.0-18.0-0.67","4463","approach_avoid_sv1","""event"",""trial"",""time""
""fullscreenenter"",""1"",""7699""
","
","
","""event"",""trial"",""time""
""fullscreenenter"",""1"",""7699""
","
","","","","","","null","<div style=""font-size:60px;"">+</div>","null","","fixation","","",""
"memory-trial","179","466219","0.0-18.0-1.67","4463","approach_avoid_sv1","""event"",""trial"",""time""
""fullscreenenter"",""1"",""7699""
","
","
","""event"",""trial"",""time""
""fullscreenenter"",""1"",""7699""
","
","","","","","","1558.5","images/table6.png","","","memory_trial","4","definitely_new",""
"html-keyboard-response","180","466747","0.0-18.0-0.68","4463","approach_avoid_sv1","""event"",""trial"",""time""
""fullscreenenter"",""1"",""7699""
","
","
","""event"",""trial"",""time""
""fullscreenenter"",""1"",""7699""
","
","","","","","","null","<div style=""font-size:60px;"">+</div>","null","","fixation","","",""
"memory-trial","181","468714","0.0-18.0-1.68","4463","approach_avoid_sv1","""event"",""trial"",""time""
""fullscreenenter"",""1"",""7699""
","
","
","""event"",""trial"",""time""
""fullscreenenter"",""1"",""7699""
","
","","","","","","935.9000000953674","images/tree7.png","","","memory_trial","1","definitely_old",""
"html-keyboard-response","182","469244","0.0-18.0-0.69","4463","approach_avoid_sv1","""event"",""trial"",""time""
""fullscreenenter"",""1"",""7699""
","
","
","""event"",""trial"",""time""
""fullscreenenter"",""1"",""7699""
","
","","","","","","null","<div style=""font-size:60px;"">+</div>","null","","fixation","","",""
"memory-trial","183","472619","0.0-18.0-1.69","4463","approach_avoid_sv1","""event"",""trial"",""time""
""fullscreenenter"",""1"",""7699""
","
","
","""event"",""trial"",""time""
""fullscreenenter"",""1"",""7699""
","
","","","","","","2346","images/flower5.png","","","memory_trial","4","definitely_new",""
"html-keyboard-response","184","473147","0.0-18.0-0.70","4463","approach_avoid_sv1","""event"",""trial"",""time""
""fullscreenenter"",""1"",""7699""
","
","
","""event"",""trial"",""time""
""fullscreenenter"",""1"",""7699""
","
","","","","","","null","<div style=""font-size:60px;"">+</div>","null","","fixation","","",""
"memory-trial","185","475611","0.0-18.0-1.70","4463","approach_avoid_sv1","""event"",""trial"",""time""
""fullscreenenter"",""1"",""7699""
","
","
","""event"",""trial"",""time""
""fullscreenenter"",""1"",""7699""
","
","","","","","","1403.7000000476837","images/plane3.png","","","memory_trial","2","maybe_old",""
"html-keyboard-response","186","476146","0.0-18.0-0.71","4463","approach_avoid_sv1","""event"",""trial"",""time""
""fullscreenenter"",""1"",""7699""
","
","
","""event"",""trial"",""time""
""fullscreenenter"",""1"",""7699""
","
","","","","","","null","<div style=""font-size:60px;"">+</div>","null","","fixation","","",""
"memory-trial","187","479225","0.0-18.0-1.71","4463","approach_avoid_sv1","""event"",""trial"",""time""
""fullscreenenter"",""1"",""7699""
","
","
","""event"",""trial"",""time""
""fullscreenenter"",""1"",""7699""
","
","","","","","","2072.5","images/chair2.png","","","memory_trial","3","maybe_new",""
"html-keyboard-response","188","479762","0.0-18.0-0.72","4463","approach_avoid_sv1","""event"",""trial"",""time""
""fullscreenenter"",""1"",""7699""
","
","
","""event"",""trial"",""time""
""fullscreenenter"",""1"",""7699""
","
","","","","","","null","<div style=""font-size:60px;"">+</div>","null","","fixation","","",""
"memory-trial","189","482859","0.0-18.0-1.72","4463","approach_avoid_sv1","""event"",""trial"",""time""
""fullscreenenter"",""1"",""7699""
","
","
","""event"",""trial"",""time""
""fullscreenenter"",""1"",""7699""
","
","","","","","","2042.5","images/boat7.png","","","memory_trial","2","maybe_old",""
"html-keyboard-response","190","483388","0.0-18.0-0.73","4463","approach_avoid_sv1","""event"",""trial"",""time""
""fullscreenenter"",""1"",""7699""
","
","
","""event"",""trial"",""time""
""fullscreenenter"",""1"",""7699""
","
","","","","","","null","<div style=""font-size:60px;"">+</div>","null","","fixation","","",""
"memory-trial","191","485226","0.0-18.0-1.73","4463","approach_avoid_sv1","""event"",""trial"",""time""
""fullscreenenter"",""1"",""7699""
","
","
","""event"",""trial"",""time""
""fullscreenenter"",""1"",""7699""
","
","","","","","","802.4000000953674","images/banana7.png","","","memory_trial","4","definitely_new",""
"html-keyboard-response","192","485755","0.0-18.0-0.74","4463","approach_avoid_sv1","""event"",""trial"",""time""
""fullscreenenter"",""1"",""7699""
","
","
","""event"",""trial"",""time""
""fullscreenenter"",""1"",""7699""
","
","","","","","","null","<div style=""font-size:60px;"">+</div>","null","","fixation","","",""
"memory-trial","193","487370","0.0-18.0-1.74","4463","approach_avoid_sv1","""event"",""trial"",""time""
""fullscreenenter"",""1"",""7699""
","
","
","""event"",""trial"",""time""
""fullscreenenter"",""1"",""7699""
","
","","","","","","560.5999999046326","images/cactus6.png","","","memory_trial","4","definitely_new",""
"html-keyboard-response","194","487900","0.0-18.0-0.75","4463","approach_avoid_sv1","""event"",""trial"",""time""
""fullscreenenter"",""1"",""7699""
","
","
","""event"",""trial"",""time""
""fullscreenenter"",""1"",""7699""
","
","","","","","","null","<div style=""font-size:60px;"">+</div>","null","","fixation","","",""
"memory-trial","195","490531","0.0-18.0-1.75","4463","approach_avoid_sv1","""event"",""trial"",""time""
""fullscreenenter"",""1"",""7699""
","
","
","""event"",""trial"",""time""
""fullscreenenter"",""1"",""7699""
","
","","","","","","1597.5","images/tree8.png","","","memory_trial","2","maybe_old",""
"html-keyboard-response","196","491032","0.0-18.0-0.76","4463","approach_avoid_sv1","""event"",""trial"",""time""
""fullscreenenter"",""1"",""7699""
","
","
","""event"",""trial"",""time""
""fullscreenenter"",""1"",""7699""
","
","","","","","","null","<div style=""font-size:60px;"">+</div>","null","","fixation","","",""
"memory-trial","197","492947","0.0-18.0-1.76","4463","approach_avoid_sv1","""event"",""trial"",""time""
""fullscreenenter"",""1"",""7699""
","
","
","""event"",""trial"",""time""
""fullscreenenter"",""1"",""7699""
","
","","","","","","852.3999998569489","images/cow4.png","","","memory_trial","4","definitely_new",""
"html-keyboard-response","198","493475","0.0-18.0-0.77","4463","approach_avoid_sv1","""event"",""trial"",""time""
""fullscreenenter"",""1"",""7699""
","
","
","""event"",""trial"",""time""
""fullscreenenter"",""1"",""7699""
","
","","","","","","null","<div style=""font-size:60px;"">+</div>","null","","fixation","","",""
"memory-trial","199","495515","0.0-18.0-1.77","4463","approach_avoid_sv1","""event"",""trial"",""time""
""fullscreenenter"",""1"",""7699""
","
","
","""event"",""trial"",""time""
""fullscreenenter"",""1"",""7699""
","
","","","","","","982.8999998569489","images/rabbit5.png","","","memory_trial","1","definitely_old",""
"html-keyboard-response","200","496043","0.0-18.0-0.78","4463","approach_avoid_sv1","""event"",""trial"",""time""
""fullscreenenter"",""1"",""7699""
","
","
","""event"",""trial"",""time""
""fullscreenenter"",""1"",""7699""
","
","","","","","","null","<div style=""font-size:60px;"">+</div>","null","","fixation","","",""
"memory-trial","201","498339","0.0-18.0-1.78","4463","approach_avoid_sv1","""event"",""trial"",""time""
""fullscreenenter"",""1"",""7699""
","
","
","""event"",""trial"",""time""
""fullscreenenter"",""1"",""7699""
","
","","","","","","1240.6000001430511","images/sheep5.png","","","memory_trial","4","definitely_new",""
"html-keyboard-response","202","498868","0.0-18.0-0.79","4463","approach_avoid_sv1","""event"",""trial"",""time""
""fullscreenenter"",""1"",""7699""
","
","
","""event"",""trial"",""time""
""fullscreenenter"",""1"",""7699""
","
","","","","","","null","<div style=""font-size:60px;"">+</div>","null","","fixation","","",""
"memory-trial","203","501971","0.0-18.0-1.79","4463","approach_avoid_sv1","""event"",""trial"",""time""
""fullscreenenter"",""1"",""7699""
","
","
","""event"",""trial"",""time""
""fullscreenenter"",""1"",""7699""
","
","","","","","","2040.2999999523163","images/bush2.png","","","memory_trial","1","definitely_old",""
"html-keyboard-response","204","502500","0.0-18.0-0.80","4463","approach_avoid_sv1","""event"",""trial"",""time""
""fullscreenenter"",""1"",""7699""
","
","
","""event"",""trial"",""time""
""fullscreenenter"",""1"",""7699""
","
","","","","","","null","<div style=""font-size:60px;"">+</div>","null","","fixation","","",""
"memory-trial","205","504556","0.0-18.0-1.80","4463","approach_avoid_sv1","""event"",""trial"",""time""
""fullscreenenter"",""1"",""7699""
","
","
","""event"",""trial"",""time""
""fullscreenenter"",""1"",""7699""
","
","","","","","","996.7000000476837","images/rodent2.png","","","memory_trial","1","definitely_old",""
"html-keyboard-response","206","505092","0.0-18.0-0.81","4463","approach_avoid_sv1","""event"",""trial"",""time""
""fullscreenenter"",""1"",""7699""
","
","
","""event"",""trial"",""time""
""fullscreenenter"",""1"",""7699""
","
","","","","","","null","<div style=""font-size:60px;"">+</div>","null","","fixation","","",""
"memory-trial","207","506866","0.0-18.0-1.81","4463","approach_avoid_sv1","""event"",""trial"",""time""
""fullscreenenter"",""1"",""7699""
","
","
","""event"",""trial"",""time""
""fullscreenenter"",""1"",""7699""
","
","","","","","","742.0999999046326","images/horse4.png","","","memory_trial","1","definitely_old",""
"html-keyboard-response","208","507395","0.0-18.0-0.82","4463","approach_avoid_sv1","""event"",""trial"",""time""
""fullscreenenter"",""1"",""7699""
","
","
","""event"",""trial"",""time""
""fullscreenenter"",""1"",""7699""
","
","","","","","","null","<div style=""font-size:60px;"">+</div>","null","","fixation","","",""
"memory-trial","209","509861","0.0-18.0-1.82","4463","approach_avoid_sv1","""event"",""trial"",""time""
""fullscreenenter"",""1"",""7699""
","
","
","""event"",""trial"",""time""
""fullscreenenter"",""1"",""7699""
","
","","","","","","1431.4000000953674","images/straw3.png","","","memory_trial","2","maybe_old",""
"html-keyboard-response","210","510394","0.0-18.0-0.83","4463","approach_avoid_sv1","""event"",""trial"",""time""
""fullscreenenter"",""1"",""7699""
","
","
","""event"",""trial"",""time""
""fullscreenenter"",""1"",""7699""
","
","","","","","","null","<div style=""font-size:60px;"">+</div>","null","","fixation","","",""
"memory-trial","211","512156","0.0-18.0-1.83","4463","approach_avoid_sv1","""event"",""trial"",""time""
""fullscreenenter"",""1"",""7699""
","
","
","""event"",""trial"",""time""
""fullscreenenter"",""1"",""7699""
","
","","","","","","706.5","images/bush8.png","","","memory_trial","1","definitely_old",""
"html-keyboard-response","212","512690","0.0-18.0-0.84","4463","approach_avoid_sv1","""event"",""trial"",""time""
""fullscreenenter"",""1"",""7699""
","
","
","""event"",""trial"",""time""
""fullscreenenter"",""1"",""7699""
","
","","","","","","null","<div style=""font-size:60px;"">+</div>","null","","fixation","","",""
"memory-trial","213","514556","0.0-18.0-1.84","4463","approach_avoid_sv1","""event"",""trial"",""time""
""fullscreenenter"",""1"",""7699""
","
","
","""event"",""trial"",""time""
""fullscreenenter"",""1"",""7699""
","
","","","","","","809.9000000953674","images/sheep4.png","","","memory_trial","4","definitely_new",""
"html-keyboard-response","214","515065","0.0-18.0-0.85","4463","approach_avoid_sv1","""event"",""trial"",""time""
""fullscreenenter"",""1"",""7699""
","
","
","""event"",""trial"",""time""
""fullscreenenter"",""1"",""7699""
","
","","","","","","null","<div style=""font-size:60px;"">+</div>","null","","fixation","","",""
"memory-trial","215","517154","0.0-18.0-1.85","4463","approach_avoid_sv1","""event"",""trial"",""time""
""fullscreenenter"",""1"",""7699""
","
","
","""event"",""trial"",""time""
""fullscreenenter"",""1"",""7699""
","
","","","","","","1049","images/tree6.png","","","memory_trial","4","definitely_new",""
"html-keyboard-response","216","517683","0.0-18.0-0.86","4463","approach_avoid_sv1","""event"",""trial"",""time""
""fullscreenenter"",""1"",""7699""
","
","
","""event"",""trial"",""time""
""fullscreenenter"",""1"",""7699""
","
","","","","","","null","<div style=""font-size:60px;"">+</div>","null","","fixation","","",""
"memory-trial","217","519714","0.0-18.0-1.86","4463","approach_avoid_sv1","""event"",""trial"",""time""
""fullscreenenter"",""1"",""7699""
","
","
","""event"",""trial"",""time""
""fullscreenenter"",""1"",""7699""
","
","","","","","","973.2000000476837","images/chair6.png","","","memory_trial","4","definitely_new",""
"html-keyboard-response","218","520244","0.0-18.0-0.87","4463","approach_avoid_sv1","""event"",""trial"",""time""
""fullscreenenter"",""1"",""7699""
","
","
","""event"",""trial"",""time""
""fullscreenenter"",""1"",""7699""
","
","","","","","","null","<div style=""font-size:60px;"">+</div>","null","","fixation","","",""
"memory-trial","219","522204","0.0-18.0-1.87","4463","approach_avoid_sv1","""event"",""trial"",""time""
""fullscreenenter"",""1"",""7699""
","
","
","""event"",""trial"",""time""
""fullscreenenter"",""1"",""7699""
","
","","","","","","902.8999998569489","images/banana2.png","","","memory_trial","4","definitely_new",""
"html-keyboard-response","220","522739","0.0-18.0-0.88","4463","approach_avoid_sv1","""event"",""trial"",""time""
""fullscreenenter"",""1"",""7699""
","
","
","""event"",""trial"",""time""
""fullscreenenter"",""1"",""7699""
","
","","","","","","null","<div style=""font-size:60px;"">+</div>","null","","fixation","","",""
"memory-trial","221","524545","0.0-18.0-1.88","4463","approach_avoid_sv1","""event"",""trial"",""time""
""fullscreenenter"",""1"",""7699""
","
","
","""event"",""trial"",""time""
""fullscreenenter"",""1"",""7699""
","
","","","","","","776.5","images/banana1.png","","","memory_trial","4","definitely_new",""
"html-keyboard-response","222","525054","0.0-18.0-0.89","4463","approach_avoid_sv1","""event"",""trial"",""time""
""fullscreenenter"",""1"",""7699""
","
","
","""event"",""trial"",""time""
""fullscreenenter"",""1"",""7699""
","
","","","","","","null","<div style=""font-size:60px;"">+</div>","null","","fixation","","",""
"memory-trial","223","527308","0.0-18.0-1.89","4463","approach_avoid_sv1","""event"",""trial"",""time""
""fullscreenenter"",""1"",""7699""
","
","
","""event"",""trial"",""time""
""fullscreenenter"",""1"",""7699""
","
","","","","","","1222.6000001430511","images/orange7.png","","","memory_trial","3","maybe_new",""
"html-keyboard-response","224","527843","0.0-18.0-0.90","4463","approach_avoid_sv1","""event"",""trial"",""time""
""fullscreenenter"",""1"",""7699""
","
","
","""event"",""trial"",""time""
""fullscreenenter"",""1"",""7699""
","
","","","","","","null","<div style=""font-size:60px;"">+</div>","null","","fixation","","",""
"memory-trial","225","531156","0.0-18.0-1.90","4463","approach_avoid_sv1","""event"",""trial"",""time""
""fullscreenenter"",""1"",""7699""
","
","
","""event"",""trial"",""time""
""fullscreenenter"",""1"",""7699""
","
","","","","","","2256.2000000476837","images/flower3.png","","","memory_trial","2","maybe_old",""
"html-keyboard-response","226","531667","0.0-18.0-0.91","4463","approach_avoid_sv1","""event"",""trial"",""time""
""fullscreenenter"",""1"",""7699""
","
","
","""event"",""trial"",""time""
""fullscreenenter"",""1"",""7699""
","
","","","","","","null","<div style=""font-size:60px;"">+</div>","null","","fixation","","",""
"memory-trial","227","534139","0.0-18.0-1.91","4463","approach_avoid_sv1","""event"",""trial"",""time""
""fullscreenenter"",""1"",""7699""
","
","
","""event"",""trial"",""time""
""fullscreenenter"",""1"",""7699""
","
","","","","","","1410.2000000476837","images/horse6.png","","","memory_trial","3","maybe_new",""
"html-button-response","228","536430","0.0-18.0-2.91-0.91","4463","approach_avoid_sv1","""event"",""trial"",""time""
""fullscreenenter"",""1"",""7699""
","
","
","""event"",""trial"",""time""
""fullscreenenter"",""1"",""7699""
","
","","","","","","2290.0999999046326","<p> Take a break! </p><p> Click the button to continue. </p>","0","","break","","",""
"html-keyboard-response","229","536964","0.0-18.0-0.92","4463","approach_avoid_sv1","""event"",""trial"",""time""
""fullscreenenter"",""1"",""7699""
","
","
","""event"",""trial"",""time""
""fullscreenenter"",""1"",""7699""
","
","","","","","","null","<div style=""font-size:60px;"">+</div>","null","","fixation","","",""
"memory-trial","230","538802","0.0-18.0-1.92","4463","approach_avoid_sv1","""event"",""trial"",""time""
""fullscreenenter"",""1"",""7699""
","
","
","""event"",""trial"",""time""
""fullscreenenter"",""1"",""7699""
","
","","","","","","833.5999999046326","images/goat6.png","","","memory_trial","4","definitely_new",""
"html-keyboard-response","231","539304","0.0-18.0-0.93","4463","approach_avoid_sv1","""event"",""trial"",""time""
""fullscreenenter"",""1"",""7699""
","
","
","""event"",""trial"",""time""
""fullscreenenter"",""1"",""7699""
","
","","","","","","null","<div style=""font-size:60px;"">+</div>","null","","fixation","","",""
"memory-trial","232","541036","0.0-18.0-1.93","4463","approach_avoid_sv1","""event"",""trial"",""time""
""fullscreenenter"",""1"",""7699""
","
","
","""event"",""trial"",""time""
""fullscreenenter"",""1"",""7699""
","
","","","","","","671.0999999046326","images/banana3.png","","","memory_trial","4","definitely_new",""
"html-keyboard-response","233","541571","0.0-18.0-0.94","4463","approach_avoid_sv1","""event"",""trial"",""time""
""fullscreenenter"",""1"",""7699""
","
","
","""event"",""trial"",""time""
""fullscreenenter"",""1"",""7699""
","
","","","","","","null","<div style=""font-size:60px;"">+</div>","null","","fixation","","",""
"memory-trial","234","543459","0.0-18.0-1.94","4463","approach_avoid_sv1","""event"",""trial"",""time""
""fullscreenenter"",""1"",""7699""
","
","
","""event"",""trial"",""time""
""fullscreenenter"",""1"",""7699""
","
","","","","","","832.7000000476837","images/truck1.png","","","memory_trial","3","maybe_new",""
"html-keyboard-response","235","543989","0.0-18.0-0.95","4463","approach_avoid_sv1","""event"",""trial"",""time""
""fullscreenenter"",""1"",""7699""
","
","
","""event"",""trial"",""time""
""fullscreenenter"",""1"",""7699""
","
","","","","","","null","<div style=""font-size:60px;"">+</div>","null","","fixation","","",""
"memory-trial","236","547185","0.0-18.0-1.95","4463","approach_avoid_sv1","""event"",""trial"",""time""
""fullscreenenter"",""1"",""7699""
","
","
","""event"",""trial"",""time""
""fullscreenenter"",""1"",""7699""
","
","","","","","","2177.9000000953674","images/apple3.png","","","memory_trial","4","definitely_new",""
"html-keyboard-response","237","547715","0.0-18.0-0.96","4463","approach_avoid_sv1","""event"",""trial"",""time""
""fullscreenenter"",""1"",""7699""
","
","
","""event"",""trial"",""time""
""fullscreenenter"",""1"",""7699""
","
","","","","","","null","<div style=""font-size:60px;"">+</div>","null","","fixation","","",""
"memory-trial","238","549778","0.0-18.0-1.96","4463","approach_avoid_sv1","""event"",""trial"",""time""
""fullscreenenter"",""1"",""7699""
","
","
","""event"",""trial"",""time""
""fullscreenenter"",""1"",""7699""
","
","","","","","","1029.7000000476837","images/train7.png","","","memory_trial","2","maybe_old",""
"html-keyboard-response","239","550307","0.0-18.0-0.97","4463","approach_avoid_sv1","""event"",""trial"",""time""
""fullscreenenter"",""1"",""7699""
","
","
","""event"",""trial"",""time""
""fullscreenenter"",""1"",""7699""
","
","","","","","","null","<div style=""font-size:60px;"">+</div>","null","","fixation","","",""
"memory-trial","240","552067","0.0-18.0-1.97","4463","approach_avoid_sv1","""event"",""trial"",""time""
""fullscreenenter"",""1"",""7699""
","
","
","""event"",""trial"",""time""
""fullscreenenter"",""1"",""7699""
","
","","","","","","727.0999999046326","images/bush1.png","","","memory_trial","1","definitely_old",""
"html-keyboard-response","241","552596","0.0-18.0-0.98","4463","approach_avoid_sv1","""event"",""trial"",""time""
""fullscreenenter"",""1"",""7699""
","
","
","""event"",""trial"",""time""
""fullscreenenter"",""1"",""7699""
","
","","","","","","null","<div style=""font-size:60px;"">+</div>","null","","fixation","","",""
"memory-trial","242","555043","0.0-18.0-1.98","4463","approach_avoid_sv1","""event"",""trial"",""time""
""fullscreenenter"",""1"",""7699""
","
","
","""event"",""trial"",""time""
""fullscreenenter"",""1"",""7699""
","
","","","","","","1387.6000001430511","images/tree1.png","","","memory_trial","2","maybe_old",""
"html-keyboard-response","243","555571","0.0-18.0-0.99","4463","approach_avoid_sv1","""event"",""trial"",""time""
""fullscreenenter"",""1"",""7699""
","
","
","""event"",""trial"",""time""
""fullscreenenter"",""1"",""7699""
","
","","","","","","null","<div style=""font-size:60px;"">+</div>","null","","fixation","","",""
"memory-trial","244","557251","0.0-18.0-1.99","4463","approach_avoid_sv1","""event"",""trial"",""time""
""fullscreenenter"",""1"",""7699""
","
","
","""event"",""trial"",""time""
""fullscreenenter"",""1"",""7699""
","
","","","","","","648.0999999046326","images/banana4.png","","","memory_trial","4","definitely_new",""
"html-keyboard-response","245","557778","0.0-18.0-0.100","4463","approach_avoid_sv1","""event"",""trial"",""time""
""fullscreenenter"",""1"",""7699""
","
","
","""event"",""trial"",""time""
""fullscreenenter"",""1"",""7699""
","
","","","","","","null","<div style=""font-size:60px;"">+</div>","null","","fixation","","",""
"memory-trial","246","559793","0.0-18.0-1.100","4463","approach_avoid_sv1","""event"",""trial"",""time""
""fullscreenenter"",""1"",""7699""
","
","
","""event"",""trial"",""time""
""fullscreenenter"",""1"",""7699""
","
","","","","","","1007.5","images/rodent5.png","","","memory_trial","1","definitely_old",""
"html-keyboard-response","247","560298","0.0-18.0-0.101","4463","approach_avoid_sv1","""event"",""trial"",""time""
""fullscreenenter"",""1"",""7699""
","
","
","""event"",""trial"",""time""
""fullscreenenter"",""1"",""7699""
","
","","","","","","null","<div style=""font-size:60px;"">+</div>","null","","fixation","","",""
"memory-trial","248","561977","0.0-18.0-1.101","4463","approach_avoid_sv1","""event"",""trial"",""time""
""fullscreenenter"",""1"",""7699""
","
","
","""event"",""trial"",""time""
""fullscreenenter"",""1"",""7699""
","
","","","","","","669.2999999523163","images/rodent8.png","","","memory_trial","1","definitely_old",""
"html-keyboard-response","249","562481","0.0-18.0-0.102","4463","approach_avoid_sv1","""event"",""trial"",""time""
""fullscreenenter"",""1"",""7699""
","
","
","""event"",""trial"",""time""
""fullscreenenter"",""1"",""7699""
","
","","","","","","null","<div style=""font-size:60px;"">+</div>","null","","fixation","","",""
"memory-trial","250","564721","0.0-18.0-1.102","4463","approach_avoid_sv1","""event"",""trial"",""time""
""fullscreenenter"",""1"",""7699""
","
","
","""event"",""trial"",""time""
""fullscreenenter"",""1"",""7699""
","
","","","","","","1209.2000000476837","images/sheep8.png","","","memory_trial","4","definitely_new",""
"html-keyboard-response","251","565251","0.0-18.0-0.103","4463","approach_avoid_sv1","""event"",""trial"",""time""
""fullscreenenter"",""1"",""7699""
","
","
","""event"",""trial"",""time""
""fullscreenenter"",""1"",""7699""
","
","","","","","","null","<div style=""font-size:60px;"">+</div>","null","","fixation","","",""
"memory-trial","252","567603","0.0-18.0-1.103","4463","approach_avoid_sv1","""event"",""trial"",""time""
""fullscreenenter"",""1"",""7699""
","
","
","""event"",""trial"",""time""
""fullscreenenter"",""1"",""7699""
","
","","","","","","1298","images/rodent1.png","","","memory_trial","3","maybe_new",""
"html-keyboard-response","253","568105","0.0-18.0-0.104","4463","approach_avoid_sv1","""event"",""trial"",""time""
""fullscreenenter"",""1"",""7699""
","
","
","""event"",""trial"",""time""
""fullscreenenter"",""1"",""7699""
","
","","","","","","null","<div style=""font-size:60px;"">+</div>","null","","fixation","","",""
"memory-trial","254","570947","0.0-18.0-1.104","4463","approach_avoid_sv1","""event"",""trial"",""time""
""fullscreenenter"",""1"",""7699""
","
","
","""event"",""trial"",""time""
""fullscreenenter"",""1"",""7699""
","
","","","","","","1781.6000001430511","images/bush3.png","","","memory_trial","2","maybe_old",""
"html-keyboard-response","255","571475","0.0-18.0-0.105","4463","approach_avoid_sv1","""event"",""trial"",""time""
""fullscreenenter"",""1"",""7699""
","
","
","""event"",""trial"",""time""
""fullscreenenter"",""1"",""7699""
","
","","","","","","null","<div style=""font-size:60px;"">+</div>","null","","fixation","","",""
"memory-trial","256","573187","0.0-18.0-1.105","4463","approach_avoid_sv1","""event"",""trial"",""time""
""fullscreenenter"",""1"",""7699""
","
","
","""event"",""trial"",""time""
""fullscreenenter"",""1"",""7699""
","
","","","","","","656.5999999046326","images/flower2.png","","","memory_trial","1","definitely_old",""
"html-keyboard-response","257","573717","0.0-18.0-0.106","4463","approach_avoid_sv1","""event"",""trial"",""time""
""fullscreenenter"",""1"",""7699""
","
","
","""event"",""trial"",""time""
""fullscreenenter"",""1"",""7699""
","
","","","","","","null","<div style=""font-size:60px;"">+</div>","null","","fixation","","",""
"memory-trial","258","576116","0.0-18.0-1.106","4463","approach_avoid_sv1","""event"",""trial"",""time""
""fullscreenenter"",""1"",""7699""
","
","
","""event"",""trial"",""time""
""fullscreenenter"",""1"",""7699""
","
","","","","","","1363.4000000953674","images/truck3.png","","","memory_trial","4","definitely_new",""
"html-keyboard-response","259","576651","0.0-18.0-0.107","4463","approach_avoid_sv1","""event"",""trial"",""time""
""fullscreenenter"",""1"",""7699""
","
","
","""event"",""trial"",""time""
""fullscreenenter"",""1"",""7699""
","
","","","","","","null","<div style=""font-size:60px;"">+</div>","null","","fixation","","",""
"memory-trial","260","578425","0.0-18.0-1.107","4463","approach_avoid_sv1","""event"",""trial"",""time""
""fullscreenenter"",""1"",""7699""
","
","
","""event"",""trial"",""time""
""fullscreenenter"",""1"",""7699""
","
","","","","","","741","images/cactus4.png","","","memory_trial","4","definitely_new",""
"html-keyboard-response","261","578930","0.0-18.0-0.108","4463","approach_avoid_sv1","""event"",""trial"",""time""
""fullscreenenter"",""1"",""7699""
","
","
","""event"",""trial"",""time""
""fullscreenenter"",""1"",""7699""
","
","","","","","","null","<div style=""font-size:60px;"">+</div>","null","","fixation","","",""
"memory-trial","262","581172","0.0-18.0-1.108","4463","approach_avoid_sv1","""event"",""trial"",""time""
""fullscreenenter"",""1"",""7699""
","
","
","""event"",""trial"",""time""
""fullscreenenter"",""1"",""7699""
","
","","","","","","1182.0999999046326","images/goat3.png","","","memory_trial","3","maybe_new",""
"html-keyboard-response","263","581707","0.0-18.0-0.109","4463","approach_avoid_sv1","""event"",""trial"",""time""
""fullscreenenter"",""1"",""7699""
","
","
","""event"",""trial"",""time""
""fullscreenenter"",""1"",""7699""
","
","","","","","","null","<div style=""font-size:60px;"">+</div>","null","","fixation","","",""
"memory-trial","264","583724","0.0-18.0-1.109","4463","approach_avoid_sv1","""event"",""trial"",""time""
""fullscreenenter"",""1"",""7699""
","
","
","""event"",""trial"",""time""
""fullscreenenter"",""1"",""7699""
","
","","","","","","957","images/horse5.png","","","memory_trial","1","definitely_old",""
"html-keyboard-response","265","584234","0.0-18.0-0.110","4463","approach_avoid_sv1","""event"",""trial"",""time""
""fullscreenenter"",""1"",""7699""
","
","
","""event"",""trial"",""time""
""fullscreenenter"",""1"",""7699""
","
","","","","","","null","<div style=""font-size:60px;"">+</div>","null","","fixation","","",""
"memory-trial","266","586676","0.0-18.0-1.110","4463","approach_avoid_sv1","""event"",""trial"",""time""
""fullscreenenter"",""1"",""7699""
","
","
","""event"",""trial"",""time""
""fullscreenenter"",""1"",""7699""
","
","","","","","","1382.2000000476837","images/flower8.png","","","memory_trial","2","maybe_old",""
"html-keyboard-response","267","587207","0.0-18.0-0.111","4463","approach_avoid_sv1","""event"",""trial"",""time""
""fullscreenenter"",""1"",""7699""
","
","
","""event"",""trial"",""time""
""fullscreenenter"",""1"",""7699""
","
","","","","","","null","<div style=""font-size:60px;"">+</div>","null","","fixation","","",""
"memory-trial","268","589021","0.0-18.0-1.111","4463","approach_avoid_sv1","""event"",""trial"",""time""
""fullscreenenter"",""1"",""7699""
","
","
","""event"",""trial"",""time""
""fullscreenenter"",""1"",""7699""
","
","","","","","","754.9000000953674","images/dog7.png","","","memory_trial","4","definitely_new",""
"html-keyboard-response","269","589556","0.0-18.0-0.112","4463","approach_avoid_sv1","""event"",""trial"",""time""
""fullscreenenter"",""1"",""7699""
","
","
","""event"",""trial"",""time""
""fullscreenenter"",""1"",""7699""
","
","","","","","","null","<div style=""font-size:60px;"">+</div>","null","","fixation","","",""
"memory-trial","270","591634","0.0-18.0-1.112","4463","approach_avoid_sv1","""event"",""trial"",""time""
""fullscreenenter"",""1"",""7699""
","
","
","""event"",""trial"",""time""
""fullscreenenter"",""1"",""7699""
","
","","","","","","1045.5","images/cat1.png","","","memory_trial","3","maybe_new",""
"html-keyboard-response","271","592163","0.0-18.0-0.113","4463","approach_avoid_sv1","""event"",""trial"",""time""
""fullscreenenter"",""1"",""7699""
","
","
","""event"",""trial"",""time""
""fullscreenenter"",""1"",""7699""
","
","","","","","","null","<div style=""font-size:60px;"">+</div>","null","","fixation","","",""
"memory-trial","272","593897","0.0-18.0-1.113","4463","approach_avoid_sv1","""event"",""trial"",""time""
""fullscreenenter"",""1"",""7699""
","
","
","""event"",""trial"",""time""
""fullscreenenter"",""1"",""7699""
","
","","","","","","672.8999998569489","images/banana6.png","","","memory_trial","4","definitely_new",""
"html-keyboard-response","273","594427","0.0-18.0-0.114","4463","approach_avoid_sv1","""event"",""trial"",""time""
""fullscreenenter"",""1"",""7699""
","
","
","""event"",""trial"",""time""
""fullscreenenter"",""1"",""7699""
","
","","","","","","null","<div style=""font-size:60px;"">+</div>","null","","fixation","","",""
"memory-trial","274","596404","0.0-18.0-1.114","4463","approach_avoid_sv1","""event"",""trial"",""time""
""fullscreenenter"",""1"",""7699""
","
","
","""event"",""trial"",""time""
""fullscreenenter"",""1"",""7699""
","
","","","","","","945.5999999046326","images/cat8.png","","","memory_trial","3","maybe_new",""
"html-keyboard-response","275","596941","0.0-18.0-0.115","4463","approach_avoid_sv1","""event"",""trial"",""time""
""fullscreenenter"",""1"",""7699""
","
","
","""event"",""trial"",""time""
""fullscreenenter"",""1"",""7699""
","
","","","","","","null","<div style=""font-size:60px;"">+</div>","null","","fixation","","",""
"memory-trial","276","599145","0.0-18.0-1.115","4463","approach_avoid_sv1","""event"",""trial"",""time""
""fullscreenenter"",""1"",""7699""
","
","
","""event"",""trial"",""time""
""fullscreenenter"",""1"",""7699""
","
","","","","","","1148.4000000953674","images/table3.png","","","memory_trial","3","maybe_new",""
"html-keyboard-response","277","599699","0.0-18.0-0.116","4463","approach_avoid_sv1","""event"",""trial"",""time""
""fullscreenenter"",""1"",""7699""
","
","
","""event"",""trial"",""time""
""fullscreenenter"",""1"",""7699""
","
","","","","","","null","<div style=""font-size:60px;"">+</div>","null","","fixation","","",""
"memory-trial","278","601813","0.0-18.0-1.116","4463","approach_avoid_sv1","""event"",""trial"",""time""
""fullscreenenter"",""1"",""7699""
","
","
","""event"",""trial"",""time""
""fullscreenenter"",""1"",""7699""
","
","","","","","","1053.5","images/train5.png","","","memory_trial","3","maybe_new",""
"html-keyboard-response","279","602348","0.0-18.0-0.117","4463","approach_avoid_sv1","""event"",""trial"",""time""
""fullscreenenter"",""1"",""7699""
","
","
","""event"",""trial"",""time""
""fullscreenenter"",""1"",""7699""
","
","","","","","","null","<div style=""font-size:60px;"">+</div>","null","","fixation","","",""
"memory-trial","280","604844","0.0-18.0-1.117","4463","approach_avoid_sv1","""event"",""trial"",""time""
""fullscreenenter"",""1"",""7699""
","
","
","""event"",""trial"",""time""
""fullscreenenter"",""1"",""7699""
","
","","","","","","1437.5","images/boat2.png","","","memory_trial","4","definitely_new",""
"html-keyboard-response","281","605353","0.0-18.0-0.118","4463","approach_avoid_sv1","""event"",""trial"",""time""
""fullscreenenter"",""1"",""7699""
","
","
","""event"",""trial"",""time""
""fullscreenenter"",""1"",""7699""
","
","","","","","","null","<div style=""font-size:60px;"">+</div>","null","","fixation","","",""
"memory-trial","282","607028","0.0-18.0-1.118","4463","approach_avoid_sv1","""event"",""trial"",""time""
""fullscreenenter"",""1"",""7699""
","
","
","""event"",""trial"",""time""
""fullscreenenter"",""1"",""7699""
","
","","","","","","611.8000001907349","images/dog6.png","","","memory_trial","4","definitely_new",""
"html-keyboard-response","283","607563","0.0-18.0-0.119","4463","approach_avoid_sv1","""event"",""trial"",""time""
""fullscreenenter"",""1"",""7699""
","
","
","""event"",""trial"",""time""
""fullscreenenter"",""1"",""7699""
","
","","","","","","null","<div style=""font-size:60px;"">+</div>","null","","fixation","","",""
"memory-trial","284","609796","0.0-18.0-1.119","4463","approach_avoid_sv1","""event"",""trial"",""time""
""fullscreenenter"",""1"",""7699""
","
","
","""event"",""trial"",""time""
""fullscreenenter"",""1"",""7699""
","
","","","","","","1200.9000000953674","images/tree4.png","","","memory_trial","4","definitely_new",""
"html-keyboard-response","285","610323","0.0-18.0-0.120","4463","approach_avoid_sv1","""event"",""trial"",""time""
""fullscreenenter"",""1"",""7699""
","
","
","""event"",""trial"",""time""
""fullscreenenter"",""1"",""7699""
","
","","","","","","null","<div style=""font-size:60px;"">+</div>","null","","fixation","","",""
"memory-trial","286","612995","0.0-18.0-1.120","4463","approach_avoid_sv1","""event"",""trial"",""time""
""fullscreenenter"",""1"",""7699""
","
","
","""event"",""trial"",""time""
""fullscreenenter"",""1"",""7699""
","
","","","","","","1610.7999999523163","images/sofa1.png","","","memory_trial","2","maybe_old",""
"html-keyboard-response","287","613524","0.0-18.0-0.121","4463","approach_avoid_sv1","""event"",""trial"",""time""
""fullscreenenter"",""1"",""7699""
","
","
","""event"",""trial"",""time""
""fullscreenenter"",""1"",""7699""
","
","","","","","","null","<div style=""font-size:60px;"">+</div>","null","","fixation","","",""
"memory-trial","288","615815","0.0-18.0-1.121","4463","approach_avoid_sv1","""event"",""trial"",""time""
""fullscreenenter"",""1"",""7699""
","
","
","""event"",""trial"",""time""
""fullscreenenter"",""1"",""7699""
","
","","","","","","1242.5","images/cat6.png","","","memory_trial","4","definitely_new",""
"html-keyboard-response","289","616348","0.0-18.0-0.122","4463","approach_avoid_sv1","""event"",""trial"",""time""
""fullscreenenter"",""1"",""7699""
","
","
","""event"",""trial"",""time""
""fullscreenenter"",""1"",""7699""
","
","","","","","","null","<div style=""font-size:60px;"">+</div>","null","","fixation","","",""
"memory-trial","290","618209","0.0-18.0-1.122","4463","approach_avoid_sv1","""event"",""trial"",""time""
""fullscreenenter"",""1"",""7699""
","
","
","""event"",""trial"",""time""
""fullscreenenter"",""1"",""7699""
","
","","","","","","829.7000000476837","images/horse2.png","","","memory_trial","1","definitely_old",""
"html-keyboard-response","291","618720","0.0-18.0-0.123","4463","approach_avoid_sv1","""event"",""trial"",""time""
""fullscreenenter"",""1"",""7699""
","
","
","""event"",""trial"",""time""
""fullscreenenter"",""1"",""7699""
","
","","","","","","null","<div style=""font-size:60px;"">+</div>","null","","fixation","","",""
"memory-trial","292","620659","0.0-18.0-1.123","4463","approach_avoid_sv1","""event"",""trial"",""time""
""fullscreenenter"",""1"",""7699""
","
","
","""event"",""trial"",""time""
""fullscreenenter"",""1"",""7699""
","
","","","","","","877.7000000476837","images/rabbit1.png","","","memory_trial","1","definitely_old",""
"html-keyboard-response","293","621188","0.0-18.0-0.124","4463","approach_avoid_sv1","""event"",""trial"",""time""
""fullscreenenter"",""1"",""7699""
","
","
","""event"",""trial"",""time""
""fullscreenenter"",""1"",""7699""
","
","","","","","","null","<div style=""font-size:60px;"">+</div>","null","","fixation","","",""
"memory-trial","294","623004","0.0-18.0-1.124","4463","approach_avoid_sv1","""event"",""trial"",""time""
""fullscreenenter"",""1"",""7699""
","
","
","""event"",""trial"",""time""
""fullscreenenter"",""1"",""7699""
","
","","","","","","753.5","images/flower7.png","","","memory_trial","1","definitely_old",""
"html-keyboard-response","295","623539","0.0-18.0-0.125","4463","approach_avoid_sv1","""event"",""trial"",""time""
""fullscreenenter"",""1"",""7699""
","
","
","""event"",""trial"",""time""
""fullscreenenter"",""1"",""7699""
","
","","","","","","null","<div style=""font-size:60px;"">+</div>","null","","fixation","","",""
"memory-trial","296","627196","0.0-18.0-1.125","4463","approach_avoid_sv1","""event"",""trial"",""time""
""fullscreenenter"",""1"",""7699""
","
","
","""event"",""trial"",""time""
""fullscreenenter"",""1"",""7699""
","
","","","","","","2596.7000000476837","images/rabbit4.png","","","memory_trial","3","maybe_new",""
"html-keyboard-response","297","627724","0.0-18.0-0.126","4463","approach_avoid_sv1","""event"",""trial"",""time""
""fullscreenenter"",""1"",""7699""
","
","
","""event"",""trial"",""time""
