"trial_type","trial_index","time_elapsed","internal_node_id","subject_id","task_version","interactions","blur_events","focus_events","fullscreenenter_events","fullscreenexit_events","success","timeout","failed_images","failed_audio","failed_video","rt","stimulus","response","button_pressed","task_part","key_press","answer","correct"
"pavlovia","0","3","0.0-0.0","4378","approach_avoid_sv1","""event"",""trial"",""time""
""fullscreenenter"",""1"",""7706""
","
","
","""event"",""trial"",""time""
""fullscreenenter"",""1"",""7706""
","
","","","","","","","","","","","","",""
"fullscreen","1","8693","0.0-1.0","4378","approach_avoid_sv1","""event"",""trial"",""time""
""fullscreenenter"",""1"",""7706""
","
","
","""event"",""trial"",""time""
""fullscreenenter"",""1"",""7706""
","
","true","","","","","","","","","","","",""
"preload","2","12112","0.0-2.0","4378","approach_avoid_sv1","""event"",""trial"",""time""
""fullscreenenter"",""1"",""7706""
","
","
","""event"",""trial"",""time""
""fullscreenenter"",""1"",""7706""
","
","true","false","[]","[]","[]","","","","","","","",""
"preload","3","15137","0.0-3.0","4378","approach_avoid_sv1","""event"",""trial"",""time""
""fullscreenenter"",""1"",""7706""
","
","
","""event"",""trial"",""time""
""fullscreenenter"",""1"",""7706""
","
","true","false","[]","[]","[]","","","","","","","",""
"preload","4","15419","0.0-4.0","4378","approach_avoid_sv1","""event"",""trial"",""time""
""fullscreenenter"",""1"",""7706""
","
","
","""event"",""trial"",""time""
""fullscreenenter"",""1"",""7706""
","
","true","false","[]","[]","[]","","","","","","","",""
"audio-keyboard-response","5","17718","0.0-5.0","4378","approach_avoid_sv1","""event"",""trial"",""time""
""fullscreenenter"",""1"",""7706""
","
","
","""event"",""trial"",""time""
""fullscreenenter"",""1"",""7706""
","
","","","","","","2293.3333333333335","audio/beep_loop.wav"," ","","","","",""
"audio-button-response","6","19618","0.0-6.0","4378","approach_avoid_sv1","""event"",""trial"",""time""
""fullscreenenter"",""1"",""7706""
","
","
","""event"",""trial"",""time""
""fullscreenenter"",""1"",""7706""
","
","","","","","","1899","audio/turtle.wav","3","","","","",""
"audio-button-response","7","21931","0.0-7.0","4378","approach_avoid_sv1","""event"",""trial"",""time""
""fullscreenenter"",""1"",""7706""
","
","
","""event"",""trial"",""time""
""fullscreenenter"",""1"",""7706""
","
","","","","","","1291","audio/shark.wav","2","","","","",""
"preload","8","26378","0.0-8.0","4378","approach_avoid_sv1","""event"",""trial"",""time""
""fullscreenenter"",""1"",""7706""
","
","
","""event"",""trial"",""time""
""fullscreenenter"",""1"",""7706""
","
","true","false","[]","[]","[]","","","","","","","",""
"learning-instructions","9","35175","0.0-9.0-0.0","4378","approach_avoid_sv1","""event"",""trial"",""time""
""fullscreenenter"",""1"",""7706""
","
","
","""event"",""trial"",""time""
""fullscreenenter"",""1"",""7706""
","
","","","","","","4319.700000047684","<p> Welcome back! </p><p> Last week, you had to make choices about lots of different items.  </p>","","0","instructions","","",""
"learning-instructions","10","43539","0.0-9.0-0.1","4378","approach_avoid_sv1","""event"",""trial"",""time""
""fullscreenenter"",""1"",""7706""
","
","
","""event"",""trial"",""time""
""fullscreenenter"",""1"",""7706""
","
","","","","","","4247.600000143051","<p> Today, we are going to ask you to try to remember all the items. </p>","","0","instructions","","",""
"learning-instructions","11","56057","0.0-9.0-0.2","4378","approach_avoid_sv1","""event"",""trial"",""time""
""fullscreenenter"",""1"",""7706""
","
","
","""event"",""trial"",""time""
""fullscreenenter"",""1"",""7706""
","
","","","","","","2375.399999856949","<p> On every trial, you will see an image. </p><p> The image may be an OLD image you saw during the games last week or it may be a NEW image that was not presented. </p>","","0","instructions","","",""
"learning-instructions","12","66698","0.0-9.0-0.3","4378","approach_avoid_sv1","""event"",""trial"",""time""
""fullscreenenter"",""1"",""7706""
","
","
","""event"",""trial"",""time""
""fullscreenenter"",""1"",""7706""
","
","","","","","","2146.7999999523163","<p> You need to select whether the image is:  </p><p>  'Definitely old', 'Maybe old', 'Maybe new', or 'Definitely new.'  </p><div class=""mem-choice-instructions-grid""><div class=""choice-option"" id=""choice-option-1"" ><img src=""images/definitely_old_1.png"" id=""choice-option-img-1"" class=""choice-option-img"" stage=""1""></div><div class=""choice-option"" id=""choice-option-2"" ><img src=""images/maybe_old_1.png"" id=""choice-option-img-2"" class=""choice-option-img"" stage=""1""></div><div class=""choice-option"" id=""choice-option-3"" ><img src=""images/maybe_new_1.png"" id=""choice-option-img-3"" class=""choice-option-img"" stage=""1""></div><div class=""choice-option"" id=""choice-option-4"" > <img src=""images/definitely_new_1.png"" id=""choice-option-img-4"" class=""choice-option-img"" stage=""1""></div></div>","","0","instructions","","",""
"learning-instructions","13","74736","0.0-9.0-0.4","4378","approach_avoid_sv1","""event"",""trial"",""time""
""fullscreenenter"",""1"",""7706""
","
","
","""event"",""trial"",""time""
""fullscreenenter"",""1"",""7706""
","
","","","","","","1512.5999999046326","<p> You should use the 1, 2, 3, and 4 keys to make your responses.  </p><div class=""mem-choice-instructions-grid""><div class=""choice-option"" id=""choice-option-1"" ><img src=""images/definitely_old.png"" id=""choice-option-img-1"" class=""choice-option-img"" stage=""1""></div><div class=""choice-option"" id=""choice-option-2"" ><img src=""images/maybe_old.png"" id=""choice-option-img-2"" class=""choice-option-img"" stage=""1""></div><div class=""choice-option"" id=""choice-option-3"" ><img src=""images/maybe_new.png"" id=""choice-option-img-3"" class=""choice-option-img"" stage=""1""></div><div class=""choice-option"" id=""choice-option-4"" > <img src=""images/definitely_new.png"" id=""choice-option-img-4"" class=""choice-option-img"" stage=""1""></div></div>","","0","instructions","","",""
"learning-instructions","14","82691","0.0-9.0-0.5","4378","approach_avoid_sv1","""event"",""trial"",""time""
""fullscreenenter"",""1"",""7706""
","
","
","""event"",""trial"",""time""
""fullscreenenter"",""1"",""7706""
","
","","","","","","1617.7000000476837","<p> You will have 10 seconds to make each response.  </p><p>  Make sure to respond before time runs out! </p>","","0","instructions","","",""
"learning-instructions","15","93039","0.0-9.0-0.6","4378","approach_avoid_sv1","""event"",""trial"",""time""
""fullscreenenter"",""1"",""7706""
","
","
","""event"",""trial"",""time""
""fullscreenenter"",""1"",""7706""
","
","","","","","","3272.399999856949","<p> Today, you will see each image ONCE only.  </p><p>  That means none of the images will repeat. </p>","","0","instructions","","",""
"learning-instructions","16","107989","0.0-9.0-0.7","4378","approach_avoid_sv1","""event"",""trial"",""time""
""fullscreenenter"",""1"",""7706""
","
","
","""event"",""trial"",""time""
""fullscreenenter"",""1"",""7706""
","
","","","","","","2264.600000143051","<p> Before you play the real game, it is time to practice. </p><p>  Just like in the real game, some of the images in the practice will be ones you have seen before. </p><p>  Others will be entirely new. </p>","","0","instructions","","",""
"html-button-response","17","111116","0.0-10.0","4378","approach_avoid_sv1","""event"",""trial"",""time""
""fullscreenenter"",""1"",""7706""
","
","
","""event"",""trial"",""time""
""fullscreenenter"",""1"",""7706""
","
","","","","","","3010.5","<p> Ready to practice? </p><p> Remember, use the 1, 2, 3, and 4 keys to make your responses. </p>","0","","instructions","","",""
"html-keyboard-response","18","111741","0.0-11.0-0.0","4378","approach_avoid_sv1","""event"",""trial"",""time""
""fullscreenenter"",""1"",""7706""
","
","
","""event"",""trial"",""time""
""fullscreenenter"",""1"",""7706""
","
","","","","","","null","<div style=""font-size:60px;"">+</div>","null","","fixation","","",""
"memory-trial","19","116066","0.0-11.0-1.0","4378","approach_avoid_sv1","""event"",""trial"",""time""
""fullscreenenter"",""1"",""7706""
","
","
","""event"",""trial"",""time""
""fullscreenenter"",""1"",""7706""
","
","","","","","","3301","images/racket3.png","","","practice","2","maybe_old",""
"html-keyboard-response","20","116572","0.0-11.0-0.1","4378","approach_avoid_sv1","""event"",""trial"",""time""
""fullscreenenter"",""1"",""7706""
","
","
","""event"",""trial"",""time""
""fullscreenenter"",""1"",""7706""
","
","","","","","","null","<div style=""font-size:60px;"">+</div>","null","","fixation","","",""
"memory-trial","21","120523","0.0-11.0-1.1","4378","approach_avoid_sv1","""event"",""trial"",""time""
""fullscreenenter"",""1"",""7706""
","
","
","""event"",""trial"",""time""
""fullscreenenter"",""1"",""7706""
","
","","","","","","2933.600000143051","images/ball2.png","","","practice","1","definitely_old",""
"html-keyboard-response","22","121039","0.0-11.0-0.2","4378","approach_avoid_sv1","""event"",""trial"",""time""
""fullscreenenter"",""1"",""7706""
","
","
","""event"",""trial"",""time""
""fullscreenenter"",""1"",""7706""
","
","","","","","","null","<div style=""font-size:60px;"">+</div>","null","","fixation","","",""
"memory-trial","23","123633","0.0-11.0-1.2","4378","approach_avoid_sv1","""event"",""trial"",""time""
""fullscreenenter"",""1"",""7706""
","
","
","""event"",""trial"",""time""
""fullscreenenter"",""1"",""7706""
","
","","","","","","1579.8000001907349","images/racket1.png","","","practice","1","definitely_old",""
"html-keyboard-response","24","124151","0.0-11.0-0.3","4378","approach_avoid_sv1","""event"",""trial"",""time""
""fullscreenenter"",""1"",""7706""
","
","
","""event"",""trial"",""time""
""fullscreenenter"",""1"",""7706""
","
","","","","","","null","<div style=""font-size:60px;"">+</div>","null","","fixation","","",""
"memory-trial","25","125820","0.0-11.0-1.3","4378","approach_avoid_sv1","""event"",""trial"",""time""
""fullscreenenter"",""1"",""7706""
","
","
","""event"",""trial"",""time""
""fullscreenenter"",""1"",""7706""
","
","","","","","","656.0999999046326","images/ball1.png","","","practice","1","definitely_old",""
"html-keyboard-response","26","126326","0.0-11.0-0.4","4378","approach_avoid_sv1","""event"",""trial"",""time""
""fullscreenenter"",""1"",""7706""
","
","
","""event"",""trial"",""time""
""fullscreenenter"",""1"",""7706""
","
","","","","","","null","<div style=""font-size:60px;"">+</div>","null","","fixation","","",""
"memory-trial","27","128572","0.0-11.0-1.4","4378","approach_avoid_sv1","""event"",""trial"",""time""
""fullscreenenter"",""1"",""7706""
","
","
","""event"",""trial"",""time""
""fullscreenenter"",""1"",""7706""
","
","","","","","","1230.7000000476837","images/racket2.png","","","practice","2","maybe_old",""
"html-keyboard-response","28","129083","0.0-11.0-0.5","4378","approach_avoid_sv1","""event"",""trial"",""time""
""fullscreenenter"",""1"",""7706""
","
","
","""event"",""trial"",""time""
""fullscreenenter"",""1"",""7706""
","
","","","","","","null","<div style=""font-size:60px;"">+</div>","null","","fixation","","",""
"memory-trial","29","131601","0.0-11.0-1.5","4378","approach_avoid_sv1","""event"",""trial"",""time""
""fullscreenenter"",""1"",""7706""
","
","
","""event"",""trial"",""time""
""fullscreenenter"",""1"",""7706""
","
","","","","","","1507.8000001907349","images/racket5.png","","","practice","1","definitely_old",""
"html-keyboard-response","30","132118","0.0-11.0-0.6","4378","approach_avoid_sv1","""event"",""trial"",""time""
""fullscreenenter"",""1"",""7706""
","
","
","""event"",""trial"",""time""
""fullscreenenter"",""1"",""7706""
","
","","","","","","null","<div style=""font-size:60px;"">+</div>","null","","fixation","","",""
"memory-trial","31","134480","0.0-11.0-1.6","4378","approach_avoid_sv1","""event"",""trial"",""time""
""fullscreenenter"",""1"",""7706""
","
","
","""event"",""trial"",""time""
""fullscreenenter"",""1"",""7706""
","
","","","","","","1339.2999999523163","images/ball5.png","","","practice","1","definitely_old",""
"html-keyboard-response","32","134988","0.0-11.0-0.7","4378","approach_avoid_sv1","""event"",""trial"",""time""
""fullscreenenter"",""1"",""7706""
","
","
","""event"",""trial"",""time""
""fullscreenenter"",""1"",""7706""
","
","","","","","","null","<div style=""font-size:60px;"">+</div>","null","","fixation","","",""
"memory-trial","33","138460","0.0-11.0-1.7","4378","approach_avoid_sv1","""event"",""trial"",""time""
""fullscreenenter"",""1"",""7706""
","
","
","""event"",""trial"",""time""
""fullscreenenter"",""1"",""7706""
","
","","","","","","2460","images/ball3.png","","","practice","2","maybe_old",""
"learning-instructions","34","148395","0.0-12.0-0.0","4378","approach_avoid_sv1","""event"",""trial"",""time""
""fullscreenenter"",""1"",""7706""
","
","
","""event"",""trial"",""time""
""fullscreenenter"",""1"",""7706""
","
","","","","","","2644.699999809265","<p> Great! You have completed the practice. </p><p> Before you start, we're going to ask you a few questions about how the game works.  </p>","","0","instructions","","",""
"preload","35","152221","0.0-13.0","4378","approach_avoid_sv1","""event"",""trial"",""time""
""fullscreenenter"",""1"",""7706""
","
","
","""event"",""trial"",""time""
""fullscreenenter"",""1"",""7706""
","
","true","false","[]","[]","[]","","","","","","","",""
"comp-q","36","159341","0.0-14.0-0.0","4378","approach_avoid_sv1","""event"",""trial"",""time""
""fullscreenenter"",""1"",""7706""
","
","
","""event"",""trial"",""time""
""fullscreenenter"",""1"",""7706""
","
","","","","","","1292.5","<p> <b> True or False? </b> </p><p> In this game, you will only see each image once. </p>","","0","comp_question","","","true"
"comp-q","37","168264","0.0-14.0-1.0","4378","approach_avoid_sv1","""event"",""trial"",""time""
""fullscreenenter"",""1"",""7706""
","
","
","""event"",""trial"",""time""
""fullscreenenter"",""1"",""7706""
","
","","","","","","2578.7000000476837","<p> <b> That's right! </b> You will see many different images <i> one time each </i> in this game. </p>","","0","comp_answer","","",""
"comp-q","38","174053","0.0-15.0-0.0","4378","approach_avoid_sv1","""event"",""trial"",""time""
""fullscreenenter"",""1"",""7706""
","
","
","""event"",""trial"",""time""
""fullscreenenter"",""1"",""7706""
","
","","","","","","773.8999998569489","<p> <b> True or False? </b> </p><p> You should use the mouse and click to make your response. </p>","","1","comp_question","","","true"
"comp-q","39","182779","0.0-15.0-1.0","4378","approach_avoid_sv1","""event"",""trial"",""time""
""fullscreenenter"",""1"",""7706""
","
","
","""event"",""trial"",""time""
""fullscreenenter"",""1"",""7706""
","
","","","","","","2213.300000190735","<p><b> That's right! </b> You should use the '1', '2', '3', and '4' keys to make your response. </p>","","0","comp_answer","","",""
"comp-q","40","189591","0.0-16.0-0.0","4378","approach_avoid_sv1","""event"",""trial"",""time""
""fullscreenenter"",""1"",""7706""
","
","
","""event"",""trial"",""time""
""fullscreenenter"",""1"",""7706""
","
","","","","","","1122.5","<p> <b> True or False? </b> </p><p> You will have as much time as you want to make each choice. </p>","","1","comp_question","","","true"
"comp-q","41","195561","0.0-16.0-1.0","4378","approach_avoid_sv1","""event"",""trial"",""time""
""fullscreenenter"",""1"",""7706""
","
","
","""event"",""trial"",""time""
""fullscreenenter"",""1"",""7706""
","
","","","","","","1257.2000000476837","<p> <b> That's right! </b> You will only have 10 seconds to make each choice. </p>","","0","comp_answer","","",""
"learning-instructions","42","206930","0.0-17.0","4378","approach_avoid_sv1","""event"",""trial"",""time""
""fullscreenenter"",""1"",""7706""
","
","
","""event"",""trial"",""time""
""fullscreenenter"",""1"",""7706""
","
","","","","","","2694.7000000476837","<p> Great! You are now ready to begin the game. </p><p> Remember, use the 1, 2, 3, and 4 keys to make your responses. </p>","","0","instructions","","",""
"html-keyboard-response","43","207555","0.0-18.0-0.0","4378","approach_avoid_sv1","""event"",""trial"",""time""
""fullscreenenter"",""1"",""7706""
","
","
","""event"",""trial"",""time""
""fullscreenenter"",""1"",""7706""
","
","","","","","","null","<div style=""font-size:60px;"">+</div>","null","","fixation","","",""
"memory-trial","44","210585","0.0-18.0-1.0","4378","approach_avoid_sv1","""event"",""trial"",""time""
""fullscreenenter"",""1"",""7706""
","
","
","""event"",""trial"",""time""
""fullscreenenter"",""1"",""7706""
","
","","","","","","2021.3999998569489","images/cat1.png","","","memory_trial","4","definitely_new",""
"html-keyboard-response","45","211093","0.0-18.0-0.1","4378","approach_avoid_sv1","""event"",""trial"",""time""
""fullscreenenter"",""1"",""7706""
","
","
","""event"",""trial"",""time""
""fullscreenenter"",""1"",""7706""
","
","","","","","","null","<div style=""font-size:60px;"">+</div>","null","","fixation","","",""
"memory-trial","46","214271","0.0-18.0-1.1","4378","approach_avoid_sv1","""event"",""trial"",""time""
""fullscreenenter"",""1"",""7706""
","
","
","""event"",""trial"",""time""
""fullscreenenter"",""1"",""7706""
","
","","","","","","2164","images/truck7.png","","","memory_trial","1","definitely_old",""
"html-keyboard-response","47","214789","0.0-18.0-0.2","4378","approach_avoid_sv1","""event"",""trial"",""time""
""fullscreenenter"",""1"",""7706""
","
","
","""event"",""trial"",""time""
""fullscreenenter"",""1"",""7706""
","
","","","","","","null","<div style=""font-size:60px;"">+</div>","null","","fixation","","",""
"memory-trial","48","218799","0.0-18.0-1.2","4378","approach_avoid_sv1","""event"",""trial"",""time""
""fullscreenenter"",""1"",""7706""
","
","
","""event"",""trial"",""time""
""fullscreenenter"",""1"",""7706""
","
","","","","","","3002.800000190735","images/orange3.png","","","memory_trial","1","definitely_old",""
"html-keyboard-response","49","219311","0.0-18.0-0.3","4378","approach_avoid_sv1","""event"",""trial"",""time""
""fullscreenenter"",""1"",""7706""
","
","
","""event"",""trial"",""time""
""fullscreenenter"",""1"",""7706""
","
","","","","","","null","<div style=""font-size:60px;"">+</div>","null","","fixation","","",""
"memory-trial","50","221371","0.0-18.0-1.3","4378","approach_avoid_sv1","""event"",""trial"",""time""
""fullscreenenter"",""1"",""7706""
","
","
","""event"",""trial"",""time""
""fullscreenenter"",""1"",""7706""
","
","","","","","","1049.1000001430511","images/bed7.png","","","memory_trial","1","definitely_old",""
"html-keyboard-response","51","221876","0.0-18.0-0.4","4378","approach_avoid_sv1","""event"",""trial"",""time""
""fullscreenenter"",""1"",""7706""
","
","
","""event"",""trial"",""time""
""fullscreenenter"",""1"",""7706""
","
","","","","","","null","<div style=""font-size:60px;"">+</div>","null","","fixation","","",""
"memory-trial","52","223871","0.0-18.0-1.4","4378","approach_avoid_sv1","""event"",""trial"",""time""
""fullscreenenter"",""1"",""7706""
","
","
","""event"",""trial"",""time""
""fullscreenenter"",""1"",""7706""
","
","","","","","","988.1000001430511","images/sheep8.png","","","memory_trial","1","definitely_old",""
"html-keyboard-response","53","224389","0.0-18.0-0.5","4378","approach_avoid_sv1","""event"",""trial"",""time""
""fullscreenenter"",""1"",""7706""
","
","
","""event"",""trial"",""time""
""fullscreenenter"",""1"",""7706""
","
","","","","","","null","<div style=""font-size:60px;"">+</div>","null","","fixation","","",""
"memory-trial","54","226250","0.0-18.0-1.5","4378","approach_avoid_sv1","""event"",""trial"",""time""
""fullscreenenter"",""1"",""7706""
","
","
","""event"",""trial"",""time""
""fullscreenenter"",""1"",""7706""
","
","","","","","","845.3999998569489","images/sheep4.png","","","memory_trial","1","definitely_old",""
"html-keyboard-response","55","226762","0.0-18.0-0.6","4378","approach_avoid_sv1","""event"",""trial"",""time""
""fullscreenenter"",""1"",""7706""
","
","
","""event"",""trial"",""time""
""fullscreenenter"",""1"",""7706""
","
","","","","","","null","<div style=""font-size:60px;"">+</div>","null","","fixation","","",""
"memory-trial","56","229418","0.0-18.0-1.6","4378","approach_avoid_sv1","""event"",""trial"",""time""
""fullscreenenter"",""1"",""7706""
","
","
","""event"",""trial"",""time""
""fullscreenenter"",""1"",""7706""
","
","","","","","","1634.0999999046326","images/rodent6.png","","","memory_trial","4","definitely_new",""
"html-keyboard-response","57","229925","0.0-18.0-0.7","4378","approach_avoid_sv1","""event"",""trial"",""time""
""fullscreenenter"",""1"",""7706""
","
","
","""event"",""trial"",""time""
""fullscreenenter"",""1"",""7706""
","
","","","","","","null","<div style=""font-size:60px;"">+</div>","null","","fixation","","",""
"memory-trial","58","231963","0.0-18.0-1.7","4378","approach_avoid_sv1","""event"",""trial"",""time""
""fullscreenenter"",""1"",""7706""
","
","
","""event"",""trial"",""time""
""fullscreenenter"",""1"",""7706""
","
","","","","","","1029.4000000953674","images/rabbit6.png","","","memory_trial","1","definitely_old",""
"html-keyboard-response","59","232474","0.0-18.0-0.8","4378","approach_avoid_sv1","""event"",""trial"",""time""
""fullscreenenter"",""1"",""7706""
","
","
","""event"",""trial"",""time""
""fullscreenenter"",""1"",""7706""
","
","","","","","","null","<div style=""font-size:60px;"">+</div>","null","","fixation","","",""
"memory-trial","60","236660","0.0-18.0-1.8","4378","approach_avoid_sv1","""event"",""trial"",""time""
""fullscreenenter"",""1"",""7706""
","
","
","""event"",""trial"",""time""
""fullscreenenter"",""1"",""7706""
","
","","","","","","3180","images/plane8.png","","","memory_trial","4","definitely_new",""
"html-keyboard-response","61","237164","0.0-18.0-0.9","4378","approach_avoid_sv1","""event"",""trial"",""time""
""fullscreenenter"",""1"",""7706""
","
","
","""event"",""trial"",""time""
""fullscreenenter"",""1"",""7706""
","
","","","","","","null","<div style=""font-size:60px;"">+</div>","null","","fixation","","",""
"memory-trial","62","239031","0.0-18.0-1.9","4378","approach_avoid_sv1","""event"",""trial"",""time""
""fullscreenenter"",""1"",""7706""
","
","
","""event"",""trial"",""time""
""fullscreenenter"",""1"",""7706""
","
","","","","","","849.8000001907349","images/sofa7.png","","","memory_trial","1","definitely_old",""
"html-keyboard-response","63","239540","0.0-18.0-0.10","4378","approach_avoid_sv1","""event"",""trial"",""time""
""fullscreenenter"",""1"",""7706""
","
","
","""event"",""trial"",""time""
""fullscreenenter"",""1"",""7706""
","
","","","","","","null","<div style=""font-size:60px;"">+</div>","null","","fixation","","",""
"memory-trial","64","242283","0.0-18.0-1.10","4378","approach_avoid_sv1","""event"",""trial"",""time""
""fullscreenenter"",""1"",""7706""
","
","
","""event"",""trial"",""time""
""fullscreenenter"",""1"",""7706""
","
","","","","","","1737.5","images/tree1.png","","","memory_trial","1","definitely_old",""
"html-keyboard-response","65","242787","0.0-18.0-0.11","4378","approach_avoid_sv1","""event"",""trial"",""time""
""fullscreenenter"",""1"",""7706""
","
","
","""event"",""trial"",""time""
""fullscreenenter"",""1"",""7706""
","
","","","","","","null","<div style=""font-size:60px;"">+</div>","null","","fixation","","",""
"memory-trial","66","244547","0.0-18.0-1.11","4378","approach_avoid_sv1","""event"",""trial"",""time""
""fullscreenenter"",""1"",""7706""
","
","
","""event"",""trial"",""time""
""fullscreenenter"",""1"",""7706""
","
","","","","","","749.4000000953674","images/table1.png","","","memory_trial","1","definitely_old",""
"html-keyboard-response","67","245051","0.0-18.0-0.12","4378","approach_avoid_sv1","""event"",""trial"",""time""
""fullscreenenter"",""1"",""7706""
","
","
","""event"",""trial"",""time""
""fullscreenenter"",""1"",""7706""
","
","","","","","","null","<div style=""font-size:60px;"">+</div>","null","","fixation","","",""
"memory-trial","68","247515","0.0-18.0-1.12","4378","approach_avoid_sv1","""event"",""trial"",""time""
""fullscreenenter"",""1"",""7706""
","
","
","""event"",""trial"",""time""
""fullscreenenter"",""1"",""7706""
","
","","","","","","1460.5","images/cat6.png","","","memory_trial","1","definitely_old",""
"html-keyboard-response","69","248033","0.0-18.0-0.13","4378","approach_avoid_sv1","""event"",""trial"",""time""
""fullscreenenter"",""1"",""7706""
","
","
","""event"",""trial"",""time""
""fullscreenenter"",""1"",""7706""
","
","","","","","","null","<div style=""font-size:60px;"">+</div>","null","","fixation","","",""
"memory-trial","70","250307","0.0-18.0-1.13","4378","approach_avoid_sv1","""event"",""trial"",""time""
""fullscreenenter"",""1"",""7706""
","
","
","""event"",""trial"",""time""
""fullscreenenter"",""1"",""7706""
","
","","","","","","1266.3999998569489","images/train8.png","","","memory_trial","1","definitely_old",""
"html-keyboard-response","71","250811","0.0-18.0-0.14","4378","approach_avoid_sv1","""event"",""trial"",""time""
""fullscreenenter"",""1"",""7706""
","
","
","""event"",""trial"",""time""
""fullscreenenter"",""1"",""7706""
","
","","","","","","null","<div style=""font-size:60px;"">+</div>","null","","fixation","","",""
"memory-trial","72","252898","0.0-18.0-1.14","4378","approach_avoid_sv1","""event"",""trial"",""time""
""fullscreenenter"",""1"",""7706""
","
","
","""event"",""trial"",""time""
""fullscreenenter"",""1"",""7706""
","
","","","","","","1080.5999999046326","images/boat3.png","","","memory_trial","4","definitely_new",""
"html-keyboard-response","73","253403","0.0-18.0-0.15","4378","approach_avoid_sv1","""event"",""trial"",""time""
""fullscreenenter"",""1"",""7706""
","
","
","""event"",""trial"",""time""
""fullscreenenter"",""1"",""7706""
","
","","","","","","null","<div style=""font-size:60px;"">+</div>","null","","fixation","","",""
"memory-trial","74","255795","0.0-18.0-1.15","4378","approach_avoid_sv1","""event"",""trial"",""time""
""fullscreenenter"",""1"",""7706""
","
","
","""event"",""trial"",""time""
""fullscreenenter"",""1"",""7706""
","
","","","","","","1385.9000000953674","images/apple1.png","","","memory_trial","4","definitely_new",""
"html-keyboard-response","75","256306","0.0-18.0-0.16","4378","approach_avoid_sv1","""event"",""trial"",""time""
""fullscreenenter"",""1"",""7706""
","
","
","""event"",""trial"",""time""
""fullscreenenter"",""1"",""7706""
","
","","","","","","null","<div style=""font-size:60px;"">+</div>","null","","fixation","","",""
"memory-trial","76","260139","0.0-18.0-1.16","4378","approach_avoid_sv1","""event"",""trial"",""time""
""fullscreenenter"",""1"",""7706""
","
","
","""event"",""trial"",""time""
""fullscreenenter"",""1"",""7706""
","
","","","","","","2823.7000000476837","images/horse6.png","","","memory_trial","2","maybe_old",""
"html-keyboard-response","77","260643","0.0-18.0-0.17","4378","approach_avoid_sv1","""event"",""trial"",""time""
""fullscreenenter"",""1"",""7706""
","
","
","""event"",""trial"",""time""
""fullscreenenter"",""1"",""7706""
","
","","","","","","null","<div style=""font-size:60px;"">+</div>","null","","fixation","","",""
"memory-trial","78","263275","0.0-18.0-1.17","4378","approach_avoid_sv1","""event"",""trial"",""time""
""fullscreenenter"",""1"",""7706""
","
","
","""event"",""trial"",""time""
""fullscreenenter"",""1"",""7706""
","
","","","","","","1621","images/straw2.png","","","memory_trial","4","definitely_new",""
"html-keyboard-response","79","263779","0.0-18.0-0.18","4378","approach_avoid_sv1","""event"",""trial"",""time""
""fullscreenenter"",""1"",""7706""
","
","
","""event"",""trial"",""time""
""fullscreenenter"",""1"",""7706""
","
","","","","","","null","<div style=""font-size:60px;"">+</div>","null","","fixation","","",""
"memory-trial","80","265603","0.0-18.0-1.18","4378","approach_avoid_sv1","""event"",""trial"",""time""
""fullscreenenter"",""1"",""7706""
","
","
","""event"",""trial"",""time""
""fullscreenenter"",""1"",""7706""
","
","","","","","","820.3999998569489","images/flower3.png","","","memory_trial","4","definitely_new",""
"html-keyboard-response","81","266112","0.0-18.0-0.19","4378","approach_avoid_sv1","""event"",""trial"",""time""
""fullscreenenter"",""1"",""7706""
","
","
","""event"",""trial"",""time""
""fullscreenenter"",""1"",""7706""
","
","","","","","","null","<div style=""font-size:60px;"">+</div>","null","","fixation","","",""
"memory-trial","82","269371","0.0-18.0-1.19","4378","approach_avoid_sv1","""event"",""trial"",""time""
""fullscreenenter"",""1"",""7706""
","
","
","""event"",""trial"",""time""
""fullscreenenter"",""1"",""7706""
","
","","","","","","2248.9000000953674","images/apple2.png","","","memory_trial","3","maybe_new",""
"html-keyboard-response","83","269874","0.0-18.0-0.20","4378","approach_avoid_sv1","""event"",""trial"",""time""
""fullscreenenter"",""1"",""7706""
","
","
","""event"",""trial"",""time""
""fullscreenenter"",""1"",""7706""
","
","","","","","","null","<div style=""font-size:60px;"">+</div>","null","","fixation","","",""
"memory-trial","84","272826","0.0-18.0-1.20","4378","approach_avoid_sv1","""event"",""trial"",""time""
""fullscreenenter"",""1"",""7706""
","
","
","""event"",""trial"",""time""
""fullscreenenter"",""1"",""7706""
","
","","","","","","1949","images/rabbit3.png","","","memory_trial","3","maybe_new",""
"html-keyboard-response","85","273332","0.0-18.0-0.21","4378","approach_avoid_sv1","""event"",""trial"",""time""
""fullscreenenter"",""1"",""7706""
","
","
","""event"",""trial"",""time""
""fullscreenenter"",""1"",""7706""
","
","","","","","","null","<div style=""font-size:60px;"">+</div>","null","","fixation","","",""
"memory-trial","86","276122","0.0-18.0-1.21","4378","approach_avoid_sv1","""event"",""trial"",""time""
""fullscreenenter"",""1"",""7706""
","
","
","""event"",""trial"",""time""
""fullscreenenter"",""1"",""7706""
","
","","","","","","1785.6000001430511","images/boat6.png","","","memory_trial","3","maybe_new",""
"html-keyboard-response","87","276627","0.0-18.0-0.22","4378","approach_avoid_sv1","""event"",""trial"",""time""
""fullscreenenter"",""1"",""7706""
","
","
","""event"",""trial"",""time""
""fullscreenenter"",""1"",""7706""
","
","","","","","","null","<div style=""font-size:60px;"">+</div>","null","","fixation","","",""
"memory-trial","88","278955","0.0-18.0-1.22","4378","approach_avoid_sv1","""event"",""trial"",""time""
""fullscreenenter"",""1"",""7706""
","
","
","""event"",""trial"",""time""
""fullscreenenter"",""1"",""7706""
","
","","","","","","1319.3000001907349","images/cactus2.png","","","memory_trial","1","definitely_old",""
"html-keyboard-response","89","279459","0.0-18.0-0.23","4378","approach_avoid_sv1","""event"",""trial"",""time""
""fullscreenenter"",""1"",""7706""
","
","
","""event"",""trial"",""time""
""fullscreenenter"",""1"",""7706""
","
","","","","","","null","<div style=""font-size:60px;"">+</div>","null","","fixation","","",""
"memory-trial","90","282175","0.0-18.0-1.23","4378","approach_avoid_sv1","""event"",""trial"",""time""
""fullscreenenter"",""1"",""7706""
","
","
","""event"",""trial"",""time""
""fullscreenenter"",""1"",""7706""
","
","","","","","","1696.1999998092651","images/cow4.png","","","memory_trial","4","definitely_new",""
"html-keyboard-response","91","282682","0.0-18.0-0.24","4378","approach_avoid_sv1","""event"",""trial"",""time""
""fullscreenenter"",""1"",""7706""
","
","
","""event"",""trial"",""time""
""fullscreenenter"",""1"",""7706""
","
","","","","","","null","<div style=""font-size:60px;"">+</div>","null","","fixation","","",""
"memory-trial","92","285386","0.0-18.0-1.24","4378","approach_avoid_sv1","""event"",""trial"",""time""
""fullscreenenter"",""1"",""7706""
","
","
","""event"",""trial"",""time""
""fullscreenenter"",""1"",""7706""
","
","","","","","","1694.7999999523163","images/cat5.png","","","memory_trial","1","definitely_old",""
"html-keyboard-response","93","285891","0.0-18.0-0.25","4378","approach_avoid_sv1","""event"",""trial"",""time""
""fullscreenenter"",""1"",""7706""
","
","
","""event"",""trial"",""time""
""fullscreenenter"",""1"",""7706""
","
","","","","","","null","<div style=""font-size:60px;"">+</div>","null","","fixation","","",""
"memory-trial","94","288955","0.0-18.0-1.25","4378","approach_avoid_sv1","""event"",""trial"",""time""
""fullscreenenter"",""1"",""7706""
","
","
","""event"",""trial"",""time""
""fullscreenenter"",""1"",""7706""
","
","","","","","","2056.0999999046326","images/goat1.png","","","memory_trial","3","maybe_new",""
"html-keyboard-response","95","289459","0.0-18.0-0.26","4378","approach_avoid_sv1","""event"",""trial"",""time""
""fullscreenenter"",""1"",""7706""
","
","
","""event"",""trial"",""time""
""fullscreenenter"",""1"",""7706""
","
","","","","","","null","<div style=""font-size:60px;"">+</div>","null","","fixation","","",""
"memory-trial","96","291571","0.0-18.0-1.26","4378","approach_avoid_sv1","""event"",""trial"",""time""
""fullscreenenter"",""1"",""7706""
","
","
","""event"",""trial"",""time""
""fullscreenenter"",""1"",""7706""
","
","","","","","","1104.8999998569489","images/cactus5.png","","","memory_trial","1","definitely_old",""
"html-keyboard-response","97","292075","0.0-18.0-0.27","4378","approach_avoid_sv1","""event"",""trial"",""time""
""fullscreenenter"",""1"",""7706""
","
","
","""event"",""trial"",""time""
""fullscreenenter"",""1"",""7706""
","
","","","","","","null","<div style=""font-size:60px;"">+</div>","null","","fixation","","",""
"memory-trial","98","295707","0.0-18.0-1.27","4378","approach_avoid_sv1","""event"",""trial"",""time""
""fullscreenenter"",""1"",""7706""
","
","
","""event"",""trial"",""time""
""fullscreenenter"",""1"",""7706""
","
","","","","","","2620.600000143051","images/table4.png","","","memory_trial","2","maybe_old",""
"html-keyboard-response","99","296211","0.0-18.0-0.28","4378","approach_avoid_sv1","""event"",""trial"",""time""
""fullscreenenter"",""1"",""7706""
","
","
","""event"",""trial"",""time""
""fullscreenenter"",""1"",""7706""
","
","","","","","","null","<div style=""font-size:60px;"">+</div>","null","","fixation","","",""
"memory-trial","100","298971","0.0-18.0-1.28","4378","approach_avoid_sv1","""event"",""trial"",""time""
""fullscreenenter"",""1"",""7706""
","
","
","""event"",""trial"",""time""
""fullscreenenter"",""1"",""7706""
","
","","","","","","1753.1000001430511","images/table2.png","","","memory_trial","4","definitely_new",""
"html-keyboard-response","101","299475","0.0-18.0-0.29","4378","approach_avoid_sv1","""event"",""trial"",""time""
""fullscreenenter"",""1"",""7706""
","
","
","""event"",""trial"",""time""
""fullscreenenter"",""1"",""7706""
","
","","","","","","null","<div style=""font-size:60px;"">+</div>","null","","fixation","","",""
"memory-trial","102","303299","0.0-18.0-1.29","4378","approach_avoid_sv1","""event"",""trial"",""time""
""fullscreenenter"",""1"",""7706""
","
","
","""event"",""trial"",""time""
""fullscreenenter"",""1"",""7706""
","
","","","","","","2814.899999856949","images/dog2.png","","","memory_trial","1","definitely_old",""
"html-keyboard-response","103","303803","0.0-18.0-0.30","4378","approach_avoid_sv1","""event"",""trial"",""time""
""fullscreenenter"",""1"",""7706""
","
","
","""event"",""trial"",""time""
""fullscreenenter"",""1"",""7706""
","
","","","","","","null","<div style=""font-size:60px;"">+</div>","null","","fixation","","",""
"memory-trial","104","306499","0.0-18.0-1.30","4378","approach_avoid_sv1","""event"",""trial"",""time""
""fullscreenenter"",""1"",""7706""
","
","
","""event"",""trial"",""time""
""fullscreenenter"",""1"",""7706""
","
","","","","","","1684.8000001907349","images/boat4.png","","","memory_trial","4","definitely_new",""
"html-keyboard-response","105","307004","0.0-18.0-0.31","4378","approach_avoid_sv1","""event"",""trial"",""time""
""fullscreenenter"",""1"",""7706""
","
","
","""event"",""trial"",""time""
""fullscreenenter"",""1"",""7706""
","
","","","","","","null","<div style=""font-size:60px;"">+</div>","null","","fixation","","",""
"memory-trial","106","310819","0.0-18.0-1.31","4378","approach_avoid_sv1","""event"",""trial"",""time""
""fullscreenenter"",""1"",""7706""
","
","
","""event"",""trial"",""time""
""fullscreenenter"",""1"",""7706""
","
","","","","","","2809.899999856949","images/cat7.png","","","memory_trial","2","maybe_old",""
"html-keyboard-response","107","311324","0.0-18.0-0.32","4378","approach_avoid_sv1","""event"",""trial"",""time""
""fullscreenenter"",""1"",""7706""
","
","
","""event"",""trial"",""time""
""fullscreenenter"",""1"",""7706""
","
","","","","","","null","<div style=""font-size:60px;"">+</div>","null","","fixation","","",""
"memory-trial","108","313475","0.0-18.0-1.32","4378","approach_avoid_sv1","""event"",""trial"",""time""
""fullscreenenter"",""1"",""7706""
","
","
","""event"",""trial"",""time""
""fullscreenenter"",""1"",""7706""
","
","","","","","","1148","images/bed2.png","","","memory_trial","1","definitely_old",""
"html-keyboard-response","109","313980","0.0-18.0-0.33","4378","approach_avoid_sv1","""event"",""trial"",""time""
""fullscreenenter"",""1"",""7706""
","
","
","""event"",""trial"",""time""
""fullscreenenter"",""1"",""7706""
","
","","","","","","null","<div style=""font-size:60px;"">+</div>","null","","fixation","","",""
"memory-trial","110","316443","0.0-18.0-1.33","4378","approach_avoid_sv1","""event"",""trial"",""time""
""fullscreenenter"",""1"",""7706""
","
","
","""event"",""trial"",""time""
""fullscreenenter"",""1"",""7706""
","
","","","","","","1456.2999999523163","images/truck5.png","","","memory_trial","1","definitely_old",""
"html-keyboard-response","111","316947","0.0-18.0-0.34","4378","approach_avoid_sv1","""event"",""trial"",""time""
""fullscreenenter"",""1"",""7706""
","
","
","""event"",""trial"",""time""
""fullscreenenter"",""1"",""7706""
","
","","","","","","null","<div style=""font-size:60px;"">+</div>","null","","fixation","","",""
"memory-trial","112","319055","0.0-18.0-1.34","4378","approach_avoid_sv1","""event"",""trial"",""time""
""fullscreenenter"",""1"",""7706""
","
","
","""event"",""trial"",""time""
""fullscreenenter"",""1"",""7706""
","
","","","","","","1088.6000001430511","images/horse2.png","","","memory_trial","1","definitely_old",""
"html-keyboard-response","113","319563","0.0-18.0-0.35","4378","approach_avoid_sv1","""event"",""trial"",""time""
""fullscreenenter"",""1"",""7706""
","
","
","""event"",""trial"",""time""
""fullscreenenter"",""1"",""7706""
","
","","","","","","null","<div style=""font-size:60px;"">+</div>","null","","fixation","","",""
"memory-trial","114","321507","0.0-18.0-1.35","4378","approach_avoid_sv1","""event"",""trial"",""time""
""fullscreenenter"",""1"",""7706""
","
","
","""event"",""trial"",""time""
""fullscreenenter"",""1"",""7706""
","
","","","","","","936.5","images/plane4.png","","","memory_trial","1","definitely_old",""
"html-keyboard-response","115","322011","0.0-18.0-0.36","4378","approach_avoid_sv1","""event"",""trial"",""time""
""fullscreenenter"",""1"",""7706""
","
","
","""event"",""trial"",""time""
""fullscreenenter"",""1"",""7706""
","
","","","","","","null","<div style=""font-size:60px;"">+</div>","null","","fixation","","",""
"memory-trial","116","325596","0.0-18.0-1.36","4378","approach_avoid_sv1","""event"",""trial"",""time""
""fullscreenenter"",""1"",""7706""
","
","
","""event"",""trial"",""time""
""fullscreenenter"",""1"",""7706""
","
","","","","","","2581","images/cow7.png","","","memory_trial","3","maybe_new",""
"html-keyboard-response","117","326100","0.0-18.0-0.37","4378","approach_avoid_sv1","""event"",""trial"",""time""
""fullscreenenter"",""1"",""7706""
","
","
","""event"",""trial"",""time""
""fullscreenenter"",""1"",""7706""
","
","","","","","","null","<div style=""font-size:60px;"">+</div>","null","","fixation","","",""
"memory-trial","118","328868","0.0-18.0-1.37","4378","approach_avoid_sv1","""event"",""trial"",""time""
""fullscreenenter"",""1"",""7706""
","
","
","""event"",""trial"",""time""
""fullscreenenter"",""1"",""7706""
","
","","","","","","1759.6000001430511","images/cat3.png","","","memory_trial","3","maybe_new",""
"html-keyboard-response","119","329371","0.0-18.0-0.38","4378","approach_avoid_sv1","""event"",""trial"",""time""
""fullscreenenter"",""1"",""7706""
","
","
","""event"",""trial"",""time""
""fullscreenenter"",""1"",""7706""
","
","","","","","","null","<div style=""font-size:60px;"">+</div>","null","","fixation","","",""
"memory-trial","120","331419","0.0-18.0-1.38","4378","approach_avoid_sv1","""event"",""trial"",""time""
""fullscreenenter"",""1"",""7706""
","
","
","""event"",""trial"",""time""
""fullscreenenter"",""1"",""7706""
","
","","","","","","1042","images/plane7.png","","","memory_trial","1","definitely_old",""
"html-keyboard-response","121","331923","0.0-18.0-0.39","4378","approach_avoid_sv1","""event"",""trial"",""time""
""fullscreenenter"",""1"",""7706""
","
","
","""event"",""trial"",""time""
""fullscreenenter"",""1"",""7706""
","
","","","","","","null","<div style=""font-size:60px;"">+</div>","null","","fixation","","",""
"memory-trial","122","335139","0.0-18.0-1.39","4378","approach_avoid_sv1","""event"",""trial"",""time""
""fullscreenenter"",""1"",""7706""
","
","
","""event"",""trial"",""time""
""fullscreenenter"",""1"",""7706""
","
","","","","","","2213.2000000476837","images/boat7.png","","","memory_trial","2","maybe_old",""
"html-keyboard-response","123","335643","0.0-18.0-0.40","4378","approach_avoid_sv1","""event"",""trial"",""time""
""fullscreenenter"",""1"",""7706""
","
","
","""event"",""trial"",""time""
""fullscreenenter"",""1"",""7706""
","
","","","","","","null","<div style=""font-size:60px;"">+</div>","null","","fixation","","",""
"memory-trial","124","338363","0.0-18.0-1.40","4378","approach_avoid_sv1","""event"",""trial"",""time""
""fullscreenenter"",""1"",""7706""
","
","
","""event"",""trial"",""time""
""fullscreenenter"",""1"",""7706""
","
","","","","","","1714.2000000476837","images/cow2.png","","","memory_trial","4","definitely_new",""
"html-keyboard-response","125","338883","0.0-18.0-0.41","4378","approach_avoid_sv1","""event"",""trial"",""time""
""fullscreenenter"",""1"",""7706""
","
","
","""event"",""trial"",""time""
""fullscreenenter"",""1"",""7706""
","
","","","","","","null","<div style=""font-size:60px;"">+</div>","null","","fixation","","",""
"memory-trial","126","342859","0.0-18.0-1.41","4378","approach_avoid_sv1","""event"",""trial"",""time""
""fullscreenenter"",""1"",""7706""
","
","
","""event"",""trial"",""time""
""fullscreenenter"",""1"",""7706""
","
","","","","","","2970.7000000476837","images/banana3.png","","","memory_trial","3","maybe_new",""
"html-button-response","127","346092","0.0-18.0-2.41-0.41","4378","approach_avoid_sv1","""event"",""trial"",""time""
""fullscreenenter"",""1"",""7706""
","
","
","""event"",""trial"",""time""
""fullscreenenter"",""1"",""7706""
","
","","","","","","3231.699999809265","<p> Take a break! </p><p> Click the button to continue. </p>","0","","break","","",""
"html-keyboard-response","128","346596","0.0-18.0-0.42","4378","approach_avoid_sv1","""event"",""trial"",""time""
""fullscreenenter"",""1"",""7706""
","
","
","""event"",""trial"",""time""
""fullscreenenter"",""1"",""7706""
","
","","","","","","null","<div style=""font-size:60px;"">+</div>","null","","fixation","","",""
"memory-trial","129","349547","0.0-18.0-1.42","4378","approach_avoid_sv1","""event"",""trial"",""time""
""fullscreenenter"",""1"",""7706""
","
","
","""event"",""trial"",""time""
""fullscreenenter"",""1"",""7706""
","
","","","","","","1946.6000001430511","images/tree4.png","","","memory_trial","3","maybe_new",""
"html-keyboard-response","130","350052","0.0-18.0-0.43","4378","approach_avoid_sv1","""event"",""trial"",""time""
""fullscreenenter"",""1"",""7706""
","
","
","""event"",""trial"",""time""
""fullscreenenter"",""1"",""7706""
","
","","","","","","null","<div style=""font-size:60px;"">+</div>","null","","fixation","","",""
"memory-trial","131","352963","0.0-18.0-1.43","4378","approach_avoid_sv1","""event"",""trial"",""time""
""fullscreenenter"",""1"",""7706""
","
","
","""event"",""trial"",""time""
""fullscreenenter"",""1"",""7706""
","
","","","","","","1908.1000001430511","images/train1.png","","","memory_trial","2","maybe_old",""
"html-keyboard-response","132","353467","0.0-18.0-0.44","4378","approach_avoid_sv1","""event"",""trial"",""time""
""fullscreenenter"",""1"",""7706""
","
","
","""event"",""trial"",""time""
""fullscreenenter"",""1"",""7706""
","
","","","","","","null","<div style=""font-size:60px;"">+</div>","null","","fixation","","",""
"memory-trial","133","356467","0.0-18.0-1.44","4378","approach_avoid_sv1","""event"",""trial"",""time""
""fullscreenenter"",""1"",""7706""
","
","
","""event"",""trial"",""time""
""fullscreenenter"",""1"",""7706""
","
","","","","","","1995.3999998569489","images/banana6.png","","","memory_trial","3","maybe_new",""
"html-keyboard-response","134","356971","0.0-18.0-0.45","4378","approach_avoid_sv1","""event"",""trial"",""time""
""fullscreenenter"",""1"",""7706""
","
","
","""event"",""trial"",""time""
""fullscreenenter"",""1"",""7706""
","
","","","","","","null","<div style=""font-size:60px;"">+</div>","null","","fixation","","",""
"memory-trial","135","359627","0.0-18.0-1.45","4378","approach_avoid_sv1","""event"",""trial"",""time""
""fullscreenenter"",""1"",""7706""
","
","
","""event"",""trial"",""time""
""fullscreenenter"",""1"",""7706""
","
","","","","","","1647.7999999523163","images/tree8.png","","","memory_trial","4","definitely_new",""
"html-keyboard-response","136","360131","0.0-18.0-0.46","4378","approach_avoid_sv1","""event"",""trial"",""time""
""fullscreenenter"",""1"",""7706""
","
","
","""event"",""trial"",""time""
""fullscreenenter"",""1"",""7706""
","
","","","","","","null","<div style=""font-size:60px;"">+</div>","null","","fixation","","",""
"memory-trial","137","363204","0.0-18.0-1.46","4378","approach_avoid_sv1","""event"",""trial"",""time""
""fullscreenenter"",""1"",""7706""
","
","
","""event"",""trial"",""time""
""fullscreenenter"",""1"",""7706""
","
","","","","","","2067.7000000476837","images/bush2.png","","","memory_trial","2","maybe_old",""
"html-keyboard-response","138","363707","0.0-18.0-0.47","4378","approach_avoid_sv1","""event"",""trial"",""time""
""fullscreenenter"",""1"",""7706""
","
","
","""event"",""trial"",""time""
""fullscreenenter"",""1"",""7706""
","
","","","","","","null","<div style=""font-size:60px;"">+</div>","null","","fixation","","",""
"memory-trial","139","367148","0.0-18.0-1.47","4378","approach_avoid_sv1","""event"",""trial"",""time""
""fullscreenenter"",""1"",""7706""
","
","
","""event"",""trial"",""time""
""fullscreenenter"",""1"",""7706""
","
","","","","","","2432.2999999523163","images/cow1.png","","","memory_trial","3","maybe_new",""
"html-keyboard-response","140","367651","0.0-18.0-0.48","4378","approach_avoid_sv1","""event"",""trial"",""time""
""fullscreenenter"",""1"",""7706""
","
","
","""event"",""trial"",""time""
""fullscreenenter"",""1"",""7706""
","
","","","","","","null","<div style=""font-size:60px;"">+</div>","null","","fixation","","",""
"memory-trial","141","369708","0.0-18.0-1.48","4378","approach_avoid_sv1","""event"",""trial"",""time""
""fullscreenenter"",""1"",""7706""
","
","
","""event"",""trial"",""time""
""fullscreenenter"",""1"",""7706""
","
","","","","","","1049.1000001430511","images/sofa3.png","","","memory_trial","1","definitely_old",""
"html-keyboard-response","142","370211","0.0-18.0-0.49","4378","approach_avoid_sv1","""event"",""trial"",""time""
""fullscreenenter"",""1"",""7706""
","
","
","""event"",""trial"",""time""
""fullscreenenter"",""1"",""7706""
","
","","","","","","null","<div style=""font-size:60px;"">+</div>","null","","fixation","","",""
"memory-trial","143","372227","0.0-18.0-1.49","4378","approach_avoid_sv1","""event"",""trial"",""time""
""fullscreenenter"",""1"",""7706""
","
","
","""event"",""trial"",""time""
""fullscreenenter"",""1"",""7706""
","
","","","","","","1012.2000000476837","images/tree5.png","","","memory_trial","1","definitely_old",""
"html-keyboard-response","144","372731","0.0-18.0-0.50","4378","approach_avoid_sv1","""event"",""trial"",""time""
""fullscreenenter"",""1"",""7706""
","
","
","""event"",""trial"",""time""
""fullscreenenter"",""1"",""7706""
","
","","","","","","null","<div style=""font-size:60px;"">+</div>","null","","fixation","","",""
"memory-trial","145","377028","0.0-18.0-1.50","4378","approach_avoid_sv1","""event"",""trial"",""time""
""fullscreenenter"",""1"",""7706""
","
","
","""event"",""trial"",""time""
""fullscreenenter"",""1"",""7706""
","
","","","","","","3293","images/dog4.png","","","memory_trial","2","maybe_old",""
"html-keyboard-response","146","377532","0.0-18.0-0.51","4378","approach_avoid_sv1","""event"",""trial"",""time""
""fullscreenenter"",""1"",""7706""
","
","
","""event"",""trial"",""time""
""fullscreenenter"",""1"",""7706""
","
","","","","","","null","<div style=""font-size:60px;"">+</div>","null","","fixation","","",""
"memory-trial","147","381755","0.0-18.0-1.51","4378","approach_avoid_sv1","""event"",""trial"",""time""
""fullscreenenter"",""1"",""7706""
","
","
","""event"",""trial"",""time""
""fullscreenenter"",""1"",""7706""
","
","","","","","","3217","images/bush5.png","","","memory_trial","3","maybe_new",""
"html-keyboard-response","148","382259","0.0-18.0-0.52","4378","approach_avoid_sv1","""event"",""trial"",""time""
""fullscreenenter"",""1"",""7706""
","
","
","""event"",""trial"",""time""
""fullscreenenter"",""1"",""7706""
","
","","","","","","null","<div style=""font-size:60px;"">+</div>","null","","fixation","","",""
"memory-trial","149","384259","0.0-18.0-1.52","4378","approach_avoid_sv1","""event"",""trial"",""time""
""fullscreenenter"",""1"",""7706""
","
","
","""event"",""trial"",""time""
""fullscreenenter"",""1"",""7706""
","
","","","","","","992.7000000476837","images/rabbit1.png","","","memory_trial","2","maybe_old",""
"html-keyboard-response","150","384763","0.0-18.0-0.53","4378","approach_avoid_sv1","""event"",""trial"",""time""
""fullscreenenter"",""1"",""7706""
","
","
","""event"",""trial"",""time""
""fullscreenenter"",""1"",""7706""
","
","","","","","","null","<div style=""font-size:60px;"">+</div>","null","","fixation","","",""
"memory-trial","151","386747","0.0-18.0-1.53","4378","approach_avoid_sv1","""event"",""trial"",""time""
""fullscreenenter"",""1"",""7706""
","
","
","""event"",""trial"",""time""
""fullscreenenter"",""1"",""7706""
","
","","","","","","974.2000000476837","images/sofa4.png","","","memory_trial","1","definitely_old",""
"html-keyboard-response","152","387251","0.0-18.0-0.54","4378","approach_avoid_sv1","""event"",""trial"",""time""
""fullscreenenter"",""1"",""7706""
","
","
","""event"",""trial"",""time""
""fullscreenenter"",""1"",""7706""
","
","","","","","","null","<div style=""font-size:60px;"">+</div>","null","","fixation","","",""
"memory-trial","153","389387","0.0-18.0-1.54","4378","approach_avoid_sv1","""event"",""trial"",""time""
""fullscreenenter"",""1"",""7706""
","
","
","""event"",""trial"",""time""
""fullscreenenter"",""1"",""7706""
","
","","","","","","1130.0999999046326","images/tree6.png","","","memory_trial","2","maybe_old",""
"html-keyboard-response","154","389893","0.0-18.0-0.55","4378","approach_avoid_sv1","""event"",""trial"",""time""
""fullscreenenter"",""1"",""7706""
","
","
","""event"",""trial"",""time""
""fullscreenenter"",""1"",""7706""
","
","","","","","","null","<div style=""font-size:60px;"">+</div>","null","","fixation","","",""
"memory-trial","155","392639","0.0-18.0-1.55","4378","approach_avoid_sv1","""event"",""trial"",""time""
""fullscreenenter"",""1"",""7706""
","
","
","""event"",""trial"",""time""
""fullscreenenter"",""1"",""7706""
","
","","","","","","1741.8999998569489","images/bed6.png","","","memory_trial","1","definitely_old",""
"html-keyboard-response","156","393147","0.0-18.0-0.56","4378","approach_avoid_sv1","""event"",""trial"",""time""
""fullscreenenter"",""1"",""7706""
","
","
","""event"",""trial"",""time""
""fullscreenenter"",""1"",""7706""
","
","","","","","","null","<div style=""font-size:60px;"">+</div>","null","","fixation","","",""
"memory-trial","157","395835","0.0-18.0-1.56","4378","approach_avoid_sv1","""event"",""trial"",""time""
""fullscreenenter"",""1"",""7706""
","
","
","""event"",""trial"",""time""
""fullscreenenter"",""1"",""7706""
","
","","","","","","1684.3999998569489","images/straw1.png","","","memory_trial","4","definitely_new",""
"html-keyboard-response","158","396339","0.0-18.0-0.57","4378","approach_avoid_sv1","""event"",""trial"",""time""
""fullscreenenter"",""1"",""7706""
","
","
","""event"",""trial"",""time""
""fullscreenenter"",""1"",""7706""
","
","","","","","","null","<div style=""font-size:60px;"">+</div>","null","","fixation","","",""
"memory-trial","159","400501","0.0-18.0-1.57","4378","approach_avoid_sv1","""event"",""trial"",""time""
""fullscreenenter"",""1"",""7706""
","
","
","""event"",""trial"",""time""
""fullscreenenter"",""1"",""7706""
","
","","","","","","3143.2999999523163","images/tree3.png","","","memory_trial","2","maybe_old",""
"html-keyboard-response","160","401003","0.0-18.0-0.58","4378","approach_avoid_sv1","""event"",""trial"",""time""
""fullscreenenter"",""1"",""7706""
","
","
","""event"",""trial"",""time""
""fullscreenenter"",""1"",""7706""
","
","","","","","","null","<div style=""font-size:60px;"">+</div>","null","","fixation","","",""
"memory-trial","161","404916","0.0-18.0-1.58","4378","approach_avoid_sv1","""event"",""trial"",""time""
""fullscreenenter"",""1"",""7706""
","
","
","""event"",""trial"",""time""
""fullscreenenter"",""1"",""7706""
","
","","","","","","2903.2000000476837","images/banana4.png","","","memory_trial","3","maybe_new",""
"html-keyboard-response","162","405419","0.0-18.0-0.59","4378","approach_avoid_sv1","""event"",""trial"",""time""
""fullscreenenter"",""1"",""7706""
","
","
","""event"",""trial"",""time""
""fullscreenenter"",""1"",""7706""
","
","","","","","","null","<div style=""font-size:60px;"">+</div>","null","","fixation","","",""
"memory-trial","163","407315","0.0-18.0-1.59","4378","approach_avoid_sv1","""event"",""trial"",""time""
""fullscreenenter"",""1"",""7706""
","
","
","""event"",""trial"",""time""
""fullscreenenter"",""1"",""7706""
","
","","","","","","887.1999998092651","images/table8.png","","","memory_trial","1","definitely_old",""
"html-keyboard-response","164","407819","0.0-18.0-0.60","4378","approach_avoid_sv1","""event"",""trial"",""time""
""fullscreenenter"",""1"",""7706""
","
","
","""event"",""trial"",""time""
""fullscreenenter"",""1"",""7706""
","
","","","","","","null","<div style=""font-size:60px;"">+</div>","null","","fixation","","",""
"memory-trial","165","409555","0.0-18.0-1.60","4378","approach_avoid_sv1","""event"",""trial"",""time""
""fullscreenenter"",""1"",""7706""
","
","
","""event"",""trial"",""time""
""fullscreenenter"",""1"",""7706""
","
","","","","","","727.3000001907349","images/horse8.png","","","memory_trial","1","definitely_old",""
"html-keyboard-response","166","410060","0.0-18.0-0.61","4378","approach_avoid_sv1","""event"",""trial"",""time""
""fullscreenenter"",""1"",""7706""
","
","
","""event"",""trial"",""time""
""fullscreenenter"",""1"",""7706""
","
","","","","","","null","<div style=""font-size:60px;"">+</div>","null","","fixation","","",""
"memory-trial","167","413267","0.0-18.0-1.61","4378","approach_avoid_sv1","""event"",""trial"",""time""
""fullscreenenter"",""1"",""7706""
","
","
","""event"",""trial"",""time""
""fullscreenenter"",""1"",""7706""
","
","","","","","","2198.5999999046326","images/rodent2.png","","","memory_trial","3","maybe_new",""
"html-keyboard-response","168","413771","0.0-18.0-0.62","4378","approach_avoid_sv1","""event"",""trial"",""time""
""fullscreenenter"",""1"",""7706""
","
","
","""event"",""trial"",""time""
""fullscreenenter"",""1"",""7706""
","
","","","","","","null","<div style=""font-size:60px;"">+</div>","null","","fixation","","",""
"memory-trial","169","416275","0.0-18.0-1.62","4378","approach_avoid_sv1","""event"",""trial"",""time""
""fullscreenenter"",""1"",""7706""
","
","
","""event"",""trial"",""time""
""fullscreenenter"",""1"",""7706""
","
","","","","","","1500.5","images/sheep3.png","","","memory_trial","1","definitely_old",""
"html-keyboard-response","170","416779","0.0-18.0-0.63","4378","approach_avoid_sv1","""event"",""trial"",""time""
""fullscreenenter"",""1"",""7706""
","
","
","""event"",""trial"",""time""
""fullscreenenter"",""1"",""7706""
","
","","","","","","null","<div style=""font-size:60px;"">+</div>","null","","fixation","","",""
"memory-trial","171","418396","0.0-18.0-1.63","4378","approach_avoid_sv1","""event"",""trial"",""time""
""fullscreenenter"",""1"",""7706""
","
","
","""event"",""trial"",""time""
""fullscreenenter"",""1"",""7706""
","
","","","","","","607.3000001907349","images/horse4.png","","","memory_trial","1","definitely_old",""
"html-keyboard-response","172","418899","0.0-18.0-0.64","4378","approach_avoid_sv1","""event"",""trial"",""time""
""fullscreenenter"",""1"",""7706""
","
","
","""event"",""trial"",""time""
""fullscreenenter"",""1"",""7706""
","
","","","","","","null","<div style=""font-size:60px;"">+</div>","null","","fixation","","",""
"memory-trial","173","421579","0.0-18.0-1.64","4378","approach_avoid_sv1","""event"",""trial"",""time""
""fullscreenenter"",""1"",""7706""
","
","
","""event"",""trial"",""time""
""fullscreenenter"",""1"",""7706""
","
","","","","","","1671.2999999523163","images/banana2.png","","","memory_trial","4","definitely_new",""
"html-keyboard-response","174","422083","0.0-18.0-0.65","4378","approach_avoid_sv1","""event"",""trial"",""time""
""fullscreenenter"",""1"",""7706""
","
","
","""event"",""trial"",""time""
""fullscreenenter"",""1"",""7706""
","
","","","","","","null","<div style=""font-size:60px;"">+</div>","null","","fixation","","",""
"memory-trial","175","424220","0.0-18.0-1.65","4378","approach_avoid_sv1","""event"",""trial"",""time""
""fullscreenenter"",""1"",""7706""
","
","
","""event"",""trial"",""time""
""fullscreenenter"",""1"",""7706""
","
","","","","","","1130.2999999523163","images/orange7.png","","","memory_trial","1","definitely_old",""
"html-keyboard-response","176","424723","0.0-18.0-0.66","4378","approach_avoid_sv1","""event"",""trial"",""time""
""fullscreenenter"",""1"",""7706""
","
","
","""event"",""trial"",""time""
""fullscreenenter"",""1"",""7706""
","
","","","","","","null","<div style=""font-size:60px;"">+</div>","null","","fixation","","",""
"memory-trial","177","427011","0.0-18.0-1.66","4378","approach_avoid_sv1","""event"",""trial"",""time""
""fullscreenenter"",""1"",""7706""
","
","
","""event"",""trial"",""time""
""fullscreenenter"",""1"",""7706""
","
","","","","","","1280.0999999046326","images/truck3.png","","","memory_trial","4","definitely_new",""
"html-keyboard-response","178","427516","0.0-18.0-0.67","4378","approach_avoid_sv1","""event"",""trial"",""time""
""fullscreenenter"",""1"",""7706""
","
","
","""event"",""trial"",""time""
""fullscreenenter"",""1"",""7706""
","
","","","","","","null","<div style=""font-size:60px;"">+</div>","null","","fixation","","",""
"memory-trial","179","429724","0.0-18.0-1.67","4378","approach_avoid_sv1","""event"",""trial"",""time""
""fullscreenenter"",""1"",""7706""
","
","
","""event"",""trial"",""time""
""fullscreenenter"",""1"",""7706""
","
","","","","","","1200.7000000476837","images/chair6.png","","","memory_trial","4","definitely_new",""
"html-keyboard-response","180","430227","0.0-18.0-0.68","4378","approach_avoid_sv1","""event"",""trial"",""time""
""fullscreenenter"",""1"",""7706""
","
","
","""event"",""trial"",""time""
""fullscreenenter"",""1"",""7706""
","
","","","","","","null","<div style=""font-size:60px;"">+</div>","null","","fixation","","",""
"memory-trial","181","432828","0.0-18.0-1.68","4378","approach_avoid_sv1","""event"",""trial"",""time""
""fullscreenenter"",""1"",""7706""
","
","
","""event"",""trial"",""time""
""fullscreenenter"",""1"",""7706""
","
","","","","","","1591.9000000953674","images/goat4.png","","","memory_trial","1","definitely_old",""
"html-keyboard-response","182","433331","0.0-18.0-0.69","4378","approach_avoid_sv1","""event"",""trial"",""time""
""fullscreenenter"",""1"",""7706""
","
","
","""event"",""trial"",""time""
""fullscreenenter"",""1"",""7706""
","
","","","","","","null","<div style=""font-size:60px;"">+</div>","null","","fixation","","",""
"memory-trial","183","437124","0.0-18.0-1.69","4378","approach_avoid_sv1","""event"",""trial"",""time""
""fullscreenenter"",""1"",""7706""
","
","
","""event"",""trial"",""time""
""fullscreenenter"",""1"",""7706""
","
","","","","","","2788.5999999046326","images/sofa2.png","","","memory_trial","4","definitely_new",""
"html-keyboard-response","184","437628","0.0-18.0-0.70","4378","approach_avoid_sv1","""event"",""trial"",""time""
""fullscreenenter"",""1"",""7706""
","
","
","""event"",""trial"",""time""
""fullscreenenter"",""1"",""7706""
","
","","","","","","null","<div style=""font-size:60px;"">+</div>","null","","fixation","","",""
"memory-trial","185","439724","0.0-18.0-1.70","4378","approach_avoid_sv1","""event"",""trial"",""time""
""fullscreenenter"",""1"",""7706""
","
","
","""event"",""trial"",""time""
""fullscreenenter"",""1"",""7706""
","
","","","","","","1085.3999998569489","images/chair1.png","","","memory_trial","4","definitely_new",""
"html-keyboard-response","186","440228","0.0-18.0-0.71","4378","approach_avoid_sv1","""event"",""trial"",""time""
""fullscreenenter"",""1"",""7706""
","
","
","""event"",""trial"",""time""
""fullscreenenter"",""1"",""7706""
","
","","","","","","null","<div style=""font-size:60px;"">+</div>","null","","fixation","","",""
"memory-trial","187","443012","0.0-18.0-1.71","4378","approach_avoid_sv1","""event"",""trial"",""time""
""fullscreenenter"",""1"",""7706""
","
","
","""event"",""trial"",""time""
""fullscreenenter"",""1"",""7706""
","
","","","","","","1773.5999999046326","images/goat8.png","","","memory_trial","3","maybe_new",""
"html-keyboard-response","188","443515","0.0-18.0-0.72","4378","approach_avoid_sv1","""event"",""trial"",""time""
""fullscreenenter"",""1"",""7706""
","
","
","""event"",""trial"",""time""
""fullscreenenter"",""1"",""7706""
","
","","","","","","null","<div style=""font-size:60px;"">+</div>","null","","fixation","","",""
"memory-trial","189","445395","0.0-18.0-1.72","4378","approach_avoid_sv1","""event"",""trial"",""time""
""fullscreenenter"",""1"",""7706""
","
","
","""event"",""trial"",""time""
""fullscreenenter"",""1"",""7706""
","
","","","","","","870.2000000476837","images/table5.png","","","memory_trial","1","definitely_old",""
"html-keyboard-response","190","445899","0.0-18.0-0.73","4378","approach_avoid_sv1","""event"",""trial"",""time""
""fullscreenenter"",""1"",""7706""
","
","
","""event"",""trial"",""time""
""fullscreenenter"",""1"",""7706""
","
","","","","","","null","<div style=""font-size:60px;"">+</div>","null","","fixation","","",""
"memory-trial","191","448348","0.0-18.0-1.73","4378","approach_avoid_sv1","""event"",""trial"",""time""
""fullscreenenter"",""1"",""7706""
","
","
","""event"",""trial"",""time""
""fullscreenenter"",""1"",""7706""
","
","","","","","","1439.7999999523163","images/sofa5.png","","","memory_trial","4","definitely_new",""
"html-keyboard-response","192","448851","0.0-18.0-0.74","4378","approach_avoid_sv1","""event"",""trial"",""time""
""fullscreenenter"",""1"",""7706""
","
","
","""event"",""trial"",""time""
""fullscreenenter"",""1"",""7706""
","
","","","","","","null","<div style=""font-size:60px;"">+</div>","null","","fixation","","",""
"memory-trial","193","450750","0.0-18.0-1.74","4378","approach_avoid_sv1","""event"",""trial"",""time""
""fullscreenenter"",""1"",""7706""
","
","
","""event"",""trial"",""time""
""fullscreenenter"",""1"",""7706""
","
","","","","","","881.2000000476837","images/rabbit2.png","","","memory_trial","1","definitely_old",""
"html-keyboard-response","194","451251","0.0-18.0-0.75","4378","approach_avoid_sv1","""event"",""trial"",""time""
""fullscreenenter"",""1"",""7706""
","
","
","""event"",""trial"",""time""
""fullscreenenter"",""1"",""7706""
","
","","","","","","null","<div style=""font-size:60px;"">+</div>","null","","fixation","","",""
"memory-trial","195","453212","0.0-18.0-1.75","4378","approach_avoid_sv1","""event"",""trial"",""time""
""fullscreenenter"",""1"",""7706""
","
","
","""event"",""trial"",""time""
""fullscreenenter"",""1"",""7706""
","
","","","","","","951.3000001907349","images/orange1.png","","","memory_trial","1","definitely_old",""
"html-keyboard-response","196","453715","0.0-18.0-0.76","4378","approach_avoid_sv1","""event"",""trial"",""time""
""fullscreenenter"",""1"",""7706""
","
","
","""event"",""trial"",""time""
""fullscreenenter"",""1"",""7706""
","
","","","","","","null","<div style=""font-size:60px;"">+</div>","null","","fixation","","",""
"memory-trial","197","455980","0.0-18.0-1.76","4378","approach_avoid_sv1","""event"",""trial"",""time""
""fullscreenenter"",""1"",""7706""
","
","
","""event"",""trial"",""time""
""fullscreenenter"",""1"",""7706""
","
","","","","","","1256.5","images/dog5.png","","","memory_trial","4","definitely_new",""
"html-keyboard-response","198","456498","0.0-18.0-0.77","4378","approach_avoid_sv1","""event"",""trial"",""time""
""fullscreenenter"",""1"",""7706""
","
","
","""event"",""trial"",""time""
""fullscreenenter"",""1"",""7706""
","
","","","","","","null","<div style=""font-size:60px;"">+</div>","null","","fixation","","",""
"memory-trial","199","459916","0.0-18.0-1.77","4378","approach_avoid_sv1","""event"",""trial"",""time""
""fullscreenenter"",""1"",""7706""
","
","
","""event"",""trial"",""time""
""fullscreenenter"",""1"",""7706""
","
","","","","","","2409.5","images/cow3.png","","","memory_trial","3","maybe_new",""
"html-keyboard-response","200","460419","0.0-18.0-0.78","4378","approach_avoid_sv1","""event"",""trial"",""time""
""fullscreenenter"",""1"",""7706""
","
","
","""event"",""trial"",""time""
""fullscreenenter"",""1"",""7706""
","
","","","","","","null","<div style=""font-size:60px;"">+</div>","null","","fixation","","",""
"memory-trial","201","462915","0.0-18.0-1.78","4378","approach_avoid_sv1","""event"",""trial"",""time""
""fullscreenenter"",""1"",""7706""
","
","
","""event"",""trial"",""time""
""fullscreenenter"",""1"",""7706""
","
","","","","","","1485.2999999523163","images/cactus7.png","","","memory_trial","4","definitely_new",""
"html-keyboard-response","202","463420","0.0-18.0-0.79","4378","approach_avoid_sv1","""event"",""trial"",""time""
""fullscreenenter"",""1"",""7706""
","
","
","""event"",""trial"",""time""
""fullscreenenter"",""1"",""7706""
","
","","","","","","null","<div style=""font-size:60px;"">+</div>","null","","fixation","","",""
"memory-trial","203","465388","0.0-18.0-1.79","4378","approach_avoid_sv1","""event"",""trial"",""time""
""fullscreenenter"",""1"",""7706""
","
","
","""event"",""trial"",""time""
""fullscreenenter"",""1"",""7706""
","
","","","","","","961.4000000953674","images/truck8.png","","","memory_trial","1","definitely_old",""
"html-keyboard-response","204","465891","0.0-18.0-0.80","4378","approach_avoid_sv1","""event"",""trial"",""time""
""fullscreenenter"",""1"",""7706""
","
","
","""event"",""trial"",""time""
""fullscreenenter"",""1"",""7706""
","
","","","","","","null","<div style=""font-size:60px;"">+</div>","null","","fixation","","",""
"memory-trial","205","467964","0.0-18.0-1.80","4378","approach_avoid_sv1","""event"",""trial"",""time""
""fullscreenenter"",""1"",""7706""
","
","
","""event"",""trial"",""time""
""fullscreenenter"",""1"",""7706""
","
","","","","","","1067.2999999523163","images/flower8.png","","","memory_trial","4","definitely_new",""
"html-keyboard-response","206","468467","0.0-18.0-0.81","4378","approach_avoid_sv1","""event"",""trial"",""time""
""fullscreenenter"",""1"",""7706""
","
","
","""event"",""trial"",""time""
""fullscreenenter"",""1"",""7706""
","
","","","","","","null","<div style=""font-size:60px;"">+</div>","null","","fixation","","",""
"memory-trial","207","471036","0.0-18.0-1.81","4378","approach_avoid_sv1","""event"",""trial"",""time""
""fullscreenenter"",""1"",""7706""
","
","
","""event"",""trial"",""time""
""fullscreenenter"",""1"",""7706""
","
","","","","","","1564.8999998569489","images/rabbit8.png","","","memory_trial","3","maybe_new",""
"html-keyboard-response","208","471539","0.0-18.0-0.82","4378","approach_avoid_sv1","""event"",""trial"",""time""
""fullscreenenter"",""1"",""7706""
","
","
","""event"",""trial"",""time""
""fullscreenenter"",""1"",""7706""
","
","","","","","","null","<div style=""font-size:60px;"">+</div>","null","","fixation","","",""
"memory-trial","209","474443","0.0-18.0-1.82","4378","approach_avoid_sv1","""event"",""trial"",""time""
""fullscreenenter"",""1"",""7706""
","
","
","""event"",""trial"",""time""
""fullscreenenter"",""1"",""7706""
","
","","","","","","1898.6999998092651","images/goat3.png","","","memory_trial","2","maybe_old",""
"html-keyboard-response","210","474947","0.0-18.0-0.83","4378","approach_avoid_sv1","""event"",""trial"",""time""
""fullscreenenter"",""1"",""7706""
","
","
","""event"",""trial"",""time""
""fullscreenenter"",""1"",""7706""
","
","","","","","","null","<div style=""font-size:60px;"">+</div>","null","","fixation","","",""
"memory-trial","211","478644","0.0-18.0-1.83","4378","approach_avoid_sv1","""event"",""trial"",""time""
""fullscreenenter"",""1"",""7706""
","
","
","""event"",""trial"",""time""
""fullscreenenter"",""1"",""7706""
","
","","","","","","2686.100000143051","images/bush1.png","","","memory_trial","2","maybe_old",""
"html-keyboard-response","212","479148","0.0-18.0-0.84","4378","approach_avoid_sv1","""event"",""trial"",""time""
""fullscreenenter"",""1"",""7706""
","
","
","""event"",""trial"",""time""
""fullscreenenter"",""1"",""7706""
","
","","","","","","null","<div style=""font-size:60px;"">+</div>","null","","fixation","","",""
"memory-trial","213","481284","0.0-18.0-1.84","4378","approach_avoid_sv1","""event"",""trial"",""time""
""fullscreenenter"",""1"",""7706""
","
","
","""event"",""trial"",""time""
""fullscreenenter"",""1"",""7706""
","
","","","","","","1124.7000000476837","images/straw7.png","","","memory_trial","4","definitely_new",""
"html-keyboard-response","214","481788","0.0-18.0-0.85","4378","approach_avoid_sv1","""event"",""trial"",""time""
""fullscreenenter"",""1"",""7706""
","
","
","""event"",""trial"",""time""
""fullscreenenter"",""1"",""7706""
","
","","","","","","null","<div style=""font-size:60px;"">+</div>","null","","fixation","","",""
"memory-trial","215","483508","0.0-18.0-1.85","4378","approach_avoid_sv1","""event"",""trial"",""time""
""fullscreenenter"",""1"",""7706""
","
","
","""event"",""trial"",""time""
""fullscreenenter"",""1"",""7706""
","
","","","","","","710.8999998569489","images/flower4.png","","","memory_trial","4","definitely_new",""
"html-keyboard-response","216","484011","0.0-18.0-0.86","4378","approach_avoid_sv1","""event"",""trial"",""time""
""fullscreenenter"",""1"",""7706""
","
","
","""event"",""trial"",""time""
""fullscreenenter"",""1"",""7706""
","
","","","","","","null","<div style=""font-size:60px;"">+</div>","null","","fixation","","",""
"memory-trial","217","485676","0.0-18.0-1.86","4378","approach_avoid_sv1","""event"",""trial"",""time""
""fullscreenenter"",""1"",""7706""
","
","
","""event"",""trial"",""time""
""fullscreenenter"",""1"",""7706""
","
","","","","","","661.5999999046326","images/flower6.png","","","memory_trial","4","definitely_new",""
"html-keyboard-response","218","486179","0.0-18.0-0.87","4378","approach_avoid_sv1","""event"",""trial"",""time""
""fullscreenenter"",""1"",""7706""
","
","
","""event"",""trial"",""time""
""fullscreenenter"",""1"",""7706""
","
","","","","","","null","<div style=""font-size:60px;"">+</div>","null","","fixation","","",""
"memory-trial","219","488099","0.0-18.0-1.87","4378","approach_avoid_sv1","""event"",""trial"",""time""
""fullscreenenter"",""1"",""7706""
","
","
","""event"",""trial"",""time""
""fullscreenenter"",""1"",""7706""
","
","","","","","","912","images/rodent3.png","","","memory_trial","4","definitely_new",""
"html-keyboard-response","220","488603","0.0-18.0-0.88","4378","approach_avoid_sv1","""event"",""trial"",""time""
""fullscreenenter"",""1"",""7706""
","
","
","""event"",""trial"",""time""
""fullscreenenter"",""1"",""7706""
","
","","","","","","null","<div style=""font-size:60px;"">+</div>","null","","fixation","","",""
"memory-trial","221","490507","0.0-18.0-1.88","4378","approach_avoid_sv1","""event"",""trial"",""time""
""fullscreenenter"",""1"",""7706""
","
","
","""event"",""trial"",""time""
""fullscreenenter"",""1"",""7706""
","
","","","","","","894.7000000476837","images/sofa1.png","","","memory_trial","4","definitely_new",""
"html-keyboard-response","222","491011","0.0-18.0-0.89","4378","approach_avoid_sv1","""event"",""trial"",""time""
""fullscreenenter"",""1"",""7706""
","
","
","""event"",""trial"",""time""
""fullscreenenter"",""1"",""7706""
","
","","","","","","null","<div style=""font-size:60px;"">+</div>","null","","fixation","","",""
"memory-trial","223","493020","0.0-18.0-1.89","4378","approach_avoid_sv1","""event"",""trial"",""time""
""fullscreenenter"",""1"",""7706""
","
","
","""event"",""trial"",""time""
""fullscreenenter"",""1"",""7706""
","
","","","","","","1004.2000000476837","images/chair8.png","","","memory_trial","1","definitely_old",""
"html-keyboard-response","224","493523","0.0-18.0-0.90","4378","approach_avoid_sv1","""event"",""trial"",""time""
""fullscreenenter"",""1"",""7706""
","
","
","""event"",""trial"",""time""
""fullscreenenter"",""1"",""7706""
","
","","","","","","null","<div style=""font-size:60px;"">+</div>","null","","fixation","","",""
"memory-trial","225","495675","0.0-18.0-1.90","4378","approach_avoid_sv1","""event"",""trial"",""time""
""fullscreenenter"",""1"",""7706""
","
","
","""event"",""trial"",""time""
""fullscreenenter"",""1"",""7706""
","
","","","","","","1145.5999999046326","images/table3.png","","","memory_trial","4","definitely_new",""
"html-keyboard-response","226","496179","0.0-18.0-0.91","4378","approach_avoid_sv1","""event"",""trial"",""time""
""fullscreenenter"",""1"",""7706""
","
","
","""event"",""trial"",""time""
""fullscreenenter"",""1"",""7706""
","
","","","","","","null","<div style=""font-size:60px;"">+</div>","null","","fixation","","",""
"memory-trial","227","498483","0.0-18.0-1.91","4378","approach_avoid_sv1","""event"",""trial"",""time""
""fullscreenenter"",""1"",""7706""
","
","
","""event"",""trial"",""time""
""fullscreenenter"",""1"",""7706""
","
","","","","","","1299.5","images/bush3.png","","","memory_trial","2","maybe_old",""
"html-button-response","228","499925","0.0-18.0-2.91-0.91","4378","approach_avoid_sv1","""event"",""trial"",""time""
""fullscreenenter"",""1"",""7706""
","
","
","""event"",""trial"",""time""
""fullscreenenter"",""1"",""7706""
","
","","","","","","1440.3000001907349","<p> Take a break! </p><p> Click the button to continue. </p>","0","","break","","",""
"html-keyboard-response","229","500436","0.0-18.0-0.92","4378","approach_avoid_sv1","""event"",""trial"",""time""
""fullscreenenter"",""1"",""7706""
","
","
","""event"",""trial"",""time""
""fullscreenenter"",""1"",""7706""
","
","","","","","","null","<div style=""font-size:60px;"">+</div>","null","","fixation","","",""
"memory-trial","230","503027","0.0-18.0-1.92","4378","approach_avoid_sv1","""event"",""trial"",""time""
""fullscreenenter"",""1"",""7706""
","
","
","""event"",""trial"",""time""
""fullscreenenter"",""1"",""7706""
","
","","","","","","1579.7000000476837","images/apple8.png","","","memory_trial","4","definitely_new",""
"html-keyboard-response","231","503532","0.0-18.0-0.93","4378","approach_avoid_sv1","""event"",""trial"",""time""
""fullscreenenter"",""1"",""7706""
","
","
","""event"",""trial"",""time""
""fullscreenenter"",""1"",""7706""
","
","","","","","","null","<div style=""font-size:60px;"">+</div>","null","","fixation","","",""
"memory-trial","232","505363","0.0-18.0-1.93","4378","approach_avoid_sv1","""event"",""trial"",""time""
""fullscreenenter"",""1"",""7706""
","
","
","""event"",""trial"",""time""
""fullscreenenter"",""1"",""7706""
","
","","","","","","824","images/train5.png","","","memory_trial","1","definitely_old",""
"html-keyboard-response","233","505867","0.0-18.0-0.94","4378","approach_avoid_sv1","""event"",""trial"",""time""
""fullscreenenter"",""1"",""7706""
","
","
","""event"",""trial"",""time""
""fullscreenenter"",""1"",""7706""
","
","","","","","","null","<div style=""font-size:60px;"">+</div>","null","","fixation","","",""
"memory-trial","234","508291","0.0-18.0-1.94","4378","approach_avoid_sv1","""event"",""trial"",""time""
""fullscreenenter"",""1"",""7706""
","
","
","""event"",""trial"",""time""
""fullscreenenter"",""1"",""7706""
","
","","","","","","1414.9000000953674","images/dog7.png","","","memory_trial","4","definitely_new",""
"html-keyboard-response","235","508795","0.0-18.0-0.95","4378","approach_avoid_sv1","""event"",""trial"",""time""
""fullscreenenter"",""1"",""7706""
","
","
","""event"",""trial"",""time""
""fullscreenenter"",""1"",""7706""
","
","","","","","","null","<div style=""font-size:60px;"">+</div>","null","","fixation","","",""
"memory-trial","236","510620","0.0-18.0-1.95","4378","approach_avoid_sv1","""event"",""trial"",""time""
""fullscreenenter"",""1"",""7706""
","
","
","""event"",""trial"",""time""
""fullscreenenter"",""1"",""7706""
","
","","","","","","817.4000000953674","images/flower1.png","","","memory_trial","4","definitely_new",""
"html-keyboard-response","237","511135","0.0-18.0-0.96","4378","approach_avoid_sv1","""event"",""trial"",""time""
""fullscreenenter"",""1"",""7706""
","
","
","""event"",""trial"",""time""
""fullscreenenter"",""1"",""7706""
","
","","","","","","null","<div style=""font-size:60px;"">+</div>","null","","fixation","","",""
"memory-trial","238","512787","0.0-18.0-1.96","4378","approach_avoid_sv1","""event"",""trial"",""time""
""fullscreenenter"",""1"",""7706""
","
","
","""event"",""trial"",""time""
""fullscreenenter"",""1"",""7706""
","
","","","","","","648.1999998092651","images/flower7.png","","","memory_trial","4","definitely_new",""
"html-keyboard-response","239","513291","0.0-18.0-0.97","4378","approach_avoid_sv1","""event"",""trial"",""time""
""fullscreenenter"",""1"",""7706""
","
","
","""event"",""trial"",""time""
""fullscreenenter"",""1"",""7706""
","
","","","","","","null","<div style=""font-size:60px;"">+</div>","null","","fixation","","",""
"memory-trial","240","515500","0.0-18.0-1.97","4378","approach_avoid_sv1","""event"",""trial"",""time""
""fullscreenenter"",""1"",""7706""
","
","
","""event"",""trial"",""time""
""fullscreenenter"",""1"",""7706""
","
","","","","","","1201.7000000476837","images/cactus4.png","","","memory_trial","1","definitely_old",""
"html-keyboard-response","241","516004","0.0-18.0-0.98","4378","approach_avoid_sv1","""event"",""trial"",""time""
""fullscreenenter"",""1"",""7706""
","
","
","""event"",""trial"",""time""
""fullscreenenter"",""1"",""7706""
","
","","","","","","null","<div style=""font-size:60px;"">+</div>","null","","fixation","","",""
"memory-trial","242","517891","0.0-18.0-1.98","4378","approach_avoid_sv1","""event"",""trial"",""time""
""fullscreenenter"",""1"",""7706""
","
","
","""event"",""trial"",""time""
""fullscreenenter"",""1"",""7706""
","
","","","","","","877.5","images/horse7.png","","","memory_trial","1","definitely_old",""
"html-keyboard-response","243","518395","0.0-18.0-0.99","4378","approach_avoid_sv1","""event"",""trial"",""time""
""fullscreenenter"",""1"",""7706""
","
","
","""event"",""trial"",""time""
""fullscreenenter"",""1"",""7706""
","
","","","","","","null","<div style=""font-size:60px;"">+</div>","null","","fixation","","",""
"memory-trial","244","520411","0.0-18.0-1.99","4378","approach_avoid_sv1","""event"",""trial"",""time""
""fullscreenenter"",""1"",""7706""
","
","
","""event"",""trial"",""time""
""fullscreenenter"",""1"",""7706""
","
","","","","","","1006.6000001430511","images/straw5.png","","","memory_trial","4","definitely_new",""
"html-keyboard-response","245","520915","0.0-18.0-0.100","4378","approach_avoid_sv1","""event"",""trial"",""time""
""fullscreenenter"",""1"",""7706""
","
","
","""event"",""trial"",""time""
""fullscreenenter"",""1"",""7706""
","
","","","","","","null","<div style=""font-size:60px;"">+</div>","null","","fixation","","",""
"memory-trial","246","522683","0.0-18.0-1.100","4378","approach_avoid_sv1","""event"",""trial"",""time""
""fullscreenenter"",""1"",""7706""
","
","
","""event"",""trial"",""time""
""fullscreenenter"",""1"",""7706""
","
","","","","","","759.7000000476837","images/banana1.png","","","memory_trial","4","definitely_new",""
"html-keyboard-response","247","523188","0.0-18.0-0.101","4378","approach_avoid_sv1","""event"",""trial"",""time""
""fullscreenenter"",""1"",""7706""
","
","
","""event"",""trial"",""time""
""fullscreenenter"",""1"",""7706""
","
","","","","","","null","<div style=""font-size:60px;"">+</div>","null","","fixation","","",""
"memory-trial","248","525179","0.0-18.0-1.101","4378","approach_avoid_sv1","""event"",""trial"",""time""
""fullscreenenter"",""1"",""7706""
","
","
","""event"",""trial"",""time""
""fullscreenenter"",""1"",""7706""
","
","","","","","","986.2999999523163","images/truck4.png","","","memory_trial","4","definitely_new",""
"html-keyboard-response","249","525683","0.0-18.0-0.102","4378","approach_avoid_sv1","""event"",""trial"",""time""
""fullscreenenter"",""1"",""7706""
","
","
","""event"",""trial"",""time""
""fullscreenenter"",""1"",""7706""
","
","","","","","","null","<div style=""font-size:60px;"">+</div>","null","","fixation","","",""
"memory-trial","250","527579","0.0-18.0-1.102","4378","approach_avoid_sv1","""event"",""trial"",""time""
""fullscreenenter"",""1"",""7706""
","
","
","""event"",""trial"",""time""
""fullscreenenter"",""1"",""7706""
","
","","","","","","890.2999999523163","images/chair3.png","","","memory_trial","4","definitely_new",""
"html-keyboard-response","251","528083","0.0-18.0-0.103","4378","approach_avoid_sv1","""event"",""trial"",""time""
""fullscreenenter"",""1"",""7706""
","
","
","""event"",""trial"",""time""
""fullscreenenter"",""1"",""7706""
","
","","","","","","null","<div style=""font-size:60px;"">+</div>","null","","fixation","","",""
"memory-trial","252","531619","0.0-18.0-1.103","4378","approach_avoid_sv1","""event"",""trial"",""time""
""fullscreenenter"",""1"",""7706""
","
","
","""event"",""trial"",""time""
""fullscreenenter"",""1"",""7706""
","
","","","","","","2526.4000000953674","images/cow8.png","","","memory_trial","3","maybe_new",""
"html-keyboard-response","253","532123","0.0-18.0-0.104","4378","approach_avoid_sv1","""event"",""trial"",""time""
""fullscreenenter"",""1"",""7706""
","
","
","""event"",""trial"",""time""
""fullscreenenter"",""1"",""7706""
","
","","","","","","null","<div style=""font-size:60px;"">+</div>","null","","fixation","","",""
"memory-trial","254","534428","0.0-18.0-1.104","4378","approach_avoid_sv1","""event"",""trial"",""time""
""fullscreenenter"",""1"",""7706""
","
","
","""event"",""trial"",""time""
""fullscreenenter"",""1"",""7706""
","
","","","","","","1293.6000001430511","images/plane1.png","","","memory_trial","4","definitely_new",""
"html-keyboard-response","255","534931","0.0-18.0-0.105","4378","approach_avoid_sv1","""event"",""trial"",""time""
""fullscreenenter"",""1"",""7706""
","
","
","""event"",""trial"",""time""
""fullscreenenter"",""1"",""7706""
","
","","","","","","null","<div style=""font-size:60px;"">+</div>","null","","fixation","","",""
"memory-trial","256","539011","0.0-18.0-1.105","4378","approach_avoid_sv1","""event"",""trial"",""time""
""fullscreenenter"",""1"",""7706""
","
","
","""event"",""trial"",""time""
""fullscreenenter"",""1"",""7706""
","
","","","","","","3070.399999856949","images/goat5.png","","","memory_trial","3","maybe_new",""
"html-keyboard-response","257","539516","0.0-18.0-0.106","4378","approach_avoid_sv1","""event"",""trial"",""time""
""fullscreenenter"",""1"",""7706""
","
","
","""event"",""trial"",""time""
""fullscreenenter"",""1"",""7706""
","
","","","","","","null","<div style=""font-size:60px;"">+</div>","null","","fixation","","",""
"memory-trial","258","542555","0.0-18.0-1.106","4378","approach_avoid_sv1","""event"",""trial"",""time""
""fullscreenenter"",""1"",""7706""
","
","
","""event"",""trial"",""time""
""fullscreenenter"",""1"",""7706""
","
","","","","","","2031.6000001430511","images/goat2.png","","","memory_trial","2","maybe_old",""
"html-keyboard-response","259","543060","0.0-18.0-0.107","4378","approach_avoid_sv1","""event"",""trial"",""time""
""fullscreenenter"",""1"",""7706""
","
","
","""event"",""trial"",""time""
""fullscreenenter"",""1"",""7706""
","
","","","","","","null","<div style=""font-size:60px;"">+</div>","null","","fixation","","",""
"memory-trial","260","545324","0.0-18.0-1.107","4378","approach_avoid_sv1","""event"",""trial"",""time""
""fullscreenenter"",""1"",""7706""
","
","
","""event"",""trial"",""time""
""fullscreenenter"",""1"",""7706""
","
","","","","","","1256.7999999523163","images/plane5.png","","","memory_trial","1","definitely_old",""
"html-keyboard-response","261","545827","0.0-18.0-0.108","4378","approach_avoid_sv1","""event"",""trial"",""time""
""fullscreenenter"",""1"",""7706""
","
","
","""event"",""trial"",""time""
""fullscreenenter"",""1"",""7706""
","
","","","","","","null","<div style=""font-size:60px;"">+</div>","null","","fixation","","",""
"memory-trial","262","548019","0.0-18.0-1.108","4378","approach_avoid_sv1","""event"",""trial"",""time""
""fullscreenenter"",""1"",""7706""
","
","
","""event"",""trial"",""time""
""fullscreenenter"",""1"",""7706""
","
","","","","","","1188.9000000953674","images/apple5.png","","","memory_trial","4","definitely_new",""
"html-keyboard-response","263","548523","0.0-18.0-0.109","4378","approach_avoid_sv1","""event"",""trial"",""time""
""fullscreenenter"",""1"",""7706""
","
","
","""event"",""trial"",""time""
""fullscreenenter"",""1"",""7706""
","
","","","","","","null","<div style=""font-size:60px;"">+</div>","null","","fixation","","",""
"memory-trial","264","550771","0.0-18.0-1.109","4378","approach_avoid_sv1","""event"",""trial"",""time""
""fullscreenenter"",""1"",""7706""
","
","
","""event"",""trial"",""time""
""fullscreenenter"",""1"",""7706""
","
","","","","","","1241.9000000953674","images/truck2.png","","","memory_trial","1","definitely_old",""
"html-keyboard-response","265","551275","0.0-18.0-0.110","4378","approach_avoid_sv1","""event"",""trial"",""time""
""fullscreenenter"",""1"",""7706""
","
","
","""event"",""trial"",""time""
""fullscreenenter"",""1"",""7706""
","
","","","","","","null","<div style=""font-size:60px;"">+</div>","null","","fixation","","",""
"memory-trial","266","553652","0.0-18.0-1.110","4378","approach_avoid_sv1","""event"",""trial"",""time""
""fullscreenenter"",""1"",""7706""
","
","
","""event"",""trial"",""time""
""fullscreenenter"",""1"",""7706""
","
","","","","","","1366.0999999046326","images/banana5.png","","","memory_trial","4","definitely_new",""
"html-keyboard-response","267","554156","0.0-18.0-0.111","4378","approach_avoid_sv1","""event"",""trial"",""time""
""fullscreenenter"",""1"",""7706""
","
","
","""event"",""trial"",""time""
""fullscreenenter"",""1"",""7706""
","
","","","","","","null","<div style=""font-size:60px;"">+</div>","null","","fixation","","",""
"memory-trial","268","556547","0.0-18.0-1.111","4378","approach_avoid_sv1","""event"",""trial"",""time""
""fullscreenenter"",""1"",""7706""
","
","
","""event"",""trial"",""time""
""fullscreenenter"",""1"",""7706""
","
","","","","","","1384.9000000953674","images/tree7.png","","","memory_trial","2","maybe_old",""
"html-keyboard-response","269","557051","0.0-18.0-0.112","4378","approach_avoid_sv1","""event"",""trial"",""time""
""fullscreenenter"",""1"",""7706""
","
","
","""event"",""trial"",""time""
""fullscreenenter"",""1"",""7706""
","
","","","","","","null","<div style=""font-size:60px;"">+</div>","null","","fixation","","",""
"memory-trial","270","559300","0.0-18.0-1.112","4378","approach_avoid_sv1","""event"",""trial"",""time""
""fullscreenenter"",""1"",""7706""
","
","
","""event"",""trial"",""time""
""fullscreenenter"",""1"",""7706""
","
","","","","","","1242.7000000476837","images/cat2.png","","","memory_trial","1","definitely_old",""
"html-keyboard-response","271","559803","0.0-18.0-0.113","4378","approach_avoid_sv1","""event"",""trial"",""time""
""fullscreenenter"",""1"",""7706""
","
","
","""event"",""trial"",""time""
""fullscreenenter"",""1"",""7706""
","
","","","","","","null","<div style=""font-size:60px;"">+</div>","null","","fixation","","",""
"memory-trial","272","561763","0.0-18.0-1.113","4378","approach_avoid_sv1","""event"",""trial"",""time""
""fullscreenenter"",""1"",""7706""
","
","
","""event"",""trial"",""time""
""fullscreenenter"",""1"",""7706""
","
","","","","","","951.0999999046326","images/bed4.png","","","memory_trial","1","definitely_old",""
"html-keyboard-response","273","562267","0.0-18.0-0.114","4378","approach_avoid_sv1","""event"",""trial"",""time""
""fullscreenenter"",""1"",""7706""
","
","
","""event"",""trial"",""time""
""fullscreenenter"",""1"",""7706""
","
","","","","","","null","<div style=""font-size:60px;"">+</div>","null","","fixation","","",""
"memory-trial","274","564252","0.0-18.0-1.114","4378","approach_avoid_sv1","""event"",""trial"",""time""
""fullscreenenter"",""1"",""7706""
","
","
","""event"",""trial"",""time""
""fullscreenenter"",""1"",""7706""
","
","","","","","","981.4000000953674","images/bush4.png","","","memory_trial","4","definitely_new",""
"html-keyboard-response","275","564755","0.0-18.0-0.115","4378","approach_avoid_sv1","""event"",""trial"",""time""
""fullscreenenter"",""1"",""7706""
","
","
","""event"",""trial"",""time""
""fullscreenenter"",""1"",""7706""
","
","","","","","","null","<div style=""font-size:60px;"">+</div>","null","","fixation","","",""
"memory-trial","276","566531","0.0-18.0-1.115","4378","approach_avoid_sv1","""event"",""trial"",""time""
""fullscreenenter"",""1"",""7706""
","
","
","""event"",""trial"",""time""
""fullscreenenter"",""1"",""7706""
","
","","","","","","766.7000000476837","images/chair7.png","","","memory_trial","4","definitely_new",""
"html-keyboard-response","277","567042","0.0-18.0-0.116","4378","approach_avoid_sv1","""event"",""trial"",""time""
""fullscreenenter"",""1"",""7706""
","
","
","""event"",""trial"",""time""
""fullscreenenter"",""1"",""7706""
","
","","","","","","null","<div style=""font-size:60px;"">+</div>","null","","fixation","","",""
"memory-trial","278","568955","0.0-18.0-1.116","4378","approach_avoid_sv1","""event"",""trial"",""time""
""fullscreenenter"",""1"",""7706""
","
","
","""event"",""trial"",""time""
""fullscreenenter"",""1"",""7706""
","
","","","","","","903.2000000476837","images/straw6.png","","","memory_trial","4","definitely_new",""
"html-keyboard-response","279","569459","0.0-18.0-0.117","4378","approach_avoid_sv1","""event"",""trial"",""time""
""fullscreenenter"",""1"",""7706""
","
","
","""event"",""trial"",""time""
""fullscreenenter"",""1"",""7706""
","
","","","","","","null","<div style=""font-size:60px;"">+</div>","null","","fixation","","",""
"memory-trial","280","571419","0.0-18.0-1.117","4378","approach_avoid_sv1","""event"",""trial"",""time""
""fullscreenenter"",""1"",""7706""
","
","
","""event"",""trial"",""time""
""fullscreenenter"",""1"",""7706""
","
","","","","","","955.7999999523163","images/orange6.png","","","memory_trial","1","definitely_old",""
"html-keyboard-response","281","571923","0.0-18.0-0.118","4378","approach_avoid_sv1","""event"",""trial"",""time""
""fullscreenenter"",""1"",""7706""
","
","
","""event"",""trial"",""time""
""fullscreenenter"",""1"",""7706""
","
","","","","","","null","<div style=""font-size:60px;"">+</div>","null","","fixation","","",""
"memory-trial","282","575803","0.0-18.0-1.118","4378","approach_avoid_sv1","""event"",""trial"",""time""
""fullscreenenter"",""1"",""7706""
","
","
","""event"",""trial"",""time""
""fullscreenenter"",""1"",""7706""
","
","","","","","","2871.899999856949","images/rabbit7.png","","","memory_trial","2","maybe_old",""
"html-keyboard-response","283","576322","0.0-18.0-0.119","4378","approach_avoid_sv1","""event"",""trial"",""time""
""fullscreenenter"",""1"",""7706""
","
","
","""event"",""trial"",""time""
""fullscreenenter"",""1"",""7706""
","
","","","","","","null","<div style=""font-size:60px;"">+</div>","null","","fixation","","",""
"memory-trial","284","578388","0.0-18.0-1.119","4378","approach_avoid_sv1","""event"",""trial"",""time""
""fullscreenenter"",""1"",""7706""
","
","
","""event"",""trial"",""time""
""fullscreenenter"",""1"",""7706""
","
","","","","","","1061.3000001907349","images/truck6.png","","","memory_trial","1","definitely_old",""
"html-keyboard-response","285","578898","0.0-18.0-0.120","4378","approach_avoid_sv1","""event"",""trial"",""time""
""fullscreenenter"",""1"",""7706""
","
","
","""event"",""trial"",""time""
""fullscreenenter"",""1"",""7706""
","
","","","","","","null","<div style=""font-size:60px;"">+</div>","null","","fixation","","",""
"memory-trial","286","580621","0.0-18.0-1.120","4378","approach_avoid_sv1","""event"",""trial"",""time""
""fullscreenenter"",""1"",""7706""
","
","
","""event"",""trial"",""time""
""fullscreenenter"",""1"",""7706""
","
","","","","","","705.3999998569489","images/rabbit5.png","","","memory_trial","2","maybe_old",""
"html-keyboard-response","287","581123","0.0-18.0-0.121","4378","approach_avoid_sv1","""event"",""trial"",""time""
""fullscreenenter"",""1"",""7706""
","
","
","""event"",""trial"",""time""
""fullscreenenter"",""1"",""7706""
","
","","","","","","null","<div style=""font-size:60px;"">+</div>","null","","fixation","","",""
"memory-trial","288","584139","0.0-18.0-1.121","4378","approach_avoid_sv1","""event"",""trial"",""time""
""fullscreenenter"",""1"",""7706""
","
","
","""event"",""trial"",""time""
""fullscreenenter"",""1"",""7706""
","
","","","","","","2010.6000001430511","images/bed1.png","","","memory_trial","1","definitely_old",""
"html-keyboard-response","289","584644","0.0-18.0-0.122","4378","approach_avoid_sv1","""event"",""trial"",""time""
""fullscreenenter"",""1"",""7706""
","
","
","""event"",""trial"",""time""
""fullscreenenter"",""1"",""7706""
","
","","","","","","null","<div style=""font-size:60px;"">+</div>","null","","fixation","","",""
"memory-trial","290","586387","0.0-18.0-1.122","4378","approach_avoid_sv1","""event"",""trial"",""time""
""fullscreenenter"",""1"",""7706""
","
","
","""event"",""trial"",""time""
""fullscreenenter"",""1"",""7706""
","
","","","","","","736.7999999523163","images/bed5.png","","","memory_trial","1","definitely_old",""
"html-keyboard-response","291","586891","0.0-18.0-0.123","4378","approach_avoid_sv1","""event"",""trial"",""time""
""fullscreenenter"",""1"",""7706""
","
","
","""event"",""trial"",""time""
""fullscreenenter"",""1"",""7706""
","
","","","","","","null","<div style=""font-size:60px;"">+</div>","null","","fixation","","",""
"memory-trial","292","589188","0.0-18.0-1.123","4378","approach_avoid_sv1","""event"",""trial"",""time""
""fullscreenenter"",""1"",""7706""
","
","
","""event"",""trial"",""time""
""fullscreenenter"",""1"",""7706""
","
","","","","","","1281.3999998569489","images/horse3.png","","","memory_trial","1","definitely_old",""
"html-keyboard-response","293","589704","0.0-18.0-0.124","4378","approach_avoid_sv1","""event"",""trial"",""time""
""fullscreenenter"",""1"",""7706""
","
","
","""event"",""trial"",""time""
""fullscreenenter"",""1"",""7706""
","
","","","","","","null","<div style=""font-size:60px;"">+</div>","null","","fixation","","",""
"memory-trial","294","591627","0.0-18.0-1.124","4378","approach_avoid_sv1","""event"",""trial"",""time""
""fullscreenenter"",""1"",""7706""
","
","
","""event"",""trial"",""time""
""fullscreenenter"",""1"",""7706""
","
","","","","","","912.5999999046326","images/orange8.png","","","memory_trial","1","definitely_old",""
"html-keyboard-response","295","592132","0.0-18.0-0.125","4378","approach_avoid_sv1","""event"",""trial"",""time""
""fullscreenenter"",""1"",""7706""
","
","
","""event"",""trial"",""time""
""fullscreenenter"",""1"",""7706""
","
","","","","","","null","<div style=""font-size:60px;"">+</div>","null","","fixation","","",""
"memory-trial","296","594988","0.0-18.0-1.125","4378","approach_avoid_sv1","""event"",""trial"",""time""
""fullscreenenter"",""1"",""7706""
","
","
","""event"",""trial"",""time""
""fullscreenenter"",""1"",""7706""
","
","","","","","","1847.4000000953674","images/bush8.png","","","memory_trial","3","maybe_new",""
