"trial_type","trial_index","time_elapsed","internal_node_id","subject_id","task_version","interactions","blur_events","focus_events","fullscreenenter_events","fullscreenexit_events","success","timeout","failed_images","failed_audio","failed_video","rt","stimulus","response","button_pressed","task_part","key_press","answer","correct"
"pavlovia","0","3","0.0-0.0","7642","approach_avoid_sv1","""event"",""trial"",""time""
""fullscreenenter"",""1"",""1407""
","
","
","""event"",""trial"",""time""
""fullscreenenter"",""1"",""1407""
","
","","","","","","","","","","","","",""
"fullscreen","1","2402","0.0-1.0","7642","approach_avoid_sv1","""event"",""trial"",""time""
""fullscreenenter"",""1"",""1407""
","
","
","""event"",""trial"",""time""
""fullscreenenter"",""1"",""1407""
","
","true","","","","","","","","","","","",""
"preload","2","4217","0.0-2.0","7642","approach_avoid_sv1","""event"",""trial"",""time""
""fullscreenenter"",""1"",""1407""
","
","
","""event"",""trial"",""time""
""fullscreenenter"",""1"",""1407""
","
","true","false","[]","[]","[]","","","","","","","",""
"preload","3","4899","0.0-3.0","7642","approach_avoid_sv1","""event"",""trial"",""time""
""fullscreenenter"",""1"",""1407""
","
","
","""event"",""trial"",""time""
""fullscreenenter"",""1"",""1407""
","
","true","false","[]","[]","[]","","","","","","","",""
"preload","4","5144","0.0-4.0","7642","approach_avoid_sv1","""event"",""trial"",""time""
""fullscreenenter"",""1"",""1407""
","
","
","""event"",""trial"",""time""
""fullscreenenter"",""1"",""1407""
","
","true","false","[]","[]","[]","","","","","","","",""
"audio-keyboard-response","5","12720","0.0-5.0","7642","approach_avoid_sv1","""event"",""trial"",""time""
""fullscreenenter"",""1"",""1407""
","
","
","""event"",""trial"",""time""
""fullscreenenter"",""1"",""1407""
","
","","","","","","7575.510204081633","audio/beep_loop.wav"," ","","","","",""
"audio-button-response","6","14108","0.0-6.0","7642","approach_avoid_sv1","""event"",""trial"",""time""
""fullscreenenter"",""1"",""1407""
","
","
","""event"",""trial"",""time""
""fullscreenenter"",""1"",""1407""
","
","","","","","","1387","audio/turtle.wav","3","","","","",""
"audio-button-response","7","16420","0.0-7.0","7642","approach_avoid_sv1","""event"",""trial"",""time""
""fullscreenenter"",""1"",""1407""
","
","
","""event"",""trial"",""time""
""fullscreenenter"",""1"",""1407""
","
","","","","","","1306","audio/shark.wav","2","","","","",""
"preload","8","19379","0.0-8.0","7642","approach_avoid_sv1","""event"",""trial"",""time""
""fullscreenenter"",""1"",""1407""
","
","
","""event"",""trial"",""time""
""fullscreenenter"",""1"",""1407""
","
","true","false","[]","[]","[]","","","","","","","",""
"learning-instructions","9","25403","0.0-9.0-0.0","7642","approach_avoid_sv1","""event"",""trial"",""time""
""fullscreenenter"",""1"",""1407""
","
","
","""event"",""trial"",""time""
""fullscreenenter"",""1"",""1407""
","
","","","","","","1548.5999999046326","<p> Welcome back! </p><p> Last week, you had to make choices about lots of different items.  </p>","","0","instructions","","",""
"learning-instructions","10","30127","0.0-9.0-0.1","7642","approach_avoid_sv1","""event"",""trial"",""time""
""fullscreenenter"",""1"",""1407""
","
","
","""event"",""trial"",""time""
""fullscreenenter"",""1"",""1407""
","
","","","","","","607.1000000238419","<p> Today, we are going to ask you to try to remember all the items. </p>","","0","instructions","","",""
"learning-instructions","11","42291","0.0-9.0-0.2","7642","approach_avoid_sv1","""event"",""trial"",""time""
""fullscreenenter"",""1"",""1407""
","
","
","""event"",""trial"",""time""
""fullscreenenter"",""1"",""1407""
","
","","","","","","2026.3999999761581","<p> On every trial, you will see an image. </p><p> The image may be an OLD image you saw during the games last week or it may be a NEW image that was not presented. </p>","","0","instructions","","",""
"learning-instructions","12","52224","0.0-9.0-0.3","7642","approach_avoid_sv1","""event"",""trial"",""time""
""fullscreenenter"",""1"",""1407""
","
","
","""event"",""trial"",""time""
""fullscreenenter"",""1"",""1407""
","
","","","","","","1433.7999999523163","<p> You need to select whether the image is:  </p><p>  'Definitely old', 'Maybe old', 'Maybe new', or 'Definitely new.'  </p><div class=""mem-choice-instructions-grid""><div class=""choice-option"" id=""choice-option-1"" ><img src=""images/definitely_old_1.png"" id=""choice-option-img-1"" class=""choice-option-img"" stage=""1""></div><div class=""choice-option"" id=""choice-option-2"" ><img src=""images/maybe_old_1.png"" id=""choice-option-img-2"" class=""choice-option-img"" stage=""1""></div><div class=""choice-option"" id=""choice-option-3"" ><img src=""images/maybe_new_1.png"" id=""choice-option-img-3"" class=""choice-option-img"" stage=""1""></div><div class=""choice-option"" id=""choice-option-4"" > <img src=""images/definitely_new_1.png"" id=""choice-option-img-4"" class=""choice-option-img"" stage=""1""></div></div>","","0","instructions","","",""
"learning-instructions","13","59617","0.0-9.0-0.4","7642","approach_avoid_sv1","""event"",""trial"",""time""
""fullscreenenter"",""1"",""1407""
","
","
","""event"",""trial"",""time""
""fullscreenenter"",""1"",""1407""
","
","","","","","","873.8999999761581","<p> You should use the 1, 2, 3, and 4 keys to make your responses.  </p><div class=""mem-choice-instructions-grid""><div class=""choice-option"" id=""choice-option-1"" ><img src=""images/definitely_old.png"" id=""choice-option-img-1"" class=""choice-option-img"" stage=""1""></div><div class=""choice-option"" id=""choice-option-2"" ><img src=""images/maybe_old.png"" id=""choice-option-img-2"" class=""choice-option-img"" stage=""1""></div><div class=""choice-option"" id=""choice-option-3"" ><img src=""images/maybe_new.png"" id=""choice-option-img-3"" class=""choice-option-img"" stage=""1""></div><div class=""choice-option"" id=""choice-option-4"" > <img src=""images/definitely_new.png"" id=""choice-option-img-4"" class=""choice-option-img"" stage=""1""></div></div>","","0","instructions","","",""
"learning-instructions","14","66777","0.0-9.0-0.5","7642","approach_avoid_sv1","""event"",""trial"",""time""
""fullscreenenter"",""1"",""1407""
","
","
","""event"",""trial"",""time""
""fullscreenenter"",""1"",""1407""
","
","","","","","","836.1999999284744","<p> You will have 10 seconds to make each response.  </p><p>  Make sure to respond before time runs out! </p>","","0","instructions","","",""
"learning-instructions","15","74471","0.0-9.0-0.6","7642","approach_avoid_sv1","""event"",""trial"",""time""
""fullscreenenter"",""1"",""1407""
","
","
","""event"",""trial"",""time""
""fullscreenenter"",""1"",""1407""
","
","","","","","","618.6000000238419","<p> Today, you will see each image ONCE only.  </p><p>  That means none of the images will repeat. </p>","","0","instructions","","",""
"learning-instructions","16","91140","0.0-9.0-0.7","7642","approach_avoid_sv1","""event"",""trial"",""time""
""fullscreenenter"",""1"",""1407""
","
","
","""event"",""trial"",""time""
""fullscreenenter"",""1"",""1407""
","
","","","","","","3999.5","<p> Before you play the real game, it is time to practice. </p><p>  Just like in the real game, some of the images in the practice will be ones you have seen before. </p><p>  Others will be entirely new. </p>","","0","instructions","","",""
"html-button-response","17","93297","0.0-10.0","7642","approach_avoid_sv1","""event"",""trial"",""time""
""fullscreenenter"",""1"",""1407""
","
","
","""event"",""trial"",""time""
""fullscreenenter"",""1"",""1407""
","
","","","","","","2050.899999976158","<p> Ready to practice? </p><p> Remember, use the 1, 2, 3, and 4 keys to make your responses. </p>","0","","instructions","","",""
"html-keyboard-response","18","93915","0.0-11.0-0.0","7642","approach_avoid_sv1","""event"",""trial"",""time""
""fullscreenenter"",""1"",""1407""
","
","
","""event"",""trial"",""time""
""fullscreenenter"",""1"",""1407""
","
","","","","","","null","<div style=""font-size:60px;"">+</div>","null","","fixation","","",""
"memory-trial","19","96666","0.0-11.0-1.0","7642","approach_avoid_sv1","""event"",""trial"",""time""
""fullscreenenter"",""1"",""1407""
","
","
","""event"",""trial"",""time""
""fullscreenenter"",""1"",""1407""
","
","","","","","","1741","images/ball5.png","","","practice","2","maybe_old",""
"html-keyboard-response","20","97171","0.0-11.0-0.1","7642","approach_avoid_sv1","""event"",""trial"",""time""
""fullscreenenter"",""1"",""1407""
","
","
","""event"",""trial"",""time""
""fullscreenenter"",""1"",""1407""
","
","","","","","","null","<div style=""font-size:60px;"">+</div>","null","","fixation","","",""
"memory-trial","21","100788","0.0-11.0-1.1","7642","approach_avoid_sv1","""event"",""trial"",""time""
""fullscreenenter"",""1"",""1407""
","
","
","""event"",""trial"",""time""
""fullscreenenter"",""1"",""1407""
","
","","","","","","2611.2000000476837","images/racket1.png","","","practice","3","maybe_new",""
"html-keyboard-response","22","101299","0.0-11.0-0.2","7642","approach_avoid_sv1","""event"",""trial"",""time""
""fullscreenenter"",""1"",""1407""
","
","
","""event"",""trial"",""time""
""fullscreenenter"",""1"",""1407""
","
","","","","","","null","<div style=""font-size:60px;"">+</div>","null","","fixation","","",""
"memory-trial","23","104387","0.0-11.0-1.2","7642","approach_avoid_sv1","""event"",""trial"",""time""
""fullscreenenter"",""1"",""1407""
","
","
","""event"",""trial"",""time""
""fullscreenenter"",""1"",""1407""
","
","","","","","","2080.5","images/racket3.png","","","practice","2","maybe_old",""
"html-keyboard-response","24","104892","0.0-11.0-0.3","7642","approach_avoid_sv1","""event"",""trial"",""time""
""fullscreenenter"",""1"",""1407""
","
","
","""event"",""trial"",""time""
""fullscreenenter"",""1"",""1407""
","
","","","","","","null","<div style=""font-size:60px;"">+</div>","null","","fixation","","",""
"memory-trial","25","107011","0.0-11.0-1.3","7642","approach_avoid_sv1","""event"",""trial"",""time""
""fullscreenenter"",""1"",""1407""
","
","
","""event"",""trial"",""time""
""fullscreenenter"",""1"",""1407""
","
","","","","","","1108.8999999761581","images/ball3.png","","","practice","2","maybe_old",""
"html-keyboard-response","26","107516","0.0-11.0-0.4","7642","approach_avoid_sv1","""event"",""trial"",""time""
""fullscreenenter"",""1"",""1407""
","
","
","""event"",""trial"",""time""
""fullscreenenter"",""1"",""1407""
","
","","","","","","null","<div style=""font-size:60px;"">+</div>","null","","fixation","","",""
"memory-trial","27","109669","0.0-11.0-1.4","7642","approach_avoid_sv1","""event"",""trial"",""time""
""fullscreenenter"",""1"",""1407""
","
","
","""event"",""trial"",""time""
""fullscreenenter"",""1"",""1407""
","
","","","","","","1146.2000000476837","images/ball2.png","","","practice","2","maybe_old",""
"html-keyboard-response","28","110180","0.0-11.0-0.5","7642","approach_avoid_sv1","""event"",""trial"",""time""
""fullscreenenter"",""1"",""1407""
","
","
","""event"",""trial"",""time""
""fullscreenenter"",""1"",""1407""
","
","","","","","","null","<div style=""font-size:60px;"">+</div>","null","","fixation","","",""
"memory-trial","29","112021","0.0-11.0-1.5","7642","approach_avoid_sv1","""event"",""trial"",""time""
""fullscreenenter"",""1"",""1407""
","
","
","""event"",""trial"",""time""
""fullscreenenter"",""1"",""1407""
","
","","","","","","832.7999999523163","images/ball1.png","","","practice","2","maybe_old",""
"html-keyboard-response","30","112531","0.0-11.0-0.6","7642","approach_avoid_sv1","""event"",""trial"",""time""
""fullscreenenter"",""1"",""1407""
","
","
","""event"",""trial"",""time""
""fullscreenenter"",""1"",""1407""
","
","","","","","","null","<div style=""font-size:60px;"">+</div>","null","","fixation","","",""
"memory-trial","31","115185","0.0-11.0-1.6","7642","approach_avoid_sv1","""event"",""trial"",""time""
""fullscreenenter"",""1"",""1407""
","
","
","""event"",""trial"",""time""
""fullscreenenter"",""1"",""1407""
","
","","","","","","1647.7000000476837","images/racket5.png","","","practice","2","maybe_old",""
"html-keyboard-response","32","115689","0.0-11.0-0.7","7642","approach_avoid_sv1","""event"",""trial"",""time""
""fullscreenenter"",""1"",""1407""
","
","
","""event"",""trial"",""time""
""fullscreenenter"",""1"",""1407""
","
","","","","","","null","<div style=""font-size:60px;"">+</div>","null","","fixation","","",""
"memory-trial","33","117717","0.0-11.0-1.7","7642","approach_avoid_sv1","""event"",""trial"",""time""
""fullscreenenter"",""1"",""1407""
","
","
","""event"",""trial"",""time""
""fullscreenenter"",""1"",""1407""
","
","","","","","","1021.5","images/racket2.png","","","practice","3","maybe_new",""
"learning-instructions","34","127466","0.0-12.0-0.0","7642","approach_avoid_sv1","""event"",""trial"",""time""
""fullscreenenter"",""1"",""1407""
","
","
","""event"",""trial"",""time""
""fullscreenenter"",""1"",""1407""
","
","","","","","","2434","<p> Great! You have completed the practice. </p><p> Before you start, we're going to ask you a few questions about how the game works.  </p>","","0","instructions","","",""
"preload","35","129168","0.0-13.0","7642","approach_avoid_sv1","""event"",""trial"",""time""
""fullscreenenter"",""1"",""1407""
","
","
","""event"",""trial"",""time""
""fullscreenenter"",""1"",""1407""
","
","true","false","[]","[]","[]","","","","","","","",""
"comp-q","36","138519","0.0-14.0-0.0","7642","approach_avoid_sv1","""event"",""trial"",""time""
""fullscreenenter"",""1"",""1407""
","
","
","""event"",""trial"",""time""
""fullscreenenter"",""1"",""1407""
","
","","","","","","3525.100000023842","<p> <b> True or False? </b> </p><p> In this game, you will only see each image once. </p>","","1","comp_question","","","false"
"comp-q","37","146205","0.0-14.0-1.0","7642","approach_avoid_sv1","""event"",""trial"",""time""
""fullscreenenter"",""1"",""1407""
","
","
","""event"",""trial"",""time""
""fullscreenenter"",""1"",""1407""
","
","","","","","","1151.5","<p> <b>Incorrect.</b> You will see many different images <i> one time each </i> in this game. </p>","","0","comp_answer","","",""
"comp-q","38","153077","0.0-14.1-0.1","7642","approach_avoid_sv1","""event"",""trial"",""time""
""fullscreenenter"",""1"",""1407""
","
","
","""event"",""trial"",""time""
""fullscreenenter"",""1"",""1407""
","
","","","","","","935.3000000715256","<p> <b> True or False? </b> </p><p> In this game, you will only see each image once. </p>","","0","comp_question","","","true"
"comp-q","39","160210","0.0-14.1-1.1","7642","approach_avoid_sv1","""event"",""trial"",""time""
""fullscreenenter"",""1"",""1407""
","
","
","""event"",""trial"",""time""
""fullscreenenter"",""1"",""1407""
","
","","","","","","794.8999999761581","<p> <b> That's right! </b> You will see many different images <i> one time each </i> in this game. </p>","","0","comp_answer","","",""
"comp-q","40","166074","0.0-15.0-0.0","7642","approach_avoid_sv1","""event"",""trial"",""time""
""fullscreenenter"",""1"",""1407""
","
","
","""event"",""trial"",""time""
""fullscreenenter"",""1"",""1407""
","
","","","","","","853.7000000476837","<p> <b> True or False? </b> </p><p> You should use the mouse and click to make your response. </p>","","1","comp_question","","","true"
"comp-q","41","173419","0.0-15.0-1.0","7642","approach_avoid_sv1","""event"",""trial"",""time""
""fullscreenenter"",""1"",""1407""
","
","
","""event"",""trial"",""time""
""fullscreenenter"",""1"",""1407""
","
","","","","","","843","<p><b> That's right! </b> You should use the '1', '2', '3', and '4' keys to make your response. </p>","","0","comp_answer","","",""
"comp-q","42","179680","0.0-16.0-0.0","7642","approach_avoid_sv1","""event"",""trial"",""time""
""fullscreenenter"",""1"",""1407""
","
","
","""event"",""trial"",""time""
""fullscreenenter"",""1"",""1407""
","
","","","","","","584.8999999761581","<p> <b> True or False? </b> </p><p> You will have as much time as you want to make each choice. </p>","","1","comp_question","","","true"
"comp-q","43","185210","0.0-16.0-1.0","7642","approach_avoid_sv1","""event"",""trial"",""time""
""fullscreenenter"",""1"",""1407""
","
","
","""event"",""trial"",""time""
""fullscreenenter"",""1"",""1407""
","
","","","","","","826.5","<p> <b> That's right! </b> You will only have 10 seconds to make each choice. </p>","","0","comp_answer","","",""
"learning-instructions","44","195212","0.0-17.0","7642","approach_avoid_sv1","""event"",""trial"",""time""
""fullscreenenter"",""1"",""1407""
","
","
","""event"",""trial"",""time""
""fullscreenenter"",""1"",""1407""
","
","","","","","","1325.8999999761581","<p> Great! You are now ready to begin the game. </p><p> Remember, use the 1, 2, 3, and 4 keys to make your responses. </p>","","0","instructions","","",""
"html-keyboard-response","45","195819","0.0-18.0-0.0","7642","approach_avoid_sv1","""event"",""trial"",""time""
""fullscreenenter"",""1"",""1407""
","
","
","""event"",""trial"",""time""
""fullscreenenter"",""1"",""1407""
","
","","","","","","null","<div style=""font-size:60px;"">+</div>","null","","fixation","","",""
"memory-trial","46","198965","0.0-18.0-1.0","7642","approach_avoid_sv1","""event"",""trial"",""time""
""fullscreenenter"",""1"",""1407""
","
","
","""event"",""trial"",""time""
""fullscreenenter"",""1"",""1407""
","
","","","","","","2135.100000023842","images/bed1.png","","","memory_trial","3","maybe_new",""
"html-keyboard-response","47","199476","0.0-18.0-0.1","7642","approach_avoid_sv1","""event"",""trial"",""time""
""fullscreenenter"",""1"",""1407""
","
","
","""event"",""trial"",""time""
""fullscreenenter"",""1"",""1407""
","
","","","","","","null","<div style=""font-size:60px;"">+</div>","null","","fixation","","",""
"memory-trial","48","202645","0.0-18.0-1.1","7642","approach_avoid_sv1","""event"",""trial"",""time""
""fullscreenenter"",""1"",""1407""
","
","
","""event"",""trial"",""time""
""fullscreenenter"",""1"",""1407""
","
","","","","","","2157.7000000476837","images/straw2.png","","","memory_trial","2","maybe_old",""
"html-keyboard-response","49","203156","0.0-18.0-0.2","7642","approach_avoid_sv1","""event"",""trial"",""time""
""fullscreenenter"",""1"",""1407""
","
","
","""event"",""trial"",""time""
""fullscreenenter"",""1"",""1407""
","
","","","","","","null","<div style=""font-size:60px;"">+</div>","null","","fixation","","",""
"memory-trial","50","205252","0.0-18.0-1.2","7642","approach_avoid_sv1","""event"",""trial"",""time""
""fullscreenenter"",""1"",""1407""
","
","
","""event"",""trial"",""time""
""fullscreenenter"",""1"",""1407""
","
","","","","","","1090.5","images/rodent2.png","","","memory_trial","2","maybe_old",""
"html-keyboard-response","51","205756","0.0-18.0-0.3","7642","approach_avoid_sv1","""event"",""trial"",""time""
""fullscreenenter"",""1"",""1407""
","
","
","""event"",""trial"",""time""
""fullscreenenter"",""1"",""1407""
","
","","","","","","null","<div style=""font-size:60px;"">+</div>","null","","fixation","","",""
"memory-trial","52","207811","0.0-18.0-1.3","7642","approach_avoid_sv1","""event"",""trial"",""time""
""fullscreenenter"",""1"",""1407""
","
","
","""event"",""trial"",""time""
""fullscreenenter"",""1"",""1407""
","
","","","","","","1046.8000000715256","images/table7.png","","","memory_trial","3","maybe_new",""
"html-keyboard-response","53","208314","0.0-18.0-0.4","7642","approach_avoid_sv1","""event"",""trial"",""time""
""fullscreenenter"",""1"",""1407""
","
","
","""event"",""trial"",""time""
""fullscreenenter"",""1"",""1407""
","
","","","","","","null","<div style=""font-size:60px;"">+</div>","null","","fixation","","",""
"memory-trial","54","210813","0.0-18.0-1.4","7642","approach_avoid_sv1","""event"",""trial"",""time""
""fullscreenenter"",""1"",""1407""
","
","
","""event"",""trial"",""time""
""fullscreenenter"",""1"",""1407""
","
","","","","","","1487","images/dog6.png","","","memory_trial","2","maybe_old",""
"html-keyboard-response","55","211318","0.0-18.0-0.5","7642","approach_avoid_sv1","""event"",""trial"",""time""
""fullscreenenter"",""1"",""1407""
","
","
","""event"",""trial"",""time""
""fullscreenenter"",""1"",""1407""
","
","","","","","","null","<div style=""font-size:60px;"">+</div>","null","","fixation","","",""
"memory-trial","56","213158","0.0-18.0-1.5","7642","approach_avoid_sv1","""event"",""trial"",""time""
""fullscreenenter"",""1"",""1407""
","
","
","""event"",""trial"",""time""
""fullscreenenter"",""1"",""1407""
","
","","","","","","830.1000000238419","images/train2.png","","","memory_trial","2","maybe_old",""
"html-keyboard-response","57","213669","0.0-18.0-0.6","7642","approach_avoid_sv1","""event"",""trial"",""time""
""fullscreenenter"",""1"",""1407""
","
","
","""event"",""trial"",""time""
""fullscreenenter"",""1"",""1407""
","
","","","","","","null","<div style=""font-size:60px;"">+</div>","null","","fixation","","",""
"memory-trial","58","215898","0.0-18.0-1.6","7642","approach_avoid_sv1","""event"",""trial"",""time""
""fullscreenenter"",""1"",""1407""
","
","
","""event"",""trial"",""time""
""fullscreenenter"",""1"",""1407""
","
","","","","","","1221","images/tree3.png","","","memory_trial","1","definitely_old",""
"html-keyboard-response","59","216403","0.0-18.0-0.7","7642","approach_avoid_sv1","""event"",""trial"",""time""
""fullscreenenter"",""1"",""1407""
","
","
","""event"",""trial"",""time""
""fullscreenenter"",""1"",""1407""
","
","","","","","","null","<div style=""font-size:60px;"">+</div>","null","","fixation","","",""
"memory-trial","60","219939","0.0-18.0-1.7","7642","approach_avoid_sv1","""event"",""trial"",""time""
""fullscreenenter"",""1"",""1407""
","
","
","""event"",""trial"",""time""
""fullscreenenter"",""1"",""1407""
","
","","","","","","2527.899999976158","images/goat7.png","","","memory_trial","4","definitely_new",""
"html-keyboard-response","61","220445","0.0-18.0-0.8","7642","approach_avoid_sv1","""event"",""trial"",""time""
""fullscreenenter"",""1"",""1407""
","
","
","""event"",""trial"",""time""
""fullscreenenter"",""1"",""1407""
","
","","","","","","null","<div style=""font-size:60px;"">+</div>","null","","fixation","","",""
"memory-trial","62","223573","0.0-18.0-1.8","7642","approach_avoid_sv1","""event"",""trial"",""time""
""fullscreenenter"",""1"",""1407""
","
","
","""event"",""trial"",""time""
""fullscreenenter"",""1"",""1407""
","
","","","","","","2121.1999999284744","images/sofa5.png","","","memory_trial","2","maybe_old",""
"html-keyboard-response","63","224079","0.0-18.0-0.9","7642","approach_avoid_sv1","""event"",""trial"",""time""
""fullscreenenter"",""1"",""1407""
","
","
","""event"",""trial"",""time""
""fullscreenenter"",""1"",""1407""
","
","","","","","","null","<div style=""font-size:60px;"">+</div>","null","","fixation","","",""
"memory-trial","64","226581","0.0-18.0-1.9","7642","approach_avoid_sv1","""event"",""trial"",""time""
""fullscreenenter"",""1"",""1407""
","
","
","""event"",""trial"",""time""
""fullscreenenter"",""1"",""1407""
","
","","","","","","1495.7000000476837","images/rodent3.png","","","memory_trial","2","maybe_old",""
"html-keyboard-response","65","227086","0.0-18.0-0.10","7642","approach_avoid_sv1","""event"",""trial"",""time""
""fullscreenenter"",""1"",""1407""
","
","
","""event"",""trial"",""time""
""fullscreenenter"",""1"",""1407""
","
","","","","","","null","<div style=""font-size:60px;"">+</div>","null","","fixation","","",""
"memory-trial","66","230882","0.0-18.0-1.10","7642","approach_avoid_sv1","""event"",""trial"",""time""
""fullscreenenter"",""1"",""1407""
","
","
","""event"",""trial"",""time""
""fullscreenenter"",""1"",""1407""
","
","","","","","","2791.2000000476837","images/flower8.png","","","memory_trial","3","maybe_new",""
"html-keyboard-response","67","231387","0.0-18.0-0.11","7642","approach_avoid_sv1","""event"",""trial"",""time""
""fullscreenenter"",""1"",""1407""
","
","
","""event"",""trial"",""time""
""fullscreenenter"",""1"",""1407""
","
","","","","","","null","<div style=""font-size:60px;"">+</div>","null","","fixation","","",""
"memory-trial","68","233965","0.0-18.0-1.11","7642","approach_avoid_sv1","""event"",""trial"",""time""
""fullscreenenter"",""1"",""1407""
","
","
","""event"",""trial"",""time""
""fullscreenenter"",""1"",""1407""
","
","","","","","","1569.2000000476837","images/straw4.png","","","memory_trial","2","maybe_old",""
"html-keyboard-response","69","234470","0.0-18.0-0.12","7642","approach_avoid_sv1","""event"",""trial"",""time""
""fullscreenenter"",""1"",""1407""
","
","
","""event"",""trial"",""time""
""fullscreenenter"",""1"",""1407""
","
","","","","","","null","<div style=""font-size:60px;"">+</div>","null","","fixation","","",""
"memory-trial","70","237163","0.0-18.0-1.12","7642","approach_avoid_sv1","""event"",""trial"",""time""
""fullscreenenter"",""1"",""1407""
","
","
","""event"",""trial"",""time""
""fullscreenenter"",""1"",""1407""
","
","","","","","","1685.5","images/table4.png","","","memory_trial","3","maybe_new",""
"html-keyboard-response","71","237668","0.0-18.0-0.13","7642","approach_avoid_sv1","""event"",""trial"",""time""
""fullscreenenter"",""1"",""1407""
","
","
","""event"",""trial"",""time""
""fullscreenenter"",""1"",""1407""
","
","","","","","","null","<div style=""font-size:60px;"">+</div>","null","","fixation","","",""
"memory-trial","72","239822","0.0-18.0-1.13","7642","approach_avoid_sv1","""event"",""trial"",""time""
""fullscreenenter"",""1"",""1407""
","
","
","""event"",""trial"",""time""
""fullscreenenter"",""1"",""1407""
","
","","","","","","1143.7000000476837","images/boat6.png","","","memory_trial","3","maybe_new",""
"html-keyboard-response","73","240333","0.0-18.0-0.14","7642","approach_avoid_sv1","""event"",""trial"",""time""
""fullscreenenter"",""1"",""1407""
","
","
","""event"",""trial"",""time""
""fullscreenenter"",""1"",""1407""
","
","","","","","","null","<div style=""font-size:60px;"">+</div>","null","","fixation","","",""
"memory-trial","74","242331","0.0-18.0-1.14","7642","approach_avoid_sv1","""event"",""trial"",""time""
""fullscreenenter"",""1"",""1407""
","
","
","""event"",""trial"",""time""
""fullscreenenter"",""1"",""1407""
","
","","","","","","993.5","images/boat4.png","","","memory_trial","4","definitely_new",""
"html-keyboard-response","75","242835","0.0-18.0-0.15","7642","approach_avoid_sv1","""event"",""trial"",""time""
""fullscreenenter"",""1"",""1407""
","
","
","""event"",""trial"",""time""
""fullscreenenter"",""1"",""1407""
","
","","","","","","null","<div style=""font-size:60px;"">+</div>","null","","fixation","","",""
"memory-trial","76","244971","0.0-18.0-1.15","7642","approach_avoid_sv1","""event"",""trial"",""time""
""fullscreenenter"",""1"",""1407""
","
","
","""event"",""trial"",""time""
""fullscreenenter"",""1"",""1407""
","
","","","","","","1132.7000000476837","images/banana3.png","","","memory_trial","2","maybe_old",""
"html-keyboard-response","77","245476","0.0-18.0-0.16","7642","approach_avoid_sv1","""event"",""trial"",""time""
""fullscreenenter"",""1"",""1407""
","
","
","""event"",""trial"",""time""
""fullscreenenter"",""1"",""1407""
","
","","","","","","null","<div style=""font-size:60px;"">+</div>","null","","fixation","","",""
"memory-trial","78","247918","0.0-18.0-1.16","7642","approach_avoid_sv1","""event"",""trial"",""time""
""fullscreenenter"",""1"",""1407""
","
","
","""event"",""trial"",""time""
""fullscreenenter"",""1"",""1407""
","
","","","","","","1431.1999999284744","images/rabbit6.png","","","memory_trial","4","definitely_new",""
"html-keyboard-response","79","248419","0.0-18.0-0.17","7642","approach_avoid_sv1","""event"",""trial"",""time""
""fullscreenenter"",""1"",""1407""
","
","
","""event"",""trial"",""time""
""fullscreenenter"",""1"",""1407""
","
","","","","","","null","<div style=""font-size:60px;"">+</div>","null","","fixation","","",""
"memory-trial","80","250556","0.0-18.0-1.17","7642","approach_avoid_sv1","""event"",""trial"",""time""
""fullscreenenter"",""1"",""1407""
","
","
","""event"",""trial"",""time""
""fullscreenenter"",""1"",""1407""
","
","","","","","","1125.8999999761581","images/train1.png","","","memory_trial","1","definitely_old",""
"html-keyboard-response","81","251061","0.0-18.0-0.18","7642","approach_avoid_sv1","""event"",""trial"",""time""
""fullscreenenter"",""1"",""1407""
","
","
","""event"",""trial"",""time""
""fullscreenenter"",""1"",""1407""
","
","","","","","","null","<div style=""font-size:60px;"">+</div>","null","","fixation","","",""
"memory-trial","82","253261","0.0-18.0-1.18","7642","approach_avoid_sv1","""event"",""trial"",""time""
""fullscreenenter"",""1"",""1407""
","
","
","""event"",""trial"",""time""
""fullscreenenter"",""1"",""1407""
","
","","","","","","1188.3999999761581","images/table2.png","","","memory_trial","2","maybe_old",""
"html-keyboard-response","83","253765","0.0-18.0-0.19","7642","approach_avoid_sv1","""event"",""trial"",""time""
""fullscreenenter"",""1"",""1407""
","
","
","""event"",""trial"",""time""
""fullscreenenter"",""1"",""1407""
","
","","","","","","null","<div style=""font-size:60px;"">+</div>","null","","fixation","","",""
"memory-trial","84","257156","0.0-18.0-1.19","7642","approach_avoid_sv1","""event"",""trial"",""time""
""fullscreenenter"",""1"",""1407""
","
","
","""event"",""trial"",""time""
""fullscreenenter"",""1"",""1407""
","
","","","","","","2381.7000000476837","images/rabbit2.png","","","memory_trial","3","maybe_new",""
"html-keyboard-response","85","257661","0.0-18.0-0.20","7642","approach_avoid_sv1","""event"",""trial"",""time""
""fullscreenenter"",""1"",""1407""
","
","
","""event"",""trial"",""time""
""fullscreenenter"",""1"",""1407""
","
","","","","","","null","<div style=""font-size:60px;"">+</div>","null","","fixation","","",""
"memory-trial","86","259699","0.0-18.0-1.20","7642","approach_avoid_sv1","""event"",""trial"",""time""
""fullscreenenter"",""1"",""1407""
","
","
","""event"",""trial"",""time""
""fullscreenenter"",""1"",""1407""
","
","","","","","","1028.8000000715256","images/cow2.png","","","memory_trial","3","maybe_new",""
"html-keyboard-response","87","260204","0.0-18.0-0.21","7642","approach_avoid_sv1","""event"",""trial"",""time""
""fullscreenenter"",""1"",""1407""
","
","
","""event"",""trial"",""time""
""fullscreenenter"",""1"",""1407""
","
","","","","","","null","<div style=""font-size:60px;"">+</div>","null","","fixation","","",""
"memory-trial","88","262515","0.0-18.0-1.21","7642","approach_avoid_sv1","""event"",""trial"",""time""
""fullscreenenter"",""1"",""1407""
","
","
","""event"",""trial"",""time""
""fullscreenenter"",""1"",""1407""
","
","","","","","","1302.1000000238419","images/sheep4.png","","","memory_trial","2","maybe_old",""
"html-keyboard-response","89","263019","0.0-18.0-0.22","7642","approach_avoid_sv1","""event"",""trial"",""time""
""fullscreenenter"",""1"",""1407""
","
","
","""event"",""trial"",""time""
""fullscreenenter"",""1"",""1407""
","
","","","","","","null","<div style=""font-size:60px;"">+</div>","null","","fixation","","",""
"memory-trial","90","264964","0.0-18.0-1.22","7642","approach_avoid_sv1","""event"",""trial"",""time""
""fullscreenenter"",""1"",""1407""
","
","
","""event"",""trial"",""time""
""fullscreenenter"",""1"",""1407""
","
","","","","","","934.2000000476837","images/banana5.png","","","memory_trial","2","maybe_old",""
"html-keyboard-response","91","265469","0.0-18.0-0.23","7642","approach_avoid_sv1","""event"",""trial"",""time""
""fullscreenenter"",""1"",""1407""
","
","
","""event"",""trial"",""time""
""fullscreenenter"",""1"",""1407""
","
","","","","","","null","<div style=""font-size:60px;"">+</div>","null","","fixation","","",""
"memory-trial","92","267483","0.0-18.0-1.23","7642","approach_avoid_sv1","""event"",""trial"",""time""
""fullscreenenter"",""1"",""1407""
","
","
","""event"",""trial"",""time""
""fullscreenenter"",""1"",""1407""
","
","","","","","","1012.2999999523163","images/dog1.png","","","memory_trial","4","definitely_new",""
"html-keyboard-response","93","267988","0.0-18.0-0.24","7642","approach_avoid_sv1","""event"",""trial"",""time""
""fullscreenenter"",""1"",""1407""
","
","
","""event"",""trial"",""time""
""fullscreenenter"",""1"",""1407""
","
","","","","","","null","<div style=""font-size:60px;"">+</div>","null","","fixation","","",""
"memory-trial","94","270403","0.0-18.0-1.24","7642","approach_avoid_sv1","""event"",""trial"",""time""
""fullscreenenter"",""1"",""1407""
","
","
","""event"",""trial"",""time""
""fullscreenenter"",""1"",""1407""
","
","","","","","","1412.9000000953674","images/horse2.png","","","memory_trial","1","definitely_old",""
"html-keyboard-response","95","270908","0.0-18.0-0.25","7642","approach_avoid_sv1","""event"",""trial"",""time""
""fullscreenenter"",""1"",""1407""
","
","
","""event"",""trial"",""time""
""fullscreenenter"",""1"",""1407""
","
","","","","","","null","<div style=""font-size:60px;"">+</div>","null","","fixation","","",""
"memory-trial","96","273608","0.0-18.0-1.25","7642","approach_avoid_sv1","""event"",""trial"",""time""
""fullscreenenter"",""1"",""1407""
","
","
","""event"",""trial"",""time""
""fullscreenenter"",""1"",""1407""
","
","","","","","","1692.1000000238419","images/orange7.png","","","memory_trial","3","maybe_new",""
"html-keyboard-response","97","274118","0.0-18.0-0.26","7642","approach_avoid_sv1","""event"",""trial"",""time""
""fullscreenenter"",""1"",""1407""
","
","
","""event"",""trial"",""time""
""fullscreenenter"",""1"",""1407""
","
","","","","","","null","<div style=""font-size:60px;"">+</div>","null","","fixation","","",""
"memory-trial","98","276243","0.0-18.0-1.26","7642","approach_avoid_sv1","""event"",""trial"",""time""
""fullscreenenter"",""1"",""1407""
","
","
","""event"",""trial"",""time""
""fullscreenenter"",""1"",""1407""
","
","","","","","","1123","images/bed4.png","","","memory_trial","4","definitely_new",""
"html-keyboard-response","99","276752","0.0-18.0-0.27","7642","approach_avoid_sv1","""event"",""trial"",""time""
""fullscreenenter"",""1"",""1407""
","
","
","""event"",""trial"",""time""
""fullscreenenter"",""1"",""1407""
","
","","","","","","null","<div style=""font-size:60px;"">+</div>","null","","fixation","","",""
"memory-trial","100","279332","0.0-18.0-1.27","7642","approach_avoid_sv1","""event"",""trial"",""time""
""fullscreenenter"",""1"",""1407""
","
","
","""event"",""trial"",""time""
""fullscreenenter"",""1"",""1407""
","
","","","","","","1577.2999999523163","images/sheep6.png","","","memory_trial","3","maybe_new",""
"html-keyboard-response","101","279836","0.0-18.0-0.28","7642","approach_avoid_sv1","""event"",""trial"",""time""
""fullscreenenter"",""1"",""1407""
","
","
","""event"",""trial"",""time""
""fullscreenenter"",""1"",""1407""
","
","","","","","","null","<div style=""font-size:60px;"">+</div>","null","","fixation","","",""
"memory-trial","102","282484","0.0-18.0-1.28","7642","approach_avoid_sv1","""event"",""trial"",""time""
""fullscreenenter"",""1"",""1407""
","
","
","""event"",""trial"",""time""
""fullscreenenter"",""1"",""1407""
","
","","","","","","1644.2000000476837","images/sofa8.png","","","memory_trial","3","maybe_new",""
"html-keyboard-response","103","282989","0.0-18.0-0.29","7642","approach_avoid_sv1","""event"",""trial"",""time""
""fullscreenenter"",""1"",""1407""
","
","
","""event"",""trial"",""time""
""fullscreenenter"",""1"",""1407""
","
","","","","","","null","<div style=""font-size:60px;"">+</div>","null","","fixation","","",""
"memory-trial","104","285351","0.0-18.0-1.29","7642","approach_avoid_sv1","""event"",""trial"",""time""
""fullscreenenter"",""1"",""1407""
","
","
","""event"",""trial"",""time""
""fullscreenenter"",""1"",""1407""
","
","","","","","","1353.5","images/cat5.png","","","memory_trial","2","maybe_old",""
"html-keyboard-response","105","285862","0.0-18.0-0.30","7642","approach_avoid_sv1","""event"",""trial"",""time""
""fullscreenenter"",""1"",""1407""
","
","
","""event"",""trial"",""time""
""fullscreenenter"",""1"",""1407""
","
","","","","","","null","<div style=""font-size:60px;"">+</div>","null","","fixation","","",""
"memory-trial","106","288167","0.0-18.0-1.30","7642","approach_avoid_sv1","""event"",""trial"",""time""
""fullscreenenter"",""1"",""1407""
","
","
","""event"",""trial"",""time""
""fullscreenenter"",""1"",""1407""
","
","","","","","","1292.8000000715256","images/cactus3.png","","","memory_trial","3","maybe_new",""
"html-keyboard-response","107","288678","0.0-18.0-0.31","7642","approach_avoid_sv1","""event"",""trial"",""time""
""fullscreenenter"",""1"",""1407""
","
","
","""event"",""trial"",""time""
""fullscreenenter"",""1"",""1407""
","
","","","","","","null","<div style=""font-size:60px;"">+</div>","null","","fixation","","",""
"memory-trial","108","290982","0.0-18.0-1.31","7642","approach_avoid_sv1","""event"",""trial"",""time""
""fullscreenenter"",""1"",""1407""
","
","
","""event"",""trial"",""time""
""fullscreenenter"",""1"",""1407""
","
","","","","","","1292.4000000953674","images/cactus5.png","","","memory_trial","1","definitely_old",""
"html-keyboard-response","109","291487","0.0-18.0-0.32","7642","approach_avoid_sv1","""event"",""trial"",""time""
""fullscreenenter"",""1"",""1407""
","
","
","""event"",""trial"",""time""
""fullscreenenter"",""1"",""1407""
","
","","","","","","null","<div style=""font-size:60px;"">+</div>","null","","fixation","","",""
"memory-trial","110","294239","0.0-18.0-1.32","7642","approach_avoid_sv1","""event"",""trial"",""time""
""fullscreenenter"",""1"",""1407""
","
","
","""event"",""trial"",""time""
""fullscreenenter"",""1"",""1407""
","
","","","","","","1739.5","images/rodent6.png","","","memory_trial","3","maybe_new",""
"html-keyboard-response","111","294750","0.0-18.0-0.33","7642","approach_avoid_sv1","""event"",""trial"",""time""
""fullscreenenter"",""1"",""1407""
","
","
","""event"",""trial"",""time""
""fullscreenenter"",""1"",""1407""
","
","","","","","","null","<div style=""font-size:60px;"">+</div>","null","","fixation","","",""
"memory-trial","112","297095","0.0-18.0-1.33","7642","approach_avoid_sv1","""event"",""trial"",""time""
""fullscreenenter"",""1"",""1407""
","
","
","""event"",""trial"",""time""
""fullscreenenter"",""1"",""1407""
","
","","","","","","1337.8999999761581","images/cow5.png","","","memory_trial","4","definitely_new",""
"html-keyboard-response","113","297606","0.0-18.0-0.34","7642","approach_avoid_sv1","""event"",""trial"",""time""
""fullscreenenter"",""1"",""1407""
","
","
","""event"",""trial"",""time""
""fullscreenenter"",""1"",""1407""
","
","","","","","","null","<div style=""font-size:60px;"">+</div>","null","","fixation","","",""
"memory-trial","114","299887","0.0-18.0-1.34","7642","approach_avoid_sv1","""event"",""trial"",""time""
""fullscreenenter"",""1"",""1407""
","
","
","""event"",""trial"",""time""
""fullscreenenter"",""1"",""1407""
","
","","","","","","1268.5","images/bed5.png","","","memory_trial","4","definitely_new",""
"html-keyboard-response","115","300398","0.0-18.0-0.35","7642","approach_avoid_sv1","""event"",""trial"",""time""
""fullscreenenter"",""1"",""1407""
","
","
","""event"",""trial"",""time""
""fullscreenenter"",""1"",""1407""
","
","","","","","","null","<div style=""font-size:60px;"">+</div>","null","","fixation","","",""
"memory-trial","116","302668","0.0-18.0-1.35","7642","approach_avoid_sv1","""event"",""trial"",""time""
""fullscreenenter"",""1"",""1407""
","
","
","""event"",""trial"",""time""
""fullscreenenter"",""1"",""1407""
","
","","","","","","1260.5999999046326","images/flower4.png","","","memory_trial","3","maybe_new",""
"html-keyboard-response","117","303173","0.0-18.0-0.36","7642","approach_avoid_sv1","""event"",""trial"",""time""
""fullscreenenter"",""1"",""1407""
","
","
","""event"",""trial"",""time""
""fullscreenenter"",""1"",""1407""
","
","","","","","","null","<div style=""font-size:60px;"">+</div>","null","","fixation","","",""
"memory-trial","118","305060","0.0-18.0-1.36","7642","approach_avoid_sv1","""event"",""trial"",""time""
""fullscreenenter"",""1"",""1407""
","
","
","""event"",""trial"",""time""
""fullscreenenter"",""1"",""1407""
","
","","","","","","883.5","images/banana1.png","","","memory_trial","3","maybe_new",""
"html-keyboard-response","119","305565","0.0-18.0-0.37","7642","approach_avoid_sv1","""event"",""trial"",""time""
""fullscreenenter"",""1"",""1407""
","
","
","""event"",""trial"",""time""
""fullscreenenter"",""1"",""1407""
","
","","","","","","null","<div style=""font-size:60px;"">+</div>","null","","fixation","","",""
"memory-trial","120","307637","0.0-18.0-1.37","7642","approach_avoid_sv1","""event"",""trial"",""time""
""fullscreenenter"",""1"",""1407""
","
","
","""event"",""trial"",""time""
""fullscreenenter"",""1"",""1407""
","
","","","","","","1064.5","images/bush7.png","","","memory_trial","1","definitely_old",""
"html-keyboard-response","121","308142","0.0-18.0-0.38","7642","approach_avoid_sv1","""event"",""trial"",""time""
""fullscreenenter"",""1"",""1407""
","
","
","""event"",""trial"",""time""
""fullscreenenter"",""1"",""1407""
","
","","","","","","null","<div style=""font-size:60px;"">+</div>","null","","fixation","","",""
"memory-trial","122","310847","0.0-18.0-1.38","7642","approach_avoid_sv1","""event"",""trial"",""time""
""fullscreenenter"",""1"",""1407""
","
","
","""event"",""trial"",""time""
""fullscreenenter"",""1"",""1407""
","
","","","","","","1697.1000000238419","images/straw1.png","","","memory_trial","3","maybe_new",""
"html-keyboard-response","123","311358","0.0-18.0-0.39","7642","approach_avoid_sv1","""event"",""trial"",""time""
""fullscreenenter"",""1"",""1407""
","
","
","""event"",""trial"",""time""
""fullscreenenter"",""1"",""1407""
","
","","","","","","null","<div style=""font-size:60px;"">+</div>","null","","fixation","","",""
"memory-trial","124","313413","0.0-18.0-1.39","7642","approach_avoid_sv1","""event"",""trial"",""time""
""fullscreenenter"",""1"",""1407""
","
","
","""event"",""trial"",""time""
""fullscreenenter"",""1"",""1407""
","
","","","","","","1044.6000000238419","images/straw6.png","","","memory_trial","2","maybe_old",""
"html-keyboard-response","125","313918","0.0-18.0-0.40","7642","approach_avoid_sv1","""event"",""trial"",""time""
""fullscreenenter"",""1"",""1407""
","
","
","""event"",""trial"",""time""
""fullscreenenter"",""1"",""1407""
","
","","","","","","null","<div style=""font-size:60px;"">+</div>","null","","fixation","","",""
"memory-trial","126","315950","0.0-18.0-1.40","7642","approach_avoid_sv1","""event"",""trial"",""time""
""fullscreenenter"",""1"",""1407""
","
","
","""event"",""trial"",""time""
""fullscreenenter"",""1"",""1407""
","
","","","","","","1023.8999999761581","images/cactus7.png","","","memory_trial","3","maybe_new",""
"html-keyboard-response","127","316455","0.0-18.0-0.41","7642","approach_avoid_sv1","""event"",""trial"",""time""
""fullscreenenter"",""1"",""1407""
","
","
","""event"",""trial"",""time""
""fullscreenenter"",""1"",""1407""
","
","","","","","","null","<div style=""font-size:60px;"">+</div>","null","","fixation","","",""
"memory-trial","128","318725","0.0-18.0-1.41","7642","approach_avoid_sv1","""event"",""trial"",""time""
""fullscreenenter"",""1"",""1407""
","
","
","""event"",""trial"",""time""
""fullscreenenter"",""1"",""1407""
","
","","","","","","1263.3999999761581","images/rodent1.png","","","memory_trial","1","definitely_old",""
"html-button-response","129","322068","0.0-18.0-2.41-0.41","7642","approach_avoid_sv1","""event"",""trial"",""time""
""fullscreenenter"",""1"",""1407""
","
","
","""event"",""trial"",""time""
""fullscreenenter"",""1"",""1407""
","
","","","","","","3342.100000023842","<p> Take a break! </p><p> Click the button to continue. </p>","0","","break","","",""
"html-keyboard-response","130","322574","0.0-18.0-0.42","7642","approach_avoid_sv1","""event"",""trial"",""time""
""fullscreenenter"",""1"",""1407""
","
","
","""event"",""trial"",""time""
""fullscreenenter"",""1"",""1407""
","
","","","","","","null","<div style=""font-size:60px;"">+</div>","null","","fixation","","",""
"memory-trial","131","325737","0.0-18.0-1.42","7642","approach_avoid_sv1","""event"",""trial"",""time""
""fullscreenenter"",""1"",""1407""
","
","
","""event"",""trial"",""time""
""fullscreenenter"",""1"",""1407""
","
","","","","","","2151.2000000476837","images/dog2.png","","","memory_trial","1","definitely_old",""
"html-keyboard-response","132","326248","0.0-18.0-0.43","7642","approach_avoid_sv1","""event"",""trial"",""time""
""fullscreenenter"",""1"",""1407""
","
","
","""event"",""trial"",""time""
""fullscreenenter"",""1"",""1407""
","
","","","","","","null","<div style=""font-size:60px;"">+</div>","null","","fixation","","",""
"memory-trial","133","329812","0.0-18.0-1.43","7642","approach_avoid_sv1","""event"",""trial"",""time""
""fullscreenenter"",""1"",""1407""
","
","
","""event"",""trial"",""time""
""fullscreenenter"",""1"",""1407""
","
","","","","","","2561.9000000953674","images/apple8.png","","","memory_trial","3","maybe_new",""
"html-keyboard-response","134","330317","0.0-18.0-0.44","7642","approach_avoid_sv1","""event"",""trial"",""time""
""fullscreenenter"",""1"",""1407""
","
","
","""event"",""trial"",""time""
""fullscreenenter"",""1"",""1407""
","
","","","","","","null","<div style=""font-size:60px;"">+</div>","null","","fixation","","",""
"memory-trial","135","332758","0.0-18.0-1.44","7642","approach_avoid_sv1","""event"",""trial"",""time""
""fullscreenenter"",""1"",""1407""
","
","
","""event"",""trial"",""time""
""fullscreenenter"",""1"",""1407""
","
","","","","","","1429","images/boat1.png","","","memory_trial","4","definitely_new",""
"html-keyboard-response","136","333260","0.0-18.0-0.45","7642","approach_avoid_sv1","""event"",""trial"",""time""
""fullscreenenter"",""1"",""1407""
","
","
","""event"",""trial"",""time""
""fullscreenenter"",""1"",""1407""
","
","","","","","","null","<div style=""font-size:60px;"">+</div>","null","","fixation","","",""
"memory-trial","137","335844","0.0-18.0-1.45","7642","approach_avoid_sv1","""event"",""trial"",""time""
""fullscreenenter"",""1"",""1407""
","
","
","""event"",""trial"",""time""
""fullscreenenter"",""1"",""1407""
","
","","","","","","1579.3000000715256","images/truck1.png","","","memory_trial","1","definitely_old",""
"html-keyboard-response","138","336349","0.0-18.0-0.46","7642","approach_avoid_sv1","""event"",""trial"",""time""
""fullscreenenter"",""1"",""1407""
","
","
","""event"",""trial"",""time""
""fullscreenenter"",""1"",""1407""
","
","","","","","","null","<div style=""font-size:60px;"">+</div>","null","","fixation","","",""
"memory-trial","139","338648","0.0-18.0-1.46","7642","approach_avoid_sv1","""event"",""trial"",""time""
""fullscreenenter"",""1"",""1407""
","
","
","""event"",""trial"",""time""
""fullscreenenter"",""1"",""1407""
","
","","","","","","1293.2000000476837","images/tree7.png","","","memory_trial","3","maybe_new",""
"html-keyboard-response","140","339159","0.0-18.0-0.47","7642","approach_avoid_sv1","""event"",""trial"",""time""
""fullscreenenter"",""1"",""1407""
","
","
","""event"",""trial"",""time""
""fullscreenenter"",""1"",""1407""
","
","","","","","","null","<div style=""font-size:60px;"">+</div>","null","","fixation","","",""
"memory-trial","141","341614","0.0-18.0-1.47","7642","approach_avoid_sv1","""event"",""trial"",""time""
""fullscreenenter"",""1"",""1407""
","
","
","""event"",""trial"",""time""
""fullscreenenter"",""1"",""1407""
","
","","","","","","1451.1000000238419","images/straw7.png","","","memory_trial","3","maybe_new",""
"html-keyboard-response","142","342119","0.0-18.0-0.48","7642","approach_avoid_sv1","""event"",""trial"",""time""
""fullscreenenter"",""1"",""1407""
","
","
","""event"",""trial"",""time""
""fullscreenenter"",""1"",""1407""
","
","","","","","","null","<div style=""font-size:60px;"">+</div>","null","","fixation","","",""
"memory-trial","143","344174","0.0-18.0-1.48","7642","approach_avoid_sv1","""event"",""trial"",""time""
""fullscreenenter"",""1"",""1407""
","
","
","""event"",""trial"",""time""
""fullscreenenter"",""1"",""1407""
","
","","","","","","1045.8999999761581","images/cactus8.png","","","memory_trial","3","maybe_new",""
"html-keyboard-response","144","344679","0.0-18.0-0.49","7642","approach_avoid_sv1","""event"",""trial"",""time""
""fullscreenenter"",""1"",""1407""
","
","
","""event"",""trial"",""time""
""fullscreenenter"",""1"",""1407""
","
","","","","","","null","<div style=""font-size:60px;"">+</div>","null","","fixation","","",""
"memory-trial","145","346844","0.0-18.0-1.49","7642","approach_avoid_sv1","""event"",""trial"",""time""
""fullscreenenter"",""1"",""1407""
","
","
","""event"",""trial"",""time""
""fullscreenenter"",""1"",""1407""
","
","","","","","","1162.2000000476837","images/cat3.png","","","memory_trial","3","maybe_new",""
"html-keyboard-response","146","347349","0.0-18.0-0.50","7642","approach_avoid_sv1","""event"",""trial"",""time""
""fullscreenenter"",""1"",""1407""
","
","
","""event"",""trial"",""time""
""fullscreenenter"",""1"",""1407""
","
","","","","","","null","<div style=""font-size:60px;"">+</div>","null","","fixation","","",""
"memory-trial","147","349248","0.0-18.0-1.50","7642","approach_avoid_sv1","""event"",""trial"",""time""
""fullscreenenter"",""1"",""1407""
","
","
","""event"",""trial"",""time""
""fullscreenenter"",""1"",""1407""
","
","","","","","","893.5","images/orange6.png","","","memory_trial","3","maybe_new",""
"html-keyboard-response","148","349759","0.0-18.0-0.51","7642","approach_avoid_sv1","""event"",""trial"",""time""
""fullscreenenter"",""1"",""1407""
","
","
","""event"",""trial"",""time""
""fullscreenenter"",""1"",""1407""
","
","","","","","","null","<div style=""font-size:60px;"">+</div>","null","","fixation","","",""
"memory-trial","149","351849","0.0-18.0-1.51","7642","approach_avoid_sv1","""event"",""trial"",""time""
""fullscreenenter"",""1"",""1407""
","
","
","""event"",""trial"",""time""
""fullscreenenter"",""1"",""1407""
","
","","","","","","1084.1999999284744","images/horse3.png","","","memory_trial","3","maybe_new",""
"html-keyboard-response","150","352359","0.0-18.0-0.52","7642","approach_avoid_sv1","""event"",""trial"",""time""
""fullscreenenter"",""1"",""1407""
","
","
","""event"",""trial"",""time""
""fullscreenenter"",""1"",""1407""
","
","","","","","","null","<div style=""font-size:60px;"">+</div>","null","","fixation","","",""
"memory-trial","151","354798","0.0-18.0-1.52","7642","approach_avoid_sv1","""event"",""trial"",""time""
""fullscreenenter"",""1"",""1407""
","
","
","""event"",""trial"",""time""
""fullscreenenter"",""1"",""1407""
","
","","","","","","1430.8999999761581","images/sofa7.png","","","memory_trial","2","maybe_old",""
"html-keyboard-response","152","355303","0.0-18.0-0.53","7642","approach_avoid_sv1","""event"",""trial"",""time""
""fullscreenenter"",""1"",""1407""
","
","
","""event"",""trial"",""time""
""fullscreenenter"",""1"",""1407""
","
","","","","","","null","<div style=""font-size:60px;"">+</div>","null","","fixation","","",""
"memory-trial","153","357839","0.0-18.0-1.53","7642","approach_avoid_sv1","""event"",""trial"",""time""
""fullscreenenter"",""1"",""1407""
","
","
","""event"",""trial"",""time""
""fullscreenenter"",""1"",""1407""
","
","","","","","","1523.7000000476837","images/plane4.png","","","memory_trial","2","maybe_old",""
"html-keyboard-response","154","358344","0.0-18.0-0.54","7642","approach_avoid_sv1","""event"",""trial"",""time""
""fullscreenenter"",""1"",""1407""
","
","
","""event"",""trial"",""time""
""fullscreenenter"",""1"",""1407""
","
","","","","","","null","<div style=""font-size:60px;"">+</div>","null","","fixation","","",""
"memory-trial","155","360392","0.0-18.0-1.54","7642","approach_avoid_sv1","""event"",""trial"",""time""
""fullscreenenter"",""1"",""1407""
","
","
","""event"",""trial"",""time""
""fullscreenenter"",""1"",""1407""
","
","","","","","","1036.1000000238419","images/banana4.png","","","memory_trial","3","maybe_new",""
"html-keyboard-response","156","360904","0.0-18.0-0.55","7642","approach_avoid_sv1","""event"",""trial"",""time""
""fullscreenenter"",""1"",""1407""
","
","
","""event"",""trial"",""time""
""fullscreenenter"",""1"",""1407""
","
","","","","","","null","<div style=""font-size:60px;"">+</div>","null","","fixation","","",""
"memory-trial","157","363110","0.0-18.0-1.55","7642","approach_avoid_sv1","""event"",""trial"",""time""
""fullscreenenter"",""1"",""1407""
","
","
","""event"",""trial"",""time""
""fullscreenenter"",""1"",""1407""
","
","","","","","","1194.2999999523163","images/orange2.png","","","memory_trial","3","maybe_new",""
"html-keyboard-response","158","363615","0.0-18.0-0.56","7642","approach_avoid_sv1","""event"",""trial"",""time""
""fullscreenenter"",""1"",""1407""
","
","
","""event"",""trial"",""time""
""fullscreenenter"",""1"",""1407""
","
","","","","","","null","<div style=""font-size:60px;"">+</div>","null","","fixation","","",""
"memory-trial","159","366872","0.0-18.0-1.56","7642","approach_avoid_sv1","""event"",""trial"",""time""
""fullscreenenter"",""1"",""1407""
","
","
","""event"",""trial"",""time""
""fullscreenenter"",""1"",""1407""
","
","","","","","","2244.899999976158","images/cat2.png","","","memory_trial","2","maybe_old",""
"html-keyboard-response","160","367383","0.0-18.0-0.57","7642","approach_avoid_sv1","""event"",""trial"",""time""
""fullscreenenter"",""1"",""1407""
","
","
","""event"",""trial"",""time""
""fullscreenenter"",""1"",""1407""
","
","","","","","","null","<div style=""font-size:60px;"">+</div>","null","","fixation","","",""
"memory-trial","161","369319","0.0-18.0-1.57","7642","approach_avoid_sv1","""event"",""trial"",""time""
""fullscreenenter"",""1"",""1407""
","
","
","""event"",""trial"",""time""
""fullscreenenter"",""1"",""1407""
","
","","","","","","931.3999999761581","images/chair3.png","","","memory_trial","3","maybe_new",""
"html-keyboard-response","162","369821","0.0-18.0-0.58","7642","approach_avoid_sv1","""event"",""trial"",""time""
""fullscreenenter"",""1"",""1407""
","
","
","""event"",""trial"",""time""
""fullscreenenter"",""1"",""1407""
","
","","","","","","null","<div style=""font-size:60px;"">+</div>","null","","fixation","","",""
"memory-trial","163","371943","0.0-18.0-1.58","7642","approach_avoid_sv1","""event"",""trial"",""time""
""fullscreenenter"",""1"",""1407""
","
","
","""event"",""trial"",""time""
""fullscreenenter"",""1"",""1407""
","
","","","","","","1116","images/rabbit8.png","","","memory_trial","3","maybe_new",""
"html-keyboard-response","164","372445","0.0-18.0-0.59","7642","approach_avoid_sv1","""event"",""trial"",""time""
""fullscreenenter"",""1"",""1407""
","
","
","""event"",""trial"",""time""
""fullscreenenter"",""1"",""1407""
","
","","","","","","null","<div style=""font-size:60px;"">+</div>","null","","fixation","","",""
"memory-trial","165","373629","0.0-18.0-1.59","7642","approach_avoid_sv1","""event"",""trial"",""time""
""fullscreenenter"",""1"",""1407""
","
","
","""event"",""trial"",""time""
""fullscreenenter"",""1"",""1407""
","
","","","","","","175.20000004768372","images/bush6.png","","","memory_trial","1","definitely_old",""
"html-keyboard-response","166","374134","0.0-18.0-0.60","7642","approach_avoid_sv1","""event"",""trial"",""time""
""fullscreenenter"",""1"",""1407""
","
","
","""event"",""trial"",""time""
""fullscreenenter"",""1"",""1407""
","
","","","","","","null","<div style=""font-size:60px;"">+</div>","null","","fixation","","",""
"memory-trial","167","376230","0.0-18.0-1.60","7642","approach_avoid_sv1","""event"",""trial"",""time""
""fullscreenenter"",""1"",""1407""
","
","
","""event"",""trial"",""time""
""fullscreenenter"",""1"",""1407""
","
","","","","","","1087.7999999523163","images/chair7.png","","","memory_trial","3","maybe_new",""
"html-keyboard-response","168","376735","0.0-18.0-0.61","7642","approach_avoid_sv1","""event"",""trial"",""time""
""fullscreenenter"",""1"",""1407""
","
","
","""event"",""trial"",""time""
""fullscreenenter"",""1"",""1407""
","
","","","","","","null","<div style=""font-size:60px;"">+</div>","null","","fixation","","",""
"memory-trial","169","378767","0.0-18.0-1.61","7642","approach_avoid_sv1","""event"",""trial"",""time""
""fullscreenenter"",""1"",""1407""
","
","
","""event"",""trial"",""time""
""fullscreenenter"",""1"",""1407""
","
","","","","","","1022.7999999523163","images/tree8.png","","","memory_trial","3","maybe_new",""
"html-keyboard-response","170","379272","0.0-18.0-0.62","7642","approach_avoid_sv1","""event"",""trial"",""time""
""fullscreenenter"",""1"",""1407""
","
","
","""event"",""trial"",""time""
""fullscreenenter"",""1"",""1407""
","
","","","","","","null","<div style=""font-size:60px;"">+</div>","null","","fixation","","",""
"memory-trial","171","381257","0.0-18.0-1.62","7642","approach_avoid_sv1","""event"",""trial"",""time""
""fullscreenenter"",""1"",""1407""
","
","
","""event"",""trial"",""time""
""fullscreenenter"",""1"",""1407""
","
","","","","","","978.2000000476837","images/plane2.png","","","memory_trial","3","maybe_new",""
"html-keyboard-response","172","381768","0.0-18.0-0.63","7642","approach_avoid_sv1","""event"",""trial"",""time""
""fullscreenenter"",""1"",""1407""
","
","
","""event"",""trial"",""time""
""fullscreenenter"",""1"",""1407""
","
","","","","","","null","<div style=""font-size:60px;"">+</div>","null","","fixation","","",""
"memory-trial","173","384009","0.0-18.0-1.63","7642","approach_avoid_sv1","""event"",""trial"",""time""
""fullscreenenter"",""1"",""1407""
","
","
","""event"",""trial"",""time""
""fullscreenenter"",""1"",""1407""
","
","","","","","","1233.8999999761581","images/sofa6.png","","","memory_trial","3","maybe_new",""
"html-keyboard-response","174","384520","0.0-18.0-0.64","7642","approach_avoid_sv1","""event"",""trial"",""time""
""fullscreenenter"",""1"",""1407""
","
","
","""event"",""trial"",""time""
""fullscreenenter"",""1"",""1407""
","
","","","","","","null","<div style=""font-size:60px;"">+</div>","null","","fixation","","",""
"memory-trial","175","386325","0.0-18.0-1.64","7642","approach_avoid_sv1","""event"",""trial"",""time""
""fullscreenenter"",""1"",""1407""
","
","
","""event"",""trial"",""time""
""fullscreenenter"",""1"",""1407""
","
","","","","","","803.1000000238419","images/rabbit7.png","","","memory_trial","3","maybe_new",""
"html-keyboard-response","176","386830","0.0-18.0-0.65","7642","approach_avoid_sv1","""event"",""trial"",""time""
""fullscreenenter"",""1"",""1407""
","
","
","""event"",""trial"",""time""
""fullscreenenter"",""1"",""1407""
","
","","","","","","null","<div style=""font-size:60px;"">+</div>","null","","fixation","","",""
"memory-trial","177","388629","0.0-18.0-1.65","7642","approach_avoid_sv1","""event"",""trial"",""time""
""fullscreenenter"",""1"",""1407""
","
","
","""event"",""trial"",""time""
""fullscreenenter"",""1"",""1407""
","
","","","","","","796.3999999761581","images/flower7.png","","","memory_trial","3","maybe_new",""
"html-keyboard-response","178","389135","0.0-18.0-0.66","7642","approach_avoid_sv1","""event"",""trial"",""time""
""fullscreenenter"",""1"",""1407""
","
","
","""event"",""trial"",""time""
""fullscreenenter"",""1"",""1407""
","
","","","","","","null","<div style=""font-size:60px;"">+</div>","null","","fixation","","",""
"memory-trial","179","390992","0.0-18.0-1.66","7642","approach_avoid_sv1","""event"",""trial"",""time""
""fullscreenenter"",""1"",""1407""
","
","
","""event"",""trial"",""time""
""fullscreenenter"",""1"",""1407""
","
","","","","","","850.2999999523163","images/straw3.png","","","memory_trial","3","maybe_new",""
"html-keyboard-response","180","391503","0.0-18.0-0.67","7642","approach_avoid_sv1","""event"",""trial"",""time""
""fullscreenenter"",""1"",""1407""
","
","
","""event"",""trial"",""time""
""fullscreenenter"",""1"",""1407""
","
","","","","","","null","<div style=""font-size:60px;"">+</div>","null","","fixation","","",""
"memory-trial","181","393285","0.0-18.0-1.67","7642","approach_avoid_sv1","""event"",""trial"",""time""
""fullscreenenter"",""1"",""1407""
","
","
","""event"",""trial"",""time""
""fullscreenenter"",""1"",""1407""
","
","","","","","","772.8999999761581","images/flower3.png","","","memory_trial","3","maybe_new",""
"html-keyboard-response","182","393790","0.0-18.0-0.68","7642","approach_avoid_sv1","""event"",""trial"",""time""
""fullscreenenter"",""1"",""1407""
","
","
","""event"",""trial"",""time""
""fullscreenenter"",""1"",""1407""
","
","","","","","","null","<div style=""font-size:60px;"">+</div>","null","","fixation","","",""
"memory-trial","183","395567","0.0-18.0-1.68","7642","approach_avoid_sv1","""event"",""trial"",""time""
""fullscreenenter"",""1"",""1407""
","
","
","""event"",""trial"",""time""
""fullscreenenter"",""1"",""1407""
","
","","","","","","768.7999999523163","images/banana6.png","","","memory_trial","3","maybe_new",""
"html-keyboard-response","184","396072","0.0-18.0-0.69","7642","approach_avoid_sv1","""event"",""trial"",""time""
""fullscreenenter"",""1"",""1407""
","
","
","""event"",""trial"",""time""
""fullscreenenter"",""1"",""1407""
","
","","","","","","null","<div style=""font-size:60px;"">+</div>","null","","fixation","","",""
"memory-trial","185","398736","0.0-18.0-1.69","7642","approach_avoid_sv1","""event"",""trial"",""time""
""fullscreenenter"",""1"",""1407""
","
","
","""event"",""trial"",""time""
""fullscreenenter"",""1"",""1407""
","
","","","","","","1658.7999999523163","images/cow3.png","","","memory_trial","2","maybe_old",""
"html-keyboard-response","186","399241","0.0-18.0-0.70","7642","approach_avoid_sv1","""event"",""trial"",""time""
""fullscreenenter"",""1"",""1407""
","
","
","""event"",""trial"",""time""
""fullscreenenter"",""1"",""1407""
","
","","","","","","null","<div style=""font-size:60px;"">+</div>","null","","fixation","","",""
"memory-trial","187","401453","0.0-18.0-1.70","7642","approach_avoid_sv1","""event"",""trial"",""time""
""fullscreenenter"",""1"",""1407""
","
","
","""event"",""trial"",""time""
""fullscreenenter"",""1"",""1407""
","
","","","","","","1206.5999999046326","images/cow4.png","","","memory_trial","3","maybe_new",""
"html-keyboard-response","188","401958","0.0-18.0-0.71","7642","approach_avoid_sv1","""event"",""trial"",""time""
""fullscreenenter"",""1"",""1407""
","
","
","""event"",""trial"",""time""
""fullscreenenter"",""1"",""1407""
","
","","","","","","null","<div style=""font-size:60px;"">+</div>","null","","fixation","","",""
"memory-trial","189","404735","0.0-18.0-1.71","7642","approach_avoid_sv1","""event"",""trial"",""time""
""fullscreenenter"",""1"",""1407""
","
","
","""event"",""trial"",""time""
""fullscreenenter"",""1"",""1407""
","
","","","","","","1772","images/bush8.png","","","memory_trial","1","definitely_old",""
"html-keyboard-response","190","405238","0.0-18.0-0.72","7642","approach_avoid_sv1","""event"",""trial"",""time""
""fullscreenenter"",""1"",""1407""
","
","
","""event"",""trial"",""time""
""fullscreenenter"",""1"",""1407""
","
","","","","","","null","<div style=""font-size:60px;"">+</div>","null","","fixation","","",""
"memory-trial","191","407920","0.0-18.0-1.72","7642","approach_avoid_sv1","""event"",""trial"",""time""
""fullscreenenter"",""1"",""1407""
","
","
","""event"",""trial"",""time""
""fullscreenenter"",""1"",""1407""
","
","","","","","","1672.8999999761581","images/sheep5.png","","","memory_trial","3","maybe_new",""
"html-keyboard-response","192","408425","0.0-18.0-0.73","7642","approach_avoid_sv1","""event"",""trial"",""time""
""fullscreenenter"",""1"",""1407""
","
","
","""event"",""trial"",""time""
""fullscreenenter"",""1"",""1407""
","
","","","","","","null","<div style=""font-size:60px;"">+</div>","null","","fixation","","",""
"memory-trial","193","410230","0.0-18.0-1.73","7642","approach_avoid_sv1","""event"",""trial"",""time""
""fullscreenenter"",""1"",""1407""
","
","
","""event"",""trial"",""time""
""fullscreenenter"",""1"",""1407""
","
","","","","","","795.2999999523163","images/rabbit4.png","","","memory_trial","3","maybe_new",""
"html-keyboard-response","194","410735","0.0-18.0-0.74","7642","approach_avoid_sv1","""event"",""trial"",""time""
""fullscreenenter"",""1"",""1407""
","
","
","""event"",""trial"",""time""
""fullscreenenter"",""1"",""1407""
","
","","","","","","null","<div style=""font-size:60px;"">+</div>","null","","fixation","","",""
"memory-trial","195","412958","0.0-18.0-1.74","7642","approach_avoid_sv1","""event"",""trial"",""time""
""fullscreenenter"",""1"",""1407""
","
","
","""event"",""trial"",""time""
""fullscreenenter"",""1"",""1407""
","
","","","","","","1215.2000000476837","images/boat8.png","","","memory_trial","4","definitely_new",""
"html-keyboard-response","196","413464","0.0-18.0-0.75","7642","approach_avoid_sv1","""event"",""trial"",""time""
""fullscreenenter"",""1"",""1407""
","
","
","""event"",""trial"",""time""
""fullscreenenter"",""1"",""1407""
","
","","","","","","null","<div style=""font-size:60px;"">+</div>","null","","fixation","","",""
"memory-trial","197","415686","0.0-18.0-1.75","7642","approach_avoid_sv1","""event"",""trial"",""time""
""fullscreenenter"",""1"",""1407""
","
","
","""event"",""trial"",""time""
""fullscreenenter"",""1"",""1407""
","
","","","","","","1216.5","images/sheep3.png","","","memory_trial","4","definitely_new",""
"html-keyboard-response","198","416192","0.0-18.0-0.76","7642","approach_avoid_sv1","""event"",""trial"",""time""
""fullscreenenter"",""1"",""1407""
","
","
","""event"",""trial"",""time""
""fullscreenenter"",""1"",""1407""
","
","","","","","","null","<div style=""font-size:60px;"">+</div>","null","","fixation","","",""
"memory-trial","199","418114","0.0-18.0-1.76","7642","approach_avoid_sv1","""event"",""trial"",""time""
""fullscreenenter"",""1"",""1407""
","
","
","""event"",""trial"",""time""
""fullscreenenter"",""1"",""1407""
","
","","","","","","909.8999999761581","images/goat1.png","","","memory_trial","4","definitely_new",""
"html-keyboard-response","200","418624","0.0-18.0-0.77","7642","approach_avoid_sv1","""event"",""trial"",""time""
""fullscreenenter"",""1"",""1407""
","
","
","""event"",""trial"",""time""
""fullscreenenter"",""1"",""1407""
","
","","","","","","null","<div style=""font-size:60px;"">+</div>","null","","fixation","","",""
"memory-trial","201","420383","0.0-18.0-1.77","7642","approach_avoid_sv1","""event"",""trial"",""time""
""fullscreenenter"",""1"",""1407""
","
","
","""event"",""trial"",""time""
""fullscreenenter"",""1"",""1407""
","
","","","","","","753.5","images/goat5.png","","","memory_trial","4","definitely_new",""
"html-keyboard-response","202","420888","0.0-18.0-0.78","7642","approach_avoid_sv1","""event"",""trial"",""time""
""fullscreenenter"",""1"",""1407""
","
","
","""event"",""trial"",""time""
""fullscreenenter"",""1"",""1407""
","
","","","","","","null","<div style=""font-size:60px;"">+</div>","null","","fixation","","",""
"memory-trial","203","423361","0.0-18.0-1.78","7642","approach_avoid_sv1","""event"",""trial"",""time""
""fullscreenenter"",""1"",""1407""
","
","
","""event"",""trial"",""time""
""fullscreenenter"",""1"",""1407""
","
","","","","","","1462.2000000476837","images/rabbit3.png","","","memory_trial","3","maybe_new",""
"html-keyboard-response","204","423872","0.0-18.0-0.79","7642","approach_avoid_sv1","""event"",""trial"",""time""
""fullscreenenter"",""1"",""1407""
","
","
","""event"",""trial"",""time""
""fullscreenenter"",""1"",""1407""
","
","","","","","","null","<div style=""font-size:60px;"">+</div>","null","","fixation","","",""
"memory-trial","205","425834","0.0-18.0-1.79","7642","approach_avoid_sv1","""event"",""trial"",""time""
""fullscreenenter"",""1"",""1407""
","
","
","""event"",""trial"",""time""
""fullscreenenter"",""1"",""1407""
","
","","","","","","953.0999999046326","images/dog4.png","","","memory_trial","3","maybe_new",""
"html-keyboard-response","206","426345","0.0-18.0-0.80","7642","approach_avoid_sv1","""event"",""trial"",""time""
""fullscreenenter"",""1"",""1407""
","
","
","""event"",""trial"",""time""
""fullscreenenter"",""1"",""1407""
","
","","","","","","null","<div style=""font-size:60px;"">+</div>","null","","fixation","","",""
"memory-trial","207","428400","0.0-18.0-1.80","7642","approach_avoid_sv1","""event"",""trial"",""time""
""fullscreenenter"",""1"",""1407""
","
","
","""event"",""trial"",""time""
""fullscreenenter"",""1"",""1407""
","
","","","","","","1043.3999999761581","images/train3.png","","","memory_trial","1","definitely_old",""
"html-keyboard-response","208","428905","0.0-18.0-0.81","7642","approach_avoid_sv1","""event"",""trial"",""time""
""fullscreenenter"",""1"",""1407""
","
","
","""event"",""trial"",""time""
""fullscreenenter"",""1"",""1407""
","
","","","","","","null","<div style=""font-size:60px;"">+</div>","null","","fixation","","",""
"memory-trial","209","430774","0.0-18.0-1.81","7642","approach_avoid_sv1","""event"",""trial"",""time""
""fullscreenenter"",""1"",""1407""
","
","
","""event"",""trial"",""time""
""fullscreenenter"",""1"",""1407""
","
","","","","","","859","images/goat4.png","","","memory_trial","3","maybe_new",""
"html-keyboard-response","210","431279","0.0-18.0-0.82","7642","approach_avoid_sv1","""event"",""trial"",""time""
""fullscreenenter"",""1"",""1407""
","
","
","""event"",""trial"",""time""
""fullscreenenter"",""1"",""1407""
","
","","","","","","null","<div style=""font-size:60px;"">+</div>","null","","fixation","","",""
"memory-trial","211","433480","0.0-18.0-1.82","7642","approach_avoid_sv1","""event"",""trial"",""time""
""fullscreenenter"",""1"",""1407""
","
","
","""event"",""trial"",""time""
""fullscreenenter"",""1"",""1407""
","
","","","","","","1192","images/dog5.png","","","memory_trial","2","maybe_old",""
"html-keyboard-response","212","433985","0.0-18.0-0.83","7642","approach_avoid_sv1","""event"",""trial"",""time""
""fullscreenenter"",""1"",""1407""
","
","
","""event"",""trial"",""time""
""fullscreenenter"",""1"",""1407""
","
","","","","","","null","<div style=""font-size:60px;"">+</div>","null","","fixation","","",""
"memory-trial","213","436249","0.0-18.0-1.83","7642","approach_avoid_sv1","""event"",""trial"",""time""
""fullscreenenter"",""1"",""1407""
","
","
","""event"",""trial"",""time""
""fullscreenenter"",""1"",""1407""
","
","","","","","","1252.7000000476837","images/plane8.png","","","memory_trial","1","definitely_old",""
"html-keyboard-response","214","436754","0.0-18.0-0.84","7642","approach_avoid_sv1","""event"",""trial"",""time""
""fullscreenenter"",""1"",""1407""
","
","
","""event"",""trial"",""time""
""fullscreenenter"",""1"",""1407""
","
","","","","","","null","<div style=""font-size:60px;"">+</div>","null","","fixation","","",""
"memory-trial","215","438826","0.0-18.0-1.84","7642","approach_avoid_sv1","""event"",""trial"",""time""
""fullscreenenter"",""1"",""1407""
","
","
","""event"",""trial"",""time""
""fullscreenenter"",""1"",""1407""
","
","","","","","","1066.1999999284744","images/rabbit5.png","","","memory_trial","4","definitely_new",""
"html-keyboard-response","216","439337","0.0-18.0-0.85","7642","approach_avoid_sv1","""event"",""trial"",""time""
""fullscreenenter"",""1"",""1407""
","
","
","""event"",""trial"",""time""
""fullscreenenter"",""1"",""1407""
","
","","","","","","null","<div style=""font-size:60px;"">+</div>","null","","fixation","","",""
"memory-trial","217","441415","0.0-18.0-1.85","7642","approach_avoid_sv1","""event"",""trial"",""time""
""fullscreenenter"",""1"",""1407""
","
","
","""event"",""trial"",""time""
""fullscreenenter"",""1"",""1407""
","
","","","","","","1073.3000000715256","images/plane5.png","","","memory_trial","2","maybe_old",""
"html-keyboard-response","218","441920","0.0-18.0-0.86","7642","approach_avoid_sv1","""event"",""trial"",""time""
""fullscreenenter"",""1"",""1407""
","
","
","""event"",""trial"",""time""
""fullscreenenter"",""1"",""1407""
","
","","","","","","null","<div style=""font-size:60px;"">+</div>","null","","fixation","","",""
"memory-trial","219","443691","0.0-18.0-1.86","7642","approach_avoid_sv1","""event"",""trial"",""time""
""fullscreenenter"",""1"",""1407""
","
","
","""event"",""trial"",""time""
""fullscreenenter"",""1"",""1407""
","
","","","","","","759.3999999761581","images/truck2.png","","","memory_trial","1","definitely_old",""
"html-keyboard-response","220","444202","0.0-18.0-0.87","7642","approach_avoid_sv1","""event"",""trial"",""time""
""fullscreenenter"",""1"",""1407""
","
","
","""event"",""trial"",""time""
""fullscreenenter"",""1"",""1407""
","
","","","","","","null","<div style=""font-size:60px;"">+</div>","null","","fixation","","",""
"memory-trial","221","446593","0.0-18.0-1.87","7642","approach_avoid_sv1","""event"",""trial"",""time""
""fullscreenenter"",""1"",""1407""
","
","
","""event"",""trial"",""time""
""fullscreenenter"",""1"",""1407""
","
","","","","","","1381","images/flower1.png","","","memory_trial","2","maybe_old",""
"html-keyboard-response","222","447104","0.0-18.0-0.88","7642","approach_avoid_sv1","""event"",""trial"",""time""
""fullscreenenter"",""1"",""1407""
","
","
","""event"",""trial"",""time""
""fullscreenenter"",""1"",""1407""
","
","","","","","","null","<div style=""font-size:60px;"">+</div>","null","","fixation","","",""
"memory-trial","223","449273","0.0-18.0-1.88","7642","approach_avoid_sv1","""event"",""trial"",""time""
""fullscreenenter"",""1"",""1407""
","
","
","""event"",""trial"",""time""
""fullscreenenter"",""1"",""1407""
","
","","","","","","1158.3000000715256","images/sofa4.png","","","memory_trial","4","definitely_new",""
"html-keyboard-response","224","449774","0.0-18.0-0.89","7642","approach_avoid_sv1","""event"",""trial"",""time""
""fullscreenenter"",""1"",""1407""
","
","
","""event"",""trial"",""time""
""fullscreenenter"",""1"",""1407""
","
","","","","","","null","<div style=""font-size:60px;"">+</div>","null","","fixation","","",""
"memory-trial","225","451551","0.0-18.0-1.89","7642","approach_avoid_sv1","""event"",""trial"",""time""
""fullscreenenter"",""1"",""1407""
","
","
","""event"",""trial"",""time""
""fullscreenenter"",""1"",""1407""
","
","","","","","","766.6999999284744","images/apple4.png","","","memory_trial","3","maybe_new",""
"html-keyboard-response","226","452056","0.0-18.0-0.90","7642","approach_avoid_sv1","""event"",""trial"",""time""
""fullscreenenter"",""1"",""1407""
","
","
","""event"",""trial"",""time""
""fullscreenenter"",""1"",""1407""
","
","","","","","","null","<div style=""font-size:60px;"">+</div>","null","","fixation","","",""
"memory-trial","227","453937","0.0-18.0-1.90","7642","approach_avoid_sv1","""event"",""trial"",""time""
""fullscreenenter"",""1"",""1407""
","
","
","""event"",""trial"",""time""
""fullscreenenter"",""1"",""1407""
","
","","","","","","868.6000000238419","images/boat3.png","","","memory_trial","4","definitely_new",""
"html-keyboard-response","228","454442","0.0-18.0-0.91","7642","approach_avoid_sv1","""event"",""trial"",""time""
""fullscreenenter"",""1"",""1407""
","
","
","""event"",""trial"",""time""
""fullscreenenter"",""1"",""1407""
","
","","","","","","null","<div style=""font-size:60px;"">+</div>","null","","fixation","","",""
"memory-trial","229","456398","0.0-18.0-1.91","7642","approach_avoid_sv1","""event"",""trial"",""time""
""fullscreenenter"",""1"",""1407""
","
","
","""event"",""trial"",""time""
""fullscreenenter"",""1"",""1407""
","
","","","","","","948.6000000238419","images/table3.png","","","memory_trial","4","definitely_new",""
"html-button-response","230","458181","0.0-18.0-2.91-0.91","7642","approach_avoid_sv1","""event"",""trial"",""time""
""fullscreenenter"",""1"",""1407""
","
","
","""event"",""trial"",""time""
""fullscreenenter"",""1"",""1407""
","
","","","","","","1781.5","<p> Take a break! </p><p> Click the button to continue. </p>","0","","break","","",""
"html-keyboard-response","231","458691","0.0-18.0-0.92","7642","approach_avoid_sv1","""event"",""trial"",""time""
""fullscreenenter"",""1"",""1407""
","
","
","""event"",""trial"",""time""
""fullscreenenter"",""1"",""1407""
","
","","","","","","null","<div style=""font-size:60px;"">+</div>","null","","fixation","","",""
"memory-trial","232","460823","0.0-18.0-1.92","7642","approach_avoid_sv1","""event"",""trial"",""time""
""fullscreenenter"",""1"",""1407""
","
","
","""event"",""trial"",""time""
""fullscreenenter"",""1"",""1407""
","
","","","","","","1122","images/apple5.png","","","memory_trial","3","maybe_new",""
"html-keyboard-response","233","461330","0.0-18.0-0.93","7642","approach_avoid_sv1","""event"",""trial"",""time""
""fullscreenenter"",""1"",""1407""
","
","
","""event"",""trial"",""time""
""fullscreenenter"",""1"",""1407""
","
","","","","","","null","<div style=""font-size:60px;"">+</div>","null","","fixation","","",""
"memory-trial","234","463074","0.0-18.0-1.93","7642","approach_avoid_sv1","""event"",""trial"",""time""
""fullscreenenter"",""1"",""1407""
","
","
","""event"",""trial"",""time""
""fullscreenenter"",""1"",""1407""
","
","","","","","","736.5","images/banana7.png","","","memory_trial","3","maybe_new",""
"html-keyboard-response","235","463585","0.0-18.0-0.94","7642","approach_avoid_sv1","""event"",""trial"",""time""
""fullscreenenter"",""1"",""1407""
","
","
","""event"",""trial"",""time""
""fullscreenenter"",""1"",""1407""
","
","","","","","","null","<div style=""font-size:60px;"">+</div>","null","","fixation","","",""
"memory-trial","236","465698","0.0-18.0-1.94","7642","approach_avoid_sv1","""event"",""trial"",""time""
""fullscreenenter"",""1"",""1407""
","
","
","""event"",""trial"",""time""
""fullscreenenter"",""1"",""1407""
","
","","","","","","1105.0999999046326","images/plane1.png","","","memory_trial","3","maybe_new",""
"html-keyboard-response","237","466209","0.0-18.0-0.95","7642","approach_avoid_sv1","""event"",""trial"",""time""
""fullscreenenter"",""1"",""1407""
","
","
","""event"",""trial"",""time""
""fullscreenenter"",""1"",""1407""
","
","","","","","","null","<div style=""font-size:60px;"">+</div>","null","","fixation","","",""
"memory-trial","238","468304","0.0-18.0-1.95","7642","approach_avoid_sv1","""event"",""trial"",""time""
""fullscreenenter"",""1"",""1407""
","
","
","""event"",""trial"",""time""
""fullscreenenter"",""1"",""1407""
","
","","","","","","1084.7000000476837","images/cat1.png","","","memory_trial","2","maybe_old",""
"html-keyboard-response","239","468809","0.0-18.0-0.96","7642","approach_avoid_sv1","""event"",""trial"",""time""
""fullscreenenter"",""1"",""1407""
","
","
","""event"",""trial"",""time""
""fullscreenenter"",""1"",""1407""
","
","","","","","","null","<div style=""font-size:60px;"">+</div>","null","","fixation","","",""
"memory-trial","240","471602","0.0-18.0-1.96","7642","approach_avoid_sv1","""event"",""trial"",""time""
""fullscreenenter"",""1"",""1407""
","
","
","""event"",""trial"",""time""
""fullscreenenter"",""1"",""1407""
","
","","","","","","1782.3999999761581","images/tree1.png","","","memory_trial","2","maybe_old",""
"html-keyboard-response","241","472112","0.0-18.0-0.97","7642","approach_avoid_sv1","""event"",""trial"",""time""
""fullscreenenter"",""1"",""1407""
","
","
","""event"",""trial"",""time""
""fullscreenenter"",""1"",""1407""
","
","","","","","","null","<div style=""font-size:60px;"">+</div>","null","","fixation","","",""
"memory-trial","242","474353","0.0-18.0-1.97","7642","approach_avoid_sv1","""event"",""trial"",""time""
""fullscreenenter"",""1"",""1407""
","
","
","""event"",""trial"",""time""
""fullscreenenter"",""1"",""1407""
","
","","","","","","1231.7000000476837","images/horse4.png","","","memory_trial","4","definitely_new",""
"html-keyboard-response","243","474858","0.0-18.0-0.98","7642","approach_avoid_sv1","""event"",""trial"",""time""
""fullscreenenter"",""1"",""1407""
","
","
","""event"",""trial"",""time""
""fullscreenenter"",""1"",""1407""
","
","","","","","","null","<div style=""font-size:60px;"">+</div>","null","","fixation","","",""
"memory-trial","244","476623","0.0-18.0-1.98","7642","approach_avoid_sv1","""event"",""trial"",""time""
""fullscreenenter"",""1"",""1407""
","
","
","""event"",""trial"",""time""
""fullscreenenter"",""1"",""1407""
","
","","","","","","758.3999999761581","images/orange5.png","","","memory_trial","3","maybe_new",""
"html-keyboard-response","245","477128","0.0-18.0-0.99","7642","approach_avoid_sv1","""event"",""trial"",""time""
""fullscreenenter"",""1"",""1407""
","
","
","""event"",""trial"",""time""
""fullscreenenter"",""1"",""1407""
","
","","","","","","null","<div style=""font-size:60px;"">+</div>","null","","fixation","","",""
"memory-trial","246","478794","0.0-18.0-1.99","7642","approach_avoid_sv1","""event"",""trial"",""time""
""fullscreenenter"",""1"",""1407""
","
","
","""event"",""trial"",""time""
""fullscreenenter"",""1"",""1407""
","
","","","","","","657.8999999761581","images/apple3.png","","","memory_trial","3","maybe_new",""
"html-keyboard-response","247","479305","0.0-18.0-0.100","7642","approach_avoid_sv1","""event"",""trial"",""time""
""fullscreenenter"",""1"",""1407""
","
","
","""event"",""trial"",""time""
""fullscreenenter"",""1"",""1407""
","
","","","","","","null","<div style=""font-size:60px;"">+</div>","null","","fixation","","",""
"memory-trial","248","481360","0.0-18.0-1.100","7642","approach_avoid_sv1","""event"",""trial"",""time""
""fullscreenenter"",""1"",""1407""
","
","
","""event"",""trial"",""time""
""fullscreenenter"",""1"",""1407""
","
","","","","","","1046.5","images/tree2.png","","","memory_trial","3","maybe_new",""
"html-keyboard-response","249","481865","0.0-18.0-0.101","7642","approach_avoid_sv1","""event"",""trial"",""time""
""fullscreenenter"",""1"",""1407""
","
","
","""event"",""trial"",""time""
""fullscreenenter"",""1"",""1407""
","
","","","","","","null","<div style=""font-size:60px;"">+</div>","null","","fixation","","",""
"memory-trial","250","484187","0.0-18.0-1.101","7642","approach_avoid_sv1","""event"",""trial"",""time""
""fullscreenenter"",""1"",""1407""
","
","
","""event"",""trial"",""time""
""fullscreenenter"",""1"",""1407""
","
","","","","","","1315.2999999523163","images/bush4.png","","","memory_trial","3","maybe_new",""
"html-keyboard-response","251","484698","0.0-18.0-0.102","7642","approach_avoid_sv1","""event"",""trial"",""time""
""fullscreenenter"",""1"",""1407""
","
","
","""event"",""trial"",""time""
""fullscreenenter"",""1"",""1407""
","
","","","","","","null","<div style=""font-size:60px;"">+</div>","null","","fixation","","",""
"memory-trial","252","487387","0.0-18.0-1.102","7642","approach_avoid_sv1","""event"",""trial"",""time""
""fullscreenenter"",""1"",""1407""
","
","
","""event"",""trial"",""time""
""fullscreenenter"",""1"",""1407""
","
","","","","","","1681.6000000238419","images/orange8.png","","","memory_trial","4","definitely_new",""
"html-keyboard-response","253","487896","0.0-18.0-0.103","7642","approach_avoid_sv1","""event"",""trial"",""time""
""fullscreenenter"",""1"",""1407""
","
","
","""event"",""trial"",""time""
""fullscreenenter"",""1"",""1407""
","
","","","","","","null","<div style=""font-size:60px;"">+</div>","null","","fixation","","",""
"memory-trial","254","491771","0.0-18.0-1.103","7642","approach_avoid_sv1","""event"",""trial"",""time""
""fullscreenenter"",""1"",""1407""
","
","
","""event"",""trial"",""time""
""fullscreenenter"",""1"",""1407""
","
","","","","","","2868","images/flower5.png","","","memory_trial","3","maybe_new",""
"html-keyboard-response","255","492279","0.0-18.0-0.104","7642","approach_avoid_sv1","""event"",""trial"",""time""
""fullscreenenter"",""1"",""1407""
","
","
","""event"",""trial"",""time""
""fullscreenenter"",""1"",""1407""
","
","","","","","","null","<div style=""font-size:60px;"">+</div>","null","","fixation","","",""
"memory-trial","256","494073","0.0-18.0-1.104","7642","approach_avoid_sv1","""event"",""trial"",""time""
""fullscreenenter"",""1"",""1407""
","
","
","""event"",""trial"",""time""
""fullscreenenter"",""1"",""1407""
","
","","","","","","784.5","images/bed7.png","","","memory_trial","3","maybe_new",""
"html-keyboard-response","257","494578","0.0-18.0-0.105","7642","approach_avoid_sv1","""event"",""trial"",""time""
""fullscreenenter"",""1"",""1407""
","
","
","""event"",""trial"",""time""
""fullscreenenter"",""1"",""1407""
","
","","","","","","null","<div style=""font-size:60px;"">+</div>","null","","fixation","","",""
"memory-trial","258","496473","0.0-18.0-1.105","7642","approach_avoid_sv1","""event"",""trial"",""time""
""fullscreenenter"",""1"",""1407""
","
","
","""event"",""trial"",""time""
""fullscreenenter"",""1"",""1407""
","
","","","","","","890.1000000238419","images/horse6.png","","","memory_trial","3","maybe_new",""
"html-keyboard-response","259","496978","0.0-18.0-0.106","7642","approach_avoid_sv1","""event"",""trial"",""time""
""fullscreenenter"",""1"",""1407""
","
","
","""event"",""trial"",""time""
""fullscreenenter"",""1"",""1407""
","
","","","","","","null","<div style=""font-size:60px;"">+</div>","null","","fixation","","",""
"memory-trial","260","498967","0.0-18.0-1.106","7642","approach_avoid_sv1","""event"",""trial"",""time""
""fullscreenenter"",""1"",""1407""
","
","
","""event"",""trial"",""time""
""fullscreenenter"",""1"",""1407""
","
","","","","","","981.8999999761581","images/boat7.png","","","memory_trial","4","definitely_new",""
"html-keyboard-response","261","499472","0.0-18.0-0.107","7642","approach_avoid_sv1","""event"",""trial"",""time""
""fullscreenenter"",""1"",""1407""
","
","
","""event"",""trial"",""time""
""fullscreenenter"",""1"",""1407""
","
","","","","","","null","<div style=""font-size:60px;"">+</div>","null","","fixation","","",""
"memory-trial","262","501376","0.0-18.0-1.107","7642","approach_avoid_sv1","""event"",""trial"",""time""
""fullscreenenter"",""1"",""1407""
","
","
","""event"",""trial"",""time""
""fullscreenenter"",""1"",""1407""
","
","","","","","","896.1999999284744","images/train4.png","","","memory_trial","1","definitely_old",""
"html-keyboard-response","263","501881","0.0-18.0-0.108","7642","approach_avoid_sv1","""event"",""trial"",""time""
""fullscreenenter"",""1"",""1407""
","
","
","""event"",""trial"",""time""
""fullscreenenter"",""1"",""1407""
","
","","","","","","null","<div style=""font-size:60px;"">+</div>","null","","fixation","","",""
"memory-trial","264","503640","0.0-18.0-1.108","7642","approach_avoid_sv1","""event"",""trial"",""time""
""fullscreenenter"",""1"",""1407""
","
","
","""event"",""trial"",""time""
""fullscreenenter"",""1"",""1407""
","
","","","","","","755.2999999523163","images/truck7.png","","","memory_trial","1","definitely_old",""
"html-keyboard-response","265","504144","0.0-18.0-0.109","7642","approach_avoid_sv1","""event"",""trial"",""time""
""fullscreenenter"",""1"",""1407""
","
","
","""event"",""trial"",""time""
""fullscreenenter"",""1"",""1407""
","
","","","","","","null","<div style=""font-size:60px;"">+</div>","null","","fixation","","",""
"memory-trial","266","506119","0.0-18.0-1.109","7642","approach_avoid_sv1","""event"",""trial"",""time""
""fullscreenenter"",""1"",""1407""
","
","
","""event"",""trial"",""time""
""fullscreenenter"",""1"",""1407""
","
","","","","","","968","images/boat2.png","","","memory_trial","4","definitely_new",""
"html-keyboard-response","267","506624","0.0-18.0-0.110","7642","approach_avoid_sv1","""event"",""trial"",""time""
""fullscreenenter"",""1"",""1407""
","
","
","""event"",""trial"",""time""
""fullscreenenter"",""1"",""1407""
","
","","","","","","null","<div style=""font-size:60px;"">+</div>","null","","fixation","","",""
"memory-trial","268","508690","0.0-18.0-1.110","7642","approach_avoid_sv1","""event"",""trial"",""time""
""fullscreenenter"",""1"",""1407""
","
","
","""event"",""trial"",""time""
""fullscreenenter"",""1"",""1407""
","
","","","","","","1057.5","images/bush5.png","","","memory_trial","4","definitely_new",""
"html-keyboard-response","269","509201","0.0-18.0-0.111","7642","approach_avoid_sv1","""event"",""trial"",""time""
""fullscreenenter"",""1"",""1407""
","
","
","""event"",""trial"",""time""
""fullscreenenter"",""1"",""1407""
","
","","","","","","null","<div style=""font-size:60px;"">+</div>","null","","fixation","","",""
"memory-trial","270","511488","0.0-18.0-1.111","7642","approach_avoid_sv1","""event"",""trial"",""time""
""fullscreenenter"",""1"",""1407""
","
","
","""event"",""trial"",""time""
""fullscreenenter"",""1"",""1407""
","
","","","","","","1282.6999999284744","images/sheep8.png","","","memory_trial","4","definitely_new",""
"html-keyboard-response","271","511993","0.0-18.0-0.112","7642","approach_avoid_sv1","""event"",""trial"",""time""
""fullscreenenter"",""1"",""1407""
","
","
","""event"",""trial"",""time""
""fullscreenenter"",""1"",""1407""
","
","","","","","","null","<div style=""font-size:60px;"">+</div>","null","","fixation","","",""
"memory-trial","272","514025","0.0-18.0-1.112","7642","approach_avoid_sv1","""event"",""trial"",""time""
""fullscreenenter"",""1"",""1407""
","
","
","""event"",""trial"",""time""
""fullscreenenter"",""1"",""1407""
","
","","","","","","1025.6000000238419","images/tree6.png","","","memory_trial","3","maybe_new",""
"html-keyboard-response","273","514530","0.0-18.0-0.113","7642","approach_avoid_sv1","""event"",""trial"",""time""
""fullscreenenter"",""1"",""1407""
","
","
","""event"",""trial"",""time""
""fullscreenenter"",""1"",""1407""
","
","","","","","","null","<div style=""font-size:60px;"">+</div>","null","","fixation","","",""
"memory-trial","274","516370","0.0-18.0-1.113","7642","approach_avoid_sv1","""event"",""trial"",""time""
""fullscreenenter"",""1"",""1407""
","
","
","""event"",""trial"",""time""
""fullscreenenter"",""1"",""1407""
","
","","","","","","830.1000000238419","images/bed6.png","","","memory_trial","4","definitely_new",""
"html-keyboard-response","275","516881","0.0-18.0-0.114","7642","approach_avoid_sv1","""event"",""trial"",""time""
""fullscreenenter"",""1"",""1407""
","
","
","""event"",""trial"",""time""
""fullscreenenter"",""1"",""1407""
","
","","","","","","null","<div style=""font-size:60px;"">+</div>","null","","fixation","","",""
"memory-trial","276","518611","0.0-18.0-1.114","7642","approach_avoid_sv1","""event"",""trial"",""time""
""fullscreenenter"",""1"",""1407""
","
","
","""event"",""trial"",""time""
""fullscreenenter"",""1"",""1407""
","
","","","","","","717.3999999761581","images/table8.png","","","memory_trial","4","definitely_new",""
"html-keyboard-response","277","519122","0.0-18.0-0.115","7642","approach_avoid_sv1","""event"",""trial"",""time""
""fullscreenenter"",""1"",""1407""
","
","
","""event"",""trial"",""time""
""fullscreenenter"",""1"",""1407""
","
","","","","","","null","<div style=""font-size:60px;"">+</div>","null","","fixation","","",""
"memory-trial","278","521450","0.0-18.0-1.115","7642","approach_avoid_sv1","""event"",""trial"",""time""
""fullscreenenter"",""1"",""1407""
","
","
","""event"",""trial"",""time""
""fullscreenenter"",""1"",""1407""
","
","","","","","","1320.7999999523163","images/truck6.png","","","memory_trial","4","definitely_new",""
"html-keyboard-response","279","521955","0.0-18.0-0.116","7642","approach_avoid_sv1","""event"",""trial"",""time""
""fullscreenenter"",""1"",""1407""
","
","
","""event"",""trial"",""time""
""fullscreenenter"",""1"",""1407""
","
","","","","","","null","<div style=""font-size:60px;"">+</div>","null","","fixation","","",""
"memory-trial","280","523737","0.0-18.0-1.116","7642","approach_avoid_sv1","""event"",""trial"",""time""
""fullscreenenter"",""1"",""1407""
","
","
","""event"",""trial"",""time""
""fullscreenenter"",""1"",""1407""
","
","","","","","","774.1000000238419","images/goat6.png","","","memory_trial","4","definitely_new",""
"html-keyboard-response","281","524242","0.0-18.0-0.117","7642","approach_avoid_sv1","""event"",""trial"",""time""
""fullscreenenter"",""1"",""1407""
","
","
","""event"",""trial"",""time""
""fullscreenenter"",""1"",""1407""
","
","","","","","","null","<div style=""font-size:60px;"">+</div>","null","","fixation","","",""
"memory-trial","282","527052","0.0-18.0-1.117","7642","approach_avoid_sv1","""event"",""trial"",""time""
""fullscreenenter"",""1"",""1407""
","
","
","""event"",""trial"",""time""
""fullscreenenter"",""1"",""1407""
","
","","","","","","1799.5","images/cat8.png","","","memory_trial","4","definitely_new",""
"html-keyboard-response","283","527563","0.0-18.0-0.118","7642","approach_avoid_sv1","""event"",""trial"",""time""
""fullscreenenter"",""1"",""1407""
","
","
","""event"",""trial"",""time""
""fullscreenenter"",""1"",""1407""
","
","","","","","","null","<div style=""font-size:60px;"">+</div>","null","","fixation","","",""
"memory-trial","284","529490","0.0-18.0-1.118","7642","approach_avoid_sv1","""event"",""trial"",""time""
""fullscreenenter"",""1"",""1407""
","
","
","""event"",""trial"",""time""
""fullscreenenter"",""1"",""1407""
","
","","","","","","916.2999999523163","images/chair8.png","","","memory_trial","4","definitely_new",""
"html-keyboard-response","285","529995","0.0-18.0-0.119","7642","approach_avoid_sv1","""event"",""trial"",""time""
""fullscreenenter"",""1"",""1407""
","
","
","""event"",""trial"",""time""
""fullscreenenter"",""1"",""1407""
","
","","","","","","null","<div style=""font-size:60px;"">+</div>","null","","fixation","","",""
"memory-trial","286","531516","0.0-18.0-1.119","7642","approach_avoid_sv1","""event"",""trial"",""time""
""fullscreenenter"",""1"",""1407""
","
","
","""event"",""trial"",""time""
""fullscreenenter"",""1"",""1407""
","
","","","","","","507.5","images/goat2.png","","","memory_trial","4","definitely_new",""
"html-keyboard-response","287","532026","0.0-18.0-0.120","7642","approach_avoid_sv1","""event"",""trial"",""time""
""fullscreenenter"",""1"",""1407""
","
","
","""event"",""trial"",""time""
""fullscreenenter"",""1"",""1407""
","
","","","","","","null","<div style=""font-size:60px;"">+</div>","null","","fixation","","",""
"memory-trial","288","534082","0.0-18.0-1.120","7642","approach_avoid_sv1","""event"",""trial"",""time""
""fullscreenenter"",""1"",""1407""
","
","
","""event"",""trial"",""time""
""fullscreenenter"",""1"",""1407""
","
","","","","","","1050","images/cow6.png","","","memory_trial","4","definitely_new",""
"html-keyboard-response","289","534587","0.0-18.0-0.121","7642","approach_avoid_sv1","""event"",""trial"",""time""
""fullscreenenter"",""1"",""1407""
","
","
","""event"",""trial"",""time""
""fullscreenenter"",""1"",""1407""
","
","","","","","","null","<div style=""font-size:60px;"">+</div>","null","","fixation","","",""
"memory-trial","290","536409","0.0-18.0-1.121","7642","approach_avoid_sv1","""event"",""trial"",""time""
""fullscreenenter"",""1"",""1407""
","
","
","""event"",""trial"",""time""
""fullscreenenter"",""1"",""1407""
","
","","","","","","818","images/bed3.png","","","memory_trial","4","definitely_new",""
"html-keyboard-response","291","536914","0.0-18.0-0.122","7642","approach_avoid_sv1","""event"",""trial"",""time""
""fullscreenenter"",""1"",""1407""
","
","
","""event"",""trial"",""time""
""fullscreenenter"",""1"",""1407""
","
","","","","","","null","<div style=""font-size:60px;"">+</div>","null","","fixation","","",""
"memory-trial","292","539608","0.0-18.0-1.122","7642","approach_avoid_sv1","""event"",""trial"",""time""
""fullscreenenter"",""1"",""1407""
","
","
","""event"",""trial"",""time""
""fullscreenenter"",""1"",""1407""
","
","","","","","","1686.5","images/flower2.png","","","memory_trial","3","maybe_new",""
"html-keyboard-response","293","540113","0.0-18.0-0.123","7642","approach_avoid_sv1","""event"",""trial"",""time""
""fullscreenenter"",""1"",""1407""
","
","
","""event"",""trial"",""time""
""fullscreenenter"",""1"",""1407""
","
","","","","","","null","<div style=""font-size:60px;"">+</div>","null","","fixation","","",""
"memory-trial","294","541866","0.0-18.0-1.123","7642","approach_avoid_sv1","""event"",""trial"",""time""
""fullscreenenter"",""1"",""1407""
","
","
","""event"",""trial"",""time""
""fullscreenenter"",""1"",""1407""
","
","","","","","","744.5","images/table1.png","","","memory_trial","3","maybe_new",""
"html-keyboard-response","295","542371","0.0-18.0-0.124","7642","approach_avoid_sv1","""event"",""trial"",""time""
""fullscreenenter"",""1"",""1407""
","
","
","""event"",""trial"",""time""
""fullscreenenter"",""1"",""1407""
","
","","","","","","null","<div style=""font-size:60px;"">+</div>","null","","fixation","","",""
"memory-trial","296","545210","0.0-18.0-1.124","7642","approach_avoid_sv1","""event"",""trial"",""time""
""fullscreenenter"",""1"",""1407""
","
","
","""event"",""trial"",""time""
""fullscreenenter"",""1"",""1407""
","
","","","","","","1833.8999999761581","images/cactus1.png","","","memory_trial","3","maybe_new",""
"html-keyboard-response","297","545715","0.0-18.0-0.125","7642","approach_avoid_sv1","""event"",""trial"",""time""
""fullscreenenter"",""1"",""1407""
","
","
","""event"",""trial"",""time""
""fullscreenenter"",""1"",""1407""
","
","","","","","","null","<div style=""font-size:60px;"">+</div>","null","","fixation","","",""
