"trial_type","trial_index","time_elapsed","internal_node_id","subject_id","task_version","interactions","blur_events","focus_events","fullscreenenter_events","fullscreenexit_events","success","timeout","failed_images","failed_audio","failed_video","rt","stimulus","response","button_pressed","task_part","key_press","answer","correct"
"pavlovia","0","3","0.0-0.0","4464","approach_avoid_sv1","""event"",""trial"",""time""
""fullscreenenter"",""1"",""873""
","
","
","""event"",""trial"",""time""
""fullscreenenter"",""1"",""873""
","
","","","","","","","","","","","","",""
"fullscreen","1","1859","0.0-1.0","4464","approach_avoid_sv1","""event"",""trial"",""time""
""fullscreenenter"",""1"",""873""
","
","
","""event"",""trial"",""time""
""fullscreenenter"",""1"",""873""
","
","true","","","","","","","","","","","",""
"preload","2","3616","0.0-2.0","4464","approach_avoid_sv1","""event"",""trial"",""time""
""fullscreenenter"",""1"",""873""
","
","
","""event"",""trial"",""time""
""fullscreenenter"",""1"",""873""
","
","true","false","[]","[]","[]","","","","","","","",""
"preload","3","5562","0.0-3.0","4464","approach_avoid_sv1","""event"",""trial"",""time""
""fullscreenenter"",""1"",""873""
","
","
","""event"",""trial"",""time""
""fullscreenenter"",""1"",""873""
","
","true","false","[]","[]","[]","","","","","","","",""
"preload","4","5796","0.0-4.0","4464","approach_avoid_sv1","""event"",""trial"",""time""
""fullscreenenter"",""1"",""873""
","
","
","""event"",""trial"",""time""
""fullscreenenter"",""1"",""873""
","
","true","false","[]","[]","[]","","","","","","","",""
"audio-keyboard-response","5","7196","0.0-5.0","4464","approach_avoid_sv1","""event"",""trial"",""time""
""fullscreenenter"",""1"",""873""
","
","
","""event"",""trial"",""time""
""fullscreenenter"",""1"",""873""
","
","","","","","","1389.3333333333333","audio/beep_loop.wav"," ","","","","",""
"audio-button-response","6","8416","0.0-6.0","4464","approach_avoid_sv1","""event"",""trial"",""time""
""fullscreenenter"",""1"",""873""
","
","
","""event"",""trial"",""time""
""fullscreenenter"",""1"",""873""
","
","","","","","","1221","audio/turtle.wav","3","","","","",""
"audio-button-response","7","10393","0.0-7.0","4464","approach_avoid_sv1","""event"",""trial"",""time""
""fullscreenenter"",""1"",""873""
","
","
","""event"",""trial"",""time""
""fullscreenenter"",""1"",""873""
","
","","","","","","968","audio/shark.wav","2","","","","",""
"preload","8","12803","0.0-8.0","4464","approach_avoid_sv1","""event"",""trial"",""time""
""fullscreenenter"",""1"",""873""
","
","
","""event"",""trial"",""time""
""fullscreenenter"",""1"",""873""
","
","true","false","[]","[]","[]","","","","","","","",""
"learning-instructions","9","18049","0.0-9.0-0.0","4464","approach_avoid_sv1","""event"",""trial"",""time""
""fullscreenenter"",""1"",""873""
","
","
","""event"",""trial"",""time""
""fullscreenenter"",""1"",""873""
","
","","","","","","772.5","<p> Welcome back! </p><p> Last week, you had to make choices about lots of different items.  </p>","","0","instructions","","",""
"learning-instructions","10","22616","0.0-9.0-0.1","4464","approach_avoid_sv1","""event"",""trial"",""time""
""fullscreenenter"",""1"",""873""
","
","
","""event"",""trial"",""time""
""fullscreenenter"",""1"",""873""
","
","","","","","","440.2000000476837","<p> Today, we are going to ask you to try to remember all the items. </p>","","0","instructions","","",""
"learning-instructions","11","33745","0.0-9.0-0.2","4464","approach_avoid_sv1","""event"",""trial"",""time""
""fullscreenenter"",""1"",""873""
","
","
","""event"",""trial"",""time""
""fullscreenenter"",""1"",""873""
","
","","","","","","988.7000000476837","<p> On every trial, you will see an image. </p><p> The image may be an OLD image you saw during the games last week or it may be a NEW image that was not presented. </p>","","0","instructions","","",""
"learning-instructions","12","42728","0.0-9.0-0.3","4464","approach_avoid_sv1","""event"",""trial"",""time""
""fullscreenenter"",""1"",""873""
","
","
","""event"",""trial"",""time""
""fullscreenenter"",""1"",""873""
","
","","","","","","480.5999999642372","<p> You need to select whether the image is:  </p><p>  'Definitely old', 'Maybe old', 'Maybe new', or 'Definitely new.'  </p><div class=""mem-choice-instructions-grid""><div class=""choice-option"" id=""choice-option-1"" ><img src=""images/definitely_old_1.png"" id=""choice-option-img-1"" class=""choice-option-img"" stage=""1""></div><div class=""choice-option"" id=""choice-option-2"" ><img src=""images/maybe_old_1.png"" id=""choice-option-img-2"" class=""choice-option-img"" stage=""1""></div><div class=""choice-option"" id=""choice-option-3"" ><img src=""images/maybe_new_1.png"" id=""choice-option-img-3"" class=""choice-option-img"" stage=""1""></div><div class=""choice-option"" id=""choice-option-4"" > <img src=""images/definitely_new_1.png"" id=""choice-option-img-4"" class=""choice-option-img"" stage=""1""></div></div>","","0","instructions","","",""
"learning-instructions","13","49664","0.0-9.0-0.4","4464","approach_avoid_sv1","""event"",""trial"",""time""
""fullscreenenter"",""1"",""873""
","
","
","""event"",""trial"",""time""
""fullscreenenter"",""1"",""873""
","
","","","","","","417.19999998807907","<p> You should use the 1, 2, 3, and 4 keys to make your responses.  </p><div class=""mem-choice-instructions-grid""><div class=""choice-option"" id=""choice-option-1"" ><img src=""images/definitely_old.png"" id=""choice-option-img-1"" class=""choice-option-img"" stage=""1""></div><div class=""choice-option"" id=""choice-option-2"" ><img src=""images/maybe_old.png"" id=""choice-option-img-2"" class=""choice-option-img"" stage=""1""></div><div class=""choice-option"" id=""choice-option-3"" ><img src=""images/maybe_new.png"" id=""choice-option-img-3"" class=""choice-option-img"" stage=""1""></div><div class=""choice-option"" id=""choice-option-4"" > <img src=""images/definitely_new.png"" id=""choice-option-img-4"" class=""choice-option-img"" stage=""1""></div></div>","","0","instructions","","",""
"learning-instructions","14","56760","0.0-9.0-0.5","4464","approach_avoid_sv1","""event"",""trial"",""time""
""fullscreenenter"",""1"",""873""
","
","
","""event"",""trial"",""time""
""fullscreenenter"",""1"",""873""
","
","","","","","","753.5","<p> You will have 10 seconds to make each response.  </p><p>  Make sure to respond before time runs out! </p>","","0","instructions","","",""
"learning-instructions","15","64488","0.0-9.0-0.6","4464","approach_avoid_sv1","""event"",""trial"",""time""
""fullscreenenter"",""1"",""873""
","
","
","""event"",""trial"",""time""
""fullscreenenter"",""1"",""873""
","
","","","","","","651.6999999880791","<p> Today, you will see each image ONCE only.  </p><p>  That means none of the images will repeat. </p>","","0","instructions","","",""
"learning-instructions","16","77833","0.0-9.0-0.7","4464","approach_avoid_sv1","""event"",""trial"",""time""
""fullscreenenter"",""1"",""873""
","
","
","""event"",""trial"",""time""
""fullscreenenter"",""1"",""873""
","
","","","","","","657.5","<p> Before you play the real game, it is time to practice. </p><p>  Just like in the real game, some of the images in the practice will be ones you have seen before. </p><p>  Others will be entirely new. </p>","","0","instructions","","",""
"html-button-response","17","79313","0.0-10.0","4464","approach_avoid_sv1","""event"",""trial"",""time""
""fullscreenenter"",""1"",""873""
","
","
","""event"",""trial"",""time""
""fullscreenenter"",""1"",""873""
","
","","","","","","1375.6000000238419","<p> Ready to practice? </p><p> Remember, use the 1, 2, 3, and 4 keys to make your responses. </p>","0","","instructions","","",""
"html-keyboard-response","18","79944","0.0-11.0-0.0","4464","approach_avoid_sv1","""event"",""trial"",""time""
""fullscreenenter"",""1"",""873""
","
","
","""event"",""trial"",""time""
""fullscreenenter"",""1"",""873""
","
","","","","","","null","<div style=""font-size:60px;"">+</div>","null","","fixation","","",""
"memory-trial","19","84014","0.0-11.0-1.0","4464","approach_avoid_sv1","""event"",""trial"",""time""
""fullscreenenter"",""1"",""873""
","
","
","""event"",""trial"",""time""
""fullscreenenter"",""1"",""873""
","
","","","","","","3053.199999988079","images/racket3.png","","","practice","1","definitely_old",""
"html-keyboard-response","20","84534","0.0-11.0-0.1","4464","approach_avoid_sv1","""event"",""trial"",""time""
""fullscreenenter"",""1"",""873""
","
","
","""event"",""trial"",""time""
""fullscreenenter"",""1"",""873""
","
","","","","","","null","<div style=""font-size:60px;"">+</div>","null","","fixation","","",""
"memory-trial","21","86715","0.0-11.0-1.1","4464","approach_avoid_sv1","""event"",""trial"",""time""
""fullscreenenter"",""1"",""873""
","
","
","""event"",""trial"",""time""
""fullscreenenter"",""1"",""873""
","
","","","","","","1153","images/racket1.png","","","practice","2","maybe_old",""
"html-keyboard-response","22","87224","0.0-11.0-0.2","4464","approach_avoid_sv1","""event"",""trial"",""time""
""fullscreenenter"",""1"",""873""
","
","
","""event"",""trial"",""time""
""fullscreenenter"",""1"",""873""
","
","","","","","","null","<div style=""font-size:60px;"">+</div>","null","","fixation","","",""
"memory-trial","23","89504","0.0-11.0-1.2","4464","approach_avoid_sv1","""event"",""trial"",""time""
""fullscreenenter"",""1"",""873""
","
","
","""event"",""trial"",""time""
""fullscreenenter"",""1"",""873""
","
","","","","","","1270.5","images/racket2.png","","","practice","3","maybe_new",""
"html-keyboard-response","24","90015","0.0-11.0-0.3","4464","approach_avoid_sv1","""event"",""trial"",""time""
""fullscreenenter"",""1"",""873""
","
","
","""event"",""trial"",""time""
""fullscreenenter"",""1"",""873""
","
","","","","","","null","<div style=""font-size:60px;"">+</div>","null","","fixation","","",""
"memory-trial","25","93864","0.0-11.0-1.3","4464","approach_avoid_sv1","""event"",""trial"",""time""
""fullscreenenter"",""1"",""873""
","
","
","""event"",""trial"",""time""
""fullscreenenter"",""1"",""873""
","
","","","","","","2823.899999976158","images/racket5.png","","","practice","3","maybe_new",""
"html-keyboard-response","26","94384","0.0-11.0-0.4","4464","approach_avoid_sv1","""event"",""trial"",""time""
""fullscreenenter"",""1"",""873""
","
","
","""event"",""trial"",""time""
""fullscreenenter"",""1"",""873""
","
","","","","","","null","<div style=""font-size:60px;"">+</div>","null","","fixation","","",""
"memory-trial","27","96814","0.0-11.0-1.4","4464","approach_avoid_sv1","""event"",""trial"",""time""
""fullscreenenter"",""1"",""873""
","
","
","""event"",""trial"",""time""
""fullscreenenter"",""1"",""873""
","
","","","","","","1407.2999999523163","images/ball3.png","","","practice","4","definitely_new",""
"html-keyboard-response","28","97334","0.0-11.0-0.5","4464","approach_avoid_sv1","""event"",""trial"",""time""
""fullscreenenter"",""1"",""873""
","
","
","""event"",""trial"",""time""
""fullscreenenter"",""1"",""873""
","
","","","","","","null","<div style=""font-size:60px;"">+</div>","null","","fixation","","",""
"memory-trial","29","99414","0.0-11.0-1.5","4464","approach_avoid_sv1","""event"",""trial"",""time""
""fullscreenenter"",""1"",""873""
","
","
","""event"",""trial"",""time""
""fullscreenenter"",""1"",""873""
","
","","","","","","1057.3999999761581","images/ball1.png","","","practice","3","maybe_new",""
"html-keyboard-response","30","99924","0.0-11.0-0.6","4464","approach_avoid_sv1","""event"",""trial"",""time""
""fullscreenenter"",""1"",""873""
","
","
","""event"",""trial"",""time""
""fullscreenenter"",""1"",""873""
","
","","","","","","null","<div style=""font-size:60px;"">+</div>","null","","fixation","","",""
"memory-trial","31","102884","0.0-11.0-1.6","4464","approach_avoid_sv1","""event"",""trial"",""time""
""fullscreenenter"",""1"",""873""
","
","
","""event"",""trial"",""time""
""fullscreenenter"",""1"",""873""
","
","","","","","","1947.300000011921","images/ball5.png","","","practice","1","definitely_old",""
"html-keyboard-response","32","103404","0.0-11.0-0.7","4464","approach_avoid_sv1","""event"",""trial"",""time""
""fullscreenenter"",""1"",""873""
","
","
","""event"",""trial"",""time""
""fullscreenenter"",""1"",""873""
","
","","","","","","null","<div style=""font-size:60px;"">+</div>","null","","fixation","","",""
"memory-trial","33","105594","0.0-11.0-1.7","4464","approach_avoid_sv1","""event"",""trial"",""time""
""fullscreenenter"",""1"",""873""
","
","
","""event"",""trial"",""time""
""fullscreenenter"",""1"",""873""
","
","","","","","","1186","images/ball2.png","","","practice","1","definitely_old",""
"learning-instructions","34","114200","0.0-12.0-0.0","4464","approach_avoid_sv1","""event"",""trial"",""time""
""fullscreenenter"",""1"",""873""
","
","
","""event"",""trial"",""time""
""fullscreenenter"",""1"",""873""
","
","","","","","","1294","<p> Great! You have completed the practice. </p><p> Before you start, we're going to ask you a few questions about how the game works.  </p>","","0","instructions","","",""
"preload","35","115532","0.0-13.0","4464","approach_avoid_sv1","""event"",""trial"",""time""
""fullscreenenter"",""1"",""873""
","
","
","""event"",""trial"",""time""
""fullscreenenter"",""1"",""873""
","
","true","false","[]","[]","[]","","","","","","","",""
"comp-q","36","123072","0.0-14.0-0.0","4464","approach_avoid_sv1","""event"",""trial"",""time""
""fullscreenenter"",""1"",""873""
","
","
","""event"",""trial"",""time""
""fullscreenenter"",""1"",""873""
","
","","","","","","1717","<p> <b> True or False? </b> </p><p> In this game, you will only see each image once. </p>","","0","comp_question","","","true"
"comp-q","37","130048","0.0-14.0-1.0","4464","approach_avoid_sv1","""event"",""trial"",""time""
""fullscreenenter"",""1"",""873""
","
","
","""event"",""trial"",""time""
""fullscreenenter"",""1"",""873""
","
","","","","","","612","<p> <b> That's right! </b> You will see many different images <i> one time each </i> in this game. </p>","","0","comp_answer","","",""
"comp-q","38","138048","0.0-15.0-0.0","4464","approach_avoid_sv1","""event"",""trial"",""time""
""fullscreenenter"",""1"",""873""
","
","
","""event"",""trial"",""time""
""fullscreenenter"",""1"",""873""
","
","","","","","","2991.899999976158","<p> <b> True or False? </b> </p><p> You should use the mouse and click to make your response. </p>","","1","comp_question","","","true"
"comp-q","39","145280","0.0-15.0-1.0","4464","approach_avoid_sv1","""event"",""trial"",""time""
""fullscreenenter"",""1"",""873""
","
","
","""event"",""trial"",""time""
""fullscreenenter"",""1"",""873""
","
","","","","","","724.5","<p><b> That's right! </b> You should use the '1', '2', '3', and '4' keys to make your response. </p>","","0","comp_answer","","",""
"comp-q","40","151639","0.0-16.0-0.0","4464","approach_avoid_sv1","""event"",""trial"",""time""
""fullscreenenter"",""1"",""873""
","
","
","""event"",""trial"",""time""
""fullscreenenter"",""1"",""873""
","
","","","","","","674.8999999761581","<p> <b> True or False? </b> </p><p> You will have as much time as you want to make each choice. </p>","","1","comp_question","","","true"
"comp-q","41","157624","0.0-16.0-1.0","4464","approach_avoid_sv1","""event"",""trial"",""time""
""fullscreenenter"",""1"",""873""
","
","
","""event"",""trial"",""time""
""fullscreenenter"",""1"",""873""
","
","","","","","","1288.1000000238419","<p> <b> That's right! </b> You will only have 10 seconds to make each choice. </p>","","0","comp_answer","","",""
"learning-instructions","42","167168","0.0-17.0","4464","approach_avoid_sv1","""event"",""trial"",""time""
""fullscreenenter"",""1"",""873""
","
","
","""event"",""trial"",""time""
""fullscreenenter"",""1"",""873""
","
","","","","","","873","<p> Great! You are now ready to begin the game. </p><p> Remember, use the 1, 2, 3, and 4 keys to make your responses. </p>","","0","instructions","","",""
"html-keyboard-response","43","167786","0.0-18.0-0.0","4464","approach_avoid_sv1","""event"",""trial"",""time""
""fullscreenenter"",""1"",""873""
","
","
","""event"",""trial"",""time""
""fullscreenenter"",""1"",""873""
","
","","","","","","null","<div style=""font-size:60px;"">+</div>","null","","fixation","","",""
"memory-trial","44","173003","0.0-18.0-1.0","4464","approach_avoid_sv1","""event"",""trial"",""time""
""fullscreenenter"",""1"",""873""
","
","
","""event"",""trial"",""time""
""fullscreenenter"",""1"",""873""
","
","","","","","","4204.800000011921","images/truck5.png","","","memory_trial","3","maybe_new",""
"html-keyboard-response","45","173523","0.0-18.0-0.1","4464","approach_avoid_sv1","""event"",""trial"",""time""
""fullscreenenter"",""1"",""873""
","
","
","""event"",""trial"",""time""
""fullscreenenter"",""1"",""873""
","
","","","","","","null","<div style=""font-size:60px;"">+</div>","null","","fixation","","",""
"memory-trial","46","175725","0.0-18.0-1.1","4464","approach_avoid_sv1","""event"",""trial"",""time""
""fullscreenenter"",""1"",""873""
","
","
","""event"",""trial"",""time""
""fullscreenenter"",""1"",""873""
","
","","","","","","1195.5","images/sofa5.png","","","memory_trial","4","definitely_new",""
"html-keyboard-response","47","176243","0.0-18.0-0.2","4464","approach_avoid_sv1","""event"",""trial"",""time""
""fullscreenenter"",""1"",""873""
","
","
","""event"",""trial"",""time""
""fullscreenenter"",""1"",""873""
","
","","","","","","null","<div style=""font-size:60px;"">+</div>","null","","fixation","","",""
"memory-trial","48","178524","0.0-18.0-1.2","4464","approach_avoid_sv1","""event"",""trial"",""time""
""fullscreenenter"",""1"",""873""
","
","
","""event"",""trial"",""time""
""fullscreenenter"",""1"",""873""
","
","","","","","","1275.1000000238419","images/bush1.png","","","memory_trial","2","maybe_old",""
"html-keyboard-response","49","179033","0.0-18.0-0.3","4464","approach_avoid_sv1","""event"",""trial"",""time""
""fullscreenenter"",""1"",""873""
","
","
","""event"",""trial"",""time""
""fullscreenenter"",""1"",""873""
","
","","","","","","null","<div style=""font-size:60px;"">+</div>","null","","fixation","","",""
"memory-trial","50","182214","0.0-18.0-1.3","4464","approach_avoid_sv1","""event"",""trial"",""time""
""fullscreenenter"",""1"",""873""
","
","
","""event"",""trial"",""time""
""fullscreenenter"",""1"",""873""
","
","","","","","","2158.5","images/boat8.png","","","memory_trial","1","definitely_old",""
"html-keyboard-response","51","182735","0.0-18.0-0.4","4464","approach_avoid_sv1","""event"",""trial"",""time""
""fullscreenenter"",""1"",""873""
","
","
","""event"",""trial"",""time""
""fullscreenenter"",""1"",""873""
","
","","","","","","null","<div style=""font-size:60px;"">+</div>","null","","fixation","","",""
"memory-trial","52","187348","0.0-18.0-1.4","4464","approach_avoid_sv1","""event"",""trial"",""time""
""fullscreenenter"",""1"",""873""
","
","
","""event"",""trial"",""time""
""fullscreenenter"",""1"",""873""
","
","","","","","","3600.5","images/bush3.png","","","memory_trial","2","maybe_old",""
"html-keyboard-response","53","187864","0.0-18.0-0.5","4464","approach_avoid_sv1","""event"",""trial"",""time""
""fullscreenenter"",""1"",""873""
","
","
","""event"",""trial"",""time""
""fullscreenenter"",""1"",""873""
","
","","","","","","null","<div style=""font-size:60px;"">+</div>","null","","fixation","","",""
"memory-trial","54","190244","0.0-18.0-1.5","4464","approach_avoid_sv1","""event"",""trial"",""time""
""fullscreenenter"",""1"",""873""
","
","
","""event"",""trial"",""time""
""fullscreenenter"",""1"",""873""
","
","","","","","","1352","images/cactus4.png","","","memory_trial","3","maybe_new",""
"html-keyboard-response","55","190764","0.0-18.0-0.6","4464","approach_avoid_sv1","""event"",""trial"",""time""
""fullscreenenter"",""1"",""873""
","
","
","""event"",""trial"",""time""
""fullscreenenter"",""1"",""873""
","
","","","","","","null","<div style=""font-size:60px;"">+</div>","null","","fixation","","",""
"memory-trial","56","193153","0.0-18.0-1.6","4464","approach_avoid_sv1","""event"",""trial"",""time""
""fullscreenenter"",""1"",""873""
","
","
","""event"",""trial"",""time""
""fullscreenenter"",""1"",""873""
","
","","","","","","1375.5","images/truck1.png","","","memory_trial","1","definitely_old",""
"html-keyboard-response","57","193674","0.0-18.0-0.7","4464","approach_avoid_sv1","""event"",""trial"",""time""
""fullscreenenter"",""1"",""873""
","
","
","""event"",""trial"",""time""
""fullscreenenter"",""1"",""873""
","
","","","","","","null","<div style=""font-size:60px;"">+</div>","null","","fixation","","",""
"memory-trial","58","196578","0.0-18.0-1.7","4464","approach_avoid_sv1","""event"",""trial"",""time""
""fullscreenenter"",""1"",""873""
","
","
","""event"",""trial"",""time""
""fullscreenenter"",""1"",""873""
","
","","","","","","1893.3999999761581","images/sheep1.png","","","memory_trial","3","maybe_new",""
"html-keyboard-response","59","197094","0.0-18.0-0.8","4464","approach_avoid_sv1","""event"",""trial"",""time""
""fullscreenenter"",""1"",""873""
","
","
","""event"",""trial"",""time""
""fullscreenenter"",""1"",""873""
","
","","","","","","null","<div style=""font-size:60px;"">+</div>","null","","fixation","","",""
"memory-trial","60","200242","0.0-18.0-1.8","4464","approach_avoid_sv1","""event"",""trial"",""time""
""fullscreenenter"",""1"",""873""
","
","
","""event"",""trial"",""time""
""fullscreenenter"",""1"",""873""
","
","","","","","","2137.899999976158","images/cow5.png","","","memory_trial","2","maybe_old",""
"html-keyboard-response","61","200746","0.0-18.0-0.9","4464","approach_avoid_sv1","""event"",""trial"",""time""
""fullscreenenter"",""1"",""873""
","
","
","""event"",""trial"",""time""
""fullscreenenter"",""1"",""873""
","
","","","","","","null","<div style=""font-size:60px;"">+</div>","null","","fixation","","",""
"memory-trial","62","203922","0.0-18.0-1.9","4464","approach_avoid_sv1","""event"",""trial"",""time""
""fullscreenenter"",""1"",""873""
","
","
","""event"",""trial"",""time""
""fullscreenenter"",""1"",""873""
","
","","","","","","2165.300000011921","images/orange5.png","","","memory_trial","2","maybe_old",""
"html-keyboard-response","63","204426","0.0-18.0-0.10","4464","approach_avoid_sv1","""event"",""trial"",""time""
""fullscreenenter"",""1"",""873""
","
","
","""event"",""trial"",""time""
""fullscreenenter"",""1"",""873""
","
","","","","","","null","<div style=""font-size:60px;"">+</div>","null","","fixation","","",""
"memory-trial","64","206530","0.0-18.0-1.10","4464","approach_avoid_sv1","""event"",""trial"",""time""
""fullscreenenter"",""1"",""873""
","
","
","""event"",""trial"",""time""
""fullscreenenter"",""1"",""873""
","
","","","","","","1099.699999988079","images/boat2.png","","","memory_trial","1","definitely_old",""
"html-keyboard-response","65","207034","0.0-18.0-0.11","4464","approach_avoid_sv1","""event"",""trial"",""time""
""fullscreenenter"",""1"",""873""
","
","
","""event"",""trial"",""time""
""fullscreenenter"",""1"",""873""
","
","","","","","","null","<div style=""font-size:60px;"">+</div>","null","","fixation","","",""
"memory-trial","66","209458","0.0-18.0-1.11","4464","approach_avoid_sv1","""event"",""trial"",""time""
""fullscreenenter"",""1"",""873""
","
","
","""event"",""trial"",""time""
""fullscreenenter"",""1"",""873""
","
","","","","","","1414.800000011921","images/flower6.png","","","memory_trial","1","definitely_old",""
"html-keyboard-response","67","209962","0.0-18.0-0.12","4464","approach_avoid_sv1","""event"",""trial"",""time""
""fullscreenenter"",""1"",""873""
","
","
","""event"",""trial"",""time""
""fullscreenenter"",""1"",""873""
","
","","","","","","null","<div style=""font-size:60px;"">+</div>","null","","fixation","","",""
"memory-trial","68","212346","0.0-18.0-1.12","4464","approach_avoid_sv1","""event"",""trial"",""time""
""fullscreenenter"",""1"",""873""
","
","
","""event"",""trial"",""time""
""fullscreenenter"",""1"",""873""
","
","","","","","","1380.5999999642372","images/goat4.png","","","memory_trial","4","definitely_new",""
"html-keyboard-response","69","212852","0.0-18.0-0.13","4464","approach_avoid_sv1","""event"",""trial"",""time""
""fullscreenenter"",""1"",""873""
","
","
","""event"",""trial"",""time""
""fullscreenenter"",""1"",""873""
","
","","","","","","null","<div style=""font-size:60px;"">+</div>","null","","fixation","","",""
"memory-trial","70","215524","0.0-18.0-1.13","4464","approach_avoid_sv1","""event"",""trial"",""time""
""fullscreenenter"",""1"",""873""
","
","
","""event"",""trial"",""time""
""fullscreenenter"",""1"",""873""
","
","","","","","","1658.5","images/banana1.png","","","memory_trial","2","maybe_old",""
"html-keyboard-response","71","216026","0.0-18.0-0.14","4464","approach_avoid_sv1","""event"",""trial"",""time""
""fullscreenenter"",""1"",""873""
","
","
","""event"",""trial"",""time""
""fullscreenenter"",""1"",""873""
","
","","","","","","null","<div style=""font-size:60px;"">+</div>","null","","fixation","","",""
"memory-trial","72","217912","0.0-18.0-1.14","4464","approach_avoid_sv1","""event"",""trial"",""time""
""fullscreenenter"",""1"",""873""
","
","
","""event"",""trial"",""time""
""fullscreenenter"",""1"",""873""
","
","","","","","","861.6000000238419","images/tree6.png","","","memory_trial","2","maybe_old",""
"html-keyboard-response","73","218418","0.0-18.0-0.15","4464","approach_avoid_sv1","""event"",""trial"",""time""
""fullscreenenter"",""1"",""873""
","
","
","""event"",""trial"",""time""
""fullscreenenter"",""1"",""873""
","
","","","","","","null","<div style=""font-size:60px;"">+</div>","null","","fixation","","",""
"memory-trial","74","221386","0.0-18.0-1.15","4464","approach_avoid_sv1","""event"",""trial"",""time""
""fullscreenenter"",""1"",""873""
","
","
","""event"",""trial"",""time""
""fullscreenenter"",""1"",""873""
","
","","","","","","1956.4000000357628","images/apple7.png","","","memory_trial","3","maybe_new",""
"html-keyboard-response","75","221890","0.0-18.0-0.16","4464","approach_avoid_sv1","""event"",""trial"",""time""
""fullscreenenter"",""1"",""873""
","
","
","""event"",""trial"",""time""
""fullscreenenter"",""1"",""873""
","
","","","","","","null","<div style=""font-size:60px;"">+</div>","null","","fixation","","",""
"memory-trial","76","223906","0.0-18.0-1.16","4464","approach_avoid_sv1","""event"",""trial"",""time""
""fullscreenenter"",""1"",""873""
","
","
","""event"",""trial"",""time""
""fullscreenenter"",""1"",""873""
","
","","","","","","1005","images/dog5.png","","","memory_trial","4","definitely_new",""
"html-keyboard-response","77","224410","0.0-18.0-0.17","4464","approach_avoid_sv1","""event"",""trial"",""time""
""fullscreenenter"",""1"",""873""
","
","
","""event"",""trial"",""time""
""fullscreenenter"",""1"",""873""
","
","","","","","","null","<div style=""font-size:60px;"">+</div>","null","","fixation","","",""
"memory-trial","78","226571","0.0-18.0-1.17","4464","approach_avoid_sv1","""event"",""trial"",""time""
""fullscreenenter"",""1"",""873""
","
","
","""event"",""trial"",""time""
""fullscreenenter"",""1"",""873""
","
","","","","","","1148.699999988079","images/plane3.png","","","memory_trial","4","definitely_new",""
"html-keyboard-response","79","227074","0.0-18.0-0.18","4464","approach_avoid_sv1","""event"",""trial"",""time""
""fullscreenenter"",""1"",""873""
","
","
","""event"",""trial"",""time""
""fullscreenenter"",""1"",""873""
","
","","","","","","null","<div style=""font-size:60px;"">+</div>","null","","fixation","","",""
"memory-trial","80","228858","0.0-18.0-1.18","4464","approach_avoid_sv1","""event"",""trial"",""time""
""fullscreenenter"",""1"",""873""
","
","
","""event"",""trial"",""time""
""fullscreenenter"",""1"",""873""
","
","","","","","","781.4000000357628","images/boat6.png","","","memory_trial","4","definitely_new",""
"html-keyboard-response","81","229362","0.0-18.0-0.19","4464","approach_avoid_sv1","""event"",""trial"",""time""
""fullscreenenter"",""1"",""873""
","
","
","""event"",""trial"",""time""
""fullscreenenter"",""1"",""873""
","
","","","","","","null","<div style=""font-size:60px;"">+</div>","null","","fixation","","",""
"memory-trial","82","231722","0.0-18.0-1.19","4464","approach_avoid_sv1","""event"",""trial"",""time""
""fullscreenenter"",""1"",""873""
","
","
","""event"",""trial"",""time""
""fullscreenenter"",""1"",""873""
","
","","","","","","1356.8999999761581","images/rodent8.png","","","memory_trial","1","definitely_old",""
"html-keyboard-response","83","232227","0.0-18.0-0.20","4464","approach_avoid_sv1","""event"",""trial"",""time""
""fullscreenenter"",""1"",""873""
","
","
","""event"",""trial"",""time""
""fullscreenenter"",""1"",""873""
","
","","","","","","null","<div style=""font-size:60px;"">+</div>","null","","fixation","","",""
"memory-trial","84","234150","0.0-18.0-1.20","4464","approach_avoid_sv1","""event"",""trial"",""time""
""fullscreenenter"",""1"",""873""
","
","
","""event"",""trial"",""time""
""fullscreenenter"",""1"",""873""
","
","","","","","","901.7000000476837","images/cat7.png","","","memory_trial","1","definitely_old",""
"html-keyboard-response","85","234669","0.0-18.0-0.21","4464","approach_avoid_sv1","""event"",""trial"",""time""
""fullscreenenter"",""1"",""873""
","
","
","""event"",""trial"",""time""
""fullscreenenter"",""1"",""873""
","
","","","","","","null","<div style=""font-size:60px;"">+</div>","null","","fixation","","",""
"memory-trial","86","237132","0.0-18.0-1.21","4464","approach_avoid_sv1","""event"",""trial"",""time""
""fullscreenenter"",""1"",""873""
","
","
","""event"",""trial"",""time""
""fullscreenenter"",""1"",""873""
","
","","","","","","1450.199999988079","images/goat2.png","","","memory_trial","4","definitely_new",""
"html-keyboard-response","87","237634","0.0-18.0-0.22","4464","approach_avoid_sv1","""event"",""trial"",""time""
""fullscreenenter"",""1"",""873""
","
","
","""event"",""trial"",""time""
""fullscreenenter"",""1"",""873""
","
","","","","","","null","<div style=""font-size:60px;"">+</div>","null","","fixation","","",""
"memory-trial","88","240116","0.0-18.0-1.22","4464","approach_avoid_sv1","""event"",""trial"",""time""
""fullscreenenter"",""1"",""873""
","
","
","""event"",""trial"",""time""
""fullscreenenter"",""1"",""873""
","
","","","","","","1469.300000011921","images/cow4.png","","","memory_trial","3","maybe_new",""
"html-keyboard-response","89","240620","0.0-18.0-0.23","4464","approach_avoid_sv1","""event"",""trial"",""time""
""fullscreenenter"",""1"",""873""
","
","
","""event"",""trial"",""time""
""fullscreenenter"",""1"",""873""
","
","","","","","","null","<div style=""font-size:60px;"">+</div>","null","","fixation","","",""
"memory-trial","90","242282","0.0-18.0-1.23","4464","approach_avoid_sv1","""event"",""trial"",""time""
""fullscreenenter"",""1"",""873""
","
","
","""event"",""trial"",""time""
""fullscreenenter"",""1"",""873""
","
","","","","","","650.4000000357628","images/cat8.png","","","memory_trial","3","maybe_new",""
"html-keyboard-response","91","242796","0.0-18.0-0.24","4464","approach_avoid_sv1","""event"",""trial"",""time""
""fullscreenenter"",""1"",""873""
","
","
","""event"",""trial"",""time""
""fullscreenenter"",""1"",""873""
","
","","","","","","null","<div style=""font-size:60px;"">+</div>","null","","fixation","","",""
"memory-trial","92","244954","0.0-18.0-1.24","4464","approach_avoid_sv1","""event"",""trial"",""time""
""fullscreenenter"",""1"",""873""
","
","
","""event"",""trial"",""time""
""fullscreenenter"",""1"",""873""
","
","","","","","","1147.800000011921","images/bush5.png","","","memory_trial","2","maybe_old",""
"html-keyboard-response","93","245458","0.0-18.0-0.25","4464","approach_avoid_sv1","""event"",""trial"",""time""
""fullscreenenter"",""1"",""873""
","
","
","""event"",""trial"",""time""
""fullscreenenter"",""1"",""873""
","
","","","","","","null","<div style=""font-size:60px;"">+</div>","null","","fixation","","",""
"memory-trial","94","247492","0.0-18.0-1.25","4464","approach_avoid_sv1","""event"",""trial"",""time""
""fullscreenenter"",""1"",""873""
","
","
","""event"",""trial"",""time""
""fullscreenenter"",""1"",""873""
","
","","","","","","1027.5","images/straw1.png","","","memory_trial","1","definitely_old",""
"html-keyboard-response","95","247994","0.0-18.0-0.26","4464","approach_avoid_sv1","""event"",""trial"",""time""
""fullscreenenter"",""1"",""873""
","
","
","""event"",""trial"",""time""
""fullscreenenter"",""1"",""873""
","
","","","","","","null","<div style=""font-size:60px;"">+</div>","null","","fixation","","",""
"memory-trial","96","251618","0.0-18.0-1.26","4464","approach_avoid_sv1","""event"",""trial"",""time""
""fullscreenenter"",""1"",""873""
","
","
","""event"",""trial"",""time""
""fullscreenenter"",""1"",""873""
","
","","","","","","2613.800000011921","images/banana4.png","","","memory_trial","3","maybe_new",""
"html-keyboard-response","97","252122","0.0-18.0-0.27","4464","approach_avoid_sv1","""event"",""trial"",""time""
""fullscreenenter"",""1"",""873""
","
","
","""event"",""trial"",""time""
""fullscreenenter"",""1"",""873""
","
","","","","","","null","<div style=""font-size:60px;"">+</div>","null","","fixation","","",""
"memory-trial","98","254410","0.0-18.0-1.27","4464","approach_avoid_sv1","""event"",""trial"",""time""
""fullscreenenter"",""1"",""873""
","
","
","""event"",""trial"",""time""
""fullscreenenter"",""1"",""873""
","
","","","","","","1283.300000011921","images/chair8.png","","","memory_trial","3","maybe_new",""
"html-keyboard-response","99","254914","0.0-18.0-0.28","4464","approach_avoid_sv1","""event"",""trial"",""time""
""fullscreenenter"",""1"",""873""
","
","
","""event"",""trial"",""time""
""fullscreenenter"",""1"",""873""
","
","","","","","","null","<div style=""font-size:60px;"">+</div>","null","","fixation","","",""
"memory-trial","100","258314","0.0-18.0-1.28","4464","approach_avoid_sv1","""event"",""trial"",""time""
""fullscreenenter"",""1"",""873""
","
","
","""event"",""trial"",""time""
""fullscreenenter"",""1"",""873""
","
","","","","","","2389.100000023842","images/rabbit4.png","","","memory_trial","3","maybe_new",""
"html-keyboard-response","101","258824","0.0-18.0-0.29","4464","approach_avoid_sv1","""event"",""trial"",""time""
""fullscreenenter"",""1"",""873""
","
","
","""event"",""trial"",""time""
""fullscreenenter"",""1"",""873""
","
","","","","","","null","<div style=""font-size:60px;"">+</div>","null","","fixation","","",""
"memory-trial","102","261402","0.0-18.0-1.29","4464","approach_avoid_sv1","""event"",""trial"",""time""
""fullscreenenter"",""1"",""873""
","
","
","""event"",""trial"",""time""
""fullscreenenter"",""1"",""873""
","
","","","","","","1568.1000000238419","images/straw3.png","","","memory_trial","3","maybe_new",""
"html-keyboard-response","103","261908","0.0-18.0-0.30","4464","approach_avoid_sv1","""event"",""trial"",""time""
""fullscreenenter"",""1"",""873""
","
","
","""event"",""trial"",""time""
""fullscreenenter"",""1"",""873""
","
","","","","","","null","<div style=""font-size:60px;"">+</div>","null","","fixation","","",""
"memory-trial","104","263826","0.0-18.0-1.30","4464","approach_avoid_sv1","""event"",""trial"",""time""
""fullscreenenter"",""1"",""873""
","
","
","""event"",""trial"",""time""
""fullscreenenter"",""1"",""873""
","
","","","","","","906.6000000238419","images/dog7.png","","","memory_trial","3","maybe_new",""
"html-keyboard-response","105","264330","0.0-18.0-0.31","4464","approach_avoid_sv1","""event"",""trial"",""time""
""fullscreenenter"",""1"",""873""
","
","
","""event"",""trial"",""time""
""fullscreenenter"",""1"",""873""
","
","","","","","","null","<div style=""font-size:60px;"">+</div>","null","","fixation","","",""
"memory-trial","106","267447","0.0-18.0-1.31","4464","approach_avoid_sv1","""event"",""trial"",""time""
""fullscreenenter"",""1"",""873""
","
","
","""event"",""trial"",""time""
""fullscreenenter"",""1"",""873""
","
","","","","","","2092.7000000476837","images/flower5.png","","","memory_trial","2","maybe_old",""
"html-keyboard-response","107","267955","0.0-18.0-0.32","4464","approach_avoid_sv1","""event"",""trial"",""time""
""fullscreenenter"",""1"",""873""
","
","
","""event"",""trial"",""time""
""fullscreenenter"",""1"",""873""
","
","","","","","","null","<div style=""font-size:60px;"">+</div>","null","","fixation","","",""
"memory-trial","108","270187","0.0-18.0-1.32","4464","approach_avoid_sv1","""event"",""trial"",""time""
""fullscreenenter"",""1"",""873""
","
","
","""event"",""trial"",""time""
""fullscreenenter"",""1"",""873""
","
","","","","","","1227.5999999642372","images/chair3.png","","","memory_trial","3","maybe_new",""
"html-keyboard-response","109","270691","0.0-18.0-0.33","4464","approach_avoid_sv1","""event"",""trial"",""time""
""fullscreenenter"",""1"",""873""
","
","
","""event"",""trial"",""time""
""fullscreenenter"",""1"",""873""
","
","","","","","","null","<div style=""font-size:60px;"">+</div>","null","","fixation","","",""
"memory-trial","110","273210","0.0-18.0-1.33","4464","approach_avoid_sv1","""event"",""trial"",""time""
""fullscreenenter"",""1"",""873""
","
","
","""event"",""trial"",""time""
""fullscreenenter"",""1"",""873""
","
","","","","","","1498.5","images/table7.png","","","memory_trial","1","definitely_old",""
"html-keyboard-response","111","273727","0.0-18.0-0.34","4464","approach_avoid_sv1","""event"",""trial"",""time""
""fullscreenenter"",""1"",""873""
","
","
","""event"",""trial"",""time""
""fullscreenenter"",""1"",""873""
","
","","","","","","null","<div style=""font-size:60px;"">+</div>","null","","fixation","","",""
"memory-trial","112","275610","0.0-18.0-1.34","4464","approach_avoid_sv1","""event"",""trial"",""time""
""fullscreenenter"",""1"",""873""
","
","
","""event"",""trial"",""time""
""fullscreenenter"",""1"",""873""
","
","","","","","","879.1000000238419","images/straw5.png","","","memory_trial","1","definitely_old",""
"html-keyboard-response","113","276114","0.0-18.0-0.35","4464","approach_avoid_sv1","""event"",""trial"",""time""
""fullscreenenter"",""1"",""873""
","
","
","""event"",""trial"",""time""
""fullscreenenter"",""1"",""873""
","
","","","","","","null","<div style=""font-size:60px;"">+</div>","null","","fixation","","",""
"memory-trial","114","278530","0.0-18.0-1.35","4464","approach_avoid_sv1","""event"",""trial"",""time""
""fullscreenenter"",""1"",""873""
","
","
","""event"",""trial"",""time""
""fullscreenenter"",""1"",""873""
","
","","","","","","1406.300000011921","images/banana6.png","","","memory_trial","3","maybe_new",""
"html-keyboard-response","115","279034","0.0-18.0-0.36","4464","approach_avoid_sv1","""event"",""trial"",""time""
""fullscreenenter"",""1"",""873""
","
","
","""event"",""trial"",""time""
""fullscreenenter"",""1"",""873""
","
","","","","","","null","<div style=""font-size:60px;"">+</div>","null","","fixation","","",""
"memory-trial","116","281882","0.0-18.0-1.36","4464","approach_avoid_sv1","""event"",""trial"",""time""
""fullscreenenter"",""1"",""873""
","
","
","""event"",""trial"",""time""
""fullscreenenter"",""1"",""873""
","
","","","","","","1836.800000011921","images/bed2.png","","","memory_trial","2","maybe_old",""
"html-keyboard-response","117","282386","0.0-18.0-0.37","4464","approach_avoid_sv1","""event"",""trial"",""time""
""fullscreenenter"",""1"",""873""
","
","
","""event"",""trial"",""time""
""fullscreenenter"",""1"",""873""
","
","","","","","","null","<div style=""font-size:60px;"">+</div>","null","","fixation","","",""
"memory-trial","118","284635","0.0-18.0-1.37","4464","approach_avoid_sv1","""event"",""trial"",""time""
""fullscreenenter"",""1"",""873""
","
","
","""event"",""trial"",""time""
""fullscreenenter"",""1"",""873""
","
","","","","","","1237.5","images/table8.png","","","memory_trial","1","definitely_old",""
"html-keyboard-response","119","285137","0.0-18.0-0.38","4464","approach_avoid_sv1","""event"",""trial"",""time""
""fullscreenenter"",""1"",""873""
","
","
","""event"",""trial"",""time""
""fullscreenenter"",""1"",""873""
","
","","","","","","null","<div style=""font-size:60px;"">+</div>","null","","fixation","","",""
"memory-trial","120","286986","0.0-18.0-1.38","4464","approach_avoid_sv1","""event"",""trial"",""time""
""fullscreenenter"",""1"",""873""
","
","
","""event"",""trial"",""time""
""fullscreenenter"",""1"",""873""
","
","","","","","","845.8000000119209","images/sheep4.png","","","memory_trial","2","maybe_old",""
"html-keyboard-response","121","287491","0.0-18.0-0.39","4464","approach_avoid_sv1","""event"",""trial"",""time""
""fullscreenenter"",""1"",""873""
","
","
","""event"",""trial"",""time""
""fullscreenenter"",""1"",""873""
","
","","","","","","null","<div style=""font-size:60px;"">+</div>","null","","fixation","","",""
"memory-trial","122","289426","0.0-18.0-1.39","4464","approach_avoid_sv1","""event"",""trial"",""time""
""fullscreenenter"",""1"",""873""
","
","
","""event"",""trial"",""time""
""fullscreenenter"",""1"",""873""
","
","","","","","","924","images/table1.png","","","memory_trial","3","maybe_new",""
"html-keyboard-response","123","289930","0.0-18.0-0.40","4464","approach_avoid_sv1","""event"",""trial"",""time""
""fullscreenenter"",""1"",""873""
","
","
","""event"",""trial"",""time""
""fullscreenenter"",""1"",""873""
","
","","","","","","null","<div style=""font-size:60px;"">+</div>","null","","fixation","","",""
"memory-trial","124","292090","0.0-18.0-1.40","4464","approach_avoid_sv1","""event"",""trial"",""time""
""fullscreenenter"",""1"",""873""
","
","
","""event"",""trial"",""time""
""fullscreenenter"",""1"",""873""
","
","","","","","","1149.300000011921","images/plane7.png","","","memory_trial","3","maybe_new",""
"html-keyboard-response","125","292594","0.0-18.0-0.41","4464","approach_avoid_sv1","""event"",""trial"",""time""
""fullscreenenter"",""1"",""873""
","
","
","""event"",""trial"",""time""
""fullscreenenter"",""1"",""873""
","
","","","","","","null","<div style=""font-size:60px;"">+</div>","null","","fixation","","",""
"memory-trial","126","295051","0.0-18.0-1.41","4464","approach_avoid_sv1","""event"",""trial"",""time""
""fullscreenenter"",""1"",""873""
","
","
","""event"",""trial"",""time""
""fullscreenenter"",""1"",""873""
","
","","","","","","1443.9000000357628","images/bush8.png","","","memory_trial","4","definitely_new",""
"html-button-response","127","296640","0.0-18.0-2.41-0.41","4464","approach_avoid_sv1","""event"",""trial"",""time""
""fullscreenenter"",""1"",""873""
","
","
","""event"",""trial"",""time""
""fullscreenenter"",""1"",""873""
","
","","","","","","1587.6000000238419","<p> Take a break! </p><p> Click the button to continue. </p>","0","","break","","",""
"html-keyboard-response","128","297147","0.0-18.0-0.42","4464","approach_avoid_sv1","""event"",""trial"",""time""
""fullscreenenter"",""1"",""873""
","
","
","""event"",""trial"",""time""
""fullscreenenter"",""1"",""873""
","
","","","","","","null","<div style=""font-size:60px;"">+</div>","null","","fixation","","",""
"memory-trial","129","300987","0.0-18.0-1.42","4464","approach_avoid_sv1","""event"",""trial"",""time""
""fullscreenenter"",""1"",""873""
","
","
","""event"",""trial"",""time""
""fullscreenenter"",""1"",""873""
","
","","","","","","2834.600000023842","images/tree4.png","","","memory_trial","1","definitely_old",""
"html-keyboard-response","130","301490","0.0-18.0-0.43","4464","approach_avoid_sv1","""event"",""trial"",""time""
""fullscreenenter"",""1"",""873""
","
","
","""event"",""trial"",""time""
""fullscreenenter"",""1"",""873""
","
","","","","","","null","<div style=""font-size:60px;"">+</div>","null","","fixation","","",""
"memory-trial","131","303361","0.0-18.0-1.43","4464","approach_avoid_sv1","""event"",""trial"",""time""
""fullscreenenter"",""1"",""873""
","
","
","""event"",""trial"",""time""
""fullscreenenter"",""1"",""873""
","
","","","","","","854","images/orange2.png","","","memory_trial","2","maybe_old",""
"html-keyboard-response","132","303867","0.0-18.0-0.44","4464","approach_avoid_sv1","""event"",""trial"",""time""
""fullscreenenter"",""1"",""873""
","
","
","""event"",""trial"",""time""
""fullscreenenter"",""1"",""873""
","
","","","","","","null","<div style=""font-size:60px;"">+</div>","null","","fixation","","",""
"memory-trial","133","306227","0.0-18.0-1.44","4464","approach_avoid_sv1","""event"",""trial"",""time""
""fullscreenenter"",""1"",""873""
","
","
","""event"",""trial"",""time""
""fullscreenenter"",""1"",""873""
","
","","","","","","1349.2000000476837","images/orange8.png","","","memory_trial","3","maybe_new",""
"html-keyboard-response","134","306730","0.0-18.0-0.45","4464","approach_avoid_sv1","""event"",""trial"",""time""
""fullscreenenter"",""1"",""873""
","
","
","""event"",""trial"",""time""
""fullscreenenter"",""1"",""873""
","
","","","","","","null","<div style=""font-size:60px;"">+</div>","null","","fixation","","",""
"memory-trial","135","311426","0.0-18.0-1.45","4464","approach_avoid_sv1","""event"",""trial"",""time""
""fullscreenenter"",""1"",""873""
","
","
","""event"",""trial"",""time""
""fullscreenenter"",""1"",""873""
","
","","","","","","3691.800000011921","images/cat3.png","","","memory_trial","1","definitely_old",""
"html-keyboard-response","136","311930","0.0-18.0-0.46","4464","approach_avoid_sv1","""event"",""trial"",""time""
""fullscreenenter"",""1"",""873""
","
","
","""event"",""trial"",""time""
""fullscreenenter"",""1"",""873""
","
","","","","","","null","<div style=""font-size:60px;"">+</div>","null","","fixation","","",""
"memory-trial","137","314586","0.0-18.0-1.46","4464","approach_avoid_sv1","""event"",""trial"",""time""
""fullscreenenter"",""1"",""873""
","
","
","""event"",""trial"",""time""
""fullscreenenter"",""1"",""873""
","
","","","","","","1653.2000000476837","images/cactus7.png","","","memory_trial","2","maybe_old",""
"html-keyboard-response","138","315092","0.0-18.0-0.47","4464","approach_avoid_sv1","""event"",""trial"",""time""
""fullscreenenter"",""1"",""873""
","
","
","""event"",""trial"",""time""
""fullscreenenter"",""1"",""873""
","
","","","","","","null","<div style=""font-size:60px;"">+</div>","null","","fixation","","",""
"memory-trial","139","317585","0.0-18.0-1.47","4464","approach_avoid_sv1","""event"",""trial"",""time""
""fullscreenenter"",""1"",""873""
","
","
","""event"",""trial"",""time""
""fullscreenenter"",""1"",""873""
","
","","","","","","1466.2999999523163","images/table5.png","","","memory_trial","3","maybe_new",""
"html-keyboard-response","140","318091","0.0-18.0-0.48","4464","approach_avoid_sv1","""event"",""trial"",""time""
""fullscreenenter"",""1"",""873""
","
","
","""event"",""trial"",""time""
""fullscreenenter"",""1"",""873""
","
","","","","","","null","<div style=""font-size:60px;"">+</div>","null","","fixation","","",""
"memory-trial","141","320050","0.0-18.0-1.48","4464","approach_avoid_sv1","""event"",""trial"",""time""
""fullscreenenter"",""1"",""873""
","
","
","""event"",""trial"",""time""
""fullscreenenter"",""1"",""873""
","
","","","","","","956","images/cactus3.png","","","memory_trial","3","maybe_new",""
"html-keyboard-response","142","320554","0.0-18.0-0.49","4464","approach_avoid_sv1","""event"",""trial"",""time""
""fullscreenenter"",""1"",""873""
","
","
","""event"",""trial"",""time""
""fullscreenenter"",""1"",""873""
","
","","","","","","null","<div style=""font-size:60px;"">+</div>","null","","fixation","","",""
"memory-trial","143","322562","0.0-18.0-1.49","4464","approach_avoid_sv1","""event"",""trial"",""time""
""fullscreenenter"",""1"",""873""
","
","
","""event"",""trial"",""time""
""fullscreenenter"",""1"",""873""
","
","","","","","","996.2000000476837","images/plane2.png","","","memory_trial","4","definitely_new",""
"html-keyboard-response","144","323066","0.0-18.0-0.50","4464","approach_avoid_sv1","""event"",""trial"",""time""
""fullscreenenter"",""1"",""873""
","
","
","""event"",""trial"",""time""
""fullscreenenter"",""1"",""873""
","
","","","","","","null","<div style=""font-size:60px;"">+</div>","null","","fixation","","",""
"memory-trial","145","325186","0.0-18.0-1.50","4464","approach_avoid_sv1","""event"",""trial"",""time""
""fullscreenenter"",""1"",""873""
","
","
","""event"",""trial"",""time""
""fullscreenenter"",""1"",""873""
","
","","","","","","1109.699999988079","images/rabbit5.png","","","memory_trial","2","maybe_old",""
"html-keyboard-response","146","325693","0.0-18.0-0.51","4464","approach_avoid_sv1","""event"",""trial"",""time""
""fullscreenenter"",""1"",""873""
","
","
","""event"",""trial"",""time""
""fullscreenenter"",""1"",""873""
","
","","","","","","null","<div style=""font-size:60px;"">+</div>","null","","fixation","","",""
"memory-trial","147","327322","0.0-18.0-1.51","4464","approach_avoid_sv1","""event"",""trial"",""time""
""fullscreenenter"",""1"",""873""
","
","
","""event"",""trial"",""time""
""fullscreenenter"",""1"",""873""
","
","","","","","","624.3999999761581","images/train5.png","","","memory_trial","1","definitely_old",""
"html-keyboard-response","148","327830","0.0-18.0-0.52","4464","approach_avoid_sv1","""event"",""trial"",""time""
""fullscreenenter"",""1"",""873""
","
","
","""event"",""trial"",""time""
""fullscreenenter"",""1"",""873""
","
","","","","","","null","<div style=""font-size:60px;"">+</div>","null","","fixation","","",""
"memory-trial","149","329971","0.0-18.0-1.52","4464","approach_avoid_sv1","""event"",""trial"",""time""
""fullscreenenter"",""1"",""873""
","
","
","""event"",""trial"",""time""
""fullscreenenter"",""1"",""873""
","
","","","","","","1128.699999988079","images/chair6.png","","","memory_trial","3","maybe_new",""
"html-keyboard-response","150","330473","0.0-18.0-0.53","4464","approach_avoid_sv1","""event"",""trial"",""time""
""fullscreenenter"",""1"",""873""
","
","
","""event"",""trial"",""time""
""fullscreenenter"",""1"",""873""
","
","","","","","","null","<div style=""font-size:60px;"">+</div>","null","","fixation","","",""
"memory-trial","151","332066","0.0-18.0-1.53","4464","approach_avoid_sv1","""event"",""trial"",""time""
""fullscreenenter"",""1"",""873""
","
","
","""event"",""trial"",""time""
""fullscreenenter"",""1"",""873""
","
","","","","","","590.4000000357628","images/cactus2.png","","","memory_trial","3","maybe_new",""
"html-keyboard-response","152","332569","0.0-18.0-0.54","4464","approach_avoid_sv1","""event"",""trial"",""time""
""fullscreenenter"",""1"",""873""
","
","
","""event"",""trial"",""time""
""fullscreenenter"",""1"",""873""
","
","","","","","","null","<div style=""font-size:60px;"">+</div>","null","","fixation","","",""
"memory-trial","153","334546","0.0-18.0-1.54","4464","approach_avoid_sv1","""event"",""trial"",""time""
""fullscreenenter"",""1"",""873""
","
","
","""event"",""trial"",""time""
""fullscreenenter"",""1"",""873""
","
","","","","","","966.8000000119209","images/truck3.png","","","memory_trial","1","definitely_old",""
"html-keyboard-response","154","335050","0.0-18.0-0.55","4464","approach_avoid_sv1","""event"",""trial"",""time""
""fullscreenenter"",""1"",""873""
","
","
","""event"",""trial"",""time""
""fullscreenenter"",""1"",""873""
","
","","","","","","null","<div style=""font-size:60px;"">+</div>","null","","fixation","","",""
"memory-trial","155","336851","0.0-18.0-1.55","4464","approach_avoid_sv1","""event"",""trial"",""time""
""fullscreenenter"",""1"",""873""
","
","
","""event"",""trial"",""time""
""fullscreenenter"",""1"",""873""
","
","","","","","","788.1000000238419","images/flower2.png","","","memory_trial","1","definitely_old",""
"html-keyboard-response","156","337355","0.0-18.0-0.56","4464","approach_avoid_sv1","""event"",""trial"",""time""
""fullscreenenter"",""1"",""873""
","
","
","""event"",""trial"",""time""
""fullscreenenter"",""1"",""873""
","
","","","","","","null","<div style=""font-size:60px;"">+</div>","null","","fixation","","",""
"memory-trial","157","339444","0.0-18.0-1.56","4464","approach_avoid_sv1","""event"",""trial"",""time""
""fullscreenenter"",""1"",""873""
","
","
","""event"",""trial"",""time""
""fullscreenenter"",""1"",""873""
","
","","","","","","1076.6000000238419","images/plane8.png","","","memory_trial","3","maybe_new",""
"html-keyboard-response","158","339946","0.0-18.0-0.57","4464","approach_avoid_sv1","""event"",""trial"",""time""
""fullscreenenter"",""1"",""873""
","
","
","""event"",""trial"",""time""
""fullscreenenter"",""1"",""873""
","
","","","","","","null","<div style=""font-size:60px;"">+</div>","null","","fixation","","",""
"memory-trial","159","341618","0.0-18.0-1.57","4464","approach_avoid_sv1","""event"",""trial"",""time""
""fullscreenenter"",""1"",""873""
","
","
","""event"",""trial"",""time""
""fullscreenenter"",""1"",""873""
","
","","","","","","668.5999999642372","images/goat3.png","","","memory_trial","3","maybe_new",""
"html-keyboard-response","160","342122","0.0-18.0-0.58","4464","approach_avoid_sv1","""event"",""trial"",""time""
""fullscreenenter"",""1"",""873""
","
","
","""event"",""trial"",""time""
""fullscreenenter"",""1"",""873""
","
","","","","","","null","<div style=""font-size:60px;"">+</div>","null","","fixation","","",""
"memory-trial","161","344236","0.0-18.0-1.58","4464","approach_avoid_sv1","""event"",""trial"",""time""
""fullscreenenter"",""1"",""873""
","
","
","""event"",""trial"",""time""
""fullscreenenter"",""1"",""873""
","
","","","","","","1109.1000000238419","images/rodent2.png","","","memory_trial","2","maybe_old",""
"html-keyboard-response","162","344743","0.0-18.0-0.59","4464","approach_avoid_sv1","""event"",""trial"",""time""
""fullscreenenter"",""1"",""873""
","
","
","""event"",""trial"",""time""
""fullscreenenter"",""1"",""873""
","
","","","","","","null","<div style=""font-size:60px;"">+</div>","null","","fixation","","",""
"memory-trial","163","347673","0.0-18.0-1.59","4464","approach_avoid_sv1","""event"",""trial"",""time""
""fullscreenenter"",""1"",""873""
","
","
","""event"",""trial"",""time""
""fullscreenenter"",""1"",""873""
","
","","","","","","1911.5","images/horse3.png","","","memory_trial","2","maybe_old",""
"html-keyboard-response","164","348193","0.0-18.0-0.60","4464","approach_avoid_sv1","""event"",""trial"",""time""
""fullscreenenter"",""1"",""873""
","
","
","""event"",""trial"",""time""
""fullscreenenter"",""1"",""873""
","
","","","","","","null","<div style=""font-size:60px;"">+</div>","null","","fixation","","",""
"memory-trial","165","349883","0.0-18.0-1.60","4464","approach_avoid_sv1","""event"",""trial"",""time""
""fullscreenenter"",""1"",""873""
","
","
","""event"",""trial"",""time""
""fullscreenenter"",""1"",""873""
","
","","","","","","678.0999999642372","images/tree8.png","","","memory_trial","2","maybe_old",""
"html-keyboard-response","166","350394","0.0-18.0-0.61","4464","approach_avoid_sv1","""event"",""trial"",""time""
""fullscreenenter"",""1"",""873""
","
","
","""event"",""trial"",""time""
""fullscreenenter"",""1"",""873""
","
","","","","","","null","<div style=""font-size:60px;"">+</div>","null","","fixation","","",""
"memory-trial","167","352274","0.0-18.0-1.61","4464","approach_avoid_sv1","""event"",""trial"",""time""
""fullscreenenter"",""1"",""873""
","
","
","""event"",""trial"",""time""
""fullscreenenter"",""1"",""873""
","
","","","","","","868.6999999880791","images/sofa7.png","","","memory_trial","2","maybe_old",""
"html-keyboard-response","168","352778","0.0-18.0-0.62","4464","approach_avoid_sv1","""event"",""trial"",""time""
""fullscreenenter"",""1"",""873""
","
","
","""event"",""trial"",""time""
""fullscreenenter"",""1"",""873""
","
","","","","","","null","<div style=""font-size:60px;"">+</div>","null","","fixation","","",""
"memory-trial","169","355378","0.0-18.0-1.62","4464","approach_avoid_sv1","""event"",""trial"",""time""
""fullscreenenter"",""1"",""873""
","
","
","""event"",""trial"",""time""
""fullscreenenter"",""1"",""873""
","
","","","","","","1588.4000000357628","images/horse2.png","","","memory_trial","1","definitely_old",""
"html-keyboard-response","170","355882","0.0-18.0-0.63","4464","approach_avoid_sv1","""event"",""trial"",""time""
""fullscreenenter"",""1"",""873""
","
","
","""event"",""trial"",""time""
""fullscreenenter"",""1"",""873""
","
","","","","","","null","<div style=""font-size:60px;"">+</div>","null","","fixation","","",""
"memory-trial","171","358258","0.0-18.0-1.63","4464","approach_avoid_sv1","""event"",""trial"",""time""
""fullscreenenter"",""1"",""873""
","
","
","""event"",""trial"",""time""
""fullscreenenter"",""1"",""873""
","
","","","","","","1365","images/chair2.png","","","memory_trial","2","maybe_old",""
"html-keyboard-response","172","358762","0.0-18.0-0.64","4464","approach_avoid_sv1","""event"",""trial"",""time""
""fullscreenenter"",""1"",""873""
","
","
","""event"",""trial"",""time""
""fullscreenenter"",""1"",""873""
","
","","","","","","null","<div style=""font-size:60px;"">+</div>","null","","fixation","","",""
"memory-trial","173","361874","0.0-18.0-1.64","4464","approach_avoid_sv1","""event"",""trial"",""time""
""fullscreenenter"",""1"",""873""
","
","
","""event"",""trial"",""time""
""fullscreenenter"",""1"",""873""
","
","","","","","","2102.300000011921","images/flower4.png","","","memory_trial","3","maybe_new",""
"html-keyboard-response","174","362385","0.0-18.0-0.65","4464","approach_avoid_sv1","""event"",""trial"",""time""
""fullscreenenter"",""1"",""873""
","
","
","""event"",""trial"",""time""
""fullscreenenter"",""1"",""873""
","
","","","","","","null","<div style=""font-size:60px;"">+</div>","null","","fixation","","",""
"memory-trial","175","364482","0.0-18.0-1.65","4464","approach_avoid_sv1","""event"",""trial"",""time""
""fullscreenenter"",""1"",""873""
","
","
","""event"",""trial"",""time""
""fullscreenenter"",""1"",""873""
","
","","","","","","1094.0999999642372","images/orange1.png","","","memory_trial","2","maybe_old",""
"html-keyboard-response","176","364986","0.0-18.0-0.66","4464","approach_avoid_sv1","""event"",""trial"",""time""
""fullscreenenter"",""1"",""873""
","
","
","""event"",""trial"",""time""
""fullscreenenter"",""1"",""873""
","
","","","","","","null","<div style=""font-size:60px;"">+</div>","null","","fixation","","",""
"memory-trial","177","367274","0.0-18.0-1.66","4464","approach_avoid_sv1","""event"",""trial"",""time""
""fullscreenenter"",""1"",""873""
","
","
","""event"",""trial"",""time""
""fullscreenenter"",""1"",""873""
","
","","","","","","1276.199999988079","images/apple6.png","","","memory_trial","4","definitely_new",""
"html-keyboard-response","178","367778","0.0-18.0-0.67","4464","approach_avoid_sv1","""event"",""trial"",""time""
""fullscreenenter"",""1"",""873""
","
","
","""event"",""trial"",""time""
""fullscreenenter"",""1"",""873""
","
","","","","","","null","<div style=""font-size:60px;"">+</div>","null","","fixation","","",""
"memory-trial","179","370434","0.0-18.0-1.67","4464","approach_avoid_sv1","""event"",""trial"",""time""
""fullscreenenter"",""1"",""873""
","
","
","""event"",""trial"",""time""
""fullscreenenter"",""1"",""873""
","
","","","","","","1646.300000011921","images/plane5.png","","","memory_trial","2","maybe_old",""
"html-keyboard-response","180","370939","0.0-18.0-0.68","4464","approach_avoid_sv1","""event"",""trial"",""time""
""fullscreenenter"",""1"",""873""
","
","
","""event"",""trial"",""time""
""fullscreenenter"",""1"",""873""
","
","","","","","","null","<div style=""font-size:60px;"">+</div>","null","","fixation","","",""
"memory-trial","181","373001","0.0-18.0-1.68","4464","approach_avoid_sv1","""event"",""trial"",""time""
""fullscreenenter"",""1"",""873""
","
","
","""event"",""trial"",""time""
""fullscreenenter"",""1"",""873""
","
","","","","","","1060.5","images/cow7.png","","","memory_trial","1","definitely_old",""
"html-keyboard-response","182","373518","0.0-18.0-0.69","4464","approach_avoid_sv1","""event"",""trial"",""time""
""fullscreenenter"",""1"",""873""
","
","
","""event"",""trial"",""time""
""fullscreenenter"",""1"",""873""
","
","","","","","","null","<div style=""font-size:60px;"">+</div>","null","","fixation","","",""
"memory-trial","183","375954","0.0-18.0-1.69","4464","approach_avoid_sv1","""event"",""trial"",""time""
""fullscreenenter"",""1"",""873""
","
","
","""event"",""trial"",""time""
""fullscreenenter"",""1"",""873""
","
","","","","","","1425.6000000238419","images/rodent7.png","","","memory_trial","3","maybe_new",""
"html-keyboard-response","184","376460","0.0-18.0-0.70","4464","approach_avoid_sv1","""event"",""trial"",""time""
""fullscreenenter"",""1"",""873""
","
","
","""event"",""trial"",""time""
""fullscreenenter"",""1"",""873""
","
","","","","","","null","<div style=""font-size:60px;"">+</div>","null","","fixation","","",""
"memory-trial","185","378442","0.0-18.0-1.70","4464","approach_avoid_sv1","""event"",""trial"",""time""
""fullscreenenter"",""1"",""873""
","
","
","""event"",""trial"",""time""
""fullscreenenter"",""1"",""873""
","
","","","","","","971.1999999880791","images/sheep8.png","","","memory_trial","2","maybe_old",""
"html-keyboard-response","186","378947","0.0-18.0-0.71","4464","approach_avoid_sv1","""event"",""trial"",""time""
""fullscreenenter"",""1"",""873""
","
","
","""event"",""trial"",""time""
""fullscreenenter"",""1"",""873""
","
","","","","","","null","<div style=""font-size:60px;"">+</div>","null","","fixation","","",""
"memory-trial","187","382400","0.0-18.0-1.71","4464","approach_avoid_sv1","""event"",""trial"",""time""
""fullscreenenter"",""1"",""873""
","
","
","""event"",""trial"",""time""
""fullscreenenter"",""1"",""873""
","
","","","","","","2435.7999999523163","images/flower7.png","","","memory_trial","4","definitely_new",""
"html-keyboard-response","188","382906","0.0-18.0-0.72","4464","approach_avoid_sv1","""event"",""trial"",""time""
""fullscreenenter"",""1"",""873""
","
","
","""event"",""trial"",""time""
""fullscreenenter"",""1"",""873""
","
","","","","","","null","<div style=""font-size:60px;"">+</div>","null","","fixation","","",""
"memory-trial","189","385690","0.0-18.0-1.72","4464","approach_avoid_sv1","""event"",""trial"",""time""
""fullscreenenter"",""1"",""873""
","
","
","""event"",""trial"",""time""
""fullscreenenter"",""1"",""873""
","
","","","","","","1782.6000000238419","images/truck6.png","","","memory_trial","3","maybe_new",""
"html-keyboard-response","190","386194","0.0-18.0-0.73","4464","approach_avoid_sv1","""event"",""trial"",""time""
""fullscreenenter"",""1"",""873""
","
","
","""event"",""trial"",""time""
""fullscreenenter"",""1"",""873""
","
","","","","","","null","<div style=""font-size:60px;"">+</div>","null","","fixation","","",""
"memory-trial","191","387973","0.0-18.0-1.73","4464","approach_avoid_sv1","""event"",""trial"",""time""
""fullscreenenter"",""1"",""873""
","
","
","""event"",""trial"",""time""
""fullscreenenter"",""1"",""873""
","
","","","","","","764.6999999880791","images/cactus8.png","","","memory_trial","2","maybe_old",""
"html-keyboard-response","192","388486","0.0-18.0-0.74","4464","approach_avoid_sv1","""event"",""trial"",""time""
""fullscreenenter"",""1"",""873""
","
","
","""event"",""trial"",""time""
""fullscreenenter"",""1"",""873""
","
","","","","","","null","<div style=""font-size:60px;"">+</div>","null","","fixation","","",""
"memory-trial","193","392571","0.0-18.0-1.74","4464","approach_avoid_sv1","""event"",""trial"",""time""
""fullscreenenter"",""1"",""873""
","
","
","""event"",""trial"",""time""
""fullscreenenter"",""1"",""873""
","
","","","","","","3081.899999976158","images/apple8.png","","","memory_trial","3","maybe_new",""
"html-keyboard-response","194","393074","0.0-18.0-0.75","4464","approach_avoid_sv1","""event"",""trial"",""time""
""fullscreenenter"",""1"",""873""
","
","
","""event"",""trial"",""time""
""fullscreenenter"",""1"",""873""
","
","","","","","","null","<div style=""font-size:60px;"">+</div>","null","","fixation","","",""
"memory-trial","195","395018","0.0-18.0-1.75","4464","approach_avoid_sv1","""event"",""trial"",""time""
""fullscreenenter"",""1"",""873""
","
","
","""event"",""trial"",""time""
""fullscreenenter"",""1"",""873""
","
","","","","","","931.6999999880791","images/orange7.png","","","memory_trial","1","definitely_old",""
"html-keyboard-response","196","395522","0.0-18.0-0.76","4464","approach_avoid_sv1","""event"",""trial"",""time""
""fullscreenenter"",""1"",""873""
","
","
","""event"",""trial"",""time""
""fullscreenenter"",""1"",""873""
","
","","","","","","null","<div style=""font-size:60px;"">+</div>","null","","fixation","","",""
"memory-trial","197","397322","0.0-18.0-1.76","4464","approach_avoid_sv1","""event"",""trial"",""time""
""fullscreenenter"",""1"",""873""
","
","
","""event"",""trial"",""time""
""fullscreenenter"",""1"",""873""
","
","","","","","","797.8000000119209","images/tree2.png","","","memory_trial","2","maybe_old",""
"html-keyboard-response","198","397827","0.0-18.0-0.77","4464","approach_avoid_sv1","""event"",""trial"",""time""
""fullscreenenter"",""1"",""873""
","
","
","""event"",""trial"",""time""
""fullscreenenter"",""1"",""873""
","
","","","","","","null","<div style=""font-size:60px;"">+</div>","null","","fixation","","",""
"memory-trial","199","399410","0.0-18.0-1.77","4464","approach_avoid_sv1","""event"",""trial"",""time""
""fullscreenenter"",""1"",""873""
","
","
","""event"",""trial"",""time""
""fullscreenenter"",""1"",""873""
","
","","","","","","581.3999999761581","images/rabbit2.png","","","memory_trial","3","maybe_new",""
"html-keyboard-response","200","399916","0.0-18.0-0.78","4464","approach_avoid_sv1","""event"",""trial"",""time""
""fullscreenenter"",""1"",""873""
","
","
","""event"",""trial"",""time""
""fullscreenenter"",""1"",""873""
","
","","","","","","null","<div style=""font-size:60px;"">+</div>","null","","fixation","","",""
"memory-trial","201","403458","0.0-18.0-1.78","4464","approach_avoid_sv1","""event"",""trial"",""time""
""fullscreenenter"",""1"",""873""
","
","
","""event"",""trial"",""time""
""fullscreenenter"",""1"",""873""
","
","","","","","","2531.699999988079","images/rodent5.png","","","memory_trial","4","definitely_new",""
"html-keyboard-response","202","403963","0.0-18.0-0.79","4464","approach_avoid_sv1","""event"",""trial"",""time""
""fullscreenenter"",""1"",""873""
","
","
","""event"",""trial"",""time""
""fullscreenenter"",""1"",""873""
","
","","","","","","null","<div style=""font-size:60px;"">+</div>","null","","fixation","","",""
"memory-trial","203","406985","0.0-18.0-1.79","4464","approach_avoid_sv1","""event"",""trial"",""time""
""fullscreenenter"",""1"",""873""
","
","
","""event"",""trial"",""time""
""fullscreenenter"",""1"",""873""
","
","","","","","","2011.8999999761581","images/table3.png","","","memory_trial","1","definitely_old",""
"html-keyboard-response","204","407494","0.0-18.0-0.80","4464","approach_avoid_sv1","""event"",""trial"",""time""
""fullscreenenter"",""1"",""873""
","
","
","""event"",""trial"",""time""
""fullscreenenter"",""1"",""873""
","
","","","","","","null","<div style=""font-size:60px;"">+</div>","null","","fixation","","",""
"memory-trial","205","409346","0.0-18.0-1.80","4464","approach_avoid_sv1","""event"",""trial"",""time""
""fullscreenenter"",""1"",""873""
","
","
","""event"",""trial"",""time""
""fullscreenenter"",""1"",""873""
","
","","","","","","847.6999999880791","images/bed7.png","","","memory_trial","2","maybe_old",""
"html-keyboard-response","206","409850","0.0-18.0-0.81","4464","approach_avoid_sv1","""event"",""trial"",""time""
""fullscreenenter"",""1"",""873""
","
","
","""event"",""trial"",""time""
""fullscreenenter"",""1"",""873""
","
","","","","","","null","<div style=""font-size:60px;"">+</div>","null","","fixation","","",""
"memory-trial","207","411986","0.0-18.0-1.81","4464","approach_avoid_sv1","""event"",""trial"",""time""
""fullscreenenter"",""1"",""873""
","
","
","""event"",""trial"",""time""
""fullscreenenter"",""1"",""873""
","
","","","","","","1132.3999999761581","images/cactus5.png","","","memory_trial","2","maybe_old",""
"html-keyboard-response","208","412495","0.0-18.0-0.82","4464","approach_avoid_sv1","""event"",""trial"",""time""
""fullscreenenter"",""1"",""873""
","
","
","""event"",""trial"",""time""
""fullscreenenter"",""1"",""873""
","
","","","","","","null","<div style=""font-size:60px;"">+</div>","null","","fixation","","",""
"memory-trial","209","414634","0.0-18.0-1.82","4464","approach_avoid_sv1","""event"",""trial"",""time""
""fullscreenenter"",""1"",""873""
","
","
","""event"",""trial"",""time""
""fullscreenenter"",""1"",""873""
","
","","","","","","1128.199999988079","images/truck2.png","","","memory_trial","3","maybe_new",""
"html-keyboard-response","210","415138","0.0-18.0-0.83","4464","approach_avoid_sv1","""event"",""trial"",""time""
""fullscreenenter"",""1"",""873""
","
","
","""event"",""trial"",""time""
""fullscreenenter"",""1"",""873""
","
","","","","","","null","<div style=""font-size:60px;"">+</div>","null","","fixation","","",""
"memory-trial","211","417233","0.0-18.0-1.83","4464","approach_avoid_sv1","""event"",""trial"",""time""
""fullscreenenter"",""1"",""873""
","
","
","""event"",""trial"",""time""
""fullscreenenter"",""1"",""873""
","
","","","","","","1077.699999988079","images/bush2.png","","","memory_trial","1","definitely_old",""
"html-keyboard-response","212","417738","0.0-18.0-0.84","4464","approach_avoid_sv1","""event"",""trial"",""time""
""fullscreenenter"",""1"",""873""
","
","
","""event"",""trial"",""time""
""fullscreenenter"",""1"",""873""
","
","","","","","","null","<div style=""font-size:60px;"">+</div>","null","","fixation","","",""
"memory-trial","213","419314","0.0-18.0-1.84","4464","approach_avoid_sv1","""event"",""trial"",""time""
""fullscreenenter"",""1"",""873""
","
","
","""event"",""trial"",""time""
""fullscreenenter"",""1"",""873""
","
","","","","","","566.3000000119209","images/sofa4.png","","","memory_trial","1","definitely_old",""
"html-keyboard-response","214","419831","0.0-18.0-0.85","4464","approach_avoid_sv1","""event"",""trial"",""time""
""fullscreenenter"",""1"",""873""
","
","
","""event"",""trial"",""time""
""fullscreenenter"",""1"",""873""
","
","","","","","","null","<div style=""font-size:60px;"">+</div>","null","","fixation","","",""
"memory-trial","215","421441","0.0-18.0-1.85","4464","approach_avoid_sv1","""event"",""trial"",""time""
""fullscreenenter"",""1"",""873""
","
","
","""event"",""trial"",""time""
""fullscreenenter"",""1"",""873""
","
","","","","","","607.1999999880791","images/orange6.png","","","memory_trial","1","definitely_old",""
"html-keyboard-response","216","421959","0.0-18.0-0.86","4464","approach_avoid_sv1","""event"",""trial"",""time""
""fullscreenenter"",""1"",""873""
","
","
","""event"",""trial"",""time""
""fullscreenenter"",""1"",""873""
","
","","","","","","null","<div style=""font-size:60px;"">+</div>","null","","fixation","","",""
"memory-trial","217","424954","0.0-18.0-1.86","4464","approach_avoid_sv1","""event"",""trial"",""time""
""fullscreenenter"",""1"",""873""
","
","
","""event"",""trial"",""time""
""fullscreenenter"",""1"",""873""
","
","","","","","","1991.3999999761581","images/horse8.png","","","memory_trial","2","maybe_old",""
"html-keyboard-response","218","425460","0.0-18.0-0.87","4464","approach_avoid_sv1","""event"",""trial"",""time""
""fullscreenenter"",""1"",""873""
","
","
","""event"",""trial"",""time""
""fullscreenenter"",""1"",""873""
","
","","","","","","null","<div style=""font-size:60px;"">+</div>","null","","fixation","","",""
"memory-trial","219","427730","0.0-18.0-1.87","4464","approach_avoid_sv1","""event"",""trial"",""time""
""fullscreenenter"",""1"",""873""
","
","
","""event"",""trial"",""time""
""fullscreenenter"",""1"",""873""
","
","","","","","","1257.800000011921","images/apple3.png","","","memory_trial","4","definitely_new",""
"html-keyboard-response","220","428233","0.0-18.0-0.88","4464","approach_avoid_sv1","""event"",""trial"",""time""
""fullscreenenter"",""1"",""873""
","
","
","""event"",""trial"",""time""
""fullscreenenter"",""1"",""873""
","
","","","","","","null","<div style=""font-size:60px;"">+</div>","null","","fixation","","",""
"memory-trial","221","429938","0.0-18.0-1.88","4464","approach_avoid_sv1","""event"",""trial"",""time""
""fullscreenenter"",""1"",""873""
","
","
","""event"",""trial"",""time""
""fullscreenenter"",""1"",""873""
","
","","","","","","700.5","images/horse5.png","","","memory_trial","4","definitely_new",""
"html-keyboard-response","222","430442","0.0-18.0-0.89","4464","approach_avoid_sv1","""event"",""trial"",""time""
""fullscreenenter"",""1"",""873""
","
","
","""event"",""trial"",""time""
""fullscreenenter"",""1"",""873""
","
","","","","","","null","<div style=""font-size:60px;"">+</div>","null","","fixation","","",""
"memory-trial","223","433169","0.0-18.0-1.89","4464","approach_avoid_sv1","""event"",""trial"",""time""
""fullscreenenter"",""1"",""873""
","
","
","""event"",""trial"",""time""
""fullscreenenter"",""1"",""873""
","
","","","","","","1724.5","images/plane6.png","","","memory_trial","4","definitely_new",""
"html-keyboard-response","224","433674","0.0-18.0-0.90","4464","approach_avoid_sv1","""event"",""trial"",""time""
""fullscreenenter"",""1"",""873""
","
","
","""event"",""trial"",""time""
""fullscreenenter"",""1"",""873""
","
","","","","","","null","<div style=""font-size:60px;"">+</div>","null","","fixation","","",""
"memory-trial","225","435808","0.0-18.0-1.90","4464","approach_avoid_sv1","""event"",""trial"",""time""
""fullscreenenter"",""1"",""873""
","
","
","""event"",""trial"",""time""
""fullscreenenter"",""1"",""873""
","
","","","","","","1116","images/train8.png","","","memory_trial","4","definitely_new",""
"html-keyboard-response","226","436330","0.0-18.0-0.91","4464","approach_avoid_sv1","""event"",""trial"",""time""
""fullscreenenter"",""1"",""873""
","
","
","""event"",""trial"",""time""
""fullscreenenter"",""1"",""873""
","
","","","","","","null","<div style=""font-size:60px;"">+</div>","null","","fixation","","",""
"memory-trial","227","438434","0.0-18.0-1.91","4464","approach_avoid_sv1","""event"",""trial"",""time""
""fullscreenenter"",""1"",""873""
","
","
","""event"",""trial"",""time""
""fullscreenenter"",""1"",""873""
","
","","","","","","1101","images/cat6.png","","","memory_trial","1","definitely_old",""
"html-button-response","228","443527","0.0-18.0-2.91-0.91","4464","approach_avoid_sv1","""event"",""trial"",""time""
""fullscreenenter"",""1"",""873""
","
","
","""event"",""trial"",""time""
""fullscreenenter"",""1"",""873""
","
","","","","","","5091.800000011921","<p> Take a break! </p><p> Click the button to continue. </p>","0","","break","","",""
"html-keyboard-response","229","444033","0.0-18.0-0.92","4464","approach_avoid_sv1","""event"",""trial"",""time""
""fullscreenenter"",""1"",""873""
","
","
","""event"",""trial"",""time""
""fullscreenenter"",""1"",""873""
","
","","","","","","null","<div style=""font-size:60px;"">+</div>","null","","fixation","","",""
"memory-trial","230","446106","0.0-18.0-1.92","4464","approach_avoid_sv1","""event"",""trial"",""time""
""fullscreenenter"",""1"",""873""
","
","
","""event"",""trial"",""time""
""fullscreenenter"",""1"",""873""
","
","","","","","","1068.699999988079","images/train3.png","","","memory_trial","1","definitely_old",""
"html-keyboard-response","231","446610","0.0-18.0-0.93","4464","approach_avoid_sv1","""event"",""trial"",""time""
""fullscreenenter"",""1"",""873""
","
","
","""event"",""trial"",""time""
""fullscreenenter"",""1"",""873""
","
","","","","","","null","<div style=""font-size:60px;"">+</div>","null","","fixation","","",""
"memory-trial","232","448186","0.0-18.0-1.93","4464","approach_avoid_sv1","""event"",""trial"",""time""
""fullscreenenter"",""1"",""873""
","
","
","""event"",""trial"",""time""
""fullscreenenter"",""1"",""873""
","
","","","","","","572.6000000238419","images/boat7.png","","","memory_trial","1","definitely_old",""
"html-keyboard-response","233","448691","0.0-18.0-0.94","4464","approach_avoid_sv1","""event"",""trial"",""time""
""fullscreenenter"",""1"",""873""
","
","
","""event"",""trial"",""time""
""fullscreenenter"",""1"",""873""
","
","","","","","","null","<div style=""font-size:60px;"">+</div>","null","","fixation","","",""
"memory-trial","234","452226","0.0-18.0-1.94","4464","approach_avoid_sv1","""event"",""trial"",""time""
""fullscreenenter"",""1"",""873""
","
","
","""event"",""trial"",""time""
""fullscreenenter"",""1"",""873""
","
","","","","","","2524.399999976158","images/plane4.png","","","memory_trial","4","definitely_new",""
"html-keyboard-response","235","452730","0.0-18.0-0.95","4464","approach_avoid_sv1","""event"",""trial"",""time""
""fullscreenenter"",""1"",""873""
","
","
","""event"",""trial"",""time""
""fullscreenenter"",""1"",""873""
","
","","","","","","null","<div style=""font-size:60px;"">+</div>","null","","fixation","","",""
"memory-trial","236","454592","0.0-18.0-1.95","4464","approach_avoid_sv1","""event"",""trial"",""time""
""fullscreenenter"",""1"",""873""
","
","
","""event"",""trial"",""time""
""fullscreenenter"",""1"",""873""
","
","","","","","","844.3000000119209","images/bed6.png","","","memory_trial","3","maybe_new",""
"html-keyboard-response","237","455112","0.0-18.0-0.96","4464","approach_avoid_sv1","""event"",""trial"",""time""
""fullscreenenter"",""1"",""873""
","
","
","""event"",""trial"",""time""
""fullscreenenter"",""1"",""873""
","
","","","","","","null","<div style=""font-size:60px;"">+</div>","null","","fixation","","",""
"memory-trial","238","456698","0.0-18.0-1.96","4464","approach_avoid_sv1","""event"",""trial"",""time""
""fullscreenenter"",""1"",""873""
","
","
","""event"",""trial"",""time""
""fullscreenenter"",""1"",""873""
","
","","","","","","581.4000000357628","images/rabbit8.png","","","memory_trial","2","maybe_old",""
"html-keyboard-response","239","457202","0.0-18.0-0.97","4464","approach_avoid_sv1","""event"",""trial"",""time""
""fullscreenenter"",""1"",""873""
","
","
","""event"",""trial"",""time""
""fullscreenenter"",""1"",""873""
","
","","","","","","null","<div style=""font-size:60px;"">+</div>","null","","fixation","","",""
"memory-trial","240","458715","0.0-18.0-1.97","4464","approach_avoid_sv1","""event"",""trial"",""time""
""fullscreenenter"",""1"",""873""
","
","
","""event"",""trial"",""time""
""fullscreenenter"",""1"",""873""
","
","","","","","","509","images/chair1.png","","","memory_trial","1","definitely_old",""
"html-keyboard-response","241","459218","0.0-18.0-0.98","4464","approach_avoid_sv1","""event"",""trial"",""time""
""fullscreenenter"",""1"",""873""
","
","
","""event"",""trial"",""time""
""fullscreenenter"",""1"",""873""
","
","","","","","","null","<div style=""font-size:60px;"">+</div>","null","","fixation","","",""
"memory-trial","242","461130","0.0-18.0-1.98","4464","approach_avoid_sv1","""event"",""trial"",""time""
""fullscreenenter"",""1"",""873""
","
","
","""event"",""trial"",""time""
""fullscreenenter"",""1"",""873""
","
","","","","","","908.3999999761581","images/goat7.png","","","memory_trial","1","definitely_old",""
"html-keyboard-response","243","461635","0.0-18.0-0.99","4464","approach_avoid_sv1","""event"",""trial"",""time""
""fullscreenenter"",""1"",""873""
","
","
","""event"",""trial"",""time""
""fullscreenenter"",""1"",""873""
","
","","","","","","null","<div style=""font-size:60px;"">+</div>","null","","fixation","","",""
"memory-trial","244","463118","0.0-18.0-1.99","4464","approach_avoid_sv1","""event"",""trial"",""time""
""fullscreenenter"",""1"",""873""
","
","
","""event"",""trial"",""time""
""fullscreenenter"",""1"",""873""
","
","","","","","","476.19999998807907","images/rabbit7.png","","","memory_trial","1","definitely_old",""
"html-keyboard-response","245","463626","0.0-18.0-0.100","4464","approach_avoid_sv1","""event"",""trial"",""time""
""fullscreenenter"",""1"",""873""
","
","
","""event"",""trial"",""time""
""fullscreenenter"",""1"",""873""
","
","","","","","","null","<div style=""font-size:60px;"">+</div>","null","","fixation","","",""
"memory-trial","246","465266","0.0-18.0-1.100","4464","approach_avoid_sv1","""event"",""trial"",""time""
""fullscreenenter"",""1"",""873""
","
","
","""event"",""trial"",""time""
""fullscreenenter"",""1"",""873""
","
","","","","","","636.0999999642372","images/banana5.png","","","memory_trial","2","maybe_old",""
"html-keyboard-response","247","465770","0.0-18.0-0.101","4464","approach_avoid_sv1","""event"",""trial"",""time""
""fullscreenenter"",""1"",""873""
","
","
","""event"",""trial"",""time""
""fullscreenenter"",""1"",""873""
","
","","","","","","null","<div style=""font-size:60px;"">+</div>","null","","fixation","","",""
"memory-trial","248","467530","0.0-18.0-1.101","4464","approach_avoid_sv1","""event"",""trial"",""time""
""fullscreenenter"",""1"",""873""
","
","
","""event"",""trial"",""time""
""fullscreenenter"",""1"",""873""
","
","","","","","","748.7000000476837","images/rabbit6.png","","","memory_trial","3","maybe_new",""
"html-keyboard-response","249","468034","0.0-18.0-0.102","4464","approach_avoid_sv1","""event"",""trial"",""time""
""fullscreenenter"",""1"",""873""
","
","
","""event"",""trial"",""time""
""fullscreenenter"",""1"",""873""
","
","","","","","","null","<div style=""font-size:60px;"">+</div>","null","","fixation","","",""
"memory-trial","250","470546","0.0-18.0-1.102","4464","approach_avoid_sv1","""event"",""trial"",""time""
""fullscreenenter"",""1"",""873""
","
","
","""event"",""trial"",""time""
""fullscreenenter"",""1"",""873""
","
","","","","","","1508.5","images/goat1.png","","","memory_trial","2","maybe_old",""
"html-keyboard-response","251","471050","0.0-18.0-0.103","4464","approach_avoid_sv1","""event"",""trial"",""time""
""fullscreenenter"",""1"",""873""
","
","
","""event"",""trial"",""time""
""fullscreenenter"",""1"",""873""
","
","","","","","","null","<div style=""font-size:60px;"">+</div>","null","","fixation","","",""
"memory-trial","252","473186","0.0-18.0-1.103","4464","approach_avoid_sv1","""event"",""trial"",""time""
""fullscreenenter"",""1"",""873""
","
","
","""event"",""trial"",""time""
""fullscreenenter"",""1"",""873""
","
","","","","","","1129.800000011921","images/apple5.png","","","memory_trial","4","definitely_new",""
"html-keyboard-response","253","473690","0.0-18.0-0.104","4464","approach_avoid_sv1","""event"",""trial"",""time""
""fullscreenenter"",""1"",""873""
","
","
","""event"",""trial"",""time""
""fullscreenenter"",""1"",""873""
","
","","","","","","null","<div style=""font-size:60px;"">+</div>","null","","fixation","","",""
"memory-trial","254","476442","0.0-18.0-1.104","4464","approach_avoid_sv1","""event"",""trial"",""time""
""fullscreenenter"",""1"",""873""
","
","
","""event"",""trial"",""time""
""fullscreenenter"",""1"",""873""
","
","","","","","","1749.199999988079","images/chair7.png","","","memory_trial","3","maybe_new",""
"html-keyboard-response","255","476946","0.0-18.0-0.105","4464","approach_avoid_sv1","""event"",""trial"",""time""
""fullscreenenter"",""1"",""873""
","
","
","""event"",""trial"",""time""
""fullscreenenter"",""1"",""873""
","
","","","","","","null","<div style=""font-size:60px;"">+</div>","null","","fixation","","",""
"memory-trial","256","479442","0.0-18.0-1.105","4464","approach_avoid_sv1","""event"",""trial"",""time""
""fullscreenenter"",""1"",""873""
","
","
","""event"",""trial"",""time""
""fullscreenenter"",""1"",""873""
","
","","","","","","1491.0999999642372","images/sofa6.png","","","memory_trial","1","definitely_old",""
"html-keyboard-response","257","479946","0.0-18.0-0.106","4464","approach_avoid_sv1","""event"",""trial"",""time""
""fullscreenenter"",""1"",""873""
","
","
","""event"",""trial"",""time""
""fullscreenenter"",""1"",""873""
","
","","","","","","null","<div style=""font-size:60px;"">+</div>","null","","fixation","","",""
"memory-trial","258","482114","0.0-18.0-1.106","4464","approach_avoid_sv1","""event"",""trial"",""time""
""fullscreenenter"",""1"",""873""
","
","
","""event"",""trial"",""time""
""fullscreenenter"",""1"",""873""
","
","","","","","","1164.199999988079","images/cactus1.png","","","memory_trial","3","maybe_new",""
"html-keyboard-response","259","482618","0.0-18.0-0.107","4464","approach_avoid_sv1","""event"",""trial"",""time""
""fullscreenenter"",""1"",""873""
","
","
","""event"",""trial"",""time""
""fullscreenenter"",""1"",""873""
","
","","","","","","null","<div style=""font-size:60px;"">+</div>","null","","fixation","","",""
"memory-trial","260","484898","0.0-18.0-1.107","4464","approach_avoid_sv1","""event"",""trial"",""time""
""fullscreenenter"",""1"",""873""
","
","
","""event"",""trial"",""time""
""fullscreenenter"",""1"",""873""
","
","","","","","","1276.1000000238419","images/apple2.png","","","memory_trial","1","definitely_old",""
"html-keyboard-response","261","485407","0.0-18.0-0.108","4464","approach_avoid_sv1","""event"",""trial"",""time""
""fullscreenenter"",""1"",""873""
","
","
","""event"",""trial"",""time""
""fullscreenenter"",""1"",""873""
","
","","","","","","null","<div style=""font-size:60px;"">+</div>","null","","fixation","","",""
"memory-trial","262","490242","0.0-18.0-1.108","4464","approach_avoid_sv1","""event"",""trial"",""time""
""fullscreenenter"",""1"",""873""
","
","
","""event"",""trial"",""time""
""fullscreenenter"",""1"",""873""
","
","","","","","","3824.300000011921","images/dog4.png","","","memory_trial","4","definitely_new",""
"html-keyboard-response","263","490746","0.0-18.0-0.109","4464","approach_avoid_sv1","""event"",""trial"",""time""
""fullscreenenter"",""1"",""873""
","
","
","""event"",""trial"",""time""
""fullscreenenter"",""1"",""873""
","
","","","","","","null","<div style=""font-size:60px;"">+</div>","null","","fixation","","",""
"memory-trial","264","493210","0.0-18.0-1.109","4464","approach_avoid_sv1","""event"",""trial"",""time""
""fullscreenenter"",""1"",""873""
","
","
","""event"",""trial"",""time""
""fullscreenenter"",""1"",""873""
","
","","","","","","1458.0999999642372","images/sheep3.png","","","memory_trial","1","definitely_old",""
"html-keyboard-response","265","493714","0.0-18.0-0.110","4464","approach_avoid_sv1","""event"",""trial"",""time""
""fullscreenenter"",""1"",""873""
","
","
","""event"",""trial"",""time""
""fullscreenenter"",""1"",""873""
","
","","","","","","null","<div style=""font-size:60px;"">+</div>","null","","fixation","","",""
"memory-trial","266","496547","0.0-18.0-1.110","4464","approach_avoid_sv1","""event"",""trial"",""time""
""fullscreenenter"",""1"",""873""
","
","
","""event"",""trial"",""time""
""fullscreenenter"",""1"",""873""
","
","","","","","","1821.2999999523163","images/banana8.png","","","memory_trial","3","maybe_new",""
"html-keyboard-response","267","497060","0.0-18.0-0.111","4464","approach_avoid_sv1","""event"",""trial"",""time""
""fullscreenenter"",""1"",""873""
","
","
","""event"",""trial"",""time""
""fullscreenenter"",""1"",""873""
","
","","","","","","null","<div style=""font-size:60px;"">+</div>","null","","fixation","","",""
"memory-trial","268","499066","0.0-18.0-1.111","4464","approach_avoid_sv1","""event"",""trial"",""time""
""fullscreenenter"",""1"",""873""
","
","
","""event"",""trial"",""time""
""fullscreenenter"",""1"",""873""
","
","","","","","","1003","images/horse4.png","","","memory_trial","2","maybe_old",""
"html-keyboard-response","269","499570","0.0-18.0-0.112","4464","approach_avoid_sv1","""event"",""trial"",""time""
""fullscreenenter"",""1"",""873""
","
","
","""event"",""trial"",""time""
""fullscreenenter"",""1"",""873""
","
","","","","","","null","<div style=""font-size:60px;"">+</div>","null","","fixation","","",""
"memory-trial","270","501490","0.0-18.0-1.112","4464","approach_avoid_sv1","""event"",""trial"",""time""
""fullscreenenter"",""1"",""873""
","
","
","""event"",""trial"",""time""
""fullscreenenter"",""1"",""873""
","
","","","","","","918","images/table2.png","","","memory_trial","3","maybe_new",""
"html-keyboard-response","271","501994","0.0-18.0-0.113","4464","approach_avoid_sv1","""event"",""trial"",""time""
""fullscreenenter"",""1"",""873""
","
","
","""event"",""trial"",""time""
""fullscreenenter"",""1"",""873""
","
","","","","","","null","<div style=""font-size:60px;"">+</div>","null","","fixation","","",""
"memory-trial","272","503571","0.0-18.0-1.113","4464","approach_avoid_sv1","""event"",""trial"",""time""
""fullscreenenter"",""1"",""873""
","
","
","""event"",""trial"",""time""
""fullscreenenter"",""1"",""873""
","
","","","","","","565.0999999642372","images/boat3.png","","","memory_trial","3","maybe_new",""
"html-keyboard-response","273","504074","0.0-18.0-0.114","4464","approach_avoid_sv1","""event"",""trial"",""time""
""fullscreenenter"",""1"",""873""
","
","
","""event"",""trial"",""time""
""fullscreenenter"",""1"",""873""
","
","","","","","","null","<div style=""font-size:60px;"">+</div>","null","","fixation","","",""
"memory-trial","274","505682","0.0-18.0-1.114","4464","approach_avoid_sv1","""event"",""trial"",""time""
""fullscreenenter"",""1"",""873""
","
","
","""event"",""trial"",""time""
""fullscreenenter"",""1"",""873""
","
","","","","","","596.8999999761581","images/rodent3.png","","","memory_trial","3","maybe_new",""
"html-keyboard-response","275","506186","0.0-18.0-0.115","4464","approach_avoid_sv1","""event"",""trial"",""time""
""fullscreenenter"",""1"",""873""
","
","
","""event"",""trial"",""time""
""fullscreenenter"",""1"",""873""
","
","","","","","","null","<div style=""font-size:60px;"">+</div>","null","","fixation","","",""
"memory-trial","276","507674","0.0-18.0-1.115","4464","approach_avoid_sv1","""event"",""trial"",""time""
""fullscreenenter"",""1"",""873""
","
","
","""event"",""trial"",""time""
""fullscreenenter"",""1"",""873""
","
","","","","","","484.5","images/tree1.png","","","memory_trial","2","maybe_old",""
"html-keyboard-response","277","508185","0.0-18.0-0.116","4464","approach_avoid_sv1","""event"",""trial"",""time""
""fullscreenenter"",""1"",""873""
","
","
","""event"",""trial"",""time""
""fullscreenenter"",""1"",""873""
","
","","","","","","null","<div style=""font-size:60px;"">+</div>","null","","fixation","","",""
"memory-trial","278","509890","0.0-18.0-1.116","4464","approach_avoid_sv1","""event"",""trial"",""time""
""fullscreenenter"",""1"",""873""
","
","
","""event"",""trial"",""time""
""fullscreenenter"",""1"",""873""
","
","","","","","","701.5","images/dog8.png","","","memory_trial","3","maybe_new",""
"html-keyboard-response","279","510394","0.0-18.0-0.117","4464","approach_avoid_sv1","""event"",""trial"",""time""
""fullscreenenter"",""1"",""873""
","
","
","""event"",""trial"",""time""
""fullscreenenter"",""1"",""873""
","
","","","","","","null","<div style=""font-size:60px;"">+</div>","null","","fixation","","",""
"memory-trial","280","511954","0.0-18.0-1.117","4464","approach_avoid_sv1","""event"",""trial"",""time""
""fullscreenenter"",""1"",""873""
","
","
","""event"",""trial"",""time""
""fullscreenenter"",""1"",""873""
","
","","","","","","554.8999999761581","images/chair5.png","","","memory_trial","2","maybe_old",""
"html-keyboard-response","281","512459","0.0-18.0-0.118","4464","approach_avoid_sv1","""event"",""trial"",""time""
""fullscreenenter"",""1"",""873""
","
","
","""event"",""trial"",""time""
""fullscreenenter"",""1"",""873""
","
","","","","","","null","<div style=""font-size:60px;"">+</div>","null","","fixation","","",""
"memory-trial","282","514076","0.0-18.0-1.118","4464","approach_avoid_sv1","""event"",""trial"",""time""
""fullscreenenter"",""1"",""873""
","
","
","""event"",""trial"",""time""
""fullscreenenter"",""1"",""873""
","
","","","","","","611.3000000119209","images/straw2.png","","","memory_trial","1","definitely_old",""
"html-keyboard-response","283","514580","0.0-18.0-0.119","4464","approach_avoid_sv1","""event"",""trial"",""time""
""fullscreenenter"",""1"",""873""
","
","
","""event"",""trial"",""time""
""fullscreenenter"",""1"",""873""
","
","","","","","","null","<div style=""font-size:60px;"">+</div>","null","","fixation","","",""
"memory-trial","284","516146","0.0-18.0-1.119","4464","approach_avoid_sv1","""event"",""trial"",""time""
""fullscreenenter"",""1"",""873""
","
","
","""event"",""trial"",""time""
""fullscreenenter"",""1"",""873""
","
","","","","","","562.7000000476837","images/orange3.png","","","memory_trial","1","definitely_old",""
"html-keyboard-response","285","516660","0.0-18.0-0.120","4464","approach_avoid_sv1","""event"",""trial"",""time""
""fullscreenenter"",""1"",""873""
","
","
","""event"",""trial"",""time""
""fullscreenenter"",""1"",""873""
","
","","","","","","null","<div style=""font-size:60px;"">+</div>","null","","fixation","","",""
"memory-trial","286","518142","0.0-18.0-1.120","4464","approach_avoid_sv1","""event"",""trial"",""time""
""fullscreenenter"",""1"",""873""
","
","
","""event"",""trial"",""time""
""fullscreenenter"",""1"",""873""
","
","","","","","","474","images/rodent1.png","","","memory_trial","1","definitely_old",""
"html-keyboard-response","287","518649","0.0-18.0-0.121","4464","approach_avoid_sv1","""event"",""trial"",""time""
""fullscreenenter"",""1"",""873""
","
","
","""event"",""trial"",""time""
""fullscreenenter"",""1"",""873""
","
","","","","","","null","<div style=""font-size:60px;"">+</div>","null","","fixation","","",""
"memory-trial","288","520354","0.0-18.0-1.121","4464","approach_avoid_sv1","""event"",""trial"",""time""
""fullscreenenter"",""1"",""873""
","
","
","""event"",""trial"",""time""
""fullscreenenter"",""1"",""873""
","
","","","","","","701.5999999642372","images/tree7.png","","","memory_trial","3","maybe_new",""
"html-keyboard-response","289","520859","0.0-18.0-0.122","4464","approach_avoid_sv1","""event"",""trial"",""time""
""fullscreenenter"",""1"",""873""
","
","
","""event"",""trial"",""time""
""fullscreenenter"",""1"",""873""
","
","","","","","","null","<div style=""font-size:60px;"">+</div>","null","","fixation","","",""
"memory-trial","290","522465","0.0-18.0-1.122","4464","approach_avoid_sv1","""event"",""trial"",""time""
""fullscreenenter"",""1"",""873""
","
","
","""event"",""trial"",""time""
""fullscreenenter"",""1"",""873""
","
","","","","","","603.2000000476837","images/bed1.png","","","memory_trial","2","maybe_old",""
"html-keyboard-response","291","522970","0.0-18.0-0.123","4464","approach_avoid_sv1","""event"",""trial"",""time""
""fullscreenenter"",""1"",""873""
","
","
","""event"",""trial"",""time""
""fullscreenenter"",""1"",""873""
","
","","","","","","null","<div style=""font-size:60px;"">+</div>","null","","fixation","","",""
"memory-trial","292","524650","0.0-18.0-1.123","4464","approach_avoid_sv1","""event"",""trial"",""time""
""fullscreenenter"",""1"",""873""
","
","
","""event"",""trial"",""time""
""fullscreenenter"",""1"",""873""
","
","","","","","","675.8000000119209","images/goat5.png","","","memory_trial","3","maybe_new",""
"html-keyboard-response","293","525154","0.0-18.0-0.124","4464","approach_avoid_sv1","""event"",""trial"",""time""
""fullscreenenter"",""1"",""873""
","
","
","""event"",""trial"",""time""
""fullscreenenter"",""1"",""873""
","
","","","","","","null","<div style=""font-size:60px;"">+</div>","null","","fixation","","",""
"memory-trial","294","526858","0.0-18.0-1.124","4464","approach_avoid_sv1","""event"",""trial"",""time""
""fullscreenenter"",""1"",""873""
","
","
","""event"",""trial"",""time""
""fullscreenenter"",""1"",""873""
","
","","","","","","701.3999999761581","images/sofa1.png","","","memory_trial","3","maybe_new",""
"html-keyboard-response","295","527362","0.0-18.0-0.125","4464","approach_avoid_sv1","""event"",""trial"",""time""
""fullscreenenter"",""1"",""873""
","
","
","""event"",""trial"",""time""
""fullscreenenter"",""1"",""873""
","
","","","","","","null","<div style=""font-size:60px;"">+</div>","null","","fixation","","",""
"memory-trial","296","529122","0.0-18.0-1.125","4464","approach_avoid_sv1","""event"",""trial"",""time""
""fullscreenenter"",""1"",""873""
","
","
","""event"",""trial"",""time""
""fullscreenenter"",""1"",""873""
","
","","","","","","756.0999999642372","images/cow6.png","","","memory_trial","3","maybe_new",""
"html-keyboard-response","297","529637","0.0-18.0-0.126","4464","approach_avoid_sv1","""event"",""trial"",""time""
""fullscreenenter"",""1"",""873""
","
","
","""event"",""trial"",""time""
""fullscreenenter"",""1"",""873""
","
","","","","","","null","<div style=""font-size:60px;"">+</div>","null","","fixation","","",""
"memory-trial","298","531634","0.0-18.0-1.126","4464","approach_avoid_sv1","""event"",""trial"",""time""
""fullscreenenter"",""1"",""873""
","
","
","""event"",""trial"",""time""
""fullscreenenter"",""1"",""873""
","
","","","","","","993.7000000476837","images/plane1.png","","","memory_trial","4","definitely_new",""
"html-keyboard-response","299","532138","0.0-18.0-0.127","4464","approach_avoid_sv1","""event"",""trial"",""time""
""fullscreenenter"",""1"",""873""
","
","
","""event"",""trial"",""time""
""fullscreenenter"",""1"",""873""
","
","","","","","","null","<div style=""font-size:60px;"">+</div>","null","","fixation","","",""
