"trial_type","trial_index","time_elapsed","internal_node_id","subject_id","task_version","interactions","blur_events","focus_events","fullscreenenter_events","fullscreenexit_events","success","timeout","failed_images","failed_audio","failed_video","rt","stimulus","response","button_pressed","task_part","key_press","answer","correct"
"pavlovia","0","2","0.0-0.0","4264","approach_avoid_sv1","""event"",""trial"",""time""
""fullscreenenter"",""1"",""1931""
","
","
","""event"",""trial"",""time""
""fullscreenenter"",""1"",""1931""
","
","","","","","","","","","","","","",""
"fullscreen","1","2897","0.0-1.0","4264","approach_avoid_sv1","""event"",""trial"",""time""
""fullscreenenter"",""1"",""1931""
","
","
","""event"",""trial"",""time""
""fullscreenenter"",""1"",""1931""
","
","true","","","","","","","","","","","",""
"preload","2","7351","0.0-2.0","4264","approach_avoid_sv1","""event"",""trial"",""time""
""fullscreenenter"",""1"",""1931""
","
","
","""event"",""trial"",""time""
""fullscreenenter"",""1"",""1931""
","
","true","false","[]","[]","[]","","","","","","","",""
"preload","3","13402","0.0-3.0","4264","approach_avoid_sv1","""event"",""trial"",""time""
""fullscreenenter"",""1"",""1931""
","
","
","""event"",""trial"",""time""
""fullscreenenter"",""1"",""1931""
","
","true","false","[]","[]","[]","","","","","","","",""
"preload","4","13732","0.0-4.0","4264","approach_avoid_sv1","""event"",""trial"",""time""
""fullscreenenter"",""1"",""1931""
","
","
","""event"",""trial"",""time""
""fullscreenenter"",""1"",""1931""
","
","true","false","[]","[]","[]","","","","","","","",""
"audio-keyboard-response","5","16376","0.0-5.0","4264","approach_avoid_sv1","""event"",""trial"",""time""
""fullscreenenter"",""1"",""1931""
","
","
","""event"",""trial"",""time""
""fullscreenenter"",""1"",""1931""
","
","","","","","","0","audio/beep_loop.wav"," ","","","","",""
"audio-button-response","6","18930","0.0-6.0","4264","approach_avoid_sv1","""event"",""trial"",""time""
""fullscreenenter"",""1"",""1931""
","
","
","""event"",""trial"",""time""
""fullscreenenter"",""1"",""1931""
","
","","","","","","2517","audio/turtle.wav","3","","","","",""
"audio-button-response","7","20847","0.0-7.0","4264","approach_avoid_sv1","""event"",""trial"",""time""
""fullscreenenter"",""1"",""1931""
","
","
","""event"",""trial"",""time""
""fullscreenenter"",""1"",""1931""
","
","","","","","","915","audio/shark.wav","2","","","","",""
"preload","8","26826","0.0-8.0","4264","approach_avoid_sv1","""event"",""trial"",""time""
""fullscreenenter"",""1"",""1931""
","
","
","""event"",""trial"",""time""
""fullscreenenter"",""1"",""1931""
","
","true","false","[]","[]","[]","","","","","","","",""
"learning-instructions","9","32832","0.0-9.0-0.0","4264","approach_avoid_sv1","""event"",""trial"",""time""
""fullscreenenter"",""1"",""1931""
","
","
","""event"",""trial"",""time""
""fullscreenenter"",""1"",""1931""
","
","","","","","","1529","<p> Welcome back! </p><p> Last week, you had to make choices about lots of different items.  </p>","","0","instructions","","",""
"learning-instructions","10","37383","0.0-9.0-0.1","4264","approach_avoid_sv1","""event"",""trial"",""time""
""fullscreenenter"",""1"",""1931""
","
","
","""event"",""trial"",""time""
""fullscreenenter"",""1"",""1931""
","
","","","","","","442","<p> Today, we are going to ask you to try to remember all the items. </p>","","0","instructions","","",""
"learning-instructions","11","47919","0.0-9.0-0.2","4264","approach_avoid_sv1","""event"",""trial"",""time""
""fullscreenenter"",""1"",""1931""
","
","
","""event"",""trial"",""time""
""fullscreenenter"",""1"",""1931""
","
","","","","","","407.0000000000073","<p> On every trial, you will see an image. </p><p> The image may be an OLD image you saw during the games last week or it may be a NEW image that was not presented. </p>","","0","instructions","","",""
"learning-instructions","12","56800","0.0-9.0-0.3","4264","approach_avoid_sv1","""event"",""trial"",""time""
""fullscreenenter"",""1"",""1931""
","
","
","""event"",""trial"",""time""
""fullscreenenter"",""1"",""1931""
","
","","","","","","391","<p> You need to select whether the image is:  </p><p>  'Definitely old', 'Maybe old', 'Maybe new', or 'Definitely new.'  </p><div class=""mem-choice-instructions-grid""><div class=""choice-option"" id=""choice-option-1"" ><img src=""images/definitely_old_1.png"" id=""choice-option-img-1"" class=""choice-option-img"" stage=""1""></div><div class=""choice-option"" id=""choice-option-2"" ><img src=""images/maybe_old_1.png"" id=""choice-option-img-2"" class=""choice-option-img"" stage=""1""></div><div class=""choice-option"" id=""choice-option-3"" ><img src=""images/maybe_new_1.png"" id=""choice-option-img-3"" class=""choice-option-img"" stage=""1""></div><div class=""choice-option"" id=""choice-option-4"" > <img src=""images/definitely_new_1.png"" id=""choice-option-img-4"" class=""choice-option-img"" stage=""1""></div></div>","","0","instructions","","",""
"learning-instructions","13","63837","0.0-9.0-0.4","4264","approach_avoid_sv1","""event"",""trial"",""time""
""fullscreenenter"",""1"",""1931""
","
","
","""event"",""trial"",""time""
""fullscreenenter"",""1"",""1931""
","
","","","","","","527","<p> You should use the 1, 2, 3, and 4 keys to make your responses.  </p><div class=""mem-choice-instructions-grid""><div class=""choice-option"" id=""choice-option-1"" ><img src=""images/definitely_old.png"" id=""choice-option-img-1"" class=""choice-option-img"" stage=""1""></div><div class=""choice-option"" id=""choice-option-2"" ><img src=""images/maybe_old.png"" id=""choice-option-img-2"" class=""choice-option-img"" stage=""1""></div><div class=""choice-option"" id=""choice-option-3"" ><img src=""images/maybe_new.png"" id=""choice-option-img-3"" class=""choice-option-img"" stage=""1""></div><div class=""choice-option"" id=""choice-option-4"" > <img src=""images/definitely_new.png"" id=""choice-option-img-4"" class=""choice-option-img"" stage=""1""></div></div>","","0","instructions","","",""
"learning-instructions","14","70652","0.0-9.0-0.5","4264","approach_avoid_sv1","""event"",""trial"",""time""
""fullscreenenter"",""1"",""1931""
","
","
","""event"",""trial"",""time""
""fullscreenenter"",""1"",""1931""
","
","","","","","","490","<p> You will have 10 seconds to make each response.  </p><p>  Make sure to respond before time runs out! </p>","","0","instructions","","",""
"learning-instructions","15","78186","0.0-9.0-0.6","4264","approach_avoid_sv1","""event"",""trial"",""time""
""fullscreenenter"",""1"",""1931""
","
","
","""event"",""trial"",""time""
""fullscreenenter"",""1"",""1931""
","
","","","","","","464","<p> Today, you will see each image ONCE only.  </p><p>  That means none of the images will repeat. </p>","","0","instructions","","",""
"learning-instructions","16","91153","0.0-9.0-0.7","4264","approach_avoid_sv1","""event"",""trial"",""time""
""fullscreenenter"",""1"",""1931""
","
","
","""event"",""trial"",""time""
""fullscreenenter"",""1"",""1931""
","
","","","","","","305.00000000001455","<p> Before you play the real game, it is time to practice. </p><p>  Just like in the real game, some of the images in the practice will be ones you have seen before. </p><p>  Others will be entirely new. </p>","","0","instructions","","",""
"html-button-response","17","92322","0.0-10.0","4264","approach_avoid_sv1","""event"",""trial"",""time""
""fullscreenenter"",""1"",""1931""
","
","
","""event"",""trial"",""time""
""fullscreenenter"",""1"",""1931""
","
","","","","","","1066","<p> Ready to practice? </p><p> Remember, use the 1, 2, 3, and 4 keys to make your responses. </p>","0","","instructions","","",""
"html-keyboard-response","18","92924","0.0-11.0-0.0","4264","approach_avoid_sv1","""event"",""trial"",""time""
""fullscreenenter"",""1"",""1931""
","
","
","""event"",""trial"",""time""
""fullscreenenter"",""1"",""1931""
","
","","","","","","null","<div style=""font-size:60px;"">+</div>","null","","fixation","","",""
"memory-trial","19","97009","0.0-11.0-1.0","4264","approach_avoid_sv1","""event"",""trial"",""time""
""fullscreenenter"",""1"",""1931""
","
","
","""event"",""trial"",""time""
""fullscreenenter"",""1"",""1931""
","
","","","","","","3082.9999999999854","images/ball5.png","","","practice","1","definitely_old",""
"html-keyboard-response","20","97510","0.0-11.0-0.1","4264","approach_avoid_sv1","""event"",""trial"",""time""
""fullscreenenter"",""1"",""1931""
","
","
","""event"",""trial"",""time""
""fullscreenenter"",""1"",""1931""
","
","","","","","","null","<div style=""font-size:60px;"">+</div>","null","","fixation","","",""
"memory-trial","21","99924","0.0-11.0-1.1","4264","approach_avoid_sv1","""event"",""trial"",""time""
""fullscreenenter"",""1"",""1931""
","
","
","""event"",""trial"",""time""
""fullscreenenter"",""1"",""1931""
","
","","","","","","1411","images/ball2.png","","","practice","1","definitely_old",""
"html-keyboard-response","22","100425","0.0-11.0-0.2","4264","approach_avoid_sv1","""event"",""trial"",""time""
""fullscreenenter"",""1"",""1931""
","
","
","""event"",""trial"",""time""
""fullscreenenter"",""1"",""1931""
","
","","","","","","null","<div style=""font-size:60px;"">+</div>","null","","fixation","","",""
"memory-trial","23","103088","0.0-11.0-1.2","4264","approach_avoid_sv1","""event"",""trial"",""time""
""fullscreenenter"",""1"",""1931""
","
","
","""event"",""trial"",""time""
""fullscreenenter"",""1"",""1931""
","
","","","","","","1663","images/racket1.png","","","practice","1","definitely_old",""
"html-keyboard-response","24","103589","0.0-11.0-0.3","4264","approach_avoid_sv1","""event"",""trial"",""time""
""fullscreenenter"",""1"",""1931""
","
","
","""event"",""trial"",""time""
""fullscreenenter"",""1"",""1931""
","
","","","","","","null","<div style=""font-size:60px;"">+</div>","null","","fixation","","",""
"memory-trial","25","106487","0.0-11.0-1.3","4264","approach_avoid_sv1","""event"",""trial"",""time""
""fullscreenenter"",""1"",""1931""
","
","
","""event"",""trial"",""time""
""fullscreenenter"",""1"",""1931""
","
","","","","","","1897","images/ball3.png","","","practice","3","maybe_new",""
"html-keyboard-response","26","106988","0.0-11.0-0.4","4264","approach_avoid_sv1","""event"",""trial"",""time""
""fullscreenenter"",""1"",""1931""
","
","
","""event"",""trial"",""time""
""fullscreenenter"",""1"",""1931""
","
","","","","","","null","<div style=""font-size:60px;"">+</div>","null","","fixation","","",""
"memory-trial","27","110205","0.0-11.0-1.4","4264","approach_avoid_sv1","""event"",""trial"",""time""
""fullscreenenter"",""1"",""1931""
","
","
","""event"",""trial"",""time""
""fullscreenenter"",""1"",""1931""
","
","","","","","","2217","images/racket2.png","","","practice","3","maybe_new",""
"html-keyboard-response","28","110706","0.0-11.0-0.5","4264","approach_avoid_sv1","""event"",""trial"",""time""
""fullscreenenter"",""1"",""1931""
","
","
","""event"",""trial"",""time""
""fullscreenenter"",""1"",""1931""
","
","","","","","","null","<div style=""font-size:60px;"">+</div>","null","","fixation","","",""
"memory-trial","29","113638","0.0-11.0-1.5","4264","approach_avoid_sv1","""event"",""trial"",""time""
""fullscreenenter"",""1"",""1931""
","
","
","""event"",""trial"",""time""
""fullscreenenter"",""1"",""1931""
","
","","","","","","1930","images/ball1.png","","","practice","2","maybe_old",""
"html-keyboard-response","30","114139","0.0-11.0-0.6","4264","approach_avoid_sv1","""event"",""trial"",""time""
""fullscreenenter"",""1"",""1931""
","
","
","""event"",""trial"",""time""
""fullscreenenter"",""1"",""1931""
","
","","","","","","null","<div style=""font-size:60px;"">+</div>","null","","fixation","","",""
"memory-trial","31","116987","0.0-11.0-1.6","4264","approach_avoid_sv1","""event"",""trial"",""time""
""fullscreenenter"",""1"",""1931""
","
","
","""event"",""trial"",""time""
""fullscreenenter"",""1"",""1931""
","
","","","","","","1848","images/racket5.png","","","practice","1","definitely_old",""
"html-keyboard-response","32","117489","0.0-11.0-0.7","4264","approach_avoid_sv1","""event"",""trial"",""time""
""fullscreenenter"",""1"",""1931""
","
","
","""event"",""trial"",""time""
""fullscreenenter"",""1"",""1931""
","
","","","","","","null","<div style=""font-size:60px;"">+</div>","null","","fixation","","",""
"memory-trial","33","119491","0.0-11.0-1.7","4264","approach_avoid_sv1","""event"",""trial"",""time""
""fullscreenenter"",""1"",""1931""
","
","
","""event"",""trial"",""time""
""fullscreenenter"",""1"",""1931""
","
","","","","","","1001","images/racket3.png","","","practice","1","definitely_old",""
"learning-instructions","34","127841","0.0-12.0-0.0","4264","approach_avoid_sv1","""event"",""trial"",""time""
""fullscreenenter"",""1"",""1931""
","
","
","""event"",""trial"",""time""
""fullscreenenter"",""1"",""1931""
","
","","","","","","1044.0000000000146","<p> Great! You have completed the practice. </p><p> Before you start, we're going to ask you a few questions about how the game works.  </p>","","0","instructions","","",""
"preload","35","131717","0.0-13.0","4264","approach_avoid_sv1","""event"",""trial"",""time""
""fullscreenenter"",""1"",""1931""
","
","
","""event"",""trial"",""time""
""fullscreenenter"",""1"",""1931""
","
","true","false","[]","[]","[]","","","","","","","",""
"comp-q","36","138559","0.0-14.0-0.0","4264","approach_avoid_sv1","""event"",""trial"",""time""
""fullscreenenter"",""1"",""1931""
","
","
","""event"",""trial"",""time""
""fullscreenenter"",""1"",""1931""
","
","","","","","","1013","<p> <b> True or False? </b> </p><p> In this game, you will only see each image once. </p>","","0","comp_question","","","true"
"comp-q","37","145643","0.0-14.0-1.0","4264","approach_avoid_sv1","""event"",""trial"",""time""
""fullscreenenter"",""1"",""1931""
","
","
","""event"",""trial"",""time""
""fullscreenenter"",""1"",""1931""
","
","","","","","","751","<p> <b> That's right! </b> You will see many different images <i> one time each </i> in this game. </p>","","0","comp_answer","","",""
"comp-q","38","151211","0.0-15.0-0.0","4264","approach_avoid_sv1","""event"",""trial"",""time""
""fullscreenenter"",""1"",""1931""
","
","
","""event"",""trial"",""time""
""fullscreenenter"",""1"",""1931""
","
","","","","","","567","<p> <b> True or False? </b> </p><p> You should use the mouse and click to make your response. </p>","","1","comp_question","","","true"
"comp-q","39","158243","0.0-15.0-1.0","4264","approach_avoid_sv1","""event"",""trial"",""time""
""fullscreenenter"",""1"",""1931""
","
","
","""event"",""trial"",""time""
""fullscreenenter"",""1"",""1931""
","
","","","","","","536","<p><b> That's right! </b> You should use the '1', '2', '3', and '4' keys to make your response. </p>","","0","comp_answer","","",""
"comp-q","40","164461","0.0-16.0-0.0","4264","approach_avoid_sv1","""event"",""trial"",""time""
""fullscreenenter"",""1"",""1931""
","
","
","""event"",""trial"",""time""
""fullscreenenter"",""1"",""1931""
","
","","","","","","547","<p> <b> True or False? </b> </p><p> You will have as much time as you want to make each choice. </p>","","1","comp_question","","","true"
"comp-q","41","169996","0.0-16.0-1.0","4264","approach_avoid_sv1","""event"",""trial"",""time""
""fullscreenenter"",""1"",""1931""
","
","
","""event"",""trial"",""time""
""fullscreenenter"",""1"",""1931""
","
","","","","","","843.0000000000291","<p> <b> That's right! </b> You will only have 10 seconds to make each choice. </p>","","0","comp_answer","","",""
"learning-instructions","42","179929","0.0-17.0","4264","approach_avoid_sv1","""event"",""trial"",""time""
""fullscreenenter"",""1"",""1931""
","
","
","""event"",""trial"",""time""
""fullscreenenter"",""1"",""1931""
","
","","","","","","1266","<p> Great! You are now ready to begin the game. </p><p> Remember, use the 1, 2, 3, and 4 keys to make your responses. </p>","","0","instructions","","",""
"html-keyboard-response","43","180531","0.0-18.0-0.0","4264","approach_avoid_sv1","""event"",""trial"",""time""
""fullscreenenter"",""1"",""1931""
","
","
","""event"",""trial"",""time""
""fullscreenenter"",""1"",""1931""
","
","","","","","","null","<div style=""font-size:60px;"">+</div>","null","","fixation","","",""
"memory-trial","44","183052","0.0-18.0-1.0","4264","approach_avoid_sv1","""event"",""trial"",""time""
""fullscreenenter"",""1"",""1931""
","
","
","""event"",""trial"",""time""
""fullscreenenter"",""1"",""1931""
","
","","","","","","1517","images/straw2.png","","","memory_trial","1","definitely_old",""
"html-keyboard-response","45","183553","0.0-18.0-0.1","4264","approach_avoid_sv1","""event"",""trial"",""time""
""fullscreenenter"",""1"",""1931""
","
","
","""event"",""trial"",""time""
""fullscreenenter"",""1"",""1931""
","
","","","","","","null","<div style=""font-size:60px;"">+</div>","null","","fixation","","",""
"memory-trial","46","186169","0.0-18.0-1.1","4264","approach_avoid_sv1","""event"",""trial"",""time""
""fullscreenenter"",""1"",""1931""
","
","
","""event"",""trial"",""time""
""fullscreenenter"",""1"",""1931""
","
","","","","","","1614","images/apple8.png","","","memory_trial","4","definitely_new",""
"html-keyboard-response","47","186671","0.0-18.0-0.2","4264","approach_avoid_sv1","""event"",""trial"",""time""
""fullscreenenter"",""1"",""1931""
","
","
","""event"",""trial"",""time""
""fullscreenenter"",""1"",""1931""
","
","","","","","","null","<div style=""font-size:60px;"">+</div>","null","","fixation","","",""
"memory-trial","48","188715","0.0-18.0-1.2","4264","approach_avoid_sv1","""event"",""trial"",""time""
""fullscreenenter"",""1"",""1931""
","
","
","""event"",""trial"",""time""
""fullscreenenter"",""1"",""1931""
","
","","","","","","1044","images/sofa6.png","","","memory_trial","1","definitely_old",""
"html-keyboard-response","49","189216","0.0-18.0-0.3","4264","approach_avoid_sv1","""event"",""trial"",""time""
""fullscreenenter"",""1"",""1931""
","
","
","""event"",""trial"",""time""
""fullscreenenter"",""1"",""1931""
","
","","","","","","null","<div style=""font-size:60px;"">+</div>","null","","fixation","","",""
"memory-trial","50","193108","0.0-18.0-1.3","4264","approach_avoid_sv1","""event"",""trial"",""time""
""fullscreenenter"",""1"",""1931""
","
","
","""event"",""trial"",""time""
""fullscreenenter"",""1"",""1931""
","
","","","","","","2889","images/goat8.png","","","memory_trial","4","definitely_new",""
"html-keyboard-response","51","193609","0.0-18.0-0.4","4264","approach_avoid_sv1","""event"",""trial"",""time""
""fullscreenenter"",""1"",""1931""
","
","
","""event"",""trial"",""time""
""fullscreenenter"",""1"",""1931""
","
","","","","","","null","<div style=""font-size:60px;"">+</div>","null","","fixation","","",""
"memory-trial","52","196095","0.0-18.0-1.4","4264","approach_avoid_sv1","""event"",""trial"",""time""
""fullscreenenter"",""1"",""1931""
","
","
","""event"",""trial"",""time""
""fullscreenenter"",""1"",""1931""
","
","","","","","","1485","images/train4.png","","","memory_trial","2","maybe_old",""
"html-keyboard-response","53","196596","0.0-18.0-0.5","4264","approach_avoid_sv1","""event"",""trial"",""time""
""fullscreenenter"",""1"",""1931""
","
","
","""event"",""trial"",""time""
""fullscreenenter"",""1"",""1931""
","
","","","","","","null","<div style=""font-size:60px;"">+</div>","null","","fixation","","",""
"memory-trial","54","198753","0.0-18.0-1.5","4264","approach_avoid_sv1","""event"",""trial"",""time""
""fullscreenenter"",""1"",""1931""
","
","
","""event"",""trial"",""time""
""fullscreenenter"",""1"",""1931""
","
","","","","","","1155","images/plane1.png","","","memory_trial","1","definitely_old",""
"html-keyboard-response","55","199253","0.0-18.0-0.6","4264","approach_avoid_sv1","""event"",""trial"",""time""
""fullscreenenter"",""1"",""1931""
","
","
","""event"",""trial"",""time""
""fullscreenenter"",""1"",""1931""
","
","","","","","","null","<div style=""font-size:60px;"">+</div>","null","","fixation","","",""
"memory-trial","56","201999","0.0-18.0-1.6","4264","approach_avoid_sv1","""event"",""trial"",""time""
""fullscreenenter"",""1"",""1931""
","
","
","""event"",""trial"",""time""
""fullscreenenter"",""1"",""1931""
","
","","","","","","1743","images/dog4.png","","","memory_trial","1","definitely_old",""
"html-keyboard-response","57","202500","0.0-18.0-0.7","4264","approach_avoid_sv1","""event"",""trial"",""time""
""fullscreenenter"",""1"",""1931""
","
","
","""event"",""trial"",""time""
""fullscreenenter"",""1"",""1931""
","
","","","","","","null","<div style=""font-size:60px;"">+</div>","null","","fixation","","",""
"memory-trial","58","205273","0.0-18.0-1.7","4264","approach_avoid_sv1","""event"",""trial"",""time""
""fullscreenenter"",""1"",""1931""
","
","
","""event"",""trial"",""time""
""fullscreenenter"",""1"",""1931""
","
","","","","","","1768","images/cat3.png","","","memory_trial","3","maybe_new",""
"html-keyboard-response","59","205774","0.0-18.0-0.8","4264","approach_avoid_sv1","""event"",""trial"",""time""
""fullscreenenter"",""1"",""1931""
","
","
","""event"",""trial"",""time""
""fullscreenenter"",""1"",""1931""
","
","","","","","","null","<div style=""font-size:60px;"">+</div>","null","","fixation","","",""
"memory-trial","60","208622","0.0-18.0-1.8","4264","approach_avoid_sv1","""event"",""trial"",""time""
""fullscreenenter"",""1"",""1931""
","
","
","""event"",""trial"",""time""
""fullscreenenter"",""1"",""1931""
","
","","","","","","1847","images/cactus8.png","","","memory_trial","3","maybe_new",""
"html-keyboard-response","61","209123","0.0-18.0-0.9","4264","approach_avoid_sv1","""event"",""trial"",""time""
""fullscreenenter"",""1"",""1931""
","
","
","""event"",""trial"",""time""
""fullscreenenter"",""1"",""1931""
","
","","","","","","null","<div style=""font-size:60px;"">+</div>","null","","fixation","","",""
"memory-trial","62","212014","0.0-18.0-1.9","4264","approach_avoid_sv1","""event"",""trial"",""time""
""fullscreenenter"",""1"",""1931""
","
","
","""event"",""trial"",""time""
""fullscreenenter"",""1"",""1931""
","
","","","","","","1889","images/train6.png","","","memory_trial","4","definitely_new",""
"html-keyboard-response","63","212515","0.0-18.0-0.10","4264","approach_avoid_sv1","""event"",""trial"",""time""
""fullscreenenter"",""1"",""1931""
","
","
","""event"",""trial"",""time""
""fullscreenenter"",""1"",""1931""
","
","","","","","","null","<div style=""font-size:60px;"">+</div>","null","","fixation","","",""
"memory-trial","64","214975","0.0-18.0-1.10","4264","approach_avoid_sv1","""event"",""trial"",""time""
""fullscreenenter"",""1"",""1931""
","
","
","""event"",""trial"",""time""
""fullscreenenter"",""1"",""1931""
","
","","","","","","1458","images/orange8.png","","","memory_trial","1","definitely_old",""
"html-keyboard-response","65","215477","0.0-18.0-0.11","4264","approach_avoid_sv1","""event"",""trial"",""time""
""fullscreenenter"",""1"",""1931""
","
","
","""event"",""trial"",""time""
""fullscreenenter"",""1"",""1931""
","
","","","","","","null","<div style=""font-size:60px;"">+</div>","null","","fixation","","",""
"memory-trial","66","218392","0.0-18.0-1.11","4264","approach_avoid_sv1","""event"",""trial"",""time""
""fullscreenenter"",""1"",""1931""
","
","
","""event"",""trial"",""time""
""fullscreenenter"",""1"",""1931""
","
","","","","","","1913","images/goat1.png","","","memory_trial","3","maybe_new",""
"html-keyboard-response","67","218893","0.0-18.0-0.12","4264","approach_avoid_sv1","""event"",""trial"",""time""
""fullscreenenter"",""1"",""1931""
","
","
","""event"",""trial"",""time""
""fullscreenenter"",""1"",""1931""
","
","","","","","","null","<div style=""font-size:60px;"">+</div>","null","","fixation","","",""
"memory-trial","68","221120","0.0-18.0-1.12","4264","approach_avoid_sv1","""event"",""trial"",""time""
""fullscreenenter"",""1"",""1931""
","
","
","""event"",""trial"",""time""
""fullscreenenter"",""1"",""1931""
","
","","","","","","1225.000000000029","images/flower2.png","","","memory_trial","4","definitely_new",""
"html-keyboard-response","69","221621","0.0-18.0-0.13","4264","approach_avoid_sv1","""event"",""trial"",""time""
""fullscreenenter"",""1"",""1931""
","
","
","""event"",""trial"",""time""
""fullscreenenter"",""1"",""1931""
","
","","","","","","null","<div style=""font-size:60px;"">+</div>","null","","fixation","","",""
"memory-trial","70","223530","0.0-18.0-1.13","4264","approach_avoid_sv1","""event"",""trial"",""time""
""fullscreenenter"",""1"",""1931""
","
","
","""event"",""trial"",""time""
""fullscreenenter"",""1"",""1931""
","
","","","","","","908.0000000000291","images/banana5.png","","","memory_trial","1","definitely_old",""
"html-keyboard-response","71","224032","0.0-18.0-0.14","4264","approach_avoid_sv1","""event"",""trial"",""time""
""fullscreenenter"",""1"",""1931""
","
","
","""event"",""trial"",""time""
""fullscreenenter"",""1"",""1931""
","
","","","","","","null","<div style=""font-size:60px;"">+</div>","null","","fixation","","",""
"memory-trial","72","226344","0.0-18.0-1.14","4264","approach_avoid_sv1","""event"",""trial"",""time""
""fullscreenenter"",""1"",""1931""
","
","
","""event"",""trial"",""time""
""fullscreenenter"",""1"",""1931""
","
","","","","","","1309","images/rodent7.png","","","memory_trial","1","definitely_old",""
"html-keyboard-response","73","226845","0.0-18.0-0.15","4264","approach_avoid_sv1","""event"",""trial"",""time""
""fullscreenenter"",""1"",""1931""
","
","
","""event"",""trial"",""time""
""fullscreenenter"",""1"",""1931""
","
","","","","","","null","<div style=""font-size:60px;"">+</div>","null","","fixation","","",""
"memory-trial","74","228869","0.0-18.0-1.15","4264","approach_avoid_sv1","""event"",""trial"",""time""
""fullscreenenter"",""1"",""1931""
","
","
","""event"",""trial"",""time""
""fullscreenenter"",""1"",""1931""
","
","","","","","","1023","images/bush1.png","","","memory_trial","1","definitely_old",""
"html-keyboard-response","75","229370","0.0-18.0-0.16","4264","approach_avoid_sv1","""event"",""trial"",""time""
""fullscreenenter"",""1"",""1931""
","
","
","""event"",""trial"",""time""
""fullscreenenter"",""1"",""1931""
","
","","","","","","null","<div style=""font-size:60px;"">+</div>","null","","fixation","","",""
"memory-trial","76","231985","0.0-18.0-1.16","4264","approach_avoid_sv1","""event"",""trial"",""time""
""fullscreenenter"",""1"",""1931""
","
","
","""event"",""trial"",""time""
""fullscreenenter"",""1"",""1931""
","
","","","","","","1614","images/sheep8.png","","","memory_trial","2","maybe_old",""
"html-keyboard-response","77","232486","0.0-18.0-0.17","4264","approach_avoid_sv1","""event"",""trial"",""time""
""fullscreenenter"",""1"",""1931""
","
","
","""event"",""trial"",""time""
""fullscreenenter"",""1"",""1931""
","
","","","","","","null","<div style=""font-size:60px;"">+</div>","null","","fixation","","",""
"memory-trial","78","235243","0.0-18.0-1.17","4264","approach_avoid_sv1","""event"",""trial"",""time""
""fullscreenenter"",""1"",""1931""
","
","
","""event"",""trial"",""time""
""fullscreenenter"",""1"",""1931""
","
","","","","","","1756","images/boat2.png","","","memory_trial","1","definitely_old",""
"html-keyboard-response","79","235745","0.0-18.0-0.18","4264","approach_avoid_sv1","""event"",""trial"",""time""
""fullscreenenter"",""1"",""1931""
","
","
","""event"",""trial"",""time""
""fullscreenenter"",""1"",""1931""
","
","","","","","","null","<div style=""font-size:60px;"">+</div>","null","","fixation","","",""
"memory-trial","80","237859","0.0-18.0-1.18","4264","approach_avoid_sv1","""event"",""trial"",""time""
""fullscreenenter"",""1"",""1931""
","
","
","""event"",""trial"",""time""
""fullscreenenter"",""1"",""1931""
","
","","","","","","1113","images/apple2.png","","","memory_trial","4","definitely_new",""
"html-keyboard-response","81","238359","0.0-18.0-0.19","4264","approach_avoid_sv1","""event"",""trial"",""time""
""fullscreenenter"",""1"",""1931""
","
","
","""event"",""trial"",""time""
""fullscreenenter"",""1"",""1931""
","
","","","","","","null","<div style=""font-size:60px;"">+</div>","null","","fixation","","",""
"memory-trial","82","241674","0.0-18.0-1.19","4264","approach_avoid_sv1","""event"",""trial"",""time""
""fullscreenenter"",""1"",""1931""
","
","
","""event"",""trial"",""time""
""fullscreenenter"",""1"",""1931""
","
","","","","","","2314","images/rodent3.png","","","memory_trial","3","maybe_new",""
"html-keyboard-response","83","242176","0.0-18.0-0.20","4264","approach_avoid_sv1","""event"",""trial"",""time""
""fullscreenenter"",""1"",""1931""
","
","
","""event"",""trial"",""time""
""fullscreenenter"",""1"",""1931""
","
","","","","","","null","<div style=""font-size:60px;"">+</div>","null","","fixation","","",""
"memory-trial","84","243949","0.0-18.0-1.20","4264","approach_avoid_sv1","""event"",""trial"",""time""
""fullscreenenter"",""1"",""1931""
","
","
","""event"",""trial"",""time""
""fullscreenenter"",""1"",""1931""
","
","","","","","","771","images/bush6.png","","","memory_trial","1","definitely_old",""
"html-keyboard-response","85","244450","0.0-18.0-0.21","4264","approach_avoid_sv1","""event"",""trial"",""time""
""fullscreenenter"",""1"",""1931""
","
","
","""event"",""trial"",""time""
""fullscreenenter"",""1"",""1931""
","
","","","","","","null","<div style=""font-size:60px;"">+</div>","null","","fixation","","",""
"memory-trial","86","246660","0.0-18.0-1.21","4264","approach_avoid_sv1","""event"",""trial"",""time""
""fullscreenenter"",""1"",""1931""
","
","
","""event"",""trial"",""time""
""fullscreenenter"",""1"",""1931""
","
","","","","","","1207.999999999971","images/goat2.png","","","memory_trial","3","maybe_new",""
"html-keyboard-response","87","247161","0.0-18.0-0.22","4264","approach_avoid_sv1","""event"",""trial"",""time""
""fullscreenenter"",""1"",""1931""
","
","
","""event"",""trial"",""time""
""fullscreenenter"",""1"",""1931""
","
","","","","","","null","<div style=""font-size:60px;"">+</div>","null","","fixation","","",""
"memory-trial","88","249310","0.0-18.0-1.22","4264","approach_avoid_sv1","""event"",""trial"",""time""
""fullscreenenter"",""1"",""1931""
","
","
","""event"",""trial"",""time""
""fullscreenenter"",""1"",""1931""
","
","","","","","","1148","images/chair8.png","","","memory_trial","1","definitely_old",""
"html-keyboard-response","89","249812","0.0-18.0-0.23","4264","approach_avoid_sv1","""event"",""trial"",""time""
""fullscreenenter"",""1"",""1931""
","
","
","""event"",""trial"",""time""
""fullscreenenter"",""1"",""1931""
","
","","","","","","null","<div style=""font-size:60px;"">+</div>","null","","fixation","","",""
"memory-trial","90","251850","0.0-18.0-1.23","4264","approach_avoid_sv1","""event"",""trial"",""time""
""fullscreenenter"",""1"",""1931""
","
","
","""event"",""trial"",""time""
""fullscreenenter"",""1"",""1931""
","
","","","","","","1037.000000000029","images/train2.png","","","memory_trial","4","definitely_new",""
"html-keyboard-response","91","252352","0.0-18.0-0.24","4264","approach_avoid_sv1","""event"",""trial"",""time""
""fullscreenenter"",""1"",""1931""
","
","
","""event"",""trial"",""time""
""fullscreenenter"",""1"",""1931""
","
","","","","","","null","<div style=""font-size:60px;"">+</div>","null","","fixation","","",""
"memory-trial","92","254183","0.0-18.0-1.24","4264","approach_avoid_sv1","""event"",""trial"",""time""
""fullscreenenter"",""1"",""1931""
","
","
","""event"",""trial"",""time""
""fullscreenenter"",""1"",""1931""
","
","","","","","","830","images/rabbit7.png","","","memory_trial","1","definitely_old",""
"html-keyboard-response","93","254685","0.0-18.0-0.25","4264","approach_avoid_sv1","""event"",""trial"",""time""
""fullscreenenter"",""1"",""1931""
","
","
","""event"",""trial"",""time""
""fullscreenenter"",""1"",""1931""
","
","","","","","","null","<div style=""font-size:60px;"">+</div>","null","","fixation","","",""
"memory-trial","94","257167","0.0-18.0-1.25","4264","approach_avoid_sv1","""event"",""trial"",""time""
""fullscreenenter"",""1"",""1931""
","
","
","""event"",""trial"",""time""
""fullscreenenter"",""1"",""1931""
","
","","","","","","1482.000000000029","images/plane4.png","","","memory_trial","2","maybe_old",""
"html-keyboard-response","95","257669","0.0-18.0-0.26","4264","approach_avoid_sv1","""event"",""trial"",""time""
""fullscreenenter"",""1"",""1931""
","
","
","""event"",""trial"",""time""
""fullscreenenter"",""1"",""1931""
","
","","","","","","null","<div style=""font-size:60px;"">+</div>","null","","fixation","","",""
"memory-trial","96","260014","0.0-18.0-1.26","4264","approach_avoid_sv1","""event"",""trial"",""time""
""fullscreenenter"",""1"",""1931""
","
","
","""event"",""trial"",""time""
""fullscreenenter"",""1"",""1931""
","
","","","","","","1343.000000000029","images/bush4.png","","","memory_trial","4","definitely_new",""
"html-keyboard-response","97","260515","0.0-18.0-0.27","4264","approach_avoid_sv1","""event"",""trial"",""time""
""fullscreenenter"",""1"",""1931""
","
","
","""event"",""trial"",""time""
""fullscreenenter"",""1"",""1931""
","
","","","","","","null","<div style=""font-size:60px;"">+</div>","null","","fixation","","",""
"memory-trial","98","262671","0.0-18.0-1.27","4264","approach_avoid_sv1","""event"",""trial"",""time""
""fullscreenenter"",""1"",""1931""
","
","
","""event"",""trial"",""time""
""fullscreenenter"",""1"",""1931""
","
","","","","","","1155","images/sofa8.png","","","memory_trial","3","maybe_new",""
"html-keyboard-response","99","263172","0.0-18.0-0.28","4264","approach_avoid_sv1","""event"",""trial"",""time""
""fullscreenenter"",""1"",""1931""
","
","
","""event"",""trial"",""time""
""fullscreenenter"",""1"",""1931""
","
","","","","","","null","<div style=""font-size:60px;"">+</div>","null","","fixation","","",""
"memory-trial","100","265711","0.0-18.0-1.28","4264","approach_avoid_sv1","""event"",""trial"",""time""
""fullscreenenter"",""1"",""1931""
","
","
","""event"",""trial"",""time""
""fullscreenenter"",""1"",""1931""
","
","","","","","","1538","images/tree2.png","","","memory_trial","1","definitely_old",""
"html-keyboard-response","101","266212","0.0-18.0-0.29","4264","approach_avoid_sv1","""event"",""trial"",""time""
""fullscreenenter"",""1"",""1931""
","
","
","""event"",""trial"",""time""
""fullscreenenter"",""1"",""1931""
","
","","","","","","null","<div style=""font-size:60px;"">+</div>","null","","fixation","","",""
"memory-trial","102","268057","0.0-18.0-1.29","4264","approach_avoid_sv1","""event"",""trial"",""time""
""fullscreenenter"",""1"",""1931""
","
","
","""event"",""trial"",""time""
""fullscreenenter"",""1"",""1931""
","
","","","","","","844","images/truck1.png","","","memory_trial","1","definitely_old",""
"html-keyboard-response","103","268559","0.0-18.0-0.30","4264","approach_avoid_sv1","""event"",""trial"",""time""
""fullscreenenter"",""1"",""1931""
","
","
","""event"",""trial"",""time""
""fullscreenenter"",""1"",""1931""
","
","","","","","","null","<div style=""font-size:60px;"">+</div>","null","","fixation","","",""
"memory-trial","104","270785","0.0-18.0-1.30","4264","approach_avoid_sv1","""event"",""trial"",""time""
""fullscreenenter"",""1"",""1931""
","
","
","""event"",""trial"",""time""
""fullscreenenter"",""1"",""1931""
","
","","","","","","1224","images/train3.png","","","memory_trial","4","definitely_new",""
"html-keyboard-response","105","271287","0.0-18.0-0.31","4264","approach_avoid_sv1","""event"",""trial"",""time""
""fullscreenenter"",""1"",""1931""
","
","
","""event"",""trial"",""time""
""fullscreenenter"",""1"",""1931""
","
","","","","","","null","<div style=""font-size:60px;"">+</div>","null","","fixation","","",""
"memory-trial","106","273450","0.0-18.0-1.31","4264","approach_avoid_sv1","""event"",""trial"",""time""
""fullscreenenter"",""1"",""1931""
","
","
","""event"",""trial"",""time""
""fullscreenenter"",""1"",""1931""
","
","","","","","","1162.9999999999418","images/boat3.png","","","memory_trial","1","definitely_old",""
"html-keyboard-response","107","273951","0.0-18.0-0.32","4264","approach_avoid_sv1","""event"",""trial"",""time""
""fullscreenenter"",""1"",""1931""
","
","
","""event"",""trial"",""time""
""fullscreenenter"",""1"",""1931""
","
","","","","","","null","<div style=""font-size:60px;"">+</div>","null","","fixation","","",""
"memory-trial","108","276333","0.0-18.0-1.32","4264","approach_avoid_sv1","""event"",""trial"",""time""
""fullscreenenter"",""1"",""1931""
","
","
","""event"",""trial"",""time""
""fullscreenenter"",""1"",""1931""
","
","","","","","","1381","images/truck7.png","","","memory_trial","3","maybe_new",""
"html-keyboard-response","109","276835","0.0-18.0-0.33","4264","approach_avoid_sv1","""event"",""trial"",""time""
""fullscreenenter"",""1"",""1931""
","
","
","""event"",""trial"",""time""
""fullscreenenter"",""1"",""1931""
","
","","","","","","null","<div style=""font-size:60px;"">+</div>","null","","fixation","","",""
"memory-trial","110","278805","0.0-18.0-1.33","4264","approach_avoid_sv1","""event"",""trial"",""time""
""fullscreenenter"",""1"",""1931""
","
","
","""event"",""trial"",""time""
""fullscreenenter"",""1"",""1931""
","
","","","","","","969","images/tree8.png","","","memory_trial","1","definitely_old",""
"html-keyboard-response","111","279307","0.0-18.0-0.34","4264","approach_avoid_sv1","""event"",""trial"",""time""
""fullscreenenter"",""1"",""1931""
","
","
","""event"",""trial"",""time""
""fullscreenenter"",""1"",""1931""
","
","","","","","","null","<div style=""font-size:60px;"">+</div>","null","","fixation","","",""
"memory-trial","112","281293","0.0-18.0-1.34","4264","approach_avoid_sv1","""event"",""trial"",""time""
""fullscreenenter"",""1"",""1931""
","
","
","""event"",""trial"",""time""
""fullscreenenter"",""1"",""1931""
","
","","","","","","984","images/bush7.png","","","memory_trial","3","maybe_new",""
"html-keyboard-response","113","281794","0.0-18.0-0.35","4264","approach_avoid_sv1","""event"",""trial"",""time""
""fullscreenenter"",""1"",""1931""
","
","
","""event"",""trial"",""time""
""fullscreenenter"",""1"",""1931""
","
","","","","","","null","<div style=""font-size:60px;"">+</div>","null","","fixation","","",""
"memory-trial","114","284145","0.0-18.0-1.35","4264","approach_avoid_sv1","""event"",""trial"",""time""
""fullscreenenter"",""1"",""1931""
","
","
","""event"",""trial"",""time""
""fullscreenenter"",""1"",""1931""
","
","","","","","","1349","images/horse4.png","","","memory_trial","3","maybe_new",""
"html-keyboard-response","115","284646","0.0-18.0-0.36","4264","approach_avoid_sv1","""event"",""trial"",""time""
""fullscreenenter"",""1"",""1931""
","
","
","""event"",""trial"",""time""
""fullscreenenter"",""1"",""1931""
","
","","","","","","null","<div style=""font-size:60px;"">+</div>","null","","fixation","","",""
"memory-trial","116","286638","0.0-18.0-1.36","4264","approach_avoid_sv1","""event"",""trial"",""time""
""fullscreenenter"",""1"",""1931""
","
","
","""event"",""trial"",""time""
""fullscreenenter"",""1"",""1931""
","
","","","","","","991.0000000000582","images/cat4.png","","","memory_trial","3","maybe_new",""
"html-keyboard-response","117","287139","0.0-18.0-0.37","4264","approach_avoid_sv1","""event"",""trial"",""time""
""fullscreenenter"",""1"",""1931""
","
","
","""event"",""trial"",""time""
""fullscreenenter"",""1"",""1931""
","
","","","","","","null","<div style=""font-size:60px;"">+</div>","null","","fixation","","",""
"memory-trial","118","289576","0.0-18.0-1.37","4264","approach_avoid_sv1","""event"",""trial"",""time""
""fullscreenenter"",""1"",""1931""
","
","
","""event"",""trial"",""time""
""fullscreenenter"",""1"",""1931""
","
","","","","","","1435","images/cow6.png","","","memory_trial","1","definitely_old",""
"html-keyboard-response","119","290078","0.0-18.0-0.38","4264","approach_avoid_sv1","""event"",""trial"",""time""
""fullscreenenter"",""1"",""1931""
","
","
","""event"",""trial"",""time""
""fullscreenenter"",""1"",""1931""
","
","","","","","","null","<div style=""font-size:60px;"">+</div>","null","","fixation","","",""
"memory-trial","120","292343","0.0-18.0-1.38","4264","approach_avoid_sv1","""event"",""trial"",""time""
""fullscreenenter"",""1"",""1931""
","
","
","""event"",""trial"",""time""
""fullscreenenter"",""1"",""1931""
","
","","","","","","1264","images/goat4.png","","","memory_trial","4","definitely_new",""
"html-keyboard-response","121","292845","0.0-18.0-0.39","4264","approach_avoid_sv1","""event"",""trial"",""time""
""fullscreenenter"",""1"",""1931""
","
","
","""event"",""trial"",""time""
""fullscreenenter"",""1"",""1931""
","
","","","","","","null","<div style=""font-size:60px;"">+</div>","null","","fixation","","",""
"memory-trial","122","294873","0.0-18.0-1.39","4264","approach_avoid_sv1","""event"",""trial"",""time""
""fullscreenenter"",""1"",""1931""
","
","
","""event"",""trial"",""time""
""fullscreenenter"",""1"",""1931""
","
","","","","","","1027","images/cow3.png","","","memory_trial","1","definitely_old",""
"html-keyboard-response","123","295374","0.0-18.0-0.40","4264","approach_avoid_sv1","""event"",""trial"",""time""
""fullscreenenter"",""1"",""1931""
","
","
","""event"",""trial"",""time""
""fullscreenenter"",""1"",""1931""
","
","","","","","","null","<div style=""font-size:60px;"">+</div>","null","","fixation","","",""
"memory-trial","124","297549","0.0-18.0-1.40","4264","approach_avoid_sv1","""event"",""trial"",""time""
""fullscreenenter"",""1"",""1931""
","
","
","""event"",""trial"",""time""
""fullscreenenter"",""1"",""1931""
","
","","","","","","1173","images/goat5.png","","","memory_trial","3","maybe_new",""
"html-keyboard-response","125","298051","0.0-18.0-0.41","4264","approach_avoid_sv1","""event"",""trial"",""time""
""fullscreenenter"",""1"",""1931""
","
","
","""event"",""trial"",""time""
""fullscreenenter"",""1"",""1931""
","
","","","","","","null","<div style=""font-size:60px;"">+</div>","null","","fixation","","",""
"memory-trial","126","300246","0.0-18.0-1.41","4264","approach_avoid_sv1","""event"",""trial"",""time""
""fullscreenenter"",""1"",""1931""
","
","
","""event"",""trial"",""time""
""fullscreenenter"",""1"",""1931""
","
","","","","","","1194","images/tree5.png","","","memory_trial","4","definitely_new",""
"html-button-response","127","301710","0.0-18.0-2.41-0.41","4264","approach_avoid_sv1","""event"",""trial"",""time""
""fullscreenenter"",""1"",""1931""
","
","
","""event"",""trial"",""time""
""fullscreenenter"",""1"",""1931""
","
","","","","","","1464","<p> Take a break! </p><p> Click the button to continue. </p>","0","","break","","",""
"html-keyboard-response","128","302210","0.0-18.0-0.42","4264","approach_avoid_sv1","""event"",""trial"",""time""
""fullscreenenter"",""1"",""1931""
","
","
","""event"",""trial"",""time""
""fullscreenenter"",""1"",""1931""
","
","","","","","","null","<div style=""font-size:60px;"">+</div>","null","","fixation","","",""
"memory-trial","129","305437","0.0-18.0-1.42","4264","approach_avoid_sv1","""event"",""trial"",""time""
""fullscreenenter"",""1"",""1931""
","
","
","""event"",""trial"",""time""
""fullscreenenter"",""1"",""1931""
","
","","","","","","2226","images/orange3.png","","","memory_trial","1","definitely_old",""
"html-keyboard-response","130","305938","0.0-18.0-0.43","4264","approach_avoid_sv1","""event"",""trial"",""time""
""fullscreenenter"",""1"",""1931""
","
","
","""event"",""trial"",""time""
""fullscreenenter"",""1"",""1931""
","
","","","","","","null","<div style=""font-size:60px;"">+</div>","null","","fixation","","",""
"memory-trial","131","308310","0.0-18.0-1.43","4264","approach_avoid_sv1","""event"",""trial"",""time""
""fullscreenenter"",""1"",""1931""
","
","
","""event"",""trial"",""time""
""fullscreenenter"",""1"",""1931""
","
","","","","","","1370","images/orange2.png","","","memory_trial","4","definitely_new",""
"html-keyboard-response","132","308811","0.0-18.0-0.44","4264","approach_avoid_sv1","""event"",""trial"",""time""
""fullscreenenter"",""1"",""1931""
","
","
","""event"",""trial"",""time""
""fullscreenenter"",""1"",""1931""
","
","","","","","","null","<div style=""font-size:60px;"">+</div>","null","","fixation","","",""
"memory-trial","133","310753","0.0-18.0-1.44","4264","approach_avoid_sv1","""event"",""trial"",""time""
""fullscreenenter"",""1"",""1931""
","
","
","""event"",""trial"",""time""
""fullscreenenter"",""1"",""1931""
","
","","","","","","940","images/dog8.png","","","memory_trial","1","definitely_old",""
"html-keyboard-response","134","311254","0.0-18.0-0.45","4264","approach_avoid_sv1","""event"",""trial"",""time""
""fullscreenenter"",""1"",""1931""
","
","
","""event"",""trial"",""time""
""fullscreenenter"",""1"",""1931""
","
","","","","","","null","<div style=""font-size:60px;"">+</div>","null","","fixation","","",""
"memory-trial","135","313187","0.0-18.0-1.45","4264","approach_avoid_sv1","""event"",""trial"",""time""
""fullscreenenter"",""1"",""1931""
","
","
","""event"",""trial"",""time""
""fullscreenenter"",""1"",""1931""
","
","","","","","","931","images/dog2.png","","","memory_trial","1","definitely_old",""
"html-keyboard-response","136","313689","0.0-18.0-0.46","4264","approach_avoid_sv1","""event"",""trial"",""time""
""fullscreenenter"",""1"",""1931""
","
","
","""event"",""trial"",""time""
""fullscreenenter"",""1"",""1931""
","
","","","","","","null","<div style=""font-size:60px;"">+</div>","null","","fixation","","",""
"memory-trial","137","315965","0.0-18.0-1.46","4264","approach_avoid_sv1","""event"",""trial"",""time""
""fullscreenenter"",""1"",""1931""
","
","
","""event"",""trial"",""time""
""fullscreenenter"",""1"",""1931""
","
","","","","","","1275","images/orange4.png","","","memory_trial","4","definitely_new",""
"html-keyboard-response","138","316467","0.0-18.0-0.47","4264","approach_avoid_sv1","""event"",""trial"",""time""
""fullscreenenter"",""1"",""1931""
","
","
","""event"",""trial"",""time""
""fullscreenenter"",""1"",""1931""
","
","","","","","","null","<div style=""font-size:60px;"">+</div>","null","","fixation","","",""
"memory-trial","139","318880","0.0-18.0-1.47","4264","approach_avoid_sv1","""event"",""trial"",""time""
""fullscreenenter"",""1"",""1931""
","
","
","""event"",""trial"",""time""
""fullscreenenter"",""1"",""1931""
","
","","","","","","1412","images/sofa2.png","","","memory_trial","2","maybe_old",""
"html-keyboard-response","140","319381","0.0-18.0-0.48","4264","approach_avoid_sv1","""event"",""trial"",""time""
""fullscreenenter"",""1"",""1931""
","
","
","""event"",""trial"",""time""
""fullscreenenter"",""1"",""1931""
","
","","","","","","null","<div style=""font-size:60px;"">+</div>","null","","fixation","","",""
"memory-trial","141","321893","0.0-18.0-1.48","4264","approach_avoid_sv1","""event"",""trial"",""time""
""fullscreenenter"",""1"",""1931""
","
","
","""event"",""trial"",""time""
""fullscreenenter"",""1"",""1931""
","
","","","","","","1511","images/boat5.png","","","memory_trial","3","maybe_new",""
"html-keyboard-response","142","322393","0.0-18.0-0.49","4264","approach_avoid_sv1","""event"",""trial"",""time""
""fullscreenenter"",""1"",""1931""
","
","
","""event"",""trial"",""time""
""fullscreenenter"",""1"",""1931""
","
","","","","","","null","<div style=""font-size:60px;"">+</div>","null","","fixation","","",""
"memory-trial","143","325115","0.0-18.0-1.49","4264","approach_avoid_sv1","""event"",""trial"",""time""
""fullscreenenter"",""1"",""1931""
","
","
","""event"",""trial"",""time""
""fullscreenenter"",""1"",""1931""
","
","","","","","","1720","images/bush3.png","","","memory_trial","1","definitely_old",""
"html-keyboard-response","144","325616","0.0-18.0-0.50","4264","approach_avoid_sv1","""event"",""trial"",""time""
""fullscreenenter"",""1"",""1931""
","
","
","""event"",""trial"",""time""
""fullscreenenter"",""1"",""1931""
","
","","","","","","null","<div style=""font-size:60px;"">+</div>","null","","fixation","","",""
"memory-trial","145","327734","0.0-18.0-1.50","4264","approach_avoid_sv1","""event"",""trial"",""time""
""fullscreenenter"",""1"",""1931""
","
","
","""event"",""trial"",""time""
""fullscreenenter"",""1"",""1931""
","
","","","","","","1118","images/straw4.png","","","memory_trial","1","definitely_old",""
"html-keyboard-response","146","328236","0.0-18.0-0.51","4264","approach_avoid_sv1","""event"",""trial"",""time""
""fullscreenenter"",""1"",""1931""
","
","
","""event"",""trial"",""time""
""fullscreenenter"",""1"",""1931""
","
","","","","","","null","<div style=""font-size:60px;"">+</div>","null","","fixation","","",""
"memory-trial","147","330173","0.0-18.0-1.51","4264","approach_avoid_sv1","""event"",""trial"",""time""
""fullscreenenter"",""1"",""1931""
","
","
","""event"",""trial"",""time""
""fullscreenenter"",""1"",""1931""
","
","","","","","","937","images/apple5.png","","","memory_trial","4","definitely_new",""
"html-keyboard-response","148","330674","0.0-18.0-0.52","4264","approach_avoid_sv1","""event"",""trial"",""time""
""fullscreenenter"",""1"",""1931""
","
","
","""event"",""trial"",""time""
""fullscreenenter"",""1"",""1931""
","
","","","","","","null","<div style=""font-size:60px;"">+</div>","null","","fixation","","",""
"memory-trial","149","332658","0.0-18.0-1.52","4264","approach_avoid_sv1","""event"",""trial"",""time""
""fullscreenenter"",""1"",""1931""
","
","
","""event"",""trial"",""time""
""fullscreenenter"",""1"",""1931""
","
","","","","","","982","images/cat1.png","","","memory_trial","3","maybe_new",""
"html-keyboard-response","150","333159","0.0-18.0-0.53","4264","approach_avoid_sv1","""event"",""trial"",""time""
""fullscreenenter"",""1"",""1931""
","
","
","""event"",""trial"",""time""
""fullscreenenter"",""1"",""1931""
","
","","","","","","null","<div style=""font-size:60px;"">+</div>","null","","fixation","","",""
"memory-trial","151","335195","0.0-18.0-1.53","4264","approach_avoid_sv1","""event"",""trial"",""time""
""fullscreenenter"",""1"",""1931""
","
","
","""event"",""trial"",""time""
""fullscreenenter"",""1"",""1931""
","
","","","","","","1034.9999999999418","images/sheep1.png","","","memory_trial","3","maybe_new",""
"html-keyboard-response","152","335695","0.0-18.0-0.54","4264","approach_avoid_sv1","""event"",""trial"",""time""
""fullscreenenter"",""1"",""1931""
","
","
","""event"",""trial"",""time""
""fullscreenenter"",""1"",""1931""
","
","","","","","","null","<div style=""font-size:60px;"">+</div>","null","","fixation","","",""
"memory-trial","153","337780","0.0-18.0-1.54","4264","approach_avoid_sv1","""event"",""trial"",""time""
""fullscreenenter"",""1"",""1931""
","
","
","""event"",""trial"",""time""
""fullscreenenter"",""1"",""1931""
","
","","","","","","1083.9999999999418","images/bush5.png","","","memory_trial","4","definitely_new",""
"html-keyboard-response","154","338282","0.0-18.0-0.55","4264","approach_avoid_sv1","""event"",""trial"",""time""
""fullscreenenter"",""1"",""1931""
","
","
","""event"",""trial"",""time""
""fullscreenenter"",""1"",""1931""
","
","","","","","","null","<div style=""font-size:60px;"">+</div>","null","","fixation","","",""
"memory-trial","155","340027","0.0-18.0-1.55","4264","approach_avoid_sv1","""event"",""trial"",""time""
""fullscreenenter"",""1"",""1931""
","
","
","""event"",""trial"",""time""
""fullscreenenter"",""1"",""1931""
","
","","","","","","744","images/cat7.png","","","memory_trial","4","definitely_new",""
"html-keyboard-response","156","340528","0.0-18.0-0.56","4264","approach_avoid_sv1","""event"",""trial"",""time""
""fullscreenenter"",""1"",""1931""
","
","
","""event"",""trial"",""time""
""fullscreenenter"",""1"",""1931""
","
","","","","","","null","<div style=""font-size:60px;"">+</div>","null","","fixation","","",""
"memory-trial","157","343306","0.0-18.0-1.56","4264","approach_avoid_sv1","""event"",""trial"",""time""
""fullscreenenter"",""1"",""1931""
","
","
","""event"",""trial"",""time""
""fullscreenenter"",""1"",""1931""
","
","","","","","","1777","images/tree1.png","","","memory_trial","1","definitely_old",""
"html-keyboard-response","158","343807","0.0-18.0-0.57","4264","approach_avoid_sv1","""event"",""trial"",""time""
""fullscreenenter"",""1"",""1931""
","
","
","""event"",""trial"",""time""
""fullscreenenter"",""1"",""1931""
","
","","","","","","null","<div style=""font-size:60px;"">+</div>","null","","fixation","","",""
"memory-trial","159","346797","0.0-18.0-1.57","4264","approach_avoid_sv1","""event"",""trial"",""time""
""fullscreenenter"",""1"",""1931""
","
","
","""event"",""trial"",""time""
""fullscreenenter"",""1"",""1931""
","
","","","","","","1988","images/straw1.png","","","memory_trial","2","maybe_old",""
"html-keyboard-response","160","347298","0.0-18.0-0.58","4264","approach_avoid_sv1","""event"",""trial"",""time""
""fullscreenenter"",""1"",""1931""
","
","
","""event"",""trial"",""time""
""fullscreenenter"",""1"",""1931""
","
","","","","","","null","<div style=""font-size:60px;"">+</div>","null","","fixation","","",""
"memory-trial","161","349285","0.0-18.0-1.58","4264","approach_avoid_sv1","""event"",""trial"",""time""
""fullscreenenter"",""1"",""1931""
","
","
","""event"",""trial"",""time""
""fullscreenenter"",""1"",""1931""
","
","","","","","","985.0000000000582","images/table4.png","","","memory_trial","2","maybe_old",""
"html-keyboard-response","162","349786","0.0-18.0-0.59","4264","approach_avoid_sv1","""event"",""trial"",""time""
""fullscreenenter"",""1"",""1931""
","
","
","""event"",""trial"",""time""
""fullscreenenter"",""1"",""1931""
","
","","","","","","null","<div style=""font-size:60px;"">+</div>","null","","fixation","","",""
"memory-trial","163","351922","0.0-18.0-1.59","4264","approach_avoid_sv1","""event"",""trial"",""time""
""fullscreenenter"",""1"",""1931""
","
","
","""event"",""trial"",""time""
""fullscreenenter"",""1"",""1931""
","
","","","","","","1134.0000000000582","images/boat7.png","","","memory_trial","3","maybe_new",""
"html-keyboard-response","164","352423","0.0-18.0-0.60","4264","approach_avoid_sv1","""event"",""trial"",""time""
""fullscreenenter"",""1"",""1931""
","
","
","""event"",""trial"",""time""
""fullscreenenter"",""1"",""1931""
","
","","","","","","null","<div style=""font-size:60px;"">+</div>","null","","fixation","","",""
"memory-trial","165","354724","0.0-18.0-1.60","4264","approach_avoid_sv1","""event"",""trial"",""time""
""fullscreenenter"",""1"",""1931""
","
","
","""event"",""trial"",""time""
""fullscreenenter"",""1"",""1931""
","
","","","","","","1300","images/horse3.png","","","memory_trial","1","definitely_old",""
"html-keyboard-response","166","355226","0.0-18.0-0.61","4264","approach_avoid_sv1","""event"",""trial"",""time""
""fullscreenenter"",""1"",""1931""
","
","
","""event"",""trial"",""time""
""fullscreenenter"",""1"",""1931""
","
","","","","","","null","<div style=""font-size:60px;"">+</div>","null","","fixation","","",""
"memory-trial","167","357225","0.0-18.0-1.61","4264","approach_avoid_sv1","""event"",""trial"",""time""
""fullscreenenter"",""1"",""1931""
","
","
","""event"",""trial"",""time""
""fullscreenenter"",""1"",""1931""
","
","","","","","","998.0000000000582","images/cactus4.png","","","memory_trial","1","definitely_old",""
"html-keyboard-response","168","357726","0.0-18.0-0.62","4264","approach_avoid_sv1","""event"",""trial"",""time""
""fullscreenenter"",""1"",""1931""
","
","
","""event"",""trial"",""time""
""fullscreenenter"",""1"",""1931""
","
","","","","","","null","<div style=""font-size:60px;"">+</div>","null","","fixation","","",""
"memory-trial","169","359856","0.0-18.0-1.62","4264","approach_avoid_sv1","""event"",""trial"",""time""
""fullscreenenter"",""1"",""1931""
","
","
","""event"",""trial"",""time""
""fullscreenenter"",""1"",""1931""
","
","","","","","","1130.0000000000582","images/horse1.png","","","memory_trial","1","definitely_old",""
"html-keyboard-response","170","360358","0.0-18.0-0.63","4264","approach_avoid_sv1","""event"",""trial"",""time""
""fullscreenenter"",""1"",""1931""
","
","
","""event"",""trial"",""time""
""fullscreenenter"",""1"",""1931""
","
","","","","","","null","<div style=""font-size:60px;"">+</div>","null","","fixation","","",""
"memory-trial","171","362310","0.0-18.0-1.63","4264","approach_avoid_sv1","""event"",""trial"",""time""
""fullscreenenter"",""1"",""1931""
","
","
","""event"",""trial"",""time""
""fullscreenenter"",""1"",""1931""
","
","","","","","","951","images/bed1.png","","","memory_trial","1","definitely_old",""
"html-keyboard-response","172","362811","0.0-18.0-0.64","4264","approach_avoid_sv1","""event"",""trial"",""time""
""fullscreenenter"",""1"",""1931""
","
","
","""event"",""trial"",""time""
""fullscreenenter"",""1"",""1931""
","
","","","","","","null","<div style=""font-size:60px;"">+</div>","null","","fixation","","",""
"memory-trial","173","364679","0.0-18.0-1.64","4264","approach_avoid_sv1","""event"",""trial"",""time""
""fullscreenenter"",""1"",""1931""
","
","
","""event"",""trial"",""time""
""fullscreenenter"",""1"",""1931""
","
","","","","","","867","images/rodent5.png","","","memory_trial","1","definitely_old",""
"html-keyboard-response","174","365181","0.0-18.0-0.65","4264","approach_avoid_sv1","""event"",""trial"",""time""
""fullscreenenter"",""1"",""1931""
","
","
","""event"",""trial"",""time""
""fullscreenenter"",""1"",""1931""
","
","","","","","","null","<div style=""font-size:60px;"">+</div>","null","","fixation","","",""
"memory-trial","175","367010","0.0-18.0-1.65","4264","approach_avoid_sv1","""event"",""trial"",""time""
""fullscreenenter"",""1"",""1931""
","
","
","""event"",""trial"",""time""
""fullscreenenter"",""1"",""1931""
","
","","","","","","829.0000000000582","images/rodent1.png","","","memory_trial","1","definitely_old",""
"html-keyboard-response","176","367512","0.0-18.0-0.66","4264","approach_avoid_sv1","""event"",""trial"",""time""
""fullscreenenter"",""1"",""1931""
","
","
","""event"",""trial"",""time""
""fullscreenenter"",""1"",""1931""
","
","","","","","","null","<div style=""font-size:60px;"">+</div>","null","","fixation","","",""
"memory-trial","177","369613","0.0-18.0-1.66","4264","approach_avoid_sv1","""event"",""trial"",""time""
""fullscreenenter"",""1"",""1931""
","
","
","""event"",""trial"",""time""
""fullscreenenter"",""1"",""1931""
","
","","","","","","1099","images/boat8.png","","","memory_trial","3","maybe_new",""
"html-keyboard-response","178","370114","0.0-18.0-0.67","4264","approach_avoid_sv1","""event"",""trial"",""time""
""fullscreenenter"",""1"",""1931""
","
","
","""event"",""trial"",""time""
""fullscreenenter"",""1"",""1931""
","
","","","","","","null","<div style=""font-size:60px;"">+</div>","null","","fixation","","",""
"memory-trial","179","372027","0.0-18.0-1.67","4264","approach_avoid_sv1","""event"",""trial"",""time""
""fullscreenenter"",""1"",""1931""
","
","
","""event"",""trial"",""time""
""fullscreenenter"",""1"",""1931""
","
","","","","","","912","images/banana7.png","","","memory_trial","3","maybe_new",""
"html-keyboard-response","180","372529","0.0-18.0-0.68","4264","approach_avoid_sv1","""event"",""trial"",""time""
""fullscreenenter"",""1"",""1931""
","
","
","""event"",""trial"",""time""
""fullscreenenter"",""1"",""1931""
","
","","","","","","null","<div style=""font-size:60px;"">+</div>","null","","fixation","","",""
"memory-trial","181","374579","0.0-18.0-1.68","4264","approach_avoid_sv1","""event"",""trial"",""time""
""fullscreenenter"",""1"",""1931""
","
","
","""event"",""trial"",""time""
""fullscreenenter"",""1"",""1931""
","
","","","","","","1048","images/truck6.png","","","memory_trial","1","definitely_old",""
"html-keyboard-response","182","375080","0.0-18.0-0.69","4264","approach_avoid_sv1","""event"",""trial"",""time""
""fullscreenenter"",""1"",""1931""
","
","
","""event"",""trial"",""time""
""fullscreenenter"",""1"",""1931""
","
","","","","","","null","<div style=""font-size:60px;"">+</div>","null","","fixation","","",""
"memory-trial","183","377103","0.0-18.0-1.69","4264","approach_avoid_sv1","""event"",""trial"",""time""
""fullscreenenter"",""1"",""1931""
","
","
","""event"",""trial"",""time""
""fullscreenenter"",""1"",""1931""
","
","","","","","","1022","images/table3.png","","","memory_trial","3","maybe_new",""
"html-keyboard-response","184","377604","0.0-18.0-0.70","4264","approach_avoid_sv1","""event"",""trial"",""time""
""fullscreenenter"",""1"",""1931""
","
","
","""event"",""trial"",""time""
""fullscreenenter"",""1"",""1931""
","
","","","","","","null","<div style=""font-size:60px;"">+</div>","null","","fixation","","",""
"memory-trial","185","379999","0.0-18.0-1.70","4264","approach_avoid_sv1","""event"",""trial"",""time""
""fullscreenenter"",""1"",""1931""
","
","
","""event"",""trial"",""time""
""fullscreenenter"",""1"",""1931""
","
","","","","","","1392.9999999999418","images/truck2.png","","","memory_trial","3","maybe_new",""
"html-keyboard-response","186","380500","0.0-18.0-0.71","4264","approach_avoid_sv1","""event"",""trial"",""time""
""fullscreenenter"",""1"",""1931""
","
","
","""event"",""trial"",""time""
""fullscreenenter"",""1"",""1931""
","
","","","","","","null","<div style=""font-size:60px;"">+</div>","null","","fixation","","",""
"memory-trial","187","382187","0.0-18.0-1.71","4264","approach_avoid_sv1","""event"",""trial"",""time""
""fullscreenenter"",""1"",""1931""
","
","
","""event"",""trial"",""time""
""fullscreenenter"",""1"",""1931""
","
","","","","","","685","images/cactus7.png","","","memory_trial","3","maybe_new",""
"html-keyboard-response","188","382688","0.0-18.0-0.72","4264","approach_avoid_sv1","""event"",""trial"",""time""
""fullscreenenter"",""1"",""1931""
","
","
","""event"",""trial"",""time""
""fullscreenenter"",""1"",""1931""
","
","","","","","","null","<div style=""font-size:60px;"">+</div>","null","","fixation","","",""
"memory-trial","189","385247","0.0-18.0-1.72","4264","approach_avoid_sv1","""event"",""trial"",""time""
""fullscreenenter"",""1"",""1931""
","
","
","""event"",""trial"",""time""
""fullscreenenter"",""1"",""1931""
","
","","","","","","1556","images/straw8.png","","","memory_trial","2","maybe_old",""
"html-keyboard-response","190","385749","0.0-18.0-0.73","4264","approach_avoid_sv1","""event"",""trial"",""time""
""fullscreenenter"",""1"",""1931""
","
","
","""event"",""trial"",""time""
""fullscreenenter"",""1"",""1931""
","
","","","","","","null","<div style=""font-size:60px;"">+</div>","null","","fixation","","",""
"memory-trial","191","388999","0.0-18.0-1.73","4264","approach_avoid_sv1","""event"",""trial"",""time""
""fullscreenenter"",""1"",""1931""
","
","
","""event"",""trial"",""time""
""fullscreenenter"",""1"",""1931""
","
","","","","","","2249","images/plane8.png","","","memory_trial","2","maybe_old",""
"html-keyboard-response","192","389500","0.0-18.0-0.74","4264","approach_avoid_sv1","""event"",""trial"",""time""
""fullscreenenter"",""1"",""1931""
","
","
","""event"",""trial"",""time""
""fullscreenenter"",""1"",""1931""
","
","","","","","","null","<div style=""font-size:60px;"">+</div>","null","","fixation","","",""
"memory-trial","193","391485","0.0-18.0-1.74","4264","approach_avoid_sv1","""event"",""trial"",""time""
""fullscreenenter"",""1"",""1931""
","
","
","""event"",""trial"",""time""
""fullscreenenter"",""1"",""1931""
","
","","","","","","984.0000000000582","images/flower7.png","","","memory_trial","4","definitely_new",""
"html-keyboard-response","194","391986","0.0-18.0-0.75","4264","approach_avoid_sv1","""event"",""trial"",""time""
""fullscreenenter"",""1"",""1931""
","
","
","""event"",""trial"",""time""
""fullscreenenter"",""1"",""1931""
","
","","","","","","null","<div style=""font-size:60px;"">+</div>","null","","fixation","","",""
"memory-trial","195","394247","0.0-18.0-1.75","4264","approach_avoid_sv1","""event"",""trial"",""time""
""fullscreenenter"",""1"",""1931""
","
","
","""event"",""trial"",""time""
""fullscreenenter"",""1"",""1931""
","
","","","","","","1260.0000000000582","images/rodent2.png","","","memory_trial","1","definitely_old",""
"html-keyboard-response","196","394749","0.0-18.0-0.76","4264","approach_avoid_sv1","""event"",""trial"",""time""
""fullscreenenter"",""1"",""1931""
","
","
","""event"",""trial"",""time""
""fullscreenenter"",""1"",""1931""
","
","","","","","","null","<div style=""font-size:60px;"">+</div>","null","","fixation","","",""
"memory-trial","197","396847","0.0-18.0-1.76","4264","approach_avoid_sv1","""event"",""trial"",""time""
""fullscreenenter"",""1"",""1931""
","
","
","""event"",""trial"",""time""
""fullscreenenter"",""1"",""1931""
","
","","","","","","1096","images/cow2.png","","","memory_trial","3","maybe_new",""
"html-keyboard-response","198","397349","0.0-18.0-0.77","4264","approach_avoid_sv1","""event"",""trial"",""time""
""fullscreenenter"",""1"",""1931""
","
","
","""event"",""trial"",""time""
""fullscreenenter"",""1"",""1931""
","
","","","","","","null","<div style=""font-size:60px;"">+</div>","null","","fixation","","",""
"memory-trial","199","399368","0.0-18.0-1.77","4264","approach_avoid_sv1","""event"",""trial"",""time""
""fullscreenenter"",""1"",""1931""
","
","
","""event"",""trial"",""time""
""fullscreenenter"",""1"",""1931""
","
","","","","","","1018","images/apple3.png","","","memory_trial","4","definitely_new",""
"html-keyboard-response","200","399869","0.0-18.0-0.78","4264","approach_avoid_sv1","""event"",""trial"",""time""
""fullscreenenter"",""1"",""1931""
","
","
","""event"",""trial"",""time""
""fullscreenenter"",""1"",""1931""
","
","","","","","","null","<div style=""font-size:60px;"">+</div>","null","","fixation","","",""
"memory-trial","201","401715","0.0-18.0-1.78","4264","approach_avoid_sv1","""event"",""trial"",""time""
""fullscreenenter"",""1"",""1931""
","
","
","""event"",""trial"",""time""
""fullscreenenter"",""1"",""1931""
","
","","","","","","845","images/train8.png","","","memory_trial","4","definitely_new",""
"html-keyboard-response","202","402216","0.0-18.0-0.79","4264","approach_avoid_sv1","""event"",""trial"",""time""
""fullscreenenter"",""1"",""1931""
","
","
","""event"",""trial"",""time""
""fullscreenenter"",""1"",""1931""
","
","","","","","","null","<div style=""font-size:60px;"">+</div>","null","","fixation","","",""
"memory-trial","203","403953","0.0-18.0-1.79","4264","approach_avoid_sv1","""event"",""trial"",""time""
""fullscreenenter"",""1"",""1931""
","
","
","""event"",""trial"",""time""
""fullscreenenter"",""1"",""1931""
","
","","","","","","735","images/bed6.png","","","memory_trial","2","maybe_old",""
"html-keyboard-response","204","404455","0.0-18.0-0.80","4264","approach_avoid_sv1","""event"",""trial"",""time""
""fullscreenenter"",""1"",""1931""
","
","
","""event"",""trial"",""time""
""fullscreenenter"",""1"",""1931""
","
","","","","","","null","<div style=""font-size:60px;"">+</div>","null","","fixation","","",""
"memory-trial","205","406301","0.0-18.0-1.80","4264","approach_avoid_sv1","""event"",""trial"",""time""
""fullscreenenter"",""1"",""1931""
","
","
","""event"",""trial"",""time""
""fullscreenenter"",""1"",""1931""
","
","","","","","","844.9999999999418","images/straw7.png","","","memory_trial","3","maybe_new",""
"html-keyboard-response","206","406802","0.0-18.0-0.81","4264","approach_avoid_sv1","""event"",""trial"",""time""
""fullscreenenter"",""1"",""1931""
","
","
","""event"",""trial"",""time""
""fullscreenenter"",""1"",""1931""
","
","","","","","","null","<div style=""font-size:60px;"">+</div>","null","","fixation","","",""
"memory-trial","207","408960","0.0-18.0-1.81","4264","approach_avoid_sv1","""event"",""trial"",""time""
""fullscreenenter"",""1"",""1931""
","
","
","""event"",""trial"",""time""
""fullscreenenter"",""1"",""1931""
","
","","","","","","1156","images/tree7.png","","","memory_trial","1","definitely_old",""
"html-keyboard-response","208","409462","0.0-18.0-0.82","4264","approach_avoid_sv1","""event"",""trial"",""time""
""fullscreenenter"",""1"",""1931""
","
","
","""event"",""trial"",""time""
""fullscreenenter"",""1"",""1931""
","
","","","","","","null","<div style=""font-size:60px;"">+</div>","null","","fixation","","",""
"memory-trial","209","411524","0.0-18.0-1.82","4264","approach_avoid_sv1","""event"",""trial"",""time""
""fullscreenenter"",""1"",""1931""
","
","
","""event"",""trial"",""time""
""fullscreenenter"",""1"",""1931""
","
","","","","","","1060","images/sofa7.png","","","memory_trial","1","definitely_old",""
"html-keyboard-response","210","412025","0.0-18.0-0.83","4264","approach_avoid_sv1","""event"",""trial"",""time""
""fullscreenenter"",""1"",""1931""
","
","
","""event"",""trial"",""time""
""fullscreenenter"",""1"",""1931""
","
","","","","","","null","<div style=""font-size:60px;"">+</div>","null","","fixation","","",""
"memory-trial","211","414269","0.0-18.0-1.83","4264","approach_avoid_sv1","""event"",""trial"",""time""
""fullscreenenter"",""1"",""1931""
","
","
","""event"",""trial"",""time""
""fullscreenenter"",""1"",""1931""
","
","","","","","","1243","images/rabbit1.png","","","memory_trial","3","maybe_new",""
"html-keyboard-response","212","414770","0.0-18.0-0.84","4264","approach_avoid_sv1","""event"",""trial"",""time""
""fullscreenenter"",""1"",""1931""
","
","
","""event"",""trial"",""time""
""fullscreenenter"",""1"",""1931""
","
","","","","","","null","<div style=""font-size:60px;"">+</div>","null","","fixation","","",""
"memory-trial","213","417342","0.0-18.0-1.84","4264","approach_avoid_sv1","""event"",""trial"",""time""
""fullscreenenter"",""1"",""1931""
","
","
","""event"",""trial"",""time""
""fullscreenenter"",""1"",""1931""
","
","","","","","","1569","images/cow1.png","","","memory_trial","1","definitely_old",""
"html-keyboard-response","214","417843","0.0-18.0-0.85","4264","approach_avoid_sv1","""event"",""trial"",""time""
""fullscreenenter"",""1"",""1931""
","
","
","""event"",""trial"",""time""
""fullscreenenter"",""1"",""1931""
","
","","","","","","null","<div style=""font-size:60px;"">+</div>","null","","fixation","","",""
"memory-trial","215","419882","0.0-18.0-1.85","4264","approach_avoid_sv1","""event"",""trial"",""time""
""fullscreenenter"",""1"",""1931""
","
","
","""event"",""trial"",""time""
""fullscreenenter"",""1"",""1931""
","
","","","","","","1039","images/flower8.png","","","memory_trial","4","definitely_new",""
"html-keyboard-response","216","420383","0.0-18.0-0.86","4264","approach_avoid_sv1","""event"",""trial"",""time""
""fullscreenenter"",""1"",""1931""
","
","
","""event"",""trial"",""time""
""fullscreenenter"",""1"",""1931""
","
","","","","","","null","<div style=""font-size:60px;"">+</div>","null","","fixation","","",""
"memory-trial","217","422514","0.0-18.0-1.86","4264","approach_avoid_sv1","""event"",""trial"",""time""
""fullscreenenter"",""1"",""1931""
","
","
","""event"",""trial"",""time""
""fullscreenenter"",""1"",""1931""
","
","","","","","","1129","images/horse8.png","","","memory_trial","1","definitely_old",""
"html-keyboard-response","218","423016","0.0-18.0-0.87","4264","approach_avoid_sv1","""event"",""trial"",""time""
""fullscreenenter"",""1"",""1931""
","
","
","""event"",""trial"",""time""
""fullscreenenter"",""1"",""1931""
","
","","","","","","null","<div style=""font-size:60px;"">+</div>","null","","fixation","","",""
"memory-trial","219","424945","0.0-18.0-1.87","4264","approach_avoid_sv1","""event"",""trial"",""time""
""fullscreenenter"",""1"",""1931""
","
","
","""event"",""trial"",""time""
""fullscreenenter"",""1"",""1931""
","
","","","","","","928","images/table1.png","","","memory_trial","2","maybe_old",""
"html-keyboard-response","220","425446","0.0-18.0-0.88","4264","approach_avoid_sv1","""event"",""trial"",""time""
""fullscreenenter"",""1"",""1931""
","
","
","""event"",""trial"",""time""
""fullscreenenter"",""1"",""1931""
","
","","","","","","null","<div style=""font-size:60px;"">+</div>","null","","fixation","","",""
"memory-trial","221","427430","0.0-18.0-1.88","4264","approach_avoid_sv1","""event"",""trial"",""time""
""fullscreenenter"",""1"",""1931""
","
","
","""event"",""trial"",""time""
""fullscreenenter"",""1"",""1931""
","
","","","","","","982","images/bush2.png","","","memory_trial","2","maybe_old",""
"html-keyboard-response","222","427931","0.0-18.0-0.89","4264","approach_avoid_sv1","""event"",""trial"",""time""
""fullscreenenter"",""1"",""1931""
","
","
","""event"",""trial"",""time""
""fullscreenenter"",""1"",""1931""
","
","","","","","","null","<div style=""font-size:60px;"">+</div>","null","","fixation","","",""
"memory-trial","223","430645","0.0-18.0-1.89","4264","approach_avoid_sv1","""event"",""trial"",""time""
""fullscreenenter"",""1"",""1931""
","
","
","""event"",""trial"",""time""
""fullscreenenter"",""1"",""1931""
","
","","","","","","1713.0000000000582","images/banana6.png","","","memory_trial","2","maybe_old",""
"html-keyboard-response","224","431146","0.0-18.0-0.90","4264","approach_avoid_sv1","""event"",""trial"",""time""
""fullscreenenter"",""1"",""1931""
","
","
","""event"",""trial"",""time""
""fullscreenenter"",""1"",""1931""
","
","","","","","","null","<div style=""font-size:60px;"">+</div>","null","","fixation","","",""
"memory-trial","225","433320","0.0-18.0-1.90","4264","approach_avoid_sv1","""event"",""trial"",""time""
""fullscreenenter"",""1"",""1931""
","
","
","""event"",""trial"",""time""
""fullscreenenter"",""1"",""1931""
","
","","","","","","1173","images/cactus3.png","","","memory_trial","1","definitely_old",""
"html-keyboard-response","226","433822","0.0-18.0-0.91","4264","approach_avoid_sv1","""event"",""trial"",""time""
""fullscreenenter"",""1"",""1931""
","
","
","""event"",""trial"",""time""
""fullscreenenter"",""1"",""1931""
","
","","","","","","null","<div style=""font-size:60px;"">+</div>","null","","fixation","","",""
"memory-trial","227","435689","0.0-18.0-1.91","4264","approach_avoid_sv1","""event"",""trial"",""time""
""fullscreenenter"",""1"",""1931""
","
","
","""event"",""trial"",""time""
""fullscreenenter"",""1"",""1931""
","
","","","","","","865","images/bed8.png","","","memory_trial","1","definitely_old",""
"html-button-response","228","438170","0.0-18.0-2.91-0.91","4264","approach_avoid_sv1","""event"",""trial"",""time""
""fullscreenenter"",""1"",""1931""
","
","
","""event"",""trial"",""time""
""fullscreenenter"",""1"",""1931""
","
","","","","","","2481","<p> Take a break! </p><p> Click the button to continue. </p>","0","","break","","",""
"html-keyboard-response","229","438672","0.0-18.0-0.92","4264","approach_avoid_sv1","""event"",""trial"",""time""
""fullscreenenter"",""1"",""1931""
","
","
","""event"",""trial"",""time""
""fullscreenenter"",""1"",""1931""
","
","","","","","","null","<div style=""font-size:60px;"">+</div>","null","","fixation","","",""
"memory-trial","230","441311","0.0-18.0-1.92","4264","approach_avoid_sv1","""event"",""trial"",""time""
""fullscreenenter"",""1"",""1931""
","
","
","""event"",""trial"",""time""
""fullscreenenter"",""1"",""1931""
","
","","","","","","1639","images/goat7.png","","","memory_trial","3","maybe_new",""
"html-keyboard-response","231","441812","0.0-18.0-0.93","4264","approach_avoid_sv1","""event"",""trial"",""time""
""fullscreenenter"",""1"",""1931""
","
","
","""event"",""trial"",""time""
""fullscreenenter"",""1"",""1931""
","
","","","","","","null","<div style=""font-size:60px;"">+</div>","null","","fixation","","",""
"memory-trial","232","443768","0.0-18.0-1.93","4264","approach_avoid_sv1","""event"",""trial"",""time""
""fullscreenenter"",""1"",""1931""
","
","
","""event"",""trial"",""time""
""fullscreenenter"",""1"",""1931""
","
","","","","","","955","images/bed4.png","","","memory_trial","1","definitely_old",""
"html-keyboard-response","233","444269","0.0-18.0-0.94","4264","approach_avoid_sv1","""event"",""trial"",""time""
""fullscreenenter"",""1"",""1931""
","
","
","""event"",""trial"",""time""
""fullscreenenter"",""1"",""1931""
","
","","","","","","null","<div style=""font-size:60px;"">+</div>","null","","fixation","","",""
"memory-trial","234","446265","0.0-18.0-1.94","4264","approach_avoid_sv1","""event"",""trial"",""time""
""fullscreenenter"",""1"",""1931""
","
","
","""event"",""trial"",""time""
""fullscreenenter"",""1"",""1931""
","
","","","","","","994.0000000000582","images/cat2.png","","","memory_trial","3","maybe_new",""
"html-keyboard-response","235","446766","0.0-18.0-0.95","4264","approach_avoid_sv1","""event"",""trial"",""time""
""fullscreenenter"",""1"",""1931""
","
","
","""event"",""trial"",""time""
""fullscreenenter"",""1"",""1931""
","
","","","","","","null","<div style=""font-size:60px;"">+</div>","null","","fixation","","",""
"memory-trial","236","450108","0.0-18.0-1.95","4264","approach_avoid_sv1","""event"",""trial"",""time""
""fullscreenenter"",""1"",""1931""
","
","
","""event"",""trial"",""time""
""fullscreenenter"",""1"",""1931""
","
","","","","","","2341","images/orange6.png","","","memory_trial","1","definitely_old",""
"html-keyboard-response","237","450609","0.0-18.0-0.96","4264","approach_avoid_sv1","""event"",""trial"",""time""
""fullscreenenter"",""1"",""1931""
","
","
","""event"",""trial"",""time""
""fullscreenenter"",""1"",""1931""
","
","","","","","","null","<div style=""font-size:60px;"">+</div>","null","","fixation","","",""
"memory-trial","238","452524","0.0-18.0-1.96","4264","approach_avoid_sv1","""event"",""trial"",""time""
""fullscreenenter"",""1"",""1931""
","
","
","""event"",""trial"",""time""
""fullscreenenter"",""1"",""1931""
","
","","","","","","912","images/horse6.png","","","memory_trial","2","maybe_old",""
"html-keyboard-response","239","453025","0.0-18.0-0.97","4264","approach_avoid_sv1","""event"",""trial"",""time""
""fullscreenenter"",""1"",""1931""
","
","
","""event"",""trial"",""time""
""fullscreenenter"",""1"",""1931""
","
","","","","","","null","<div style=""font-size:60px;"">+</div>","null","","fixation","","",""
"memory-trial","240","455395","0.0-18.0-1.97","4264","approach_avoid_sv1","""event"",""trial"",""time""
""fullscreenenter"",""1"",""1931""
","
","
","""event"",""trial"",""time""
""fullscreenenter"",""1"",""1931""
","
","","","","","","1369.0000000000582","images/train5.png","","","memory_trial","4","definitely_new",""
"html-keyboard-response","241","455897","0.0-18.0-0.98","4264","approach_avoid_sv1","""event"",""trial"",""time""
""fullscreenenter"",""1"",""1931""
","
","
","""event"",""trial"",""time""
""fullscreenenter"",""1"",""1931""
","
","","","","","","null","<div style=""font-size:60px;"">+</div>","null","","fixation","","",""
"memory-trial","242","457694","0.0-18.0-1.98","4264","approach_avoid_sv1","""event"",""trial"",""time""
""fullscreenenter"",""1"",""1931""
","
","
","""event"",""trial"",""time""
""fullscreenenter"",""1"",""1931""
","
","","","","","","796","images/cactus2.png","","","memory_trial","1","definitely_old",""
"html-keyboard-response","243","458196","0.0-18.0-0.99","4264","approach_avoid_sv1","""event"",""trial"",""time""
""fullscreenenter"",""1"",""1931""
","
","
","""event"",""trial"",""time""
""fullscreenenter"",""1"",""1931""
","
","","","","","","null","<div style=""font-size:60px;"">+</div>","null","","fixation","","",""
"memory-trial","244","460257","0.0-18.0-1.99","4264","approach_avoid_sv1","""event"",""trial"",""time""
""fullscreenenter"",""1"",""1931""
","
","
","""event"",""trial"",""time""
""fullscreenenter"",""1"",""1931""
","
","","","","","","1060","images/goat3.png","","","memory_trial","4","definitely_new",""
"html-keyboard-response","245","460757","0.0-18.0-0.100","4264","approach_avoid_sv1","""event"",""trial"",""time""
""fullscreenenter"",""1"",""1931""
","
","
","""event"",""trial"",""time""
""fullscreenenter"",""1"",""1931""
","
","","","","","","null","<div style=""font-size:60px;"">+</div>","null","","fixation","","",""
"memory-trial","246","462800","0.0-18.0-1.100","4264","approach_avoid_sv1","""event"",""trial"",""time""
""fullscreenenter"",""1"",""1931""
","
","
","""event"",""trial"",""time""
""fullscreenenter"",""1"",""1931""
","
","","","","","","1039","images/horse7.png","","","memory_trial","2","maybe_old",""
"html-keyboard-response","247","463301","0.0-18.0-0.101","4264","approach_avoid_sv1","""event"",""trial"",""time""
""fullscreenenter"",""1"",""1931""
","
","
","""event"",""trial"",""time""
""fullscreenenter"",""1"",""1931""
","
","","","","","","null","<div style=""font-size:60px;"">+</div>","null","","fixation","","",""
"memory-trial","248","465752","0.0-18.0-1.101","4264","approach_avoid_sv1","""event"",""trial"",""time""
""fullscreenenter"",""1"",""1931""
","
","
","""event"",""trial"",""time""
""fullscreenenter"",""1"",""1931""
","
","","","","","","1450.0000000000582","images/dog3.png","","","memory_trial","1","definitely_old",""
"html-keyboard-response","249","466253","0.0-18.0-0.102","4264","approach_avoid_sv1","""event"",""trial"",""time""
""fullscreenenter"",""1"",""1931""
","
","
","""event"",""trial"",""time""
""fullscreenenter"",""1"",""1931""
","
","","","","","","null","<div style=""font-size:60px;"">+</div>","null","","fixation","","",""
"memory-trial","250","469067","0.0-18.0-1.102","4264","approach_avoid_sv1","""event"",""trial"",""time""
""fullscreenenter"",""1"",""1931""
","
","
","""event"",""trial"",""time""
""fullscreenenter"",""1"",""1931""
","
","","","","","","1813.0000000000582","images/apple1.png","","","memory_trial","3","maybe_new",""
"html-keyboard-response","251","469568","0.0-18.0-0.103","4264","approach_avoid_sv1","""event"",""trial"",""time""
""fullscreenenter"",""1"",""1931""
","
","
","""event"",""trial"",""time""
""fullscreenenter"",""1"",""1931""
","
","","","","","","null","<div style=""font-size:60px;"">+</div>","null","","fixation","","",""
"memory-trial","252","472715","0.0-18.0-1.103","4264","approach_avoid_sv1","""event"",""trial"",""time""
""fullscreenenter"",""1"",""1931""
","
","
","""event"",""trial"",""time""
""fullscreenenter"",""1"",""1931""
","
","","","","","","2145","images/cow8.png","","","memory_trial","4","definitely_new",""
"html-keyboard-response","253","473216","0.0-18.0-0.104","4264","approach_avoid_sv1","""event"",""trial"",""time""
""fullscreenenter"",""1"",""1931""
","
","
","""event"",""trial"",""time""
""fullscreenenter"",""1"",""1931""
","
","","","","","","null","<div style=""font-size:60px;"">+</div>","null","","fixation","","",""
"memory-trial","254","475114","0.0-18.0-1.104","4264","approach_avoid_sv1","""event"",""trial"",""time""
""fullscreenenter"",""1"",""1931""
","
","
","""event"",""trial"",""time""
""fullscreenenter"",""1"",""1931""
","
","","","","","","897","images/train7.png","","","memory_trial","4","definitely_new",""
"html-keyboard-response","255","475616","0.0-18.0-0.105","4264","approach_avoid_sv1","""event"",""trial"",""time""
""fullscreenenter"",""1"",""1931""
","
","
","""event"",""trial"",""time""
""fullscreenenter"",""1"",""1931""
","
","","","","","","null","<div style=""font-size:60px;"">+</div>","null","","fixation","","",""
"memory-trial","256","477917","0.0-18.0-1.105","4264","approach_avoid_sv1","""event"",""trial"",""time""
""fullscreenenter"",""1"",""1931""
","
","
","""event"",""trial"",""time""
""fullscreenenter"",""1"",""1931""
","
","","","","","","1300","images/banana4.png","","","memory_trial","1","definitely_old",""
"html-keyboard-response","257","478418","0.0-18.0-0.106","4264","approach_avoid_sv1","""event"",""trial"",""time""
""fullscreenenter"",""1"",""1931""
","
","
","""event"",""trial"",""time""
""fullscreenenter"",""1"",""1931""
","
","","","","","","null","<div style=""font-size:60px;"">+</div>","null","","fixation","","",""
"memory-trial","258","480517","0.0-18.0-1.106","4264","approach_avoid_sv1","""event"",""trial"",""time""
""fullscreenenter"",""1"",""1931""
","
","
","""event"",""trial"",""time""
""fullscreenenter"",""1"",""1931""
","
","","","","","","1097","images/cactus5.png","","","memory_trial","2","maybe_old",""
"html-keyboard-response","259","481018","0.0-18.0-0.107","4264","approach_avoid_sv1","""event"",""trial"",""time""
""fullscreenenter"",""1"",""1931""
","
","
","""event"",""trial"",""time""
""fullscreenenter"",""1"",""1931""
","
","","","","","","null","<div style=""font-size:60px;"">+</div>","null","","fixation","","",""
"memory-trial","260","482979","0.0-18.0-1.107","4264","approach_avoid_sv1","""event"",""trial"",""time""
""fullscreenenter"",""1"",""1931""
","
","
","""event"",""trial"",""time""
""fullscreenenter"",""1"",""1931""
","
","","","","","","960.9999999999418","images/orange1.png","","","memory_trial","3","maybe_new",""
"html-keyboard-response","261","483480","0.0-18.0-0.108","4264","approach_avoid_sv1","""event"",""trial"",""time""
""fullscreenenter"",""1"",""1931""
","
","
","""event"",""trial"",""time""
""fullscreenenter"",""1"",""1931""
","
","","","","","","null","<div style=""font-size:60px;"">+</div>","null","","fixation","","",""
"memory-trial","262","485354","0.0-18.0-1.108","4264","approach_avoid_sv1","""event"",""trial"",""time""
""fullscreenenter"",""1"",""1931""
","
","
","""event"",""trial"",""time""
""fullscreenenter"",""1"",""1931""
","
","","","","","","873","images/flower3.png","","","memory_trial","4","definitely_new",""
"html-keyboard-response","263","485855","0.0-18.0-0.109","4264","approach_avoid_sv1","""event"",""trial"",""time""
""fullscreenenter"",""1"",""1931""
","
","
","""event"",""trial"",""time""
""fullscreenenter"",""1"",""1931""
","
","","","","","","null","<div style=""font-size:60px;"">+</div>","null","","fixation","","",""
"memory-trial","264","489535","0.0-18.0-1.109","4264","approach_avoid_sv1","""event"",""trial"",""time""
""fullscreenenter"",""1"",""1931""
","
","
","""event"",""trial"",""time""
""fullscreenenter"",""1"",""1931""
","
","","","","","","2678","images/straw3.png","","","memory_trial","3","maybe_new",""
"html-keyboard-response","265","490036","0.0-18.0-0.110","4264","approach_avoid_sv1","""event"",""trial"",""time""
""fullscreenenter"",""1"",""1931""
","
","
","""event"",""trial"",""time""
""fullscreenenter"",""1"",""1931""
","
","","","","","","null","<div style=""font-size:60px;"">+</div>","null","","fixation","","",""
"memory-trial","266","492126","0.0-18.0-1.110","4264","approach_avoid_sv1","""event"",""trial"",""time""
""fullscreenenter"",""1"",""1931""
","
","
","""event"",""trial"",""time""
""fullscreenenter"",""1"",""1931""
","
","","","","","","1087.9999999999418","images/horse2.png","","","memory_trial","1","definitely_old",""
"html-keyboard-response","267","492627","0.0-18.0-0.111","4264","approach_avoid_sv1","""event"",""trial"",""time""
""fullscreenenter"",""1"",""1931""
","
","
","""event"",""trial"",""time""
""fullscreenenter"",""1"",""1931""
","
","","","","","","null","<div style=""font-size:60px;"">+</div>","null","","fixation","","",""
"memory-trial","268","494706","0.0-18.0-1.111","4264","approach_avoid_sv1","""event"",""trial"",""time""
""fullscreenenter"",""1"",""1931""
","
","
","""event"",""trial"",""time""
""fullscreenenter"",""1"",""1931""
","
","","","","","","1077","images/chair4.png","","","memory_trial","4","definitely_new",""
"html-keyboard-response","269","495207","0.0-18.0-0.112","4264","approach_avoid_sv1","""event"",""trial"",""time""
""fullscreenenter"",""1"",""1931""
","
","
","""event"",""trial"",""time""
""fullscreenenter"",""1"",""1931""
","
","","","","","","null","<div style=""font-size:60px;"">+</div>","null","","fixation","","",""
"memory-trial","270","499406","0.0-18.0-1.112","4264","approach_avoid_sv1","""event"",""trial"",""time""
""fullscreenenter"",""1"",""1931""
","
","
","""event"",""trial"",""time""
""fullscreenenter"",""1"",""1931""
","
","","","","","","3197.999999999942","images/tree4.png","","","memory_trial","1","definitely_old",""
"html-keyboard-response","271","499907","0.0-18.0-0.113","4264","approach_avoid_sv1","""event"",""trial"",""time""
""fullscreenenter"",""1"",""1931""
","
","
","""event"",""trial"",""time""
""fullscreenenter"",""1"",""1931""
","
","","","","","","null","<div style=""font-size:60px;"">+</div>","null","","fixation","","",""
"memory-trial","272","502123","0.0-18.0-1.113","4264","approach_avoid_sv1","""event"",""trial"",""time""
""fullscreenenter"",""1"",""1931""
","
","
","""event"",""trial"",""time""
""fullscreenenter"",""1"",""1931""
","
","","","","","","1214","images/table8.png","","","memory_trial","2","maybe_old",""
"html-keyboard-response","273","502625","0.0-18.0-0.114","4264","approach_avoid_sv1","""event"",""trial"",""time""
""fullscreenenter"",""1"",""1931""
","
","
","""event"",""trial"",""time""
""fullscreenenter"",""1"",""1931""
","
","","","","","","null","<div style=""font-size:60px;"">+</div>","null","","fixation","","",""
"memory-trial","274","505062","0.0-18.0-1.114","4264","approach_avoid_sv1","""event"",""trial"",""time""
""fullscreenenter"",""1"",""1931""
","
","
","""event"",""trial"",""time""
""fullscreenenter"",""1"",""1931""
","
","","","","","","1435.9999999999418","images/cow7.png","","","memory_trial","4","definitely_new",""
"html-keyboard-response","275","505563","0.0-18.0-0.115","4264","approach_avoid_sv1","""event"",""trial"",""time""
""fullscreenenter"",""1"",""1931""
","
","
","""event"",""trial"",""time""
""fullscreenenter"",""1"",""1931""
","
","","","","","","null","<div style=""font-size:60px;"">+</div>","null","","fixation","","",""
"memory-trial","276","507356","0.0-18.0-1.115","4264","approach_avoid_sv1","""event"",""trial"",""time""
""fullscreenenter"",""1"",""1931""
","
","
","""event"",""trial"",""time""
""fullscreenenter"",""1"",""1931""
","
","","","","","","791","images/rabbit5.png","","","memory_trial","1","definitely_old",""
"html-keyboard-response","277","507858","0.0-18.0-0.116","4264","approach_avoid_sv1","""event"",""trial"",""time""
""fullscreenenter"",""1"",""1931""
","
","
","""event"",""trial"",""time""
""fullscreenenter"",""1"",""1931""
","
","","","","","","null","<div style=""font-size:60px;"">+</div>","null","","fixation","","",""
"memory-trial","278","509501","0.0-18.0-1.116","4264","approach_avoid_sv1","""event"",""trial"",""time""
""fullscreenenter"",""1"",""1931""
","
","
","""event"",""trial"",""time""
""fullscreenenter"",""1"",""1931""
","
","","","","","","641","images/flower1.png","","","memory_trial","4","definitely_new",""
"html-keyboard-response","279","510002","0.0-18.0-0.117","4264","approach_avoid_sv1","""event"",""trial"",""time""
""fullscreenenter"",""1"",""1931""
","
","
","""event"",""trial"",""time""
""fullscreenenter"",""1"",""1931""
","
","","","","","","null","<div style=""font-size:60px;"">+</div>","null","","fixation","","",""
"memory-trial","280","511984","0.0-18.0-1.117","4264","approach_avoid_sv1","""event"",""trial"",""time""
""fullscreenenter"",""1"",""1931""
","
","
","""event"",""trial"",""time""
""fullscreenenter"",""1"",""1931""
","
","","","","","","981.0000000000582","images/table7.png","","","memory_trial","2","maybe_old",""
"html-keyboard-response","281","512485","0.0-18.0-0.118","4264","approach_avoid_sv1","""event"",""trial"",""time""
""fullscreenenter"",""1"",""1931""
","
","
","""event"",""trial"",""time""
""fullscreenenter"",""1"",""1931""
","
","","","","","","null","<div style=""font-size:60px;"">+</div>","null","","fixation","","",""
"memory-trial","282","515145","0.0-18.0-1.118","4264","approach_avoid_sv1","""event"",""trial"",""time""
""fullscreenenter"",""1"",""1931""
","
","
","""event"",""trial"",""time""
""fullscreenenter"",""1"",""1931""
","
","","","","","","1659.9999999999418","images/plane3.png","","","memory_trial","4","definitely_new",""
"html-keyboard-response","283","515647","0.0-18.0-0.119","4264","approach_avoid_sv1","""event"",""trial"",""time""
""fullscreenenter"",""1"",""1931""
","
","
","""event"",""trial"",""time""
""fullscreenenter"",""1"",""1931""
","
","","","","","","null","<div style=""font-size:60px;"">+</div>","null","","fixation","","",""
"memory-trial","284","518138","0.0-18.0-1.119","4264","approach_avoid_sv1","""event"",""trial"",""time""
""fullscreenenter"",""1"",""1931""
","
","
","""event"",""trial"",""time""
""fullscreenenter"",""1"",""1931""
","
","","","","","","1491","images/chair3.png","","","memory_trial","4","definitely_new",""
"html-keyboard-response","285","518639","0.0-18.0-0.120","4264","approach_avoid_sv1","""event"",""trial"",""time""
""fullscreenenter"",""1"",""1931""
","
","
","""event"",""trial"",""time""
""fullscreenenter"",""1"",""1931""
","
","","","","","","null","<div style=""font-size:60px;"">+</div>","null","","fixation","","",""
"memory-trial","286","521259","0.0-18.0-1.120","4264","approach_avoid_sv1","""event"",""trial"",""time""
""fullscreenenter"",""1"",""1931""
","
","
","""event"",""trial"",""time""
""fullscreenenter"",""1"",""1931""
","
","","","","","","1619","images/bed5.png","","","memory_trial","2","maybe_old",""
"html-keyboard-response","287","521760","0.0-18.0-0.121","4264","approach_avoid_sv1","""event"",""trial"",""time""
""fullscreenenter"",""1"",""1931""
","
","
","""event"",""trial"",""time""
""fullscreenenter"",""1"",""1931""
","
","","","","","","null","<div style=""font-size:60px;"">+</div>","null","","fixation","","",""
"memory-trial","288","523634","0.0-18.0-1.121","4264","approach_avoid_sv1","""event"",""trial"",""time""
""fullscreenenter"",""1"",""1931""
","
","
","""event"",""trial"",""time""
""fullscreenenter"",""1"",""1931""
","
","","","","","","871.9999999999418","images/rabbit6.png","","","memory_trial","2","maybe_old",""
"html-keyboard-response","289","524136","0.0-18.0-0.122","4264","approach_avoid_sv1","""event"",""trial"",""time""
""fullscreenenter"",""1"",""1931""
","
","
","""event"",""trial"",""time""
""fullscreenenter"",""1"",""1931""
","
","","","","","","null","<div style=""font-size:60px;"">+</div>","null","","fixation","","",""
"memory-trial","290","526143","0.0-18.0-1.122","4264","approach_avoid_sv1","""event"",""trial"",""time""
""fullscreenenter"",""1"",""1931""
","
","
","""event"",""trial"",""time""
""fullscreenenter"",""1"",""1931""
","
","","","","","","1005","images/apple4.png","","","memory_trial","4","definitely_new",""
"html-keyboard-response","291","526645","0.0-18.0-0.123","4264","approach_avoid_sv1","""event"",""trial"",""time""
""fullscreenenter"",""1"",""1931""
","
","
","""event"",""trial"",""time""
""fullscreenenter"",""1"",""1931""
","
","","","","","","null","<div style=""font-size:60px;"">+</div>","null","","fixation","","",""
"memory-trial","292","529419","0.0-18.0-1.123","4264","approach_avoid_sv1","""event"",""trial"",""time""
""fullscreenenter"",""1"",""1931""
","
","
","""event"",""trial"",""time""
""fullscreenenter"",""1"",""1931""
","
","","","","","","1773","images/orange5.png","","","memory_trial","2","maybe_old",""
"html-keyboard-response","293","529921","0.0-18.0-0.124","4264","approach_avoid_sv1","""event"",""trial"",""time""
""fullscreenenter"",""1"",""1931""
","
","
","""event"",""trial"",""time""
""fullscreenenter"",""1"",""1931""
","
","","","","","","null","<div style=""font-size:60px;"">+</div>","null","","fixation","","",""
"memory-trial","294","532000","0.0-18.0-1.124","4264","approach_avoid_sv1","""event"",""trial"",""time""
""fullscreenenter"",""1"",""1931""
","
","
","""event"",""trial"",""time""
""fullscreenenter"",""1"",""1931""
","
","","","","","","1078","images/orange7.png","","","memory_trial","1","definitely_old",""
"html-keyboard-response","295","532501","0.0-18.0-0.125","4264","approach_avoid_sv1","""event"",""trial"",""time""
""fullscreenenter"",""1"",""1931""
","
","
","""event"",""trial"",""time""
""fullscreenenter"",""1"",""1931""
","
","","","","","","null","<div style=""font-size:60px;"">+</div>","null","","fixation","","",""
"memory-trial","296","534621","0.0-18.0-1.125","4264","approach_avoid_sv1","""event"",""trial"",""time""
""fullscreenenter"",""1"",""1931""
","
","
","""event"",""trial"",""time""
""fullscreenenter"",""1"",""1931""
","
","","","","","","1118","images/dog1.png","","","memory_trial","1","definitely_old",""
"html-keyboard-response","297","535122","0.0-18.0-0.126","4264","approach_avoid_sv1","""event"",""trial"",""time""
""fullscreenenter"",""1"",""1931""
","
","
","""event"",""trial"",""time""
""fullscreenenter"",""1"",""1931""
","
","","","","","","null","<div style=""font-size:60px;"">+</div>","null","","fixation","","",""
"memory-trial","298","536860","0.0-18.0-1.126","4264","approach_avoid_sv1","""event"",""trial"",""time""
""fullscreenenter"",""1"",""1931""
","
","
","""event"",""trial"",""time""
""fullscreenenter"",""1"",""1931""
","
","","","","","","737","images/flower5.png","","","memory_trial","4","definitely_new",""
"html-keyboard-response","299","537361","0.0-18.0-0.127","4264","approach_avoid_sv1","""event"",""trial"",""time""
""fullscreenenter"",""1"",""1931""
","
","
","""event"",""trial"",""time""
""fullscreenenter"",""1"",""1931""
","
","","","","","","null","<div style=""font-size:60px;"">+</div>","null","","fixation","","",""
"memory-trial","300","540243","0.0-18.0-1.127","4264","approach_avoid_sv1","""event"",""trial"",""time""
""fullscreenenter"",""1"",""1931""
","
","
","""event"",""trial"",""time""
""fullscreenenter"",""1"",""1931""
","
","","","","","","1880.9999999998836","images/rabbit8.png","","","memory_trial","3","maybe_new",""
"html-keyboard-response","301","540744","0.0-18.0-0.128","4264","approach_avoid_sv1","""event"",""trial"",""time""
""fullscreenenter"",""1"",""1931""
","
","
