"trial_type","trial_index","time_elapsed","internal_node_id","subject_id","task_version","interactions","blur_events","focus_events","fullscreenenter_events","fullscreenexit_events","success","timeout","failed_images","failed_audio","failed_video","rt","stimulus","response","button_pressed","task_part","key_press","answer","correct"
"pavlovia","0","15","0.0-0.0","4175","approach_avoid_sv1","""event"",""trial"",""time""
""fullscreenenter"",""1"",""2407""
","
","
","""event"",""trial"",""time""
""fullscreenenter"",""1"",""2407""
","
","","","","","","","","","","","","",""
"fullscreen","1","3356","0.0-1.0","4175","approach_avoid_sv1","""event"",""trial"",""time""
""fullscreenenter"",""1"",""2407""
","
","
","""event"",""trial"",""time""
""fullscreenenter"",""1"",""2407""
","
","true","","","","","","","","","","","",""
"preload","2","4863","0.0-2.0","4175","approach_avoid_sv1","""event"",""trial"",""time""
""fullscreenenter"",""1"",""2407""
","
","
","""event"",""trial"",""time""
""fullscreenenter"",""1"",""2407""
","
","true","false","[]","[]","[]","","","","","","","",""
"preload","3","6055","0.0-3.0","4175","approach_avoid_sv1","""event"",""trial"",""time""
""fullscreenenter"",""1"",""2407""
","
","
","""event"",""trial"",""time""
""fullscreenenter"",""1"",""2407""
","
","true","false","[]","[]","[]","","","","","","","",""
"preload","4","6320","0.0-4.0","4175","approach_avoid_sv1","""event"",""trial"",""time""
""fullscreenenter"",""1"",""2407""
","
","
","""event"",""trial"",""time""
""fullscreenenter"",""1"",""2407""
","
","true","false","[]","[]","[]","","","","","","","",""
"audio-keyboard-response","5","12308","0.0-5.0","4175","approach_avoid_sv1","""event"",""trial"",""time""
""fullscreenenter"",""1"",""2407""
","
","
","""event"",""trial"",""time""
""fullscreenenter"",""1"",""2407""
","
","","","","","","5861.333333333334","audio/beep_loop.wav"," ","","","","",""
"audio-button-response","6","17055","0.0-6.0","4175","approach_avoid_sv1","""event"",""trial"",""time""
""fullscreenenter"",""1"",""2407""
","
","
","""event"",""trial"",""time""
""fullscreenenter"",""1"",""2407""
","
","","","","","","4741","audio/turtle.wav","3","","","","",""
"audio-button-response","7","19905","0.0-7.0","4175","approach_avoid_sv1","""event"",""trial"",""time""
""fullscreenenter"",""1"",""2407""
","
","
","""event"",""trial"",""time""
""fullscreenenter"",""1"",""2407""
","
","","","","","","1840","audio/shark.wav","2","","","","",""
"preload","8","23110","0.0-8.0","4175","approach_avoid_sv1","""event"",""trial"",""time""
""fullscreenenter"",""1"",""2407""
","
","
","""event"",""trial"",""time""
""fullscreenenter"",""1"",""2407""
","
","true","false","[]","[]","[]","","","","","","","",""
"learning-instructions","9","29243","0.0-9.0-0.0","4175","approach_avoid_sv1","""event"",""trial"",""time""
""fullscreenenter"",""1"",""2407""
","
","
","""event"",""trial"",""time""
""fullscreenenter"",""1"",""2407""
","
","","","","","","1654.5","<p> Welcome back! </p><p> Last week, you had to make choices about lots of different items.  </p>","","0","instructions","","",""
"learning-instructions","10","35505","0.0-9.0-0.1","4175","approach_avoid_sv1","""event"",""trial"",""time""
""fullscreenenter"",""1"",""2407""
","
","
","""event"",""trial"",""time""
""fullscreenenter"",""1"",""2407""
","
","","","","","","2147.599999964237","<p> Today, we are going to ask you to try to remember all the items. </p>","","0","instructions","","",""
"learning-instructions","11","46210","0.0-9.0-0.2","4175","approach_avoid_sv1","""event"",""trial"",""time""
""fullscreenenter"",""1"",""2407""
","
","
","""event"",""trial"",""time""
""fullscreenenter"",""1"",""2407""
","
","","","","","","561.9000000357628","<p> On every trial, you will see an image. </p><p> The image may be an OLD image you saw during the games last week or it may be a NEW image that was not presented. </p>","","0","instructions","","",""
"learning-instructions","12","56286","0.0-9.0-0.3","4175","approach_avoid_sv1","""event"",""trial"",""time""
""fullscreenenter"",""1"",""2407""
","
","
","""event"",""trial"",""time""
""fullscreenenter"",""1"",""2407""
","
","","","","","","1567.1000000238419","<p> You need to select whether the image is:  </p><p>  'Definitely old', 'Maybe old', 'Maybe new', or 'Definitely new.'  </p><div class=""mem-choice-instructions-grid""><div class=""choice-option"" id=""choice-option-1"" ><img src=""images/definitely_old_1.png"" id=""choice-option-img-1"" class=""choice-option-img"" stage=""1""></div><div class=""choice-option"" id=""choice-option-2"" ><img src=""images/maybe_old_1.png"" id=""choice-option-img-2"" class=""choice-option-img"" stage=""1""></div><div class=""choice-option"" id=""choice-option-3"" ><img src=""images/maybe_new_1.png"" id=""choice-option-img-3"" class=""choice-option-img"" stage=""1""></div><div class=""choice-option"" id=""choice-option-4"" > <img src=""images/definitely_new_1.png"" id=""choice-option-img-4"" class=""choice-option-img"" stage=""1""></div></div>","","0","instructions","","",""
"learning-instructions","13","65480","0.0-9.0-0.4","4175","approach_avoid_sv1","""event"",""trial"",""time""
""fullscreenenter"",""1"",""2407""
","
","
","""event"",""trial"",""time""
""fullscreenenter"",""1"",""2407""
","
","","","","","","2681.7999999523163","<p> You should use the 1, 2, 3, and 4 keys to make your responses.  </p><div class=""mem-choice-instructions-grid""><div class=""choice-option"" id=""choice-option-1"" ><img src=""images/definitely_old.png"" id=""choice-option-img-1"" class=""choice-option-img"" stage=""1""></div><div class=""choice-option"" id=""choice-option-2"" ><img src=""images/maybe_old.png"" id=""choice-option-img-2"" class=""choice-option-img"" stage=""1""></div><div class=""choice-option"" id=""choice-option-3"" ><img src=""images/maybe_new.png"" id=""choice-option-img-3"" class=""choice-option-img"" stage=""1""></div><div class=""choice-option"" id=""choice-option-4"" > <img src=""images/definitely_new.png"" id=""choice-option-img-4"" class=""choice-option-img"" stage=""1""></div></div>","","0","instructions","","",""
"learning-instructions","14","75537","0.0-9.0-0.5","4175","approach_avoid_sv1","""event"",""trial"",""time""
""fullscreenenter"",""1"",""2407""
","
","
","""event"",""trial"",""time""
""fullscreenenter"",""1"",""2407""
","
","","","","","","3710.2999999523163","<p> You will have 10 seconds to make each response.  </p><p>  Make sure to respond before time runs out! </p>","","0","instructions","","",""
"learning-instructions","15","83144","0.0-9.0-0.6","4175","approach_avoid_sv1","""event"",""trial"",""time""
""fullscreenenter"",""1"",""2407""
","
","
","""event"",""trial"",""time""
""fullscreenenter"",""1"",""2407""
","
","","","","","","527.6000000238419","<p> Today, you will see each image ONCE only.  </p><p>  That means none of the images will repeat. </p>","","0","instructions","","",""
"learning-instructions","16","96254","0.0-9.0-0.7","4175","approach_avoid_sv1","""event"",""trial"",""time""
""fullscreenenter"",""1"",""2407""
","
","
","""event"",""trial"",""time""
""fullscreenenter"",""1"",""2407""
","
","","","","","","437.30000001192093","<p> Before you play the real game, it is time to practice. </p><p>  Just like in the real game, some of the images in the practice will be ones you have seen before. </p><p>  Others will be entirely new. </p>","","0","instructions","","",""
"html-button-response","17","98503","0.0-10.0","4175","approach_avoid_sv1","""event"",""trial"",""time""
""fullscreenenter"",""1"",""2407""
","
","
","""event"",""trial"",""time""
""fullscreenenter"",""1"",""2407""
","
","","","","","","2134.199999988079","<p> Ready to practice? </p><p> Remember, use the 1, 2, 3, and 4 keys to make your responses. </p>","0","","instructions","","",""
"html-keyboard-response","18","99128","0.0-11.0-0.0","4175","approach_avoid_sv1","""event"",""trial"",""time""
""fullscreenenter"",""1"",""2407""
","
","
","""event"",""trial"",""time""
""fullscreenenter"",""1"",""2407""
","
","","","","","","null","<div style=""font-size:60px;"">+</div>","null","","fixation","","",""
"memory-trial","19","101423","0.0-11.0-1.0","4175","approach_avoid_sv1","""event"",""trial"",""time""
""fullscreenenter"",""1"",""2407""
","
","
","""event"",""trial"",""time""
""fullscreenenter"",""1"",""2407""
","
","","","","","","1265.8999999761581","images/racket1.png","","","practice","1","definitely_old",""
"html-keyboard-response","20","101942","0.0-11.0-0.1","4175","approach_avoid_sv1","""event"",""trial"",""time""
""fullscreenenter"",""1"",""2407""
","
","
","""event"",""trial"",""time""
""fullscreenenter"",""1"",""2407""
","
","","","","","","null","<div style=""font-size:60px;"">+</div>","null","","fixation","","",""
"memory-trial","21","104752","0.0-11.0-1.1","4175","approach_avoid_sv1","""event"",""trial"",""time""
""fullscreenenter"",""1"",""2407""
","
","
","""event"",""trial"",""time""
""fullscreenenter"",""1"",""2407""
","
","","","","","","1787.9000000357628","images/ball2.png","","","practice","2","maybe_old",""
"html-keyboard-response","22","105267","0.0-11.0-0.2","4175","approach_avoid_sv1","""event"",""trial"",""time""
""fullscreenenter"",""1"",""2407""
","
","
","""event"",""trial"",""time""
""fullscreenenter"",""1"",""2407""
","
","","","","","","null","<div style=""font-size:60px;"">+</div>","null","","fixation","","",""
"memory-trial","23","107543","0.0-11.0-1.2","4175","approach_avoid_sv1","""event"",""trial"",""time""
""fullscreenenter"",""1"",""2407""
","
","
","""event"",""trial"",""time""
""fullscreenenter"",""1"",""2407""
","
","","","","","","1253.7999999523163","images/racket2.png","","","practice","1","definitely_old",""
"html-keyboard-response","24","108057","0.0-11.0-0.3","4175","approach_avoid_sv1","""event"",""trial"",""time""
""fullscreenenter"",""1"",""2407""
","
","
","""event"",""trial"",""time""
""fullscreenenter"",""1"",""2407""
","
","","","","","","null","<div style=""font-size:60px;"">+</div>","null","","fixation","","",""
"memory-trial","25","110183","0.0-11.0-1.3","4175","approach_avoid_sv1","""event"",""trial"",""time""
""fullscreenenter"",""1"",""2407""
","
","
","""event"",""trial"",""time""
""fullscreenenter"",""1"",""2407""
","
","","","","","","1108.4000000357628","images/ball1.png","","","practice","1","definitely_old",""
"html-keyboard-response","26","110693","0.0-11.0-0.4","4175","approach_avoid_sv1","""event"",""trial"",""time""
""fullscreenenter"",""1"",""2407""
","
","
","""event"",""trial"",""time""
""fullscreenenter"",""1"",""2407""
","
","","","","","","null","<div style=""font-size:60px;"">+</div>","null","","fixation","","",""
"memory-trial","27","112862","0.0-11.0-1.4","4175","approach_avoid_sv1","""event"",""trial"",""time""
""fullscreenenter"",""1"",""2407""
","
","
","""event"",""trial"",""time""
""fullscreenenter"",""1"",""2407""
","
","","","","","","1155.699999988079","images/racket3.png","","","practice","1","definitely_old",""
"html-keyboard-response","28","113372","0.0-11.0-0.5","4175","approach_avoid_sv1","""event"",""trial"",""time""
""fullscreenenter"",""1"",""2407""
","
","
","""event"",""trial"",""time""
""fullscreenenter"",""1"",""2407""
","
","","","","","","null","<div style=""font-size:60px;"">+</div>","null","","fixation","","",""
"memory-trial","29","115358","0.0-11.0-1.5","4175","approach_avoid_sv1","""event"",""trial"",""time""
""fullscreenenter"",""1"",""2407""
","
","
","""event"",""trial"",""time""
""fullscreenenter"",""1"",""2407""
","
","","","","","","972.1000000238419","images/ball3.png","","","practice","4","definitely_new",""
"html-keyboard-response","30","115872","0.0-11.0-0.6","4175","approach_avoid_sv1","""event"",""trial"",""time""
""fullscreenenter"",""1"",""2407""
","
","
","""event"",""trial"",""time""
""fullscreenenter"",""1"",""2407""
","
","","","","","","null","<div style=""font-size:60px;"">+</div>","null","","fixation","","",""
"memory-trial","31","117827","0.0-11.0-1.6","4175","approach_avoid_sv1","""event"",""trial"",""time""
""fullscreenenter"",""1"",""2407""
","
","
","""event"",""trial"",""time""
""fullscreenenter"",""1"",""2407""
","
","","","","","","937.1999999880791","images/racket5.png","","","practice","1","definitely_old",""
"html-keyboard-response","32","118347","0.0-11.0-0.7","4175","approach_avoid_sv1","""event"",""trial"",""time""
""fullscreenenter"",""1"",""2407""
","
","
","""event"",""trial"",""time""
""fullscreenenter"",""1"",""2407""
","
","","","","","","null","<div style=""font-size:60px;"">+</div>","null","","fixation","","",""
"memory-trial","33","120896","0.0-11.0-1.7","4175","approach_avoid_sv1","""event"",""trial"",""time""
""fullscreenenter"",""1"",""2407""
","
","
","""event"",""trial"",""time""
""fullscreenenter"",""1"",""2407""
","
","","","","","","1529.300000011921","images/ball5.png","","","practice","2","maybe_old",""
"learning-instructions","34","133210","0.0-12.0-0.0","4175","approach_avoid_sv1","""event"",""trial"",""time""
""fullscreenenter"",""1"",""2407""
","
","
","""event"",""trial"",""time""
""fullscreenenter"",""1"",""2407""
","
","","","","","","5002.700000047684","<p> Great! You have completed the practice. </p><p> Before you start, we're going to ask you a few questions about how the game works.  </p>","","0","instructions","","",""
"preload","35","134860","0.0-13.0","4175","approach_avoid_sv1","""event"",""trial"",""time""
""fullscreenenter"",""1"",""2407""
","
","
","""event"",""trial"",""time""
""fullscreenenter"",""1"",""2407""
","
","true","false","[]","[]","[]","","","","","","","",""
"comp-q","36","142625","0.0-14.0-0.0","4175","approach_avoid_sv1","""event"",""trial"",""time""
""fullscreenenter"",""1"",""2407""
","
","
","""event"",""trial"",""time""
""fullscreenenter"",""1"",""2407""
","
","","","","","","1940.3999999761581","<p> <b> True or False? </b> </p><p> In this game, you will only see each image once. </p>","","0","comp_question","","","true"
"comp-q","37","153286","0.0-14.0-1.0","4175","approach_avoid_sv1","""event"",""trial"",""time""
""fullscreenenter"",""1"",""2407""
","
","
","""event"",""trial"",""time""
""fullscreenenter"",""1"",""2407""
","
","","","","","","4309.5","<p> <b> That's right! </b> You will see many different images <i> one time each </i> in this game. </p>","","0","comp_answer","","",""
"comp-q","38","160248","0.0-15.0-0.0","4175","approach_avoid_sv1","""event"",""trial"",""time""
""fullscreenenter"",""1"",""2407""
","
","
","""event"",""trial"",""time""
""fullscreenenter"",""1"",""2407""
","
","","","","","","1961.199999988079","<p> <b> True or False? </b> </p><p> You should use the mouse and click to make your response. </p>","","1","comp_question","","","true"
"comp-q","39","168119","0.0-15.0-1.0","4175","approach_avoid_sv1","""event"",""trial"",""time""
""fullscreenenter"",""1"",""2407""
","
","
","""event"",""trial"",""time""
""fullscreenenter"",""1"",""2407""
","
","","","","","","1375","<p><b> That's right! </b> You should use the '1', '2', '3', and '4' keys to make your response. </p>","","0","comp_answer","","",""
"comp-q","40","175305","0.0-16.0-0.0","4175","approach_avoid_sv1","""event"",""trial"",""time""
""fullscreenenter"",""1"",""2407""
","
","
","""event"",""trial"",""time""
""fullscreenenter"",""1"",""2407""
","
","","","","","","1498.800000011921","<p> <b> True or False? </b> </p><p> You will have as much time as you want to make each choice. </p>","","1","comp_question","","","true"
"comp-q","41","181785","0.0-16.0-1.0","4175","approach_avoid_sv1","""event"",""trial"",""time""
""fullscreenenter"",""1"",""2407""
","
","
","""event"",""trial"",""time""
""fullscreenenter"",""1"",""2407""
","
","","","","","","1777.6000000238419","<p> <b> That's right! </b> You will only have 10 seconds to make each choice. </p>","","0","comp_answer","","",""
"learning-instructions","42","191724","0.0-17.0","4175","approach_avoid_sv1","""event"",""trial"",""time""
""fullscreenenter"",""1"",""2407""
","
","
","""event"",""trial"",""time""
""fullscreenenter"",""1"",""2407""
","
","","","","","","1267.8999999761581","<p> Great! You are now ready to begin the game. </p><p> Remember, use the 1, 2, 3, and 4 keys to make your responses. </p>","","0","instructions","","",""
"html-keyboard-response","43","192341","0.0-18.0-0.0","4175","approach_avoid_sv1","""event"",""trial"",""time""
""fullscreenenter"",""1"",""2407""
","
","
","""event"",""trial"",""time""
""fullscreenenter"",""1"",""2407""
","
","","","","","","null","<div style=""font-size:60px;"">+</div>","null","","fixation","","",""
"memory-trial","44","194665","0.0-18.0-1.0","4175","approach_avoid_sv1","""event"",""trial"",""time""
""fullscreenenter"",""1"",""2407""
","
","
","""event"",""trial"",""time""
""fullscreenenter"",""1"",""2407""
","
","","","","","","1309.4000000357628","images/goat2.png","","","memory_trial","3","maybe_new",""
"html-keyboard-response","45","195191","0.0-18.0-0.1","4175","approach_avoid_sv1","""event"",""trial"",""time""
""fullscreenenter"",""1"",""2407""
","
","
","""event"",""trial"",""time""
""fullscreenenter"",""1"",""2407""
","
","","","","","","null","<div style=""font-size:60px;"">+</div>","null","","fixation","","",""
"memory-trial","46","197707","0.0-18.0-1.1","4175","approach_avoid_sv1","""event"",""trial"",""time""
""fullscreenenter"",""1"",""2407""
","
","
","""event"",""trial"",""time""
""fullscreenenter"",""1"",""2407""
","
","","","","","","1500.5","images/chair2.png","","","memory_trial","2","maybe_old",""
"html-keyboard-response","47","198221","0.0-18.0-0.2","4175","approach_avoid_sv1","""event"",""trial"",""time""
""fullscreenenter"",""1"",""2407""
","
","
","""event"",""trial"",""time""
""fullscreenenter"",""1"",""2407""
","
","","","","","","null","<div style=""font-size:60px;"">+</div>","null","","fixation","","",""
"memory-trial","48","200437","0.0-18.0-1.2","4175","approach_avoid_sv1","""event"",""trial"",""time""
""fullscreenenter"",""1"",""2407""
","
","
","""event"",""trial"",""time""
""fullscreenenter"",""1"",""2407""
","
","","","","","","1190.800000011921","images/rodent1.png","","","memory_trial","1","definitely_old",""
"html-keyboard-response","49","200946","0.0-18.0-0.3","4175","approach_avoid_sv1","""event"",""trial"",""time""
""fullscreenenter"",""1"",""2407""
","
","
","""event"",""trial"",""time""
""fullscreenenter"",""1"",""2407""
","
","","","","","","null","<div style=""font-size:60px;"">+</div>","null","","fixation","","",""
"memory-trial","50","202937","0.0-18.0-1.3","4175","approach_avoid_sv1","""event"",""trial"",""time""
""fullscreenenter"",""1"",""2407""
","
","
","""event"",""trial"",""time""
""fullscreenenter"",""1"",""2407""
","
","","","","","","966.5","images/sheep3.png","","","memory_trial","1","definitely_old",""
"html-keyboard-response","51","203457","0.0-18.0-0.4","4175","approach_avoid_sv1","""event"",""trial"",""time""
""fullscreenenter"",""1"",""2407""
","
","
","""event"",""trial"",""time""
""fullscreenenter"",""1"",""2407""
","
","","","","","","null","<div style=""font-size:60px;"">+</div>","null","","fixation","","",""
"memory-trial","52","206068","0.0-18.0-1.4","4175","approach_avoid_sv1","""event"",""trial"",""time""
""fullscreenenter"",""1"",""2407""
","
","
","""event"",""trial"",""time""
""fullscreenenter"",""1"",""2407""
","
","","","","","","1590.5999999642372","images/truck2.png","","","memory_trial","4","definitely_new",""
"html-keyboard-response","53","206581","0.0-18.0-0.5","4175","approach_avoid_sv1","""event"",""trial"",""time""
""fullscreenenter"",""1"",""2407""
","
","
","""event"",""trial"",""time""
""fullscreenenter"",""1"",""2407""
","
","","","","","","null","<div style=""font-size:60px;"">+</div>","null","","fixation","","",""
"memory-trial","54","209296","0.0-18.0-1.5","4175","approach_avoid_sv1","""event"",""trial"",""time""
""fullscreenenter"",""1"",""2407""
","
","
","""event"",""trial"",""time""
""fullscreenenter"",""1"",""2407""
","
","","","","","","1702.9000000357628","images/chair4.png","","","memory_trial","2","maybe_old",""
"html-keyboard-response","55","209812","0.0-18.0-0.6","4175","approach_avoid_sv1","""event"",""trial"",""time""
""fullscreenenter"",""1"",""2407""
","
","
","""event"",""trial"",""time""
""fullscreenenter"",""1"",""2407""
","
","","","","","","null","<div style=""font-size:60px;"">+</div>","null","","fixation","","",""
"memory-trial","56","212321","0.0-18.0-1.6","4175","approach_avoid_sv1","""event"",""trial"",""time""
""fullscreenenter"",""1"",""2407""
","
","
","""event"",""trial"",""time""
""fullscreenenter"",""1"",""2407""
","
","","","","","","1489.800000011921","images/sofa6.png","","","memory_trial","2","maybe_old",""
"html-keyboard-response","57","212831","0.0-18.0-0.7","4175","approach_avoid_sv1","""event"",""trial"",""time""
""fullscreenenter"",""1"",""2407""
","
","
","""event"",""trial"",""time""
""fullscreenenter"",""1"",""2407""
","
","","","","","","null","<div style=""font-size:60px;"">+</div>","null","","fixation","","",""
"memory-trial","58","214911","0.0-18.0-1.7","4175","approach_avoid_sv1","""event"",""trial"",""time""
""fullscreenenter"",""1"",""2407""
","
","
","""event"",""trial"",""time""
""fullscreenenter"",""1"",""2407""
","
","","","","","","1069.699999988079","images/goat5.png","","","memory_trial","1","definitely_old",""
"html-keyboard-response","59","215421","0.0-18.0-0.8","4175","approach_avoid_sv1","""event"",""trial"",""time""
""fullscreenenter"",""1"",""2407""
","
","
","""event"",""trial"",""time""
""fullscreenenter"",""1"",""2407""
","
","","","","","","null","<div style=""font-size:60px;"">+</div>","null","","fixation","","",""
"memory-trial","60","218682","0.0-18.0-1.8","4175","approach_avoid_sv1","""event"",""trial"",""time""
""fullscreenenter"",""1"",""2407""
","
","
","""event"",""trial"",""time""
""fullscreenenter"",""1"",""2407""
","
","","","","","","2246.100000023842","images/banana6.png","","","memory_trial","3","maybe_new",""
"html-keyboard-response","61","219196","0.0-18.0-0.9","4175","approach_avoid_sv1","""event"",""trial"",""time""
""fullscreenenter"",""1"",""2407""
","
","
","""event"",""trial"",""time""
""fullscreenenter"",""1"",""2407""
","
","","","","","","null","<div style=""font-size:60px;"">+</div>","null","","fixation","","",""
"memory-trial","62","221645","0.0-18.0-1.9","4175","approach_avoid_sv1","""event"",""trial"",""time""
""fullscreenenter"",""1"",""2407""
","
","
","""event"",""trial"",""time""
""fullscreenenter"",""1"",""2407""
","
","","","","","","1433.300000011921","images/dog4.png","","","memory_trial","2","maybe_old",""
"html-keyboard-response","63","222156","0.0-18.0-0.10","4175","approach_avoid_sv1","""event"",""trial"",""time""
""fullscreenenter"",""1"",""2407""
","
","
","""event"",""trial"",""time""
""fullscreenenter"",""1"",""2407""
","
","","","","","","null","<div style=""font-size:60px;"">+</div>","null","","fixation","","",""
"memory-trial","64","224506","0.0-18.0-1.10","4175","approach_avoid_sv1","""event"",""trial"",""time""
""fullscreenenter"",""1"",""2407""
","
","
","""event"",""trial"",""time""
""fullscreenenter"",""1"",""2407""
","
","","","","","","1333.7000000476837","images/tree3.png","","","memory_trial","1","definitely_old",""
"html-keyboard-response","65","225013","0.0-18.0-0.11","4175","approach_avoid_sv1","""event"",""trial"",""time""
""fullscreenenter"",""1"",""2407""
","
","
","""event"",""trial"",""time""
""fullscreenenter"",""1"",""2407""
","
","","","","","","null","<div style=""font-size:60px;"">+</div>","null","","fixation","","",""
"memory-trial","66","227536","0.0-18.0-1.11","4175","approach_avoid_sv1","""event"",""trial"",""time""
""fullscreenenter"",""1"",""2407""
","
","
","""event"",""trial"",""time""
""fullscreenenter"",""1"",""2407""
","
","","","","","","1506.0999999642372","images/rodent7.png","","","memory_trial","1","definitely_old",""
"html-keyboard-response","67","228055","0.0-18.0-0.12","4175","approach_avoid_sv1","""event"",""trial"",""time""
""fullscreenenter"",""1"",""2407""
","
","
","""event"",""trial"",""time""
""fullscreenenter"",""1"",""2407""
","
","","","","","","null","<div style=""font-size:60px;"">+</div>","null","","fixation","","",""
"memory-trial","68","230429","0.0-18.0-1.12","4175","approach_avoid_sv1","""event"",""trial"",""time""
""fullscreenenter"",""1"",""2407""
","
","
","""event"",""trial"",""time""
""fullscreenenter"",""1"",""2407""
","
","","","","","","1362","images/rodent6.png","","","memory_trial","1","definitely_old",""
"html-keyboard-response","69","230934","0.0-18.0-0.13","4175","approach_avoid_sv1","""event"",""trial"",""time""
""fullscreenenter"",""1"",""2407""
","
","
","""event"",""trial"",""time""
""fullscreenenter"",""1"",""2407""
","
","","","","","","null","<div style=""font-size:60px;"">+</div>","null","","fixation","","",""
"memory-trial","70","234005","0.0-18.0-1.13","4175","approach_avoid_sv1","""event"",""trial"",""time""
""fullscreenenter"",""1"",""2407""
","
","
","""event"",""trial"",""time""
""fullscreenenter"",""1"",""2407""
","
","","","","","","2055.099999964237","images/boat6.png","","","memory_trial","1","definitely_old",""
"html-keyboard-response","71","234515","0.0-18.0-0.14","4175","approach_avoid_sv1","""event"",""trial"",""time""
""fullscreenenter"",""1"",""2407""
","
","
","""event"",""trial"",""time""
""fullscreenenter"",""1"",""2407""
","
","","","","","","null","<div style=""font-size:60px;"">+</div>","null","","fixation","","",""
"memory-trial","72","237946","0.0-18.0-1.14","4175","approach_avoid_sv1","""event"",""trial"",""time""
""fullscreenenter"",""1"",""2407""
","
","
","""event"",""trial"",""time""
""fullscreenenter"",""1"",""2407""
","
","","","","","","2413.899999976158","images/orange7.png","","","memory_trial","1","definitely_old",""
"html-keyboard-response","73","238454","0.0-18.0-0.15","4175","approach_avoid_sv1","""event"",""trial"",""time""
""fullscreenenter"",""1"",""2407""
","
","
","""event"",""trial"",""time""
""fullscreenenter"",""1"",""2407""
","
","","","","","","null","<div style=""font-size:60px;"">+</div>","null","","fixation","","",""
"memory-trial","74","241336","0.0-18.0-1.15","4175","approach_avoid_sv1","""event"",""trial"",""time""
""fullscreenenter"",""1"",""2407""
","
","
","""event"",""trial"",""time""
""fullscreenenter"",""1"",""2407""
","
","","","","","","1856.699999988079","images/banana8.png","","","memory_trial","3","maybe_new",""
"html-keyboard-response","75","241854","0.0-18.0-0.16","4175","approach_avoid_sv1","""event"",""trial"",""time""
""fullscreenenter"",""1"",""2407""
","
","
","""event"",""trial"",""time""
""fullscreenenter"",""1"",""2407""
","
","","","","","","null","<div style=""font-size:60px;"">+</div>","null","","fixation","","",""
"memory-trial","76","244625","0.0-18.0-1.16","4175","approach_avoid_sv1","""event"",""trial"",""time""
""fullscreenenter"",""1"",""2407""
","
","
","""event"",""trial"",""time""
""fullscreenenter"",""1"",""2407""
","
","","","","","","1759","images/table8.png","","","memory_trial","3","maybe_new",""
"html-keyboard-response","77","245135","0.0-18.0-0.17","4175","approach_avoid_sv1","""event"",""trial"",""time""
""fullscreenenter"",""1"",""2407""
","
","
","""event"",""trial"",""time""
""fullscreenenter"",""1"",""2407""
","
","","","","","","null","<div style=""font-size:60px;"">+</div>","null","","fixation","","",""
"memory-trial","78","247946","0.0-18.0-1.17","4175","approach_avoid_sv1","""event"",""trial"",""time""
""fullscreenenter"",""1"",""2407""
","
","
","""event"",""trial"",""time""
""fullscreenenter"",""1"",""2407""
","
","","","","","","1795.3999999761581","images/bush6.png","","","memory_trial","3","maybe_new",""
"html-keyboard-response","79","248455","0.0-18.0-0.18","4175","approach_avoid_sv1","""event"",""trial"",""time""
""fullscreenenter"",""1"",""2407""
","
","
","""event"",""trial"",""time""
""fullscreenenter"",""1"",""2407""
","
","","","","","","null","<div style=""font-size:60px;"">+</div>","null","","fixation","","",""
"memory-trial","80","251397","0.0-18.0-1.18","4175","approach_avoid_sv1","""event"",""trial"",""time""
""fullscreenenter"",""1"",""2407""
","
","
","""event"",""trial"",""time""
""fullscreenenter"",""1"",""2407""
","
","","","","","","1921.1000000238419","images/apple5.png","","","memory_trial","1","definitely_old",""
"html-keyboard-response","81","251903","0.0-18.0-0.19","4175","approach_avoid_sv1","""event"",""trial"",""time""
""fullscreenenter"",""1"",""2407""
","
","
","""event"",""trial"",""time""
""fullscreenenter"",""1"",""2407""
","
","","","","","","null","<div style=""font-size:60px;"">+</div>","null","","fixation","","",""
"memory-trial","82","255236","0.0-18.0-1.19","4175","approach_avoid_sv1","""event"",""trial"",""time""
""fullscreenenter"",""1"",""2407""
","
","
","""event"",""trial"",""time""
""fullscreenenter"",""1"",""2407""
","
","","","","","","2315.599999964237","images/cactus5.png","","","memory_trial","2","maybe_old",""
"html-keyboard-response","83","255746","0.0-18.0-0.20","4175","approach_avoid_sv1","""event"",""trial"",""time""
""fullscreenenter"",""1"",""2407""
","
","
","""event"",""trial"",""time""
""fullscreenenter"",""1"",""2407""
","
","","","","","","null","<div style=""font-size:60px;"">+</div>","null","","fixation","","",""
"memory-trial","84","258276","0.0-18.0-1.20","4175","approach_avoid_sv1","""event"",""trial"",""time""
""fullscreenenter"",""1"",""2407""
","
","
","""event"",""trial"",""time""
""fullscreenenter"",""1"",""2407""
","
","","","","","","1513.2000000476837","images/sofa8.png","","","memory_trial","3","maybe_new",""
"html-keyboard-response","85","258786","0.0-18.0-0.21","4175","approach_avoid_sv1","""event"",""trial"",""time""
""fullscreenenter"",""1"",""2407""
","
","
","""event"",""trial"",""time""
""fullscreenenter"",""1"",""2407""
","
","","","","","","null","<div style=""font-size:60px;"">+</div>","null","","fixation","","",""
"memory-trial","86","261157","0.0-18.0-1.21","4175","approach_avoid_sv1","""event"",""trial"",""time""
""fullscreenenter"",""1"",""2407""
","
","
","""event"",""trial"",""time""
""fullscreenenter"",""1"",""2407""
","
","","","","","","1351.300000011921","images/flower3.png","","","memory_trial","2","maybe_old",""
"html-keyboard-response","87","261667","0.0-18.0-0.22","4175","approach_avoid_sv1","""event"",""trial"",""time""
""fullscreenenter"",""1"",""2407""
","
","
","""event"",""trial"",""time""
""fullscreenenter"",""1"",""2407""
","
","","","","","","null","<div style=""font-size:60px;"">+</div>","null","","fixation","","",""
"memory-trial","88","263991","0.0-18.0-1.22","4175","approach_avoid_sv1","""event"",""trial"",""time""
""fullscreenenter"",""1"",""2407""
","
","
","""event"",""trial"",""time""
""fullscreenenter"",""1"",""2407""
","
","","","","","","1308.5","images/flower5.png","","","memory_trial","3","maybe_new",""
"html-keyboard-response","89","264497","0.0-18.0-0.23","4175","approach_avoid_sv1","""event"",""trial"",""time""
""fullscreenenter"",""1"",""2407""
","
","
","""event"",""trial"",""time""
""fullscreenenter"",""1"",""2407""
","
","","","","","","null","<div style=""font-size:60px;"">+</div>","null","","fixation","","",""
"memory-trial","90","267307","0.0-18.0-1.23","4175","approach_avoid_sv1","""event"",""trial"",""time""
""fullscreenenter"",""1"",""2407""
","
","
","""event"",""trial"",""time""
""fullscreenenter"",""1"",""2407""
","
","","","","","","1798.300000011921","images/sofa3.png","","","memory_trial","1","definitely_old",""
"html-keyboard-response","91","267816","0.0-18.0-0.24","4175","approach_avoid_sv1","""event"",""trial"",""time""
""fullscreenenter"",""1"",""2407""
","
","
","""event"",""trial"",""time""
""fullscreenenter"",""1"",""2407""
","
","","","","","","null","<div style=""font-size:60px;"">+</div>","null","","fixation","","",""
"memory-trial","92","269906","0.0-18.0-1.24","4175","approach_avoid_sv1","""event"",""trial"",""time""
""fullscreenenter"",""1"",""2407""
","
","
","""event"",""trial"",""time""
""fullscreenenter"",""1"",""2407""
","
","","","","","","1074.699999988079","images/cow3.png","","","memory_trial","1","definitely_old",""
"html-keyboard-response","93","270425","0.0-18.0-0.25","4175","approach_avoid_sv1","""event"",""trial"",""time""
""fullscreenenter"",""1"",""2407""
","
","
","""event"",""trial"",""time""
""fullscreenenter"",""1"",""2407""
","
","","","","","","null","<div style=""font-size:60px;"">+</div>","null","","fixation","","",""
"memory-trial","94","273526","0.0-18.0-1.25","4175","approach_avoid_sv1","""event"",""trial"",""time""
""fullscreenenter"",""1"",""2407""
","
","
","""event"",""trial"",""time""
""fullscreenenter"",""1"",""2407""
","
","","","","","","2082.100000023842","images/apple7.png","","","memory_trial","2","maybe_old",""
"html-keyboard-response","95","274034","0.0-18.0-0.26","4175","approach_avoid_sv1","""event"",""trial"",""time""
""fullscreenenter"",""1"",""2407""
","
","
","""event"",""trial"",""time""
""fullscreenenter"",""1"",""2407""
","
","","","","","","null","<div style=""font-size:60px;"">+</div>","null","","fixation","","",""
"memory-trial","96","277866","0.0-18.0-1.26","4175","approach_avoid_sv1","""event"",""trial"",""time""
""fullscreenenter"",""1"",""2407""
","
","
","""event"",""trial"",""time""
""fullscreenenter"",""1"",""2407""
","
","","","","","","2820.199999988079","images/plane7.png","","","memory_trial","2","maybe_old",""
"html-keyboard-response","97","278386","0.0-18.0-0.27","4175","approach_avoid_sv1","""event"",""trial"",""time""
""fullscreenenter"",""1"",""2407""
","
","
","""event"",""trial"",""time""
""fullscreenenter"",""1"",""2407""
","
","","","","","","null","<div style=""font-size:60px;"">+</div>","null","","fixation","","",""
"memory-trial","98","281587","0.0-18.0-1.27","4175","approach_avoid_sv1","""event"",""trial"",""time""
""fullscreenenter"",""1"",""2407""
","
","
","""event"",""trial"",""time""
""fullscreenenter"",""1"",""2407""
","
","","","","","","2183.300000011921","images/sofa7.png","","","memory_trial","2","maybe_old",""
"html-keyboard-response","99","282096","0.0-18.0-0.28","4175","approach_avoid_sv1","""event"",""trial"",""time""
""fullscreenenter"",""1"",""2407""
","
","
","""event"",""trial"",""time""
""fullscreenenter"",""1"",""2407""
","
","","","","","","null","<div style=""font-size:60px;"">+</div>","null","","fixation","","",""
"memory-trial","100","284750","0.0-18.0-1.28","4175","approach_avoid_sv1","""event"",""trial"",""time""
""fullscreenenter"",""1"",""2407""
","
","
","""event"",""trial"",""time""
""fullscreenenter"",""1"",""2407""
","
","","","","","","1635.5999999642372","images/sheep2.png","","","memory_trial","3","maybe_new",""
"html-keyboard-response","101","285257","0.0-18.0-0.29","4175","approach_avoid_sv1","""event"",""trial"",""time""
""fullscreenenter"",""1"",""2407""
","
","
","""event"",""trial"",""time""
""fullscreenenter"",""1"",""2407""
","
","","","","","","null","<div style=""font-size:60px;"">+</div>","null","","fixation","","",""
"memory-trial","102","288098","0.0-18.0-1.29","4175","approach_avoid_sv1","""event"",""trial"",""time""
""fullscreenenter"",""1"",""2407""
","
","
","""event"",""trial"",""time""
""fullscreenenter"",""1"",""2407""
","
","","","","","","1823.4000000357628","images/banana5.png","","","memory_trial","1","definitely_old",""
"html-keyboard-response","103","288615","0.0-18.0-0.30","4175","approach_avoid_sv1","""event"",""trial"",""time""
""fullscreenenter"",""1"",""2407""
","
","
","""event"",""trial"",""time""
""fullscreenenter"",""1"",""2407""
","
","","","","","","null","<div style=""font-size:60px;"">+</div>","null","","fixation","","",""
"memory-trial","104","290983","0.0-18.0-1.30","4175","approach_avoid_sv1","""event"",""trial"",""time""
""fullscreenenter"",""1"",""2407""
","
","
","""event"",""trial"",""time""
""fullscreenenter"",""1"",""2407""
","
","","","","","","1344","images/truck8.png","","","memory_trial","1","definitely_old",""
"html-keyboard-response","105","291496","0.0-18.0-0.31","4175","approach_avoid_sv1","""event"",""trial"",""time""
""fullscreenenter"",""1"",""2407""
","
","
","""event"",""trial"",""time""
""fullscreenenter"",""1"",""2407""
","
","","","","","","null","<div style=""font-size:60px;"">+</div>","null","","fixation","","",""
"memory-trial","106","293926","0.0-18.0-1.31","4175","approach_avoid_sv1","""event"",""trial"",""time""
""fullscreenenter"",""1"",""2407""
","
","
","""event"",""trial"",""time""
""fullscreenenter"",""1"",""2407""
","
","","","","","","1408.800000011921","images/rodent3.png","","","memory_trial","1","definitely_old",""
"html-keyboard-response","107","294434","0.0-18.0-0.32","4175","approach_avoid_sv1","""event"",""trial"",""time""
""fullscreenenter"",""1"",""2407""
","
","
","""event"",""trial"",""time""
""fullscreenenter"",""1"",""2407""
","
","","","","","","null","<div style=""font-size:60px;"">+</div>","null","","fixation","","",""
"memory-trial","108","296809","0.0-18.0-1.32","4175","approach_avoid_sv1","""event"",""trial"",""time""
""fullscreenenter"",""1"",""2407""
","
","
","""event"",""trial"",""time""
""fullscreenenter"",""1"",""2407""
","
","","","","","","1360.2999999523163","images/table6.png","","","memory_trial","1","definitely_old",""
"html-keyboard-response","109","297326","0.0-18.0-0.33","4175","approach_avoid_sv1","""event"",""trial"",""time""
""fullscreenenter"",""1"",""2407""
","
","
","""event"",""trial"",""time""
""fullscreenenter"",""1"",""2407""
","
","","","","","","null","<div style=""font-size:60px;"">+</div>","null","","fixation","","",""
"memory-trial","110","299746","0.0-18.0-1.33","4175","approach_avoid_sv1","""event"",""trial"",""time""
""fullscreenenter"",""1"",""2407""
","
","
","""event"",""trial"",""time""
""fullscreenenter"",""1"",""2407""
","
","","","","","","1409.7999999523163","images/horse8.png","","","memory_trial","1","definitely_old",""
"html-keyboard-response","111","300257","0.0-18.0-0.34","4175","approach_avoid_sv1","""event"",""trial"",""time""
""fullscreenenter"",""1"",""2407""
","
","
","""event"",""trial"",""time""
""fullscreenenter"",""1"",""2407""
","
","","","","","","null","<div style=""font-size:60px;"">+</div>","null","","fixation","","",""
"memory-trial","112","303043","0.0-18.0-1.34","4175","approach_avoid_sv1","""event"",""trial"",""time""
""fullscreenenter"",""1"",""2407""
","
","
","""event"",""trial"",""time""
""fullscreenenter"",""1"",""2407""
","
","","","","","","1772.7000000476837","images/chair8.png","","","memory_trial","3","maybe_new",""
"html-keyboard-response","113","303556","0.0-18.0-0.35","4175","approach_avoid_sv1","""event"",""trial"",""time""
""fullscreenenter"",""1"",""2407""
","
","
","""event"",""trial"",""time""
""fullscreenenter"",""1"",""2407""
","
","","","","","","null","<div style=""font-size:60px;"">+</div>","null","","fixation","","",""
"memory-trial","114","306506","0.0-18.0-1.35","4175","approach_avoid_sv1","""event"",""trial"",""time""
""fullscreenenter"",""1"",""2407""
","
","
","""event"",""trial"",""time""
""fullscreenenter"",""1"",""2407""
","
","","","","","","1935.3999999761581","images/chair6.png","","","memory_trial","3","maybe_new",""
"html-keyboard-response","115","307026","0.0-18.0-0.36","4175","approach_avoid_sv1","""event"",""trial"",""time""
""fullscreenenter"",""1"",""2407""
","
","
","""event"",""trial"",""time""
""fullscreenenter"",""1"",""2407""
","
","","","","","","null","<div style=""font-size:60px;"">+</div>","null","","fixation","","",""
"memory-trial","116","309176","0.0-18.0-1.36","4175","approach_avoid_sv1","""event"",""trial"",""time""
""fullscreenenter"",""1"",""2407""
","
","
","""event"",""trial"",""time""
""fullscreenenter"",""1"",""2407""
","
","","","","","","1128","images/rabbit3.png","","","memory_trial","1","definitely_old",""
"html-keyboard-response","117","309687","0.0-18.0-0.37","4175","approach_avoid_sv1","""event"",""trial"",""time""
""fullscreenenter"",""1"",""2407""
","
","
","""event"",""trial"",""time""
""fullscreenenter"",""1"",""2407""
","
","","","","","","null","<div style=""font-size:60px;"">+</div>","null","","fixation","","",""
"memory-trial","118","312885","0.0-18.0-1.37","4175","approach_avoid_sv1","""event"",""trial"",""time""
""fullscreenenter"",""1"",""2407""
","
","
","""event"",""trial"",""time""
""fullscreenenter"",""1"",""2407""
","
","","","","","","2183.899999976158","images/boat8.png","","","memory_trial","1","definitely_old",""
"html-keyboard-response","119","313406","0.0-18.0-0.38","4175","approach_avoid_sv1","""event"",""trial"",""time""
""fullscreenenter"",""1"",""2407""
","
","
","""event"",""trial"",""time""
""fullscreenenter"",""1"",""2407""
","
","","","","","","null","<div style=""font-size:60px;"">+</div>","null","","fixation","","",""
"memory-trial","120","315218","0.0-18.0-1.38","4175","approach_avoid_sv1","""event"",""trial"",""time""
""fullscreenenter"",""1"",""2407""
","
","
","""event"",""trial"",""time""
""fullscreenenter"",""1"",""2407""
","
","","","","","","784.5999999642372","images/orange2.png","","","memory_trial","1","definitely_old",""
"html-keyboard-response","121","315736","0.0-18.0-0.39","4175","approach_avoid_sv1","""event"",""trial"",""time""
""fullscreenenter"",""1"",""2407""
","
","
","""event"",""trial"",""time""
""fullscreenenter"",""1"",""2407""
","
","","","","","","null","<div style=""font-size:60px;"">+</div>","null","","fixation","","",""
"memory-trial","122","317785","0.0-18.0-1.39","4175","approach_avoid_sv1","""event"",""trial"",""time""
""fullscreenenter"",""1"",""2407""
","
","
","""event"",""trial"",""time""
""fullscreenenter"",""1"",""2407""
","
","","","","","","1039.5","images/bed7.png","","","memory_trial","1","definitely_old",""
"html-keyboard-response","123","318297","0.0-18.0-0.40","4175","approach_avoid_sv1","""event"",""trial"",""time""
""fullscreenenter"",""1"",""2407""
","
","
","""event"",""trial"",""time""
""fullscreenenter"",""1"",""2407""
","
","","","","","","null","<div style=""font-size:60px;"">+</div>","null","","fixation","","",""
"memory-trial","124","320680","0.0-18.0-1.40","4175","approach_avoid_sv1","""event"",""trial"",""time""
""fullscreenenter"",""1"",""2407""
","
","
","""event"",""trial"",""time""
""fullscreenenter"",""1"",""2407""
","
","","","","","","1366.800000011921","images/bush4.png","","","memory_trial","4","definitely_new",""
"html-keyboard-response","125","321184","0.0-18.0-0.41","4175","approach_avoid_sv1","""event"",""trial"",""time""
""fullscreenenter"",""1"",""2407""
","
","
","""event"",""trial"",""time""
""fullscreenenter"",""1"",""2407""
","
","","","","","","null","<div style=""font-size:60px;"">+</div>","null","","fixation","","",""
"memory-trial","126","323536","0.0-18.0-1.41","4175","approach_avoid_sv1","""event"",""trial"",""time""
""fullscreenenter"",""1"",""2407""
","
","
","""event"",""trial"",""time""
""fullscreenenter"",""1"",""2407""
","
","","","","","","1343.7999999523163","images/boat1.png","","","memory_trial","3","maybe_new",""
"html-button-response","127","325765","0.0-18.0-2.41-0.41","4175","approach_avoid_sv1","""event"",""trial"",""time""
""fullscreenenter"",""1"",""2407""
","
","
","""event"",""trial"",""time""
""fullscreenenter"",""1"",""2407""
","
","","","","","","2227.2999999523163","<p> Take a break! </p><p> Click the button to continue. </p>","0","","break","","",""
"html-keyboard-response","128","326275","0.0-18.0-0.42","4175","approach_avoid_sv1","""event"",""trial"",""time""
""fullscreenenter"",""1"",""2407""
","
","
","""event"",""trial"",""time""
""fullscreenenter"",""1"",""2407""
","
","","","","","","null","<div style=""font-size:60px;"">+</div>","null","","fixation","","",""
"memory-trial","129","329186","0.0-18.0-1.42","4175","approach_avoid_sv1","""event"",""trial"",""time""
""fullscreenenter"",""1"",""2407""
","
","
","""event"",""trial"",""time""
""fullscreenenter"",""1"",""2407""
","
","","","","","","1897.1000000238419","images/cat6.png","","","memory_trial","2","maybe_old",""
"html-keyboard-response","130","329706","0.0-18.0-0.43","4175","approach_avoid_sv1","""event"",""trial"",""time""
""fullscreenenter"",""1"",""2407""
","
","
","""event"",""trial"",""time""
""fullscreenenter"",""1"",""2407""
","
","","","","","","null","<div style=""font-size:60px;"">+</div>","null","","fixation","","",""
"memory-trial","131","332415","0.0-18.0-1.43","4175","approach_avoid_sv1","""event"",""trial"",""time""
""fullscreenenter"",""1"",""2407""
","
","
","""event"",""trial"",""time""
""fullscreenenter"",""1"",""2407""
","
","","","","","","1678.300000011921","images/straw8.png","","","memory_trial","1","definitely_old",""
"html-keyboard-response","132","332934","0.0-18.0-0.44","4175","approach_avoid_sv1","""event"",""trial"",""time""
""fullscreenenter"",""1"",""2407""
","
","
","""event"",""trial"",""time""
""fullscreenenter"",""1"",""2407""
","
","","","","","","null","<div style=""font-size:60px;"">+</div>","null","","fixation","","",""
"memory-trial","133","336065","0.0-18.0-1.44","4175","approach_avoid_sv1","""event"",""trial"",""time""
""fullscreenenter"",""1"",""2407""
","
","
","""event"",""trial"",""time""
""fullscreenenter"",""1"",""2407""
","
","","","","","","2116.399999976158","images/horse7.png","","","memory_trial","3","maybe_new",""
"html-keyboard-response","134","336575","0.0-18.0-0.45","4175","approach_avoid_sv1","""event"",""trial"",""time""
""fullscreenenter"",""1"",""2407""
","
","
","""event"",""trial"",""time""
""fullscreenenter"",""1"",""2407""
","
","","","","","","null","<div style=""font-size:60px;"">+</div>","null","","fixation","","",""
"memory-trial","135","338935","0.0-18.0-1.45","4175","approach_avoid_sv1","""event"",""trial"",""time""
""fullscreenenter"",""1"",""2407""
","
","
","""event"",""trial"",""time""
""fullscreenenter"",""1"",""2407""
","
","","","","","","1349.199999988079","images/sheep4.png","","","memory_trial","3","maybe_new",""
"html-keyboard-response","136","339446","0.0-18.0-0.46","4175","approach_avoid_sv1","""event"",""trial"",""time""
""fullscreenenter"",""1"",""2407""
","
","
","""event"",""trial"",""time""
""fullscreenenter"",""1"",""2407""
","
","","","","","","null","<div style=""font-size:60px;"">+</div>","null","","fixation","","",""
"memory-trial","137","341546","0.0-18.0-1.46","4175","approach_avoid_sv1","""event"",""trial"",""time""
""fullscreenenter"",""1"",""2407""
","
","
","""event"",""trial"",""time""
""fullscreenenter"",""1"",""2407""
","
","","","","","","1076.1000000238419","images/flower4.png","","","memory_trial","1","definitely_old",""
"html-keyboard-response","138","342054","0.0-18.0-0.47","4175","approach_avoid_sv1","""event"",""trial"",""time""
""fullscreenenter"",""1"",""2407""
","
","
","""event"",""trial"",""time""
""fullscreenenter"",""1"",""2407""
","
","","","","","","null","<div style=""font-size:60px;"">+</div>","null","","fixation","","",""
"memory-trial","139","344042","0.0-18.0-1.47","4175","approach_avoid_sv1","""event"",""trial"",""time""
""fullscreenenter"",""1"",""2407""
","
","
","""event"",""trial"",""time""
""fullscreenenter"",""1"",""2407""
","
","","","","","","974.9000000357628","images/banana4.png","","","memory_trial","4","definitely_new",""
"html-keyboard-response","140","344556","0.0-18.0-0.48","4175","approach_avoid_sv1","""event"",""trial"",""time""
""fullscreenenter"",""1"",""2407""
","
","
","""event"",""trial"",""time""
""fullscreenenter"",""1"",""2407""
","
","","","","","","null","<div style=""font-size:60px;"">+</div>","null","","fixation","","",""
"memory-trial","141","347206","0.0-18.0-1.48","4175","approach_avoid_sv1","""event"",""trial"",""time""
""fullscreenenter"",""1"",""2407""
","
","
","""event"",""trial"",""time""
""fullscreenenter"",""1"",""2407""
","
","","","","","","1632.699999988079","images/cactus2.png","","","memory_trial","1","definitely_old",""
"html-keyboard-response","142","347725","0.0-18.0-0.49","4175","approach_avoid_sv1","""event"",""trial"",""time""
""fullscreenenter"",""1"",""2407""
","
","
","""event"",""trial"",""time""
""fullscreenenter"",""1"",""2407""
","
","","","","","","null","<div style=""font-size:60px;"">+</div>","null","","fixation","","",""
"memory-trial","143","350775","0.0-18.0-1.49","4175","approach_avoid_sv1","""event"",""trial"",""time""
""fullscreenenter"",""1"",""2407""
","
","
","""event"",""trial"",""time""
""fullscreenenter"",""1"",""2407""
","
","","","","","","2030","images/table1.png","","","memory_trial","2","maybe_old",""
"html-keyboard-response","144","351290","0.0-18.0-0.50","4175","approach_avoid_sv1","""event"",""trial"",""time""
""fullscreenenter"",""1"",""2407""
","
","
","""event"",""trial"",""time""
""fullscreenenter"",""1"",""2407""
","
","","","","","","null","<div style=""font-size:60px;"">+</div>","null","","fixation","","",""
"memory-trial","145","353695","0.0-18.0-1.50","4175","approach_avoid_sv1","""event"",""trial"",""time""
""fullscreenenter"",""1"",""2407""
","
","
","""event"",""trial"",""time""
""fullscreenenter"",""1"",""2407""
","
","","","","","","1375.3999999761581","images/table7.png","","","memory_trial","3","maybe_new",""
"html-keyboard-response","146","354206","0.0-18.0-0.51","4175","approach_avoid_sv1","""event"",""trial"",""time""
""fullscreenenter"",""1"",""2407""
","
","
","""event"",""trial"",""time""
""fullscreenenter"",""1"",""2407""
","
","","","","","","null","<div style=""font-size:60px;"">+</div>","null","","fixation","","",""
"memory-trial","147","356717","0.0-18.0-1.51","4175","approach_avoid_sv1","""event"",""trial"",""time""
""fullscreenenter"",""1"",""2407""
","
","
","""event"",""trial"",""time""
""fullscreenenter"",""1"",""2407""
","
","","","","","","1488.8999999761581","images/cat4.png","","","memory_trial","2","maybe_old",""
"html-keyboard-response","148","357224","0.0-18.0-0.52","4175","approach_avoid_sv1","""event"",""trial"",""time""
""fullscreenenter"",""1"",""2407""
","
","
","""event"",""trial"",""time""
""fullscreenenter"",""1"",""2407""
","
","","","","","","null","<div style=""font-size:60px;"">+</div>","null","","fixation","","",""
"memory-trial","149","359535","0.0-18.0-1.52","4175","approach_avoid_sv1","""event"",""trial"",""time""
""fullscreenenter"",""1"",""2407""
","
","
","""event"",""trial"",""time""
""fullscreenenter"",""1"",""2407""
","
","","","","","","1294.9000000357628","images/bed6.png","","","memory_trial","1","definitely_old",""
"html-keyboard-response","150","360055","0.0-18.0-0.53","4175","approach_avoid_sv1","""event"",""trial"",""time""
""fullscreenenter"",""1"",""2407""
","
","
","""event"",""trial"",""time""
""fullscreenenter"",""1"",""2407""
","
","","","","","","null","<div style=""font-size:60px;"">+</div>","null","","fixation","","",""
"memory-trial","151","363014","0.0-18.0-1.53","4175","approach_avoid_sv1","""event"",""trial"",""time""
""fullscreenenter"",""1"",""2407""
","
","
","""event"",""trial"",""time""
""fullscreenenter"",""1"",""2407""
","
","","","","","","1950.3999999761581","images/dog2.png","","","memory_trial","1","definitely_old",""
"html-keyboard-response","152","363535","0.0-18.0-0.54","4175","approach_avoid_sv1","""event"",""trial"",""time""
""fullscreenenter"",""1"",""2407""
","
","
","""event"",""trial"",""time""
""fullscreenenter"",""1"",""2407""
","
","","","","","","null","<div style=""font-size:60px;"">+</div>","null","","fixation","","",""
"memory-trial","153","366095","0.0-18.0-1.54","4175","approach_avoid_sv1","""event"",""trial"",""time""
""fullscreenenter"",""1"",""2407""
","
","
","""event"",""trial"",""time""
""fullscreenenter"",""1"",""2407""
","
","","","","","","1542.1000000238419","images/sofa1.png","","","memory_trial","1","definitely_old",""
"html-keyboard-response","154","366615","0.0-18.0-0.55","4175","approach_avoid_sv1","""event"",""trial"",""time""
""fullscreenenter"",""1"",""2407""
","
","
","""event"",""trial"",""time""
""fullscreenenter"",""1"",""2407""
","
","","","","","","null","<div style=""font-size:60px;"">+</div>","null","","fixation","","",""
"memory-trial","155","368592","0.0-18.0-1.55","4175","approach_avoid_sv1","""event"",""trial"",""time""
""fullscreenenter"",""1"",""2407""
","
","
","""event"",""trial"",""time""
""fullscreenenter"",""1"",""2407""
","
","","","","","","960.6999999880791","images/orange6.png","","","memory_trial","1","definitely_old",""
"html-keyboard-response","156","369114","0.0-18.0-0.56","4175","approach_avoid_sv1","""event"",""trial"",""time""
""fullscreenenter"",""1"",""2407""
","
","
","""event"",""trial"",""time""
""fullscreenenter"",""1"",""2407""
","
","","","","","","null","<div style=""font-size:60px;"">+</div>","null","","fixation","","",""
"memory-trial","157","371336","0.0-18.0-1.56","4175","approach_avoid_sv1","""event"",""trial"",""time""
""fullscreenenter"",""1"",""2407""
","
","
","""event"",""trial"",""time""
""fullscreenenter"",""1"",""2407""
","
","","","","","","1207.5999999642372","images/bush3.png","","","memory_trial","3","maybe_new",""
"html-keyboard-response","158","371855","0.0-18.0-0.57","4175","approach_avoid_sv1","""event"",""trial"",""time""
""fullscreenenter"",""1"",""2407""
","
","
","""event"",""trial"",""time""
""fullscreenenter"",""1"",""2407""
","
","","","","","","null","<div style=""font-size:60px;"">+</div>","null","","fixation","","",""
"memory-trial","159","373806","0.0-18.0-1.57","4175","approach_avoid_sv1","""event"",""trial"",""time""
""fullscreenenter"",""1"",""2407""
","
","
","""event"",""trial"",""time""
""fullscreenenter"",""1"",""2407""
","
","","","","","","933.5","images/orange4.png","","","memory_trial","1","definitely_old",""
"html-keyboard-response","160","374316","0.0-18.0-0.58","4175","approach_avoid_sv1","""event"",""trial"",""time""
""fullscreenenter"",""1"",""2407""
","
","
","""event"",""trial"",""time""
""fullscreenenter"",""1"",""2407""
","
","","","","","","null","<div style=""font-size:60px;"">+</div>","null","","fixation","","",""
"memory-trial","161","376247","0.0-18.0-1.58","4175","approach_avoid_sv1","""event"",""trial"",""time""
""fullscreenenter"",""1"",""2407""
","
","
","""event"",""trial"",""time""
""fullscreenenter"",""1"",""2407""
","
","","","","","","908.3999999761581","images/sheep8.png","","","memory_trial","3","maybe_new",""
"html-keyboard-response","162","376756","0.0-18.0-0.59","4175","approach_avoid_sv1","""event"",""trial"",""time""
""fullscreenenter"",""1"",""2407""
","
","
","""event"",""trial"",""time""
""fullscreenenter"",""1"",""2407""
","
","","","","","","null","<div style=""font-size:60px;"">+</div>","null","","fixation","","",""
"memory-trial","163","379137","0.0-18.0-1.59","4175","approach_avoid_sv1","""event"",""trial"",""time""
""fullscreenenter"",""1"",""2407""
","
","
","""event"",""trial"",""time""
""fullscreenenter"",""1"",""2407""
","
","","","","","","1351.0999999642372","images/rabbit4.png","","","memory_trial","1","definitely_old",""
"html-keyboard-response","164","379649","0.0-18.0-0.60","4175","approach_avoid_sv1","""event"",""trial"",""time""
""fullscreenenter"",""1"",""2407""
","
","
","""event"",""trial"",""time""
""fullscreenenter"",""1"",""2407""
","
","","","","","","null","<div style=""font-size:60px;"">+</div>","null","","fixation","","",""
"memory-trial","165","382008","0.0-18.0-1.60","4175","approach_avoid_sv1","""event"",""trial"",""time""
""fullscreenenter"",""1"",""2407""
","
","
","""event"",""trial"",""time""
""fullscreenenter"",""1"",""2407""
","
","","","","","","1345","images/apple2.png","","","memory_trial","3","maybe_new",""
"html-keyboard-response","166","382517","0.0-18.0-0.61","4175","approach_avoid_sv1","""event"",""trial"",""time""
""fullscreenenter"",""1"",""2407""
","
","
","""event"",""trial"",""time""
""fullscreenenter"",""1"",""2407""
","
","","","","","","null","<div style=""font-size:60px;"">+</div>","null","","fixation","","",""
"memory-trial","167","385448","0.0-18.0-1.61","4175","approach_avoid_sv1","""event"",""trial"",""time""
""fullscreenenter"",""1"",""2407""
","
","
","""event"",""trial"",""time""
""fullscreenenter"",""1"",""2407""
","
","","","","","","1901.300000011921","images/cat2.png","","","memory_trial","4","definitely_new",""
"html-keyboard-response","168","385954","0.0-18.0-0.62","4175","approach_avoid_sv1","""event"",""trial"",""time""
""fullscreenenter"",""1"",""2407""
","
","
","""event"",""trial"",""time""
""fullscreenenter"",""1"",""2407""
","
","","","","","","null","<div style=""font-size:60px;"">+</div>","null","","fixation","","",""
"memory-trial","169","388192","0.0-18.0-1.62","4175","approach_avoid_sv1","""event"",""trial"",""time""
""fullscreenenter"",""1"",""2407""
","
","
","""event"",""trial"",""time""
""fullscreenenter"",""1"",""2407""
","
","","","","","","1208.699999988079","images/rodent8.png","","","memory_trial","1","definitely_old",""
"html-keyboard-response","170","388706","0.0-18.0-0.63","4175","approach_avoid_sv1","""event"",""trial"",""time""
""fullscreenenter"",""1"",""2407""
","
","
","""event"",""trial"",""time""
""fullscreenenter"",""1"",""2407""
","
","","","","","","null","<div style=""font-size:60px;"">+</div>","null","","fixation","","",""
"memory-trial","171","390831","0.0-18.0-1.63","4175","approach_avoid_sv1","""event"",""trial"",""time""
""fullscreenenter"",""1"",""2407""
","
","
","""event"",""trial"",""time""
""fullscreenenter"",""1"",""2407""
","
","","","","","","1105.3999999761581","images/plane5.png","","","memory_trial","3","maybe_new",""
"html-keyboard-response","172","391337","0.0-18.0-0.64","4175","approach_avoid_sv1","""event"",""trial"",""time""
""fullscreenenter"",""1"",""2407""
","
","
","""event"",""trial"",""time""
""fullscreenenter"",""1"",""2407""
","
","","","","","","null","<div style=""font-size:60px;"">+</div>","null","","fixation","","",""
"memory-trial","173","393707","0.0-18.0-1.64","4175","approach_avoid_sv1","""event"",""trial"",""time""
""fullscreenenter"",""1"",""2407""
","
","
","""event"",""trial"",""time""
""fullscreenenter"",""1"",""2407""
","
","","","","","","1355.5","images/bed5.png","","","memory_trial","1","definitely_old",""
"html-keyboard-response","174","394215","0.0-18.0-0.65","4175","approach_avoid_sv1","""event"",""trial"",""time""
""fullscreenenter"",""1"",""2407""
","
","
","""event"",""trial"",""time""
""fullscreenenter"",""1"",""2407""
","
","","","","","","null","<div style=""font-size:60px;"">+</div>","null","","fixation","","",""
"memory-trial","175","396206","0.0-18.0-1.65","4175","approach_avoid_sv1","""event"",""trial"",""time""
""fullscreenenter"",""1"",""2407""
","
","
","""event"",""trial"",""time""
""fullscreenenter"",""1"",""2407""
","
","","","","","","976.5999999642372","images/straw4.png","","","memory_trial","1","definitely_old",""
"html-keyboard-response","176","396717","0.0-18.0-0.66","4175","approach_avoid_sv1","""event"",""trial"",""time""
""fullscreenenter"",""1"",""2407""
","
","
","""event"",""trial"",""time""
""fullscreenenter"",""1"",""2407""
","
","","","","","","null","<div style=""font-size:60px;"">+</div>","null","","fixation","","",""
"memory-trial","177","399844","0.0-18.0-1.66","4175","approach_avoid_sv1","""event"",""trial"",""time""
""fullscreenenter"",""1"",""2407""
","
","
","""event"",""trial"",""time""
""fullscreenenter"",""1"",""2407""
","
","","","","","","2109.100000023842","images/banana7.png","","","memory_trial","4","definitely_new",""
"html-keyboard-response","178","400352","0.0-18.0-0.67","4175","approach_avoid_sv1","""event"",""trial"",""time""
""fullscreenenter"",""1"",""2407""
","
","
","""event"",""trial"",""time""
""fullscreenenter"",""1"",""2407""
","
","","","","","","null","<div style=""font-size:60px;"">+</div>","null","","fixation","","",""
"memory-trial","179","402828","0.0-18.0-1.67","4175","approach_avoid_sv1","""event"",""trial"",""time""
""fullscreenenter"",""1"",""2407""
","
","
","""event"",""trial"",""time""
""fullscreenenter"",""1"",""2407""
","
","","","","","","1456.8999999761581","images/sheep5.png","","","memory_trial","3","maybe_new",""
"html-keyboard-response","180","403336","0.0-18.0-0.68","4175","approach_avoid_sv1","""event"",""trial"",""time""
""fullscreenenter"",""1"",""2407""
","
","
","""event"",""trial"",""time""
""fullscreenenter"",""1"",""2407""
","
","","","","","","null","<div style=""font-size:60px;"">+</div>","null","","fixation","","",""
"memory-trial","181","405867","0.0-18.0-1.68","4175","approach_avoid_sv1","""event"",""trial"",""time""
""fullscreenenter"",""1"",""2407""
","
","
","""event"",""trial"",""time""
""fullscreenenter"",""1"",""2407""
","
","","","","","","1516.5","images/straw2.png","","","memory_trial","1","definitely_old",""
"html-keyboard-response","182","406386","0.0-18.0-0.69","4175","approach_avoid_sv1","""event"",""trial"",""time""
""fullscreenenter"",""1"",""2407""
","
","
","""event"",""trial"",""time""
""fullscreenenter"",""1"",""2407""
","
","","","","","","null","<div style=""font-size:60px;"">+</div>","null","","fixation","","",""
"memory-trial","183","409357","0.0-18.0-1.69","4175","approach_avoid_sv1","""event"",""trial"",""time""
""fullscreenenter"",""1"",""2407""
","
","
","""event"",""trial"",""time""
""fullscreenenter"",""1"",""2407""
","
","","","","","","1953.300000011921","images/bush5.png","","","memory_trial","4","definitely_new",""
"html-keyboard-response","184","409865","0.0-18.0-0.70","4175","approach_avoid_sv1","""event"",""trial"",""time""
""fullscreenenter"",""1"",""2407""
","
","
","""event"",""trial"",""time""
""fullscreenenter"",""1"",""2407""
","
","","","","","","null","<div style=""font-size:60px;"">+</div>","null","","fixation","","",""
"memory-trial","185","412478","0.0-18.0-1.70","4175","approach_avoid_sv1","""event"",""trial"",""time""
""fullscreenenter"",""1"",""2407""
","
","
","""event"",""trial"",""time""
""fullscreenenter"",""1"",""2407""
","
","","","","","","1599","images/cow5.png","","","memory_trial","1","definitely_old",""
"html-keyboard-response","186","412987","0.0-18.0-0.71","4175","approach_avoid_sv1","""event"",""trial"",""time""
""fullscreenenter"",""1"",""2407""
","
","
","""event"",""trial"",""time""
""fullscreenenter"",""1"",""2407""
","
","","","","","","null","<div style=""font-size:60px;"">+</div>","null","","fixation","","",""
"memory-trial","187","416938","0.0-18.0-1.71","4175","approach_avoid_sv1","""event"",""trial"",""time""
""fullscreenenter"",""1"",""2407""
","
","
","""event"",""trial"",""time""
""fullscreenenter"",""1"",""2407""
","
","","","","","","2933.800000011921","images/tree1.png","","","memory_trial","2","maybe_old",""
"html-keyboard-response","188","417457","0.0-18.0-0.72","4175","approach_avoid_sv1","""event"",""trial"",""time""
""fullscreenenter"",""1"",""2407""
","
","
","""event"",""trial"",""time""
""fullscreenenter"",""1"",""2407""
","
","","","","","","null","<div style=""font-size:60px;"">+</div>","null","","fixation","","",""
"memory-trial","189","420307","0.0-18.0-1.72","4175","approach_avoid_sv1","""event"",""trial"",""time""
""fullscreenenter"",""1"",""2407""
","
","
","""event"",""trial"",""time""
""fullscreenenter"",""1"",""2407""
","
","","","","","","1831.699999988079","images/cactus8.png","","","memory_trial","2","maybe_old",""
"html-keyboard-response","190","420816","0.0-18.0-0.73","4175","approach_avoid_sv1","""event"",""trial"",""time""
""fullscreenenter"",""1"",""2407""
","
","
","""event"",""trial"",""time""
""fullscreenenter"",""1"",""2407""
","
","","","","","","null","<div style=""font-size:60px;"">+</div>","null","","fixation","","",""
"memory-trial","191","422858","0.0-18.0-1.73","4175","approach_avoid_sv1","""event"",""trial"",""time""
""fullscreenenter"",""1"",""2407""
","
","
","""event"",""trial"",""time""
""fullscreenenter"",""1"",""2407""
","
","","","","","","1017.6000000238419","images/horse4.png","","","memory_trial","1","definitely_old",""
"html-keyboard-response","192","423377","0.0-18.0-0.74","4175","approach_avoid_sv1","""event"",""trial"",""time""
""fullscreenenter"",""1"",""2407""
","
","
","""event"",""trial"",""time""
""fullscreenenter"",""1"",""2407""
","
","","","","","","null","<div style=""font-size:60px;"">+</div>","null","","fixation","","",""
"memory-trial","193","425538","0.0-18.0-1.74","4175","approach_avoid_sv1","""event"",""trial"",""time""
""fullscreenenter"",""1"",""2407""
","
","
","""event"",""trial"",""time""
""fullscreenenter"",""1"",""2407""
","
","","","","","","1145.8999999761581","images/boat7.png","","","memory_trial","1","definitely_old",""
"html-keyboard-response","194","426057","0.0-18.0-0.75","4175","approach_avoid_sv1","""event"",""trial"",""time""
""fullscreenenter"",""1"",""2407""
","
","
","""event"",""trial"",""time""
""fullscreenenter"",""1"",""2407""
","
","","","","","","null","<div style=""font-size:60px;"">+</div>","null","","fixation","","",""
"memory-trial","195","429026","0.0-18.0-1.75","4175","approach_avoid_sv1","""event"",""trial"",""time""
""fullscreenenter"",""1"",""2407""
","
","
","""event"",""trial"",""time""
""fullscreenenter"",""1"",""2407""
","
","","","","","","1945.800000011921","images/truck4.png","","","memory_trial","1","definitely_old",""
"html-keyboard-response","196","429537","0.0-18.0-0.76","4175","approach_avoid_sv1","""event"",""trial"",""time""
""fullscreenenter"",""1"",""2407""
","
","
","""event"",""trial"",""time""
""fullscreenenter"",""1"",""2407""
","
","","","","","","null","<div style=""font-size:60px;"">+</div>","null","","fixation","","",""
"memory-trial","197","431458","0.0-18.0-1.76","4175","approach_avoid_sv1","""event"",""trial"",""time""
""fullscreenenter"",""1"",""2407""
","
","
","""event"",""trial"",""time""
""fullscreenenter"",""1"",""2407""
","
","","","","","","898.5","images/sofa4.png","","","memory_trial","1","definitely_old",""
"html-keyboard-response","198","431977","0.0-18.0-0.77","4175","approach_avoid_sv1","""event"",""trial"",""time""
""fullscreenenter"",""1"",""2407""
","
","
","""event"",""trial"",""time""
""fullscreenenter"",""1"",""2407""
","
","","","","","","null","<div style=""font-size:60px;"">+</div>","null","","fixation","","",""
"memory-trial","199","434025","0.0-18.0-1.77","4175","approach_avoid_sv1","""event"",""trial"",""time""
""fullscreenenter"",""1"",""2407""
","
","
","""event"",""trial"",""time""
""fullscreenenter"",""1"",""2407""
","
","","","","","","1028.199999988079","images/cow7.png","","","memory_trial","1","definitely_old",""
"html-keyboard-response","200","434535","0.0-18.0-0.78","4175","approach_avoid_sv1","""event"",""trial"",""time""
""fullscreenenter"",""1"",""2407""
","
","
","""event"",""trial"",""time""
""fullscreenenter"",""1"",""2407""
","
","","","","","","null","<div style=""font-size:60px;"">+</div>","null","","fixation","","",""
"memory-trial","201","436937","0.0-18.0-1.78","4175","approach_avoid_sv1","""event"",""trial"",""time""
""fullscreenenter"",""1"",""2407""
","
","
","""event"",""trial"",""time""
""fullscreenenter"",""1"",""2407""
","
","","","","","","1370.6000000238419","images/horse1.png","","","memory_trial","4","definitely_new",""
"html-keyboard-response","202","437455","0.0-18.0-0.79","4175","approach_avoid_sv1","""event"",""trial"",""time""
""fullscreenenter"",""1"",""2407""
","
","
","""event"",""trial"",""time""
""fullscreenenter"",""1"",""2407""
","
","","","","","","null","<div style=""font-size:60px;"">+</div>","null","","fixation","","",""
"memory-trial","203","439697","0.0-18.0-1.79","4175","approach_avoid_sv1","""event"",""trial"",""time""
""fullscreenenter"",""1"",""2407""
","
","
","""event"",""trial"",""time""
""fullscreenenter"",""1"",""2407""
","
","","","","","","1226","images/cat7.png","","","memory_trial","4","definitely_new",""
"html-keyboard-response","204","440215","0.0-18.0-0.80","4175","approach_avoid_sv1","""event"",""trial"",""time""
""fullscreenenter"",""1"",""2407""
","
","
","""event"",""trial"",""time""
""fullscreenenter"",""1"",""2407""
","
","","","","","","null","<div style=""font-size:60px;"">+</div>","null","","fixation","","",""
"memory-trial","205","442457","0.0-18.0-1.80","4175","approach_avoid_sv1","""event"",""trial"",""time""
""fullscreenenter"",""1"",""2407""
","
","
","""event"",""trial"",""time""
""fullscreenenter"",""1"",""2407""
","
","","","","","","1222.800000011921","images/horse3.png","","","memory_trial","4","definitely_new",""
"html-keyboard-response","206","442975","0.0-18.0-0.81","4175","approach_avoid_sv1","""event"",""trial"",""time""
""fullscreenenter"",""1"",""2407""
","
","
","""event"",""trial"",""time""
""fullscreenenter"",""1"",""2407""
","
","","","","","","null","<div style=""font-size:60px;"">+</div>","null","","fixation","","",""
"memory-trial","207","444955","0.0-18.0-1.81","4175","approach_avoid_sv1","""event"",""trial"",""time""
""fullscreenenter"",""1"",""2407""
","
","
","""event"",""trial"",""time""
""fullscreenenter"",""1"",""2407""
","
","","","","","","960.1999999880791","images/train4.png","","","memory_trial","1","definitely_old",""
"html-keyboard-response","208","445487","0.0-18.0-0.82","4175","approach_avoid_sv1","""event"",""trial"",""time""
""fullscreenenter"",""1"",""2407""
","
","
","""event"",""trial"",""time""
""fullscreenenter"",""1"",""2407""
","
","","","","","","null","<div style=""font-size:60px;"">+</div>","null","","fixation","","",""
"memory-trial","209","447455","0.0-18.0-1.82","4175","approach_avoid_sv1","""event"",""trial"",""time""
""fullscreenenter"",""1"",""2407""
","
","
","""event"",""trial"",""time""
""fullscreenenter"",""1"",""2407""
","
","","","","","","960.6000000238419","images/bush7.png","","","memory_trial","4","definitely_new",""
"html-keyboard-response","210","447965","0.0-18.0-0.83","4175","approach_avoid_sv1","""event"",""trial"",""time""
""fullscreenenter"",""1"",""2407""
","
","
","""event"",""trial"",""time""
""fullscreenenter"",""1"",""2407""
","
","","","","","","null","<div style=""font-size:60px;"">+</div>","null","","fixation","","",""
"memory-trial","211","449947","0.0-18.0-1.83","4175","approach_avoid_sv1","""event"",""trial"",""time""
""fullscreenenter"",""1"",""2407""
","
","
","""event"",""trial"",""time""
""fullscreenenter"",""1"",""2407""
","
","","","","","","958.6000000238419","images/straw1.png","","","memory_trial","1","definitely_old",""
"html-keyboard-response","212","450466","0.0-18.0-0.84","4175","approach_avoid_sv1","""event"",""trial"",""time""
""fullscreenenter"",""1"",""2407""
","
","
","""event"",""trial"",""time""
""fullscreenenter"",""1"",""2407""
","
","","","","","","null","<div style=""font-size:60px;"">+</div>","null","","fixation","","",""
"memory-trial","213","453297","0.0-18.0-1.84","4175","approach_avoid_sv1","""event"",""trial"",""time""
""fullscreenenter"",""1"",""2407""
","
","
","""event"",""trial"",""time""
""fullscreenenter"",""1"",""2407""
","
","","","","","","1807.5","images/apple3.png","","","memory_trial","3","maybe_new",""
"html-keyboard-response","214","453807","0.0-18.0-0.85","4175","approach_avoid_sv1","""event"",""trial"",""time""
""fullscreenenter"",""1"",""2407""
","
","
","""event"",""trial"",""time""
""fullscreenenter"",""1"",""2407""
","
","","","","","","null","<div style=""font-size:60px;"">+</div>","null","","fixation","","",""
"memory-trial","215","457169","0.0-18.0-1.85","4175","approach_avoid_sv1","""event"",""trial"",""time""
""fullscreenenter"",""1"",""2407""
","
","
","""event"",""trial"",""time""
""fullscreenenter"",""1"",""2407""
","
","","","","","","2347.900000035763","images/rabbit7.png","","","memory_trial","1","definitely_old",""
"html-keyboard-response","216","457695","0.0-18.0-0.86","4175","approach_avoid_sv1","""event"",""trial"",""time""
""fullscreenenter"",""1"",""2407""
","
","
","""event"",""trial"",""time""
""fullscreenenter"",""1"",""2407""
","
","","","","","","null","<div style=""font-size:60px;"">+</div>","null","","fixation","","",""
"memory-trial","217","459657","0.0-18.0-1.86","4175","approach_avoid_sv1","""event"",""trial"",""time""
""fullscreenenter"",""1"",""2407""
","
","
","""event"",""trial"",""time""
""fullscreenenter"",""1"",""2407""
","
","","","","","","940","images/straw5.png","","","memory_trial","1","definitely_old",""
"html-keyboard-response","218","460176","0.0-18.0-0.87","4175","approach_avoid_sv1","""event"",""trial"",""time""
""fullscreenenter"",""1"",""2407""
","
","
","""event"",""trial"",""time""
""fullscreenenter"",""1"",""2407""
","
","","","","","","null","<div style=""font-size:60px;"">+</div>","null","","fixation","","",""
"memory-trial","219","462129","0.0-18.0-1.87","4175","approach_avoid_sv1","""event"",""trial"",""time""
""fullscreenenter"",""1"",""2407""
","
","
","""event"",""trial"",""time""
""fullscreenenter"",""1"",""2407""
","
","","","","","","935.1999999880791","images/orange3.png","","","memory_trial","1","definitely_old",""
"html-keyboard-response","220","462656","0.0-18.0-0.88","4175","approach_avoid_sv1","""event"",""trial"",""time""
""fullscreenenter"",""1"",""2407""
","
","
","""event"",""trial"",""time""
""fullscreenenter"",""1"",""2407""
","
","","","","","","null","<div style=""font-size:60px;"">+</div>","null","","fixation","","",""
"memory-trial","221","464405","0.0-18.0-1.88","4175","approach_avoid_sv1","""event"",""trial"",""time""
""fullscreenenter"",""1"",""2407""
","
","
","""event"",""trial"",""time""
""fullscreenenter"",""1"",""2407""
","
","","","","","","735.3000000119209","images/flower2.png","","","memory_trial","1","definitely_old",""
"html-keyboard-response","222","464917","0.0-18.0-0.89","4175","approach_avoid_sv1","""event"",""trial"",""time""
""fullscreenenter"",""1"",""2407""
","
","
","""event"",""trial"",""time""
""fullscreenenter"",""1"",""2407""
","
","","","","","","null","<div style=""font-size:60px;"">+</div>","null","","fixation","","",""
"memory-trial","223","467186","0.0-18.0-1.89","4175","approach_avoid_sv1","""event"",""trial"",""time""
""fullscreenenter"",""1"",""2407""
","
","
","""event"",""trial"",""time""
""fullscreenenter"",""1"",""2407""
","
","","","","","","1255.0999999642372","images/sheep7.png","","","memory_trial","3","maybe_new",""
"html-keyboard-response","224","467697","0.0-18.0-0.90","4175","approach_avoid_sv1","""event"",""trial"",""time""
""fullscreenenter"",""1"",""2407""
","
","
","""event"",""trial"",""time""
""fullscreenenter"",""1"",""2407""
","
","","","","","","null","<div style=""font-size:60px;"">+</div>","null","","fixation","","",""
"memory-trial","225","471336","0.0-18.0-1.90","4175","approach_avoid_sv1","""event"",""trial"",""time""
""fullscreenenter"",""1"",""2407""
","
","
","""event"",""trial"",""time""
""fullscreenenter"",""1"",""2407""
","
","","","","","","2623.5","images/orange8.png","","","memory_trial","3","maybe_new",""
"html-keyboard-response","226","471856","0.0-18.0-0.91","4175","approach_avoid_sv1","""event"",""trial"",""time""
""fullscreenenter"",""1"",""2407""
","
","
","""event"",""trial"",""time""
""fullscreenenter"",""1"",""2407""
","
","","","","","","null","<div style=""font-size:60px;"">+</div>","null","","fixation","","",""
"memory-trial","227","474313","0.0-18.0-1.91","4175","approach_avoid_sv1","""event"",""trial"",""time""
""fullscreenenter"",""1"",""2407""
","
","
","""event"",""trial"",""time""
""fullscreenenter"",""1"",""2407""
","
","","","","","","1434.7999999523163","images/boat2.png","","","memory_trial","3","maybe_new",""
"html-button-response","228","476252","0.0-18.0-2.91-0.91","4175","approach_avoid_sv1","""event"",""trial"",""time""
""fullscreenenter"",""1"",""2407""
","
","
","""event"",""trial"",""time""
""fullscreenenter"",""1"",""2407""
","
","","","","","","1936.800000011921","<p> Take a break! </p><p> Click the button to continue. </p>","0","","break","","",""
"html-keyboard-response","229","476767","0.0-18.0-0.92","4175","approach_avoid_sv1","""event"",""trial"",""time""
""fullscreenenter"",""1"",""2407""
","
","
","""event"",""trial"",""time""
""fullscreenenter"",""1"",""2407""
","
","","","","","","null","<div style=""font-size:60px;"">+</div>","null","","fixation","","",""
"memory-trial","230","479546","0.0-18.0-1.92","4175","approach_avoid_sv1","""event"",""trial"",""time""
""fullscreenenter"",""1"",""2407""
","
","
","""event"",""trial"",""time""
""fullscreenenter"",""1"",""2407""
","
","","","","","","1761","images/cow4.png","","","memory_trial","1","definitely_old",""
"html-keyboard-response","231","480058","0.0-18.0-0.93","4175","approach_avoid_sv1","""event"",""trial"",""time""
""fullscreenenter"",""1"",""2407""
","
","
","""event"",""trial"",""time""
""fullscreenenter"",""1"",""2407""
","
","","","","","","null","<div style=""font-size:60px;"">+</div>","null","","fixation","","",""
"memory-trial","232","482126","0.0-18.0-1.93","4175","approach_avoid_sv1","""event"",""trial"",""time""
""fullscreenenter"",""1"",""2407""
","
","
","""event"",""trial"",""time""
""fullscreenenter"",""1"",""2407""
","
","","","","","","1051.2999999523163","images/rodent5.png","","","memory_trial","1","definitely_old",""
"html-keyboard-response","233","482637","0.0-18.0-0.94","4175","approach_avoid_sv1","""event"",""trial"",""time""
""fullscreenenter"",""1"",""2407""
","
","
","""event"",""trial"",""time""
""fullscreenenter"",""1"",""2407""
","
","","","","","","null","<div style=""font-size:60px;"">+</div>","null","","fixation","","",""
"memory-trial","234","485137","0.0-18.0-1.94","4175","approach_avoid_sv1","""event"",""trial"",""time""
""fullscreenenter"",""1"",""2407""
","
","
","""event"",""trial"",""time""
""fullscreenenter"",""1"",""2407""
","
","","","","","","1483.3999999761581","images/sofa2.png","","","memory_trial","4","definitely_new",""
"html-keyboard-response","235","485655","0.0-18.0-0.95","4175","approach_avoid_sv1","""event"",""trial"",""time""
""fullscreenenter"",""1"",""2407""
","
","
","""event"",""trial"",""time""
""fullscreenenter"",""1"",""2407""
","
","","","","","","null","<div style=""font-size:60px;"">+</div>","null","","fixation","","",""
"memory-trial","236","488125","0.0-18.0-1.95","4175","approach_avoid_sv1","""event"",""trial"",""time""
""fullscreenenter"",""1"",""2407""
","
","
","""event"",""trial"",""time""
""fullscreenenter"",""1"",""2407""
","
","","","","","","1441.300000011921","images/apple4.png","","","memory_trial","1","definitely_old",""
"html-keyboard-response","237","488646","0.0-18.0-0.96","4175","approach_avoid_sv1","""event"",""trial"",""time""
""fullscreenenter"",""1"",""2407""
","
","
","""event"",""trial"",""time""
""fullscreenenter"",""1"",""2407""
","
","","","","","","null","<div style=""font-size:60px;"">+</div>","null","","fixation","","",""
"memory-trial","238","491397","0.0-18.0-1.96","4175","approach_avoid_sv1","""event"",""trial"",""time""
""fullscreenenter"",""1"",""2407""
","
","
","""event"",""trial"",""time""
""fullscreenenter"",""1"",""2407""
","
","","","","","","1731.8999999761581","images/tree8.png","","","memory_trial","2","maybe_old",""
"html-keyboard-response","239","491905","0.0-18.0-0.97","4175","approach_avoid_sv1","""event"",""trial"",""time""
""fullscreenenter"",""1"",""2407""
","
","
","""event"",""trial"",""time""
""fullscreenenter"",""1"",""2407""
","
","","","","","","null","<div style=""font-size:60px;"">+</div>","null","","fixation","","",""
"memory-trial","240","494526","0.0-18.0-1.97","4175","approach_avoid_sv1","""event"",""trial"",""time""
""fullscreenenter"",""1"",""2407""
","
","
","""event"",""trial"",""time""
""fullscreenenter"",""1"",""2407""
","
","","","","","","1603.7000000476837","images/tree4.png","","","memory_trial","3","maybe_new",""
"html-keyboard-response","241","495035","0.0-18.0-0.98","4175","approach_avoid_sv1","""event"",""trial"",""time""
""fullscreenenter"",""1"",""2407""
","
","
","""event"",""trial"",""time""
""fullscreenenter"",""1"",""2407""
","
","","","","","","null","<div style=""font-size:60px;"">+</div>","null","","fixation","","",""
"memory-trial","242","497527","0.0-18.0-1.98","4175","approach_avoid_sv1","""event"",""trial"",""time""
""fullscreenenter"",""1"",""2407""
","
","
","""event"",""trial"",""time""
""fullscreenenter"",""1"",""2407""
","
","","","","","","1473.699999988079","images/bush8.png","","","memory_trial","4","definitely_new",""
"html-keyboard-response","243","498035","0.0-18.0-0.99","4175","approach_avoid_sv1","""event"",""trial"",""time""
""fullscreenenter"",""1"",""2407""
","
","
","""event"",""trial"",""time""
""fullscreenenter"",""1"",""2407""
","
","","","","","","null","<div style=""font-size:60px;"">+</div>","null","","fixation","","",""
"memory-trial","244","500556","0.0-18.0-1.99","4175","approach_avoid_sv1","""event"",""trial"",""time""
""fullscreenenter"",""1"",""2407""
","
","
","""event"",""trial"",""time""
""fullscreenenter"",""1"",""2407""
","
","","","","","","1498","images/cactus4.png","","","memory_trial","1","definitely_old",""
"html-keyboard-response","245","501066","0.0-18.0-0.100","4175","approach_avoid_sv1","""event"",""trial"",""time""
""fullscreenenter"",""1"",""2407""
","
","
","""event"",""trial"",""time""
""fullscreenenter"",""1"",""2407""
","
","","","","","","null","<div style=""font-size:60px;"">+</div>","null","","fixation","","",""
"memory-trial","246","503485","0.0-18.0-1.100","4175","approach_avoid_sv1","""event"",""trial"",""time""
""fullscreenenter"",""1"",""2407""
","
","
","""event"",""trial"",""time""
""fullscreenenter"",""1"",""2407""
","
","","","","","","1403.4000000357628","images/chair1.png","","","memory_trial","1","definitely_old",""
"html-keyboard-response","247","504005","0.0-18.0-0.101","4175","approach_avoid_sv1","""event"",""trial"",""time""
""fullscreenenter"",""1"",""2407""
","
","
","""event"",""trial"",""time""
""fullscreenenter"",""1"",""2407""
","
","","","","","","null","<div style=""font-size:60px;"">+</div>","null","","fixation","","",""
"memory-trial","248","506609","0.0-18.0-1.101","4175","approach_avoid_sv1","""event"",""trial"",""time""
""fullscreenenter"",""1"",""2407""
","
","
","""event"",""trial"",""time""
""fullscreenenter"",""1"",""2407""
","
","","","","","","1589.800000011921","images/cat3.png","","","memory_trial","4","definitely_new",""
"html-keyboard-response","249","507119","0.0-18.0-0.102","4175","approach_avoid_sv1","""event"",""trial"",""time""
""fullscreenenter"",""1"",""2407""
","
","
","""event"",""trial"",""time""
""fullscreenenter"",""1"",""2407""
","
","","","","","","null","<div style=""font-size:60px;"">+</div>","null","","fixation","","",""
"memory-trial","250","509556","0.0-18.0-1.102","4175","approach_avoid_sv1","""event"",""trial"",""time""
""fullscreenenter"",""1"",""2407""
","
","
","""event"",""trial"",""time""
""fullscreenenter"",""1"",""2407""
","
","","","","","","1420.6000000238419","images/goat3.png","","","memory_trial","3","maybe_new",""
"html-keyboard-response","251","510066","0.0-18.0-0.103","4175","approach_avoid_sv1","""event"",""trial"",""time""
""fullscreenenter"",""1"",""2407""
","
","
","""event"",""trial"",""time""
""fullscreenenter"",""1"",""2407""
","
","","","","","","null","<div style=""font-size:60px;"">+</div>","null","","fixation","","",""
"memory-trial","252","513118","0.0-18.0-1.103","4175","approach_avoid_sv1","""event"",""trial"",""time""
""fullscreenenter"",""1"",""2407""
","
","
","""event"",""trial"",""time""
""fullscreenenter"",""1"",""2407""
","
","","","","","","2038.199999988079","images/bed1.png","","","memory_trial","2","maybe_old",""
"html-keyboard-response","253","513635","0.0-18.0-0.104","4175","approach_avoid_sv1","""event"",""trial"",""time""
""fullscreenenter"",""1"",""2407""
","
","
","""event"",""trial"",""time""
""fullscreenenter"",""1"",""2407""
","
","","","","","","null","<div style=""font-size:60px;"">+</div>","null","","fixation","","",""
"memory-trial","254","516807","0.0-18.0-1.104","4175","approach_avoid_sv1","""event"",""trial"",""time""
""fullscreenenter"",""1"",""2407""
","
","
","""event"",""trial"",""time""
""fullscreenenter"",""1"",""2407""
","
","","","","","","2162.899999976158","images/flower7.png","","","memory_trial","4","definitely_new",""
"html-keyboard-response","255","517326","0.0-18.0-0.105","4175","approach_avoid_sv1","""event"",""trial"",""time""
""fullscreenenter"",""1"",""2407""
","
","
","""event"",""trial"",""time""
""fullscreenenter"",""1"",""2407""
","
","","","","","","null","<div style=""font-size:60px;"">+</div>","null","","fixation","","",""
"memory-trial","256","519536","0.0-18.0-1.105","4175","approach_avoid_sv1","""event"",""trial"",""time""
""fullscreenenter"",""1"",""2407""
","
","
","""event"",""trial"",""time""
""fullscreenenter"",""1"",""2407""
","
","","","","","","1185.699999988079","images/train8.png","","","memory_trial","1","definitely_old",""
"html-keyboard-response","257","520048","0.0-18.0-0.106","4175","approach_avoid_sv1","""event"",""trial"",""time""
""fullscreenenter"",""1"",""2407""
","
","
","""event"",""trial"",""time""
""fullscreenenter"",""1"",""2407""
","
","","","","","","null","<div style=""font-size:60px;"">+</div>","null","","fixation","","",""
"memory-trial","258","522376","0.0-18.0-1.106","4175","approach_avoid_sv1","""event"",""trial"",""time""
""fullscreenenter"",""1"",""2407""
","
","
","""event"",""trial"",""time""
""fullscreenenter"",""1"",""2407""
","
","","","","","","1321.199999988079","images/goat6.png","","","memory_trial","4","definitely_new",""
"html-keyboard-response","259","522895","0.0-18.0-0.107","4175","approach_avoid_sv1","""event"",""trial"",""time""
""fullscreenenter"",""1"",""2407""
","
","
","""event"",""trial"",""time""
""fullscreenenter"",""1"",""2407""
","
","","","","","","null","<div style=""font-size:60px;"">+</div>","null","","fixation","","",""
"memory-trial","260","525156","0.0-18.0-1.107","4175","approach_avoid_sv1","""event"",""trial"",""time""
""fullscreenenter"",""1"",""2407""
","
","
","""event"",""trial"",""time""
""fullscreenenter"",""1"",""2407""
","
","","","","","","1237","images/flower1.png","","","memory_trial","2","maybe_old",""
"html-keyboard-response","261","525665","0.0-18.0-0.108","4175","approach_avoid_sv1","""event"",""trial"",""time""
""fullscreenenter"",""1"",""2407""
","
","
","""event"",""trial"",""time""
""fullscreenenter"",""1"",""2407""
","
","","","","","","null","<div style=""font-size:60px;"">+</div>","null","","fixation","","",""
"memory-trial","262","527823","0.0-18.0-1.108","4175","approach_avoid_sv1","""event"",""trial"",""time""
""fullscreenenter"",""1"",""2407""
","
","
","""event"",""trial"",""time""
""fullscreenenter"",""1"",""2407""
","
","","","","","","1139.5","images/dog7.png","","","memory_trial","4","definitely_new",""
"html-keyboard-response","263","528327","0.0-18.0-0.109","4175","approach_avoid_sv1","""event"",""trial"",""time""
""fullscreenenter"",""1"",""2407""
","
","
","""event"",""trial"",""time""
""fullscreenenter"",""1"",""2407""
","
","","","","","","null","<div style=""font-size:60px;"">+</div>","null","","fixation","","",""
"memory-trial","264","531195","0.0-18.0-1.109","4175","approach_avoid_sv1","""event"",""trial"",""time""
""fullscreenenter"",""1"",""2407""
","
","
","""event"",""trial"",""time""
""fullscreenenter"",""1"",""2407""
","
","","","","","","1850.5","images/train5.png","","","memory_trial","3","maybe_new",""
"html-keyboard-response","265","531712","0.0-18.0-0.110","4175","approach_avoid_sv1","""event"",""trial"",""time""
""fullscreenenter"",""1"",""2407""
","
","
","""event"",""trial"",""time""
""fullscreenenter"",""1"",""2407""
","
","","","","","","null","<div style=""font-size:60px;"">+</div>","null","","fixation","","",""
"memory-trial","266","535137","0.0-18.0-1.110","4175","approach_avoid_sv1","""event"",""trial"",""time""
""fullscreenenter"",""1"",""2407""
","
","
","""event"",""trial"",""time""
""fullscreenenter"",""1"",""2407""
","
","","","","","","2416.800000011921","images/cactus1.png","","","memory_trial","2","maybe_old",""
"html-keyboard-response","267","535655","0.0-18.0-0.111","4175","approach_avoid_sv1","""event"",""trial"",""time""
""fullscreenenter"",""1"",""2407""
","
","
","""event"",""trial"",""time""
""fullscreenenter"",""1"",""2407""
","
","","","","","","null","<div style=""font-size:60px;"">+</div>","null","","fixation","","",""
"memory-trial","268","538735","0.0-18.0-1.111","4175","approach_avoid_sv1","""event"",""trial"",""time""
""fullscreenenter"",""1"",""2407""
","
","
","""event"",""trial"",""time""
""fullscreenenter"",""1"",""2407""
","
","","","","","","2066.099999964237","images/train1.png","","","memory_trial","3","maybe_new",""
"html-keyboard-response","269","539246","0.0-18.0-0.112","4175","approach_avoid_sv1","""event"",""trial"",""time""
""fullscreenenter"",""1"",""2407""
","
","
","""event"",""trial"",""time""
""fullscreenenter"",""1"",""2407""
","
","","","","","","null","<div style=""font-size:60px;"">+</div>","null","","fixation","","",""
"memory-trial","270","541695","0.0-18.0-1.112","4175","approach_avoid_sv1","""event"",""trial"",""time""
""fullscreenenter"",""1"",""2407""
","
","
","""event"",""trial"",""time""
""fullscreenenter"",""1"",""2407""
","
","","","","","","1435.0999999642372","images/table2.png","","","memory_trial","4","definitely_new",""
"html-keyboard-response","271","542210","0.0-18.0-0.113","4175","approach_avoid_sv1","""event"",""trial"",""time""
""fullscreenenter"",""1"",""2407""
","
","
","""event"",""trial"",""time""
""fullscreenenter"",""1"",""2407""
","
","","","","","","null","<div style=""font-size:60px;"">+</div>","null","","fixation","","",""
"memory-trial","272","544434","0.0-18.0-1.113","4175","approach_avoid_sv1","""event"",""trial"",""time""
""fullscreenenter"",""1"",""2407""
","
","
","""event"",""trial"",""time""
""fullscreenenter"",""1"",""2407""
","
","","","","","","1211.2999999523163","images/cow2.png","","","memory_trial","2","maybe_old",""
"html-keyboard-response","273","544957","0.0-18.0-0.114","4175","approach_avoid_sv1","""event"",""trial"",""time""
""fullscreenenter"",""1"",""2407""
","
","
","""event"",""trial"",""time""
""fullscreenenter"",""1"",""2407""
","
","","","","","","null","<div style=""font-size:60px;"">+</div>","null","","fixation","","",""
"memory-trial","274","546856","0.0-18.0-1.114","4175","approach_avoid_sv1","""event"",""trial"",""time""
""fullscreenenter"",""1"",""2407""
","
","
","""event"",""trial"",""time""
""fullscreenenter"",""1"",""2407""
","
","","","","","","885.6999999880791","images/sheep1.png","","","memory_trial","2","maybe_old",""
"html-keyboard-response","275","547375","0.0-18.0-0.115","4175","approach_avoid_sv1","""event"",""trial"",""time""
""fullscreenenter"",""1"",""2407""
","
","
","""event"",""trial"",""time""
""fullscreenenter"",""1"",""2407""
","
","","","","","","null","<div style=""font-size:60px;"">+</div>","null","","fixation","","",""
"memory-trial","276","549567","0.0-18.0-1.115","4175","approach_avoid_sv1","""event"",""trial"",""time""
""fullscreenenter"",""1"",""2407""
","
","
","""event"",""trial"",""time""
""fullscreenenter"",""1"",""2407""
","
","","","","","","1182.699999988079","images/plane3.png","","","memory_trial","1","definitely_old",""
"html-keyboard-response","277","550076","0.0-18.0-0.116","4175","approach_avoid_sv1","""event"",""trial"",""time""
""fullscreenenter"",""1"",""2407""
","
","
","""event"",""trial"",""time""
""fullscreenenter"",""1"",""2407""
","
","","","","","","null","<div style=""font-size:60px;"">+</div>","null","","fixation","","",""
"memory-trial","278","552695","0.0-18.0-1.116","4175","approach_avoid_sv1","""event"",""trial"",""time""
""fullscreenenter"",""1"",""2407""
","
","
","""event"",""trial"",""time""
""fullscreenenter"",""1"",""2407""
","
","","","","","","1600.699999988079","images/cat8.png","","","memory_trial","4","definitely_new",""
"html-keyboard-response","279","553206","0.0-18.0-0.117","4175","approach_avoid_sv1","""event"",""trial"",""time""
""fullscreenenter"",""1"",""2407""
","
","
","""event"",""trial"",""time""
""fullscreenenter"",""1"",""2407""
","
","","","","","","null","<div style=""font-size:60px;"">+</div>","null","","fixation","","",""
"memory-trial","280","556904","0.0-18.0-1.117","4175","approach_avoid_sv1","""event"",""trial"",""time""
""fullscreenenter"",""1"",""2407""
","
","
","""event"",""trial"",""time""
""fullscreenenter"",""1"",""2407""
","
","","","","","","2680.600000023842","images/banana1.png","","","memory_trial","2","maybe_old",""
"html-keyboard-response","281","557415","0.0-18.0-0.118","4175","approach_avoid_sv1","""event"",""trial"",""time""
""fullscreenenter"",""1"",""2407""
","
","
","""event"",""trial"",""time""
""fullscreenenter"",""1"",""2407""
","
","","","","","","null","<div style=""font-size:60px;"">+</div>","null","","fixation","","",""
"memory-trial","282","559447","0.0-18.0-1.118","4175","approach_avoid_sv1","""event"",""trial"",""time""
""fullscreenenter"",""1"",""2407""
","
","
","""event"",""trial"",""time""
""fullscreenenter"",""1"",""2407""
","
","","","","","","1015.2999999523163","images/bush2.png","","","memory_trial","3","maybe_new",""
"html-keyboard-response","283","559956","0.0-18.0-0.119","4175","approach_avoid_sv1","""event"",""trial"",""time""
""fullscreenenter"",""1"",""2407""
","
","
","""event"",""trial"",""time""
""fullscreenenter"",""1"",""2407""
","
","","","","","","null","<div style=""font-size:60px;"">+</div>","null","","fixation","","",""
"memory-trial","284","561676","0.0-18.0-1.119","4175","approach_avoid_sv1","""event"",""trial"",""time""
""fullscreenenter"",""1"",""2407""
","
","
","""event"",""trial"",""time""
""fullscreenenter"",""1"",""2407""
","
","","","","","","705.1999999880791","images/chair5.png","","","memory_trial","3","maybe_new",""
"html-keyboard-response","285","562187","0.0-18.0-0.120","4175","approach_avoid_sv1","""event"",""trial"",""time""
""fullscreenenter"",""1"",""2407""
","
","
","""event"",""trial"",""time""
""fullscreenenter"",""1"",""2407""
","
","","","","","","null","<div style=""font-size:60px;"">+</div>","null","","fixation","","",""
"memory-trial","286","564016","0.0-18.0-1.120","4175","approach_avoid_sv1","""event"",""trial"",""time""
""fullscreenenter"",""1"",""2407""
","
","
","""event"",""trial"",""time""
""fullscreenenter"",""1"",""2407""
","
","","","","","","812.3000000119209","images/goat7.png","","","memory_trial","3","maybe_new",""
"html-keyboard-response","287","564535","0.0-18.0-0.121","4175","approach_avoid_sv1","""event"",""trial"",""time""
""fullscreenenter"",""1"",""2407""
","
","
","""event"",""trial"",""time""
""fullscreenenter"",""1"",""2407""
","
","","","","","","null","<div style=""font-size:60px;"">+</div>","null","","fixation","","",""
"memory-trial","288","566746","0.0-18.0-1.121","4175","approach_avoid_sv1","""event"",""trial"",""time""
""fullscreenenter"",""1"",""2407""
","
","
","""event"",""trial"",""time""
""fullscreenenter"",""1"",""2407""
","
","","","","","","1195.3999999761581","images/orange5.png","","","memory_trial","2","maybe_old",""
"html-keyboard-response","289","567266","0.0-18.0-0.122","4175","approach_avoid_sv1","""event"",""trial"",""time""
""fullscreenenter"",""1"",""2407""
","
","
","""event"",""trial"",""time""
""fullscreenenter"",""1"",""2407""
","
","","","","","","null","<div style=""font-size:60px;"">+</div>","null","","fixation","","",""
"memory-trial","290","569362","0.0-18.0-1.122","4175","approach_avoid_sv1","""event"",""trial"",""time""
""fullscreenenter"",""1"",""2407""
","
","
","""event"",""trial"",""time""
""fullscreenenter"",""1"",""2407""
","
","","","","","","1088.300000011921","images/banana3.png","","","memory_trial","1","definitely_old",""
"html-keyboard-response","291","569878","0.0-18.0-0.123","4175","approach_avoid_sv1","""event"",""trial"",""time""
""fullscreenenter"",""1"",""2407""
","
","
","""event"",""trial"",""time""
""fullscreenenter"",""1"",""2407""
","
","","","","","","null","<div style=""font-size:60px;"">+</div>","null","","fixation","","",""
"memory-trial","292","572316","0.0-18.0-1.123","4175","approach_avoid_sv1","""event"",""trial"",""time""
""fullscreenenter"",""1"",""2407""
","
","
","""event"",""trial"",""time""
""fullscreenenter"",""1"",""2407""
","
","","","","","","1424","images/train2.png","","","memory_trial","4","definitely_new",""
"html-keyboard-response","293","572825","0.0-18.0-0.124","4175","approach_avoid_sv1","""event"",""trial"",""time""
""fullscreenenter"",""1"",""2407""
","
","
","""event"",""trial"",""time""
""fullscreenenter"",""1"",""2407""
","
","","","","","","null","<div style=""font-size:60px;"">+</div>","null","","fixation","","",""
"memory-trial","294","575296","0.0-18.0-1.124","4175","approach_avoid_sv1","""event"",""trial"",""time""
""fullscreenenter"",""1"",""2407""
","
","
","""event"",""trial"",""time""
""fullscreenenter"",""1"",""2407""
","
","","","","","","1457.6000000238419","images/train6.png","","","memory_trial","1","definitely_old",""
"html-keyboard-response","295","575805","0.0-18.0-0.125","4175","approach_avoid_sv1","""event"",""trial"",""time""
""fullscreenenter"",""1"",""2407""
","
","
","""event"",""trial"",""time""
""fullscreenenter"",""1"",""2407""
","
","","","","","","null","<div style=""font-size:60px;"">+</div>","null","","fixation","","",""
"memory-trial","296","578175","0.0-18.0-1.125","4175","approach_avoid_sv1","""event"",""trial"",""time""
""fullscreenenter"",""1"",""2407""
","
","
","""event"",""trial"",""time""
""fullscreenenter"",""1"",""2407""
","
","","","","","","1349.5","images/plane8.png","","","memory_trial","1","definitely_old",""
"html-keyboard-response","297","578686","0.0-18.0-0.126","4175","approach_avoid_sv1","""event"",""trial"",""time""
""fullscreenenter"",""1"",""2407""
","
","
","""event"",""trial"",""time""
