"trial_type","trial_index","time_elapsed","internal_node_id","subject_id","task_version","interactions","blur_events","focus_events","fullscreenenter_events","fullscreenexit_events","success","timeout","failed_images","failed_audio","failed_video","rt","stimulus","response","button_pressed","task_part","key_press","answer","correct"
"pavlovia","0","3","0.0-0.0","6479","approach_avoid_sv1","""event"",""trial"",""time""
""fullscreenenter"",""1"",""4740""
","
","
","""event"",""trial"",""time""
""fullscreenenter"",""1"",""4740""
","
","","","","","","","","","","","","",""
"fullscreen","1","5716","0.0-1.0","6479","approach_avoid_sv1","""event"",""trial"",""time""
""fullscreenenter"",""1"",""4740""
","
","
","""event"",""trial"",""time""
""fullscreenenter"",""1"",""4740""
","
","true","","","","","","","","","","","",""
"preload","2","10316","0.0-2.0","6479","approach_avoid_sv1","""event"",""trial"",""time""
""fullscreenenter"",""1"",""4740""
","
","
","""event"",""trial"",""time""
""fullscreenenter"",""1"",""4740""
","
","true","false","[]","[]","[]","","","","","","","",""
"preload","3","13761","0.0-3.0","6479","approach_avoid_sv1","""event"",""trial"",""time""
""fullscreenenter"",""1"",""4740""
","
","
","""event"",""trial"",""time""
""fullscreenenter"",""1"",""4740""
","
","true","false","[]","[]","[]","","","","","","","",""
"preload","4","14219","0.0-4.0","6479","approach_avoid_sv1","""event"",""trial"",""time""
""fullscreenenter"",""1"",""4740""
","
","
","""event"",""trial"",""time""
""fullscreenenter"",""1"",""4740""
","
","true","false","[]","[]","[]","","","","","","","",""
"audio-keyboard-response","5","15883","0.0-5.0","6479","approach_avoid_sv1","""event"",""trial"",""time""
""fullscreenenter"",""1"",""4740""
","
","
","""event"",""trial"",""time""
""fullscreenenter"",""1"",""4740""
","
","","","","","","1658.6666666666667","audio/beep_loop.wav"," ","","","","",""
"audio-button-response","6","18752","0.0-6.0","6479","approach_avoid_sv1","""event"",""trial"",""time""
""fullscreenenter"",""1"",""4740""
","
","
","""event"",""trial"",""time""
""fullscreenenter"",""1"",""4740""
","
","","","","","","2859","audio/turtle.wav","3","","","","",""
"audio-button-response","7","21004","0.0-7.0","6479","approach_avoid_sv1","""event"",""trial"",""time""
""fullscreenenter"",""1"",""4740""
","
","
","""event"",""trial"",""time""
""fullscreenenter"",""1"",""4740""
","
","","","","","","1240","audio/shark.wav","2","","","","",""
"preload","8","24715","0.0-8.0","6479","approach_avoid_sv1","""event"",""trial"",""time""
""fullscreenenter"",""1"",""4740""
","
","
","""event"",""trial"",""time""
""fullscreenenter"",""1"",""4740""
","
","true","false","[]","[]","[]","","","","","","","",""
"learning-instructions","9","33015","0.0-9.0-0.0","6479","approach_avoid_sv1","""event"",""trial"",""time""
""fullscreenenter"",""1"",""4740""
","
","
","""event"",""trial"",""time""
""fullscreenenter"",""1"",""4740""
","
","","","","","","3819.100000023842","<p> Welcome back! </p><p> Last week, you had to make choices about lots of different items.  </p>","","0","instructions","","",""
"learning-instructions","10","38983","0.0-9.0-0.1","6479","approach_avoid_sv1","""event"",""trial"",""time""
""fullscreenenter"",""1"",""4740""
","
","
","""event"",""trial"",""time""
""fullscreenenter"",""1"",""4740""
","
","","","","","","1857.8999999761581","<p> Today, we are going to ask you to try to remember all the items. </p>","","0","instructions","","",""
"learning-instructions","11","50742","0.0-9.0-0.2","6479","approach_avoid_sv1","""event"",""trial"",""time""
""fullscreenenter"",""1"",""4740""
","
","
","""event"",""trial"",""time""
""fullscreenenter"",""1"",""4740""
","
","","","","","","1626.7000000476837","<p> On every trial, you will see an image. </p><p> The image may be an OLD image you saw during the games last week or it may be a NEW image that was not presented. </p>","","0","instructions","","",""
"learning-instructions","12","60902","0.0-9.0-0.3","6479","approach_avoid_sv1","""event"",""trial"",""time""
""fullscreenenter"",""1"",""4740""
","
","
","""event"",""trial"",""time""
""fullscreenenter"",""1"",""4740""
","
","","","","","","1656.699999988079","<p> You need to select whether the image is:  </p><p>  'Definitely old', 'Maybe old', 'Maybe new', or 'Definitely new.'  </p><div class=""mem-choice-instructions-grid""><div class=""choice-option"" id=""choice-option-1"" ><img src=""images/definitely_old_1.png"" id=""choice-option-img-1"" class=""choice-option-img"" stage=""1""></div><div class=""choice-option"" id=""choice-option-2"" ><img src=""images/maybe_old_1.png"" id=""choice-option-img-2"" class=""choice-option-img"" stage=""1""></div><div class=""choice-option"" id=""choice-option-3"" ><img src=""images/maybe_new_1.png"" id=""choice-option-img-3"" class=""choice-option-img"" stage=""1""></div><div class=""choice-option"" id=""choice-option-4"" > <img src=""images/definitely_new_1.png"" id=""choice-option-img-4"" class=""choice-option-img"" stage=""1""></div></div>","","0","instructions","","",""
"learning-instructions","13","70211","0.0-9.0-0.4","6479","approach_avoid_sv1","""event"",""trial"",""time""
""fullscreenenter"",""1"",""4740""
","
","
","""event"",""trial"",""time""
""fullscreenenter"",""1"",""4740""
","
","","","","","","2794.300000011921","<p> You should use the 1, 2, 3, and 4 keys to make your responses.  </p><div class=""mem-choice-instructions-grid""><div class=""choice-option"" id=""choice-option-1"" ><img src=""images/definitely_old.png"" id=""choice-option-img-1"" class=""choice-option-img"" stage=""1""></div><div class=""choice-option"" id=""choice-option-2"" ><img src=""images/maybe_old.png"" id=""choice-option-img-2"" class=""choice-option-img"" stage=""1""></div><div class=""choice-option"" id=""choice-option-3"" ><img src=""images/maybe_new.png"" id=""choice-option-img-3"" class=""choice-option-img"" stage=""1""></div><div class=""choice-option"" id=""choice-option-4"" > <img src=""images/definitely_new.png"" id=""choice-option-img-4"" class=""choice-option-img"" stage=""1""></div></div>","","0","instructions","","",""
"learning-instructions","14","86447","0.0-9.0-0.5","6479","approach_avoid_sv1","""event"",""trial"",""time""
""fullscreenenter"",""1"",""4740""
","
","
","""event"",""trial"",""time""
""fullscreenenter"",""1"",""4740""
","
","","","","","","9901.299999952316","<p> You will have 10 seconds to make each response.  </p><p>  Make sure to respond before time runs out! </p>","","0","instructions","","",""
"learning-instructions","15","101281","0.0-9.0-0.6","6479","approach_avoid_sv1","""event"",""trial"",""time""
""fullscreenenter"",""1"",""4740""
","
","
","""event"",""trial"",""time""
""fullscreenenter"",""1"",""4740""
","
","","","","","","7765.699999988079","<p> Today, you will see each image ONCE only.  </p><p>  That means none of the images will repeat. </p>","","0","instructions","","",""
"learning-instructions","16","114514","0.0-9.0-0.7","6479","approach_avoid_sv1","""event"",""trial"",""time""
""fullscreenenter"",""1"",""4740""
","
","
","""event"",""trial"",""time""
""fullscreenenter"",""1"",""4740""
","
","","","","","","569.2000000476837","<p> Before you play the real game, it is time to practice. </p><p>  Just like in the real game, some of the images in the practice will be ones you have seen before. </p><p>  Others will be entirely new. </p>","","0","instructions","","",""
"html-button-response","17","115916","0.0-10.0","6479","approach_avoid_sv1","""event"",""trial"",""time""
""fullscreenenter"",""1"",""4740""
","
","
","""event"",""trial"",""time""
""fullscreenenter"",""1"",""4740""
","
","","","","","","1299.6000000238419","<p> Ready to practice? </p><p> Remember, use the 1, 2, 3, and 4 keys to make your responses. </p>","0","","instructions","","",""
"html-keyboard-response","18","116520","0.0-11.0-0.0","6479","approach_avoid_sv1","""event"",""trial"",""time""
""fullscreenenter"",""1"",""4740""
","
","
","""event"",""trial"",""time""
""fullscreenenter"",""1"",""4740""
","
","","","","","","null","<div style=""font-size:60px;"">+</div>","null","","fixation","","",""
"memory-trial","19","119116","0.0-11.0-1.0","6479","approach_avoid_sv1","""event"",""trial"",""time""
""fullscreenenter"",""1"",""4740""
","
","
","""event"",""trial"",""time""
""fullscreenenter"",""1"",""4740""
","
","","","","","","1588.1000000238419","images/ball2.png","","","practice","1","definitely_old",""
"html-keyboard-response","20","119618","0.0-11.0-0.1","6479","approach_avoid_sv1","""event"",""trial"",""time""
""fullscreenenter"",""1"",""4740""
","
","
","""event"",""trial"",""time""
""fullscreenenter"",""1"",""4740""
","
","","","","","","null","<div style=""font-size:60px;"">+</div>","null","","fixation","","",""
"memory-trial","21","122009","0.0-11.0-1.1","6479","approach_avoid_sv1","""event"",""trial"",""time""
""fullscreenenter"",""1"",""4740""
","
","
","""event"",""trial"",""time""
""fullscreenenter"",""1"",""4740""
","
","","","","","","1387.9000000357628","images/ball3.png","","","practice","2","maybe_old",""
"html-keyboard-response","22","122510","0.0-11.0-0.2","6479","approach_avoid_sv1","""event"",""trial"",""time""
""fullscreenenter"",""1"",""4740""
","
","
","""event"",""trial"",""time""
""fullscreenenter"",""1"",""4740""
","
","","","","","","null","<div style=""font-size:60px;"">+</div>","null","","fixation","","",""
"memory-trial","23","125356","0.0-11.0-1.2","6479","approach_avoid_sv1","""event"",""trial"",""time""
""fullscreenenter"",""1"",""4740""
","
","
","""event"",""trial"",""time""
""fullscreenenter"",""1"",""4740""
","
","","","","","","1842.5","images/racket3.png","","","practice","4","definitely_new",""
"html-keyboard-response","24","125858","0.0-11.0-0.3","6479","approach_avoid_sv1","""event"",""trial"",""time""
""fullscreenenter"",""1"",""4740""
","
","
","""event"",""trial"",""time""
""fullscreenenter"",""1"",""4740""
","
","","","","","","null","<div style=""font-size:60px;"">+</div>","null","","fixation","","",""
"memory-trial","25","128785","0.0-11.0-1.3","6479","approach_avoid_sv1","""event"",""trial"",""time""
""fullscreenenter"",""1"",""4740""
","
","
","""event"",""trial"",""time""
""fullscreenenter"",""1"",""4740""
","
","","","","","","1922.699999988079","images/racket5.png","","","practice","3","maybe_new",""
"html-keyboard-response","26","129287","0.0-11.0-0.4","6479","approach_avoid_sv1","""event"",""trial"",""time""
""fullscreenenter"",""1"",""4740""
","
","
","""event"",""trial"",""time""
""fullscreenenter"",""1"",""4740""
","
","","","","","","null","<div style=""font-size:60px;"">+</div>","null","","fixation","","",""
"memory-trial","27","132021","0.0-11.0-1.4","6479","approach_avoid_sv1","""event"",""trial"",""time""
""fullscreenenter"",""1"",""4740""
","
","
","""event"",""trial"",""time""
""fullscreenenter"",""1"",""4740""
","
","","","","","","1728.800000011921","images/ball5.png","","","practice","2","maybe_old",""
"html-keyboard-response","28","132523","0.0-11.0-0.5","6479","approach_avoid_sv1","""event"",""trial"",""time""
""fullscreenenter"",""1"",""4740""
","
","
","""event"",""trial"",""time""
""fullscreenenter"",""1"",""4740""
","
","","","","","","null","<div style=""font-size:60px;"">+</div>","null","","fixation","","",""
"memory-trial","29","135070","0.0-11.0-1.5","6479","approach_avoid_sv1","""event"",""trial"",""time""
""fullscreenenter"",""1"",""4740""
","
","
","""event"",""trial"",""time""
""fullscreenenter"",""1"",""4740""
","
","","","","","","1542","images/racket1.png","","","practice","3","maybe_new",""
"html-keyboard-response","30","135572","0.0-11.0-0.6","6479","approach_avoid_sv1","""event"",""trial"",""time""
""fullscreenenter"",""1"",""4740""
","
","
","""event"",""trial"",""time""
""fullscreenenter"",""1"",""4740""
","
","","","","","","null","<div style=""font-size:60px;"">+</div>","null","","fixation","","",""
"memory-trial","31","137802","0.0-11.0-1.6","6479","approach_avoid_sv1","""event"",""trial"",""time""
""fullscreenenter"",""1"",""4740""
","
","
","""event"",""trial"",""time""
""fullscreenenter"",""1"",""4740""
","
","","","","","","1225.6000000238419","images/racket2.png","","","practice","1","definitely_old",""
"html-keyboard-response","32","138305","0.0-11.0-0.7","6479","approach_avoid_sv1","""event"",""trial"",""time""
""fullscreenenter"",""1"",""4740""
","
","
","""event"",""trial"",""time""
""fullscreenenter"",""1"",""4740""
","
","","","","","","null","<div style=""font-size:60px;"">+</div>","null","","fixation","","",""
"memory-trial","33","140563","0.0-11.0-1.7","6479","approach_avoid_sv1","""event"",""trial"",""time""
""fullscreenenter"",""1"",""4740""
","
","
","""event"",""trial"",""time""
""fullscreenenter"",""1"",""4740""
","
","","","","","","1254.1000000238419","images/ball1.png","","","practice","2","maybe_old",""
"learning-instructions","34","149604","0.0-12.0-0.0","6479","approach_avoid_sv1","""event"",""trial"",""time""
""fullscreenenter"",""1"",""4740""
","
","
","""event"",""trial"",""time""
""fullscreenenter"",""1"",""4740""
","
","","","","","","1729.800000011921","<p> Great! You have completed the practice. </p><p> Before you start, we're going to ask you a few questions about how the game works.  </p>","","0","instructions","","",""
"preload","35","151653","0.0-13.0","6479","approach_avoid_sv1","""event"",""trial"",""time""
""fullscreenenter"",""1"",""4740""
","
","
","""event"",""trial"",""time""
""fullscreenenter"",""1"",""4740""
","
","true","false","[]","[]","[]","","","","","","","",""
"comp-q","36","159004","0.0-14.0-0.0","6479","approach_avoid_sv1","""event"",""trial"",""time""
""fullscreenenter"",""1"",""4740""
","
","
","""event"",""trial"",""time""
""fullscreenenter"",""1"",""4740""
","
","","","","","","1518.5999999642372","<p> <b> True or False? </b> </p><p> In this game, you will only see each image once. </p>","","0","comp_question","","","true"
"comp-q","37","166576","0.0-14.0-1.0","6479","approach_avoid_sv1","""event"",""trial"",""time""
""fullscreenenter"",""1"",""4740""
","
","
","""event"",""trial"",""time""
""fullscreenenter"",""1"",""4740""
","
","","","","","","1241.5","<p> <b> That's right! </b> You will see many different images <i> one time each </i> in this game. </p>","","0","comp_answer","","",""
"comp-q","38","173428","0.0-15.0-0.0","6479","approach_avoid_sv1","""event"",""trial"",""time""
""fullscreenenter"",""1"",""4740""
","
","
","""event"",""trial"",""time""
""fullscreenenter"",""1"",""4740""
","
","","","","","","1853.800000011921","<p> <b> True or False? </b> </p><p> You should use the mouse and click to make your response. </p>","","0","comp_question","","","false"
"comp-q","39","180950","0.0-15.0-1.0","6479","approach_avoid_sv1","""event"",""trial"",""time""
""fullscreenenter"",""1"",""4740""
","
","
","""event"",""trial"",""time""
""fullscreenenter"",""1"",""4740""
","
","","","","","","986.5999999642372","<p><b> Incorrect. </b> You should use the '1', '2', '3', and '4' keys to make your response. </p>","","0","comp_answer","","",""
"comp-q","40","186851","0.0-15.1-0.1","6479","approach_avoid_sv1","""event"",""trial"",""time""
""fullscreenenter"",""1"",""4740""
","
","
","""event"",""trial"",""time""
""fullscreenenter"",""1"",""4740""
","
","","","","","","887","<p> <b> True or False? </b> </p><p> You should use the mouse and click to make your response. </p>","","1","comp_question","","","true"
"comp-q","41","197139","0.0-15.1-1.1","6479","approach_avoid_sv1","""event"",""trial"",""time""
""fullscreenenter"",""1"",""4740""
","
","
","""event"",""trial"",""time""
""fullscreenenter"",""1"",""4740""
","
","","","","","","3784.399999976158","<p><b> That's right! </b> You should use the '1', '2', '3', and '4' keys to make your response. </p>","","0","comp_answer","","",""
"comp-q","42","205628","0.0-16.0-0.0","6479","approach_avoid_sv1","""event"",""trial"",""time""
""fullscreenenter"",""1"",""4740""
","
","
","""event"",""trial"",""time""
""fullscreenenter"",""1"",""4740""
","
","","","","","","2823","<p> <b> True or False? </b> </p><p> You will have as much time as you want to make each choice. </p>","","1","comp_question","","","true"
"comp-q","43","213830","0.0-16.0-1.0","6479","approach_avoid_sv1","""event"",""trial"",""time""
""fullscreenenter"",""1"",""4740""
","
","
","""event"",""trial"",""time""
""fullscreenenter"",""1"",""4740""
","
","","","","","","3506.900000035763","<p> <b> That's right! </b> You will only have 10 seconds to make each choice. </p>","","0","comp_answer","","",""
"learning-instructions","44","227979","0.0-17.0","6479","approach_avoid_sv1","""event"",""trial"",""time""
""fullscreenenter"",""1"",""4740""
","
","
","""event"",""trial"",""time""
""fullscreenenter"",""1"",""4740""
","
","","","","","","5475.399999976158","<p> Great! You are now ready to begin the game. </p><p> Remember, use the 1, 2, 3, and 4 keys to make your responses. </p>","","0","instructions","","",""
"html-keyboard-response","45","228584","0.0-18.0-0.0","6479","approach_avoid_sv1","""event"",""trial"",""time""
""fullscreenenter"",""1"",""4740""
","
","
","""event"",""trial"",""time""
""fullscreenenter"",""1"",""4740""
","
","","","","","","null","<div style=""font-size:60px;"">+</div>","null","","fixation","","",""
"memory-trial","46","234607","0.0-18.0-1.0","6479","approach_avoid_sv1","""event"",""trial"",""time""
""fullscreenenter"",""1"",""4740""
","
","
","""event"",""trial"",""time""
""fullscreenenter"",""1"",""4740""
","
","","","","","","5017.199999988079","images/goat8.png","","","memory_trial","2","maybe_old",""
"html-keyboard-response","47","235109","0.0-18.0-0.1","6479","approach_avoid_sv1","""event"",""trial"",""time""
""fullscreenenter"",""1"",""4740""
","
","
","""event"",""trial"",""time""
""fullscreenenter"",""1"",""4740""
","
","","","","","","null","<div style=""font-size:60px;"">+</div>","null","","fixation","","",""
"memory-trial","48","237380","0.0-18.0-1.1","6479","approach_avoid_sv1","""event"",""trial"",""time""
""fullscreenenter"",""1"",""4740""
","
","
","""event"",""trial"",""time""
""fullscreenenter"",""1"",""4740""
","
","","","","","","1266.2000000476837","images/bush2.png","","","memory_trial","1","definitely_old",""
"html-keyboard-response","49","237882","0.0-18.0-0.2","6479","approach_avoid_sv1","""event"",""trial"",""time""
""fullscreenenter"",""1"",""4740""
","
","
","""event"",""trial"",""time""
""fullscreenenter"",""1"",""4740""
","
","","","","","","null","<div style=""font-size:60px;"">+</div>","null","","fixation","","",""
"memory-trial","50","241362","0.0-18.0-1.2","6479","approach_avoid_sv1","""event"",""trial"",""time""
""fullscreenenter"",""1"",""4740""
","
","
","""event"",""trial"",""time""
""fullscreenenter"",""1"",""4740""
","
","","","","","","2476.600000023842","images/chair2.png","","","memory_trial","2","maybe_old",""
"html-keyboard-response","51","241864","0.0-18.0-0.3","6479","approach_avoid_sv1","""event"",""trial"",""time""
""fullscreenenter"",""1"",""4740""
","
","
","""event"",""trial"",""time""
""fullscreenenter"",""1"",""4740""
","
","","","","","","null","<div style=""font-size:60px;"">+</div>","null","","fixation","","",""
"memory-trial","52","244011","0.0-18.0-1.3","6479","approach_avoid_sv1","""event"",""trial"",""time""
""fullscreenenter"",""1"",""4740""
","
","
","""event"",""trial"",""time""
""fullscreenenter"",""1"",""4740""
","
","","","","","","1140.8999999761581","images/chair8.png","","","memory_trial","3","maybe_new",""
"html-keyboard-response","53","244512","0.0-18.0-0.4","6479","approach_avoid_sv1","""event"",""trial"",""time""
""fullscreenenter"",""1"",""4740""
","
","
","""event"",""trial"",""time""
""fullscreenenter"",""1"",""4740""
","
","","","","","","null","<div style=""font-size:60px;"">+</div>","null","","fixation","","",""
"memory-trial","54","246995","0.0-18.0-1.4","6479","approach_avoid_sv1","""event"",""trial"",""time""
""fullscreenenter"",""1"",""4740""
","
","
","""event"",""trial"",""time""
""fullscreenenter"",""1"",""4740""
","
","","","","","","1479.5","images/cat2.png","","","memory_trial","3","maybe_new",""
"html-keyboard-response","55","247498","0.0-18.0-0.5","6479","approach_avoid_sv1","""event"",""trial"",""time""
""fullscreenenter"",""1"",""4740""
","
","
","""event"",""trial"",""time""
""fullscreenenter"",""1"",""4740""
","
","","","","","","null","<div style=""font-size:60px;"">+</div>","null","","fixation","","",""
"memory-trial","56","250691","0.0-18.0-1.5","6479","approach_avoid_sv1","""event"",""trial"",""time""
""fullscreenenter"",""1"",""4740""
","
","
","""event"",""trial"",""time""
""fullscreenenter"",""1"",""4740""
","
","","","","","","2187.899999976158","images/table2.png","","","memory_trial","3","maybe_new",""
"html-keyboard-response","57","251192","0.0-18.0-0.6","6479","approach_avoid_sv1","""event"",""trial"",""time""
""fullscreenenter"",""1"",""4740""
","
","
","""event"",""trial"",""time""
""fullscreenenter"",""1"",""4740""
","
","","","","","","null","<div style=""font-size:60px;"">+</div>","null","","fixation","","",""
"memory-trial","58","254057","0.0-18.0-1.6","6479","approach_avoid_sv1","""event"",""trial"",""time""
""fullscreenenter"",""1"",""4740""
","
","
","""event"",""trial"",""time""
""fullscreenenter"",""1"",""4740""
","
","","","","","","1859.0999999642372","images/chair3.png","","","memory_trial","2","maybe_old",""
"html-keyboard-response","59","254559","0.0-18.0-0.7","6479","approach_avoid_sv1","""event"",""trial"",""time""
""fullscreenenter"",""1"",""4740""
","
","
","""event"",""trial"",""time""
""fullscreenenter"",""1"",""4740""
","
","","","","","","null","<div style=""font-size:60px;"">+</div>","null","","fixation","","",""
"memory-trial","60","256872","0.0-18.0-1.7","6479","approach_avoid_sv1","""event"",""trial"",""time""
""fullscreenenter"",""1"",""4740""
","
","
","""event"",""trial"",""time""
""fullscreenenter"",""1"",""4740""
","
","","","","","","1309.5999999642372","images/train8.png","","","memory_trial","4","definitely_new",""
"html-keyboard-response","61","257375","0.0-18.0-0.8","6479","approach_avoid_sv1","""event"",""trial"",""time""
""fullscreenenter"",""1"",""4740""
","
","
","""event"",""trial"",""time""
""fullscreenenter"",""1"",""4740""
","
","","","","","","null","<div style=""font-size:60px;"">+</div>","null","","fixation","","",""
"memory-trial","62","259594","0.0-18.0-1.8","6479","approach_avoid_sv1","""event"",""trial"",""time""
""fullscreenenter"",""1"",""4740""
","
","
","""event"",""trial"",""time""
""fullscreenenter"",""1"",""4740""
","
","","","","","","1213.300000011921","images/flower6.png","","","memory_trial","3","maybe_new",""
"html-keyboard-response","63","260097","0.0-18.0-0.9","6479","approach_avoid_sv1","""event"",""trial"",""time""
""fullscreenenter"",""1"",""4740""
","
","
","""event"",""trial"",""time""
""fullscreenenter"",""1"",""4740""
","
","","","","","","null","<div style=""font-size:60px;"">+</div>","null","","fixation","","",""
"memory-trial","64","262575","0.0-18.0-1.9","6479","approach_avoid_sv1","""event"",""trial"",""time""
""fullscreenenter"",""1"",""4740""
","
","
","""event"",""trial"",""time""
""fullscreenenter"",""1"",""4740""
","
","","","","","","1473.0999999642372","images/sofa8.png","","","memory_trial","1","definitely_old",""
"html-keyboard-response","65","263077","0.0-18.0-0.10","6479","approach_avoid_sv1","""event"",""trial"",""time""
""fullscreenenter"",""1"",""4740""
","
","
","""event"",""trial"",""time""
""fullscreenenter"",""1"",""4740""
","
","","","","","","null","<div style=""font-size:60px;"">+</div>","null","","fixation","","",""
"memory-trial","66","265271","0.0-18.0-1.10","6479","approach_avoid_sv1","""event"",""trial"",""time""
""fullscreenenter"",""1"",""4740""
","
","
","""event"",""trial"",""time""
""fullscreenenter"",""1"",""4740""
","
","","","","","","1189.0999999642372","images/bush3.png","","","memory_trial","2","maybe_old",""
"html-keyboard-response","67","265772","0.0-18.0-0.11","6479","approach_avoid_sv1","""event"",""trial"",""time""
""fullscreenenter"",""1"",""4740""
","
","
","""event"",""trial"",""time""
""fullscreenenter"",""1"",""4740""
","
","","","","","","null","<div style=""font-size:60px;"">+</div>","null","","fixation","","",""
"memory-trial","68","267622","0.0-18.0-1.11","6479","approach_avoid_sv1","""event"",""trial"",""time""
""fullscreenenter"",""1"",""4740""
","
","
","""event"",""trial"",""time""
""fullscreenenter"",""1"",""4740""
","
","","","","","","846","images/table8.png","","","memory_trial","4","definitely_new",""
"html-keyboard-response","69","268124","0.0-18.0-0.12","6479","approach_avoid_sv1","""event"",""trial"",""time""
""fullscreenenter"",""1"",""4740""
","
","
","""event"",""trial"",""time""
""fullscreenenter"",""1"",""4740""
","
","","","","","","null","<div style=""font-size:60px;"">+</div>","null","","fixation","","",""
"memory-trial","70","270023","0.0-18.0-1.12","6479","approach_avoid_sv1","""event"",""trial"",""time""
""fullscreenenter"",""1"",""4740""
","
","
","""event"",""trial"",""time""
""fullscreenenter"",""1"",""4740""
","
","","","","","","894","images/cat5.png","","","memory_trial","3","maybe_new",""
"html-keyboard-response","71","270524","0.0-18.0-0.13","6479","approach_avoid_sv1","""event"",""trial"",""time""
""fullscreenenter"",""1"",""4740""
","
","
","""event"",""trial"",""time""
""fullscreenenter"",""1"",""4740""
","
","","","","","","null","<div style=""font-size:60px;"">+</div>","null","","fixation","","",""
"memory-trial","72","275158","0.0-18.0-1.13","6479","approach_avoid_sv1","""event"",""trial"",""time""
""fullscreenenter"",""1"",""4740""
","
","
","""event"",""trial"",""time""
""fullscreenenter"",""1"",""4740""
","
","","","","","","3629.600000023842","images/cactus6.png","","","memory_trial","3","maybe_new",""
"html-keyboard-response","73","275660","0.0-18.0-0.14","6479","approach_avoid_sv1","""event"",""trial"",""time""
""fullscreenenter"",""1"",""4740""
","
","
","""event"",""trial"",""time""
""fullscreenenter"",""1"",""4740""
","
","","","","","","null","<div style=""font-size:60px;"">+</div>","null","","fixation","","",""
"memory-trial","74","278423","0.0-18.0-1.14","6479","approach_avoid_sv1","""event"",""trial"",""time""
""fullscreenenter"",""1"",""4740""
","
","
","""event"",""trial"",""time""
""fullscreenenter"",""1"",""4740""
","
","","","","","","1758.5","images/truck6.png","","","memory_trial","4","definitely_new",""
"html-keyboard-response","75","278926","0.0-18.0-0.15","6479","approach_avoid_sv1","""event"",""trial"",""time""
""fullscreenenter"",""1"",""4740""
","
","
","""event"",""trial"",""time""
""fullscreenenter"",""1"",""4740""
","
","","","","","","null","<div style=""font-size:60px;"">+</div>","null","","fixation","","",""
"memory-trial","76","284333","0.0-18.0-1.15","6479","approach_avoid_sv1","""event"",""trial"",""time""
""fullscreenenter"",""1"",""4740""
","
","
","""event"",""trial"",""time""
""fullscreenenter"",""1"",""4740""
","
","","","","","","4403.699999988079","images/boat4.png","","","memory_trial","1","definitely_old",""
"html-keyboard-response","77","284835","0.0-18.0-0.16","6479","approach_avoid_sv1","""event"",""trial"",""time""
""fullscreenenter"",""1"",""4740""
","
","
","""event"",""trial"",""time""
""fullscreenenter"",""1"",""4740""
","
","","","","","","null","<div style=""font-size:60px;"">+</div>","null","","fixation","","",""
"memory-trial","78","286669","0.0-18.0-1.16","6479","approach_avoid_sv1","""event"",""trial"",""time""
""fullscreenenter"",""1"",""4740""
","
","
","""event"",""trial"",""time""
""fullscreenenter"",""1"",""4740""
","
","","","","","","828.2999999523163","images/banana5.png","","","memory_trial","1","definitely_old",""
"html-keyboard-response","79","287170","0.0-18.0-0.17","6479","approach_avoid_sv1","""event"",""trial"",""time""
""fullscreenenter"",""1"",""4740""
","
","
","""event"",""trial"",""time""
""fullscreenenter"",""1"",""4740""
","
","","","","","","null","<div style=""font-size:60px;"">+</div>","null","","fixation","","",""
"memory-trial","80","289457","0.0-18.0-1.17","6479","approach_avoid_sv1","""event"",""trial"",""time""
""fullscreenenter"",""1"",""4740""
","
","
","""event"",""trial"",""time""
""fullscreenenter"",""1"",""4740""
","
","","","","","","1285","images/goat7.png","","","memory_trial","1","definitely_old",""
"html-keyboard-response","81","289958","0.0-18.0-0.18","6479","approach_avoid_sv1","""event"",""trial"",""time""
""fullscreenenter"",""1"",""4740""
","
","
","""event"",""trial"",""time""
""fullscreenenter"",""1"",""4740""
","
","","","","","","null","<div style=""font-size:60px;"">+</div>","null","","fixation","","",""
"memory-trial","82","292612","0.0-18.0-1.18","6479","approach_avoid_sv1","""event"",""trial"",""time""
""fullscreenenter"",""1"",""4740""
","
","
","""event"",""trial"",""time""
""fullscreenenter"",""1"",""4740""
","
","","","","","","1649.800000011921","images/sheep1.png","","","memory_trial","1","definitely_old",""
"html-keyboard-response","83","293113","0.0-18.0-0.19","6479","approach_avoid_sv1","""event"",""trial"",""time""
""fullscreenenter"",""1"",""4740""
","
","
","""event"",""trial"",""time""
""fullscreenenter"",""1"",""4740""
","
","","","","","","null","<div style=""font-size:60px;"">+</div>","null","","fixation","","",""
"memory-trial","84","295507","0.0-18.0-1.19","6479","approach_avoid_sv1","""event"",""trial"",""time""
""fullscreenenter"",""1"",""4740""
","
","
","""event"",""trial"",""time""
""fullscreenenter"",""1"",""4740""
","
","","","","","","1389.3999999761581","images/bush8.png","","","memory_trial","3","maybe_new",""
"html-keyboard-response","85","296009","0.0-18.0-0.20","6479","approach_avoid_sv1","""event"",""trial"",""time""
""fullscreenenter"",""1"",""4740""
","
","
","""event"",""trial"",""time""
""fullscreenenter"",""1"",""4740""
","
","","","","","","null","<div style=""font-size:60px;"">+</div>","null","","fixation","","",""
"memory-trial","86","299131","0.0-18.0-1.20","6479","approach_avoid_sv1","""event"",""trial"",""time""
""fullscreenenter"",""1"",""4740""
","
","
","""event"",""trial"",""time""
""fullscreenenter"",""1"",""4740""
","
","","","","","","2119.099999964237","images/rabbit5.png","","","memory_trial","2","maybe_old",""
"html-keyboard-response","87","299632","0.0-18.0-0.21","6479","approach_avoid_sv1","""event"",""trial"",""time""
""fullscreenenter"",""1"",""4740""
","
","
","""event"",""trial"",""time""
""fullscreenenter"",""1"",""4740""
","
","","","","","","null","<div style=""font-size:60px;"">+</div>","null","","fixation","","",""
"memory-trial","88","301885","0.0-18.0-1.21","6479","approach_avoid_sv1","""event"",""trial"",""time""
""fullscreenenter"",""1"",""4740""
","
","
","""event"",""trial"",""time""
""fullscreenenter"",""1"",""4740""
","
","","","","","","1247.1000000238419","images/truck4.png","","","memory_trial","4","definitely_new",""
"html-keyboard-response","89","302387","0.0-18.0-0.22","6479","approach_avoid_sv1","""event"",""trial"",""time""
""fullscreenenter"",""1"",""4740""
","
","
","""event"",""trial"",""time""
""fullscreenenter"",""1"",""4740""
","
","","","","","","null","<div style=""font-size:60px;"">+</div>","null","","fixation","","",""
"memory-trial","90","304808","0.0-18.0-1.22","6479","approach_avoid_sv1","""event"",""trial"",""time""
""fullscreenenter"",""1"",""4740""
","
","
","""event"",""trial"",""time""
""fullscreenenter"",""1"",""4740""
","
","","","","","","1416.4000000357628","images/horse8.png","","","memory_trial","2","maybe_old",""
"html-keyboard-response","91","305309","0.0-18.0-0.23","6479","approach_avoid_sv1","""event"",""trial"",""time""
""fullscreenenter"",""1"",""4740""
","
","
","""event"",""trial"",""time""
""fullscreenenter"",""1"",""4740""
","
","","","","","","null","<div style=""font-size:60px;"">+</div>","null","","fixation","","",""
"memory-trial","92","307306","0.0-18.0-1.23","6479","approach_avoid_sv1","""event"",""trial"",""time""
""fullscreenenter"",""1"",""4740""
","
","
","""event"",""trial"",""time""
""fullscreenenter"",""1"",""4740""
","
","","","","","","993.8000000119209","images/dog6.png","","","memory_trial","1","definitely_old",""
"html-keyboard-response","93","307808","0.0-18.0-0.24","6479","approach_avoid_sv1","""event"",""trial"",""time""
""fullscreenenter"",""1"",""4740""
","
","
","""event"",""trial"",""time""
""fullscreenenter"",""1"",""4740""
","
","","","","","","null","<div style=""font-size:60px;"">+</div>","null","","fixation","","",""
"memory-trial","94","310194","0.0-18.0-1.24","6479","approach_avoid_sv1","""event"",""trial"",""time""
""fullscreenenter"",""1"",""4740""
","
","
","""event"",""trial"",""time""
""fullscreenenter"",""1"",""4740""
","
","","","","","","1383.300000011921","images/rodent4.png","","","memory_trial","2","maybe_old",""
"html-keyboard-response","95","310696","0.0-18.0-0.25","6479","approach_avoid_sv1","""event"",""trial"",""time""
""fullscreenenter"",""1"",""4740""
","
","
","""event"",""trial"",""time""
""fullscreenenter"",""1"",""4740""
","
","","","","","","null","<div style=""font-size:60px;"">+</div>","null","","fixation","","",""
"memory-trial","96","312417","0.0-18.0-1.25","6479","approach_avoid_sv1","""event"",""trial"",""time""
""fullscreenenter"",""1"",""4740""
","
","
","""event"",""trial"",""time""
""fullscreenenter"",""1"",""4740""
","
","","","","","","717.5","images/orange6.png","","","memory_trial","2","maybe_old",""
"html-keyboard-response","97","312918","0.0-18.0-0.26","6479","approach_avoid_sv1","""event"",""trial"",""time""
""fullscreenenter"",""1"",""4740""
","
","
","""event"",""trial"",""time""
""fullscreenenter"",""1"",""4740""
","
","","","","","","null","<div style=""font-size:60px;"">+</div>","null","","fixation","","",""
"memory-trial","98","315156","0.0-18.0-1.26","6479","approach_avoid_sv1","""event"",""trial"",""time""
""fullscreenenter"",""1"",""4740""
","
","
","""event"",""trial"",""time""
""fullscreenenter"",""1"",""4740""
","
","","","","","","1235.800000011921","images/orange5.png","","","memory_trial","2","maybe_old",""
"html-keyboard-response","99","315657","0.0-18.0-0.27","6479","approach_avoid_sv1","""event"",""trial"",""time""
""fullscreenenter"",""1"",""4740""
","
","
","""event"",""trial"",""time""
""fullscreenenter"",""1"",""4740""
","
","","","","","","null","<div style=""font-size:60px;"">+</div>","null","","fixation","","",""
"memory-trial","100","317570","0.0-18.0-1.27","6479","approach_avoid_sv1","""event"",""trial"",""time""
""fullscreenenter"",""1"",""4740""
","
","
","""event"",""trial"",""time""
""fullscreenenter"",""1"",""4740""
","
","","","","","","908.6000000238419","images/plane3.png","","","memory_trial","1","definitely_old",""
"html-keyboard-response","101","318072","0.0-18.0-0.28","6479","approach_avoid_sv1","""event"",""trial"",""time""
""fullscreenenter"",""1"",""4740""
","
","
","""event"",""trial"",""time""
""fullscreenenter"",""1"",""4740""
","
","","","","","","null","<div style=""font-size:60px;"">+</div>","null","","fixation","","",""
"memory-trial","102","320612","0.0-18.0-1.28","6479","approach_avoid_sv1","""event"",""trial"",""time""
""fullscreenenter"",""1"",""4740""
","
","
","""event"",""trial"",""time""
""fullscreenenter"",""1"",""4740""
","
","","","","","","1537","images/cactus5.png","","","memory_trial","1","definitely_old",""
"html-keyboard-response","103","321114","0.0-18.0-0.29","6479","approach_avoid_sv1","""event"",""trial"",""time""
""fullscreenenter"",""1"",""4740""
","
","
","""event"",""trial"",""time""
""fullscreenenter"",""1"",""4740""
","
","","","","","","null","<div style=""font-size:60px;"">+</div>","null","","fixation","","",""
"memory-trial","104","323354","0.0-18.0-1.29","6479","approach_avoid_sv1","""event"",""trial"",""time""
""fullscreenenter"",""1"",""4740""
","
","
","""event"",""trial"",""time""
""fullscreenenter"",""1"",""4740""
","
","","","","","","1236.800000011921","images/truck3.png","","","memory_trial","4","definitely_new",""
"html-keyboard-response","105","323856","0.0-18.0-0.30","6479","approach_avoid_sv1","""event"",""trial"",""time""
""fullscreenenter"",""1"",""4740""
","
","
","""event"",""trial"",""time""
""fullscreenenter"",""1"",""4740""
","
","","","","","","null","<div style=""font-size:60px;"">+</div>","null","","fixation","","",""
"memory-trial","106","326359","0.0-18.0-1.30","6479","approach_avoid_sv1","""event"",""trial"",""time""
""fullscreenenter"",""1"",""4740""
","
","
","""event"",""trial"",""time""
""fullscreenenter"",""1"",""4740""
","
","","","","","","1501.800000011921","images/cat6.png","","","memory_trial","1","definitely_old",""
"html-keyboard-response","107","326861","0.0-18.0-0.31","6479","approach_avoid_sv1","""event"",""trial"",""time""
""fullscreenenter"",""1"",""4740""
","
","
","""event"",""trial"",""time""
""fullscreenenter"",""1"",""4740""
","
","","","","","","null","<div style=""font-size:60px;"">+</div>","null","","fixation","","",""
"memory-trial","108","330907","0.0-18.0-1.31","6479","approach_avoid_sv1","""event"",""trial"",""time""
""fullscreenenter"",""1"",""4740""
","
","
","""event"",""trial"",""time""
""fullscreenenter"",""1"",""4740""
","
","","","","","","3041.400000035763","images/apple3.png","","","memory_trial","1","definitely_old",""
"html-keyboard-response","109","331410","0.0-18.0-0.32","6479","approach_avoid_sv1","""event"",""trial"",""time""
""fullscreenenter"",""1"",""4740""
","
","
","""event"",""trial"",""time""
""fullscreenenter"",""1"",""4740""
","
","","","","","","null","<div style=""font-size:60px;"">+</div>","null","","fixation","","",""
"memory-trial","110","334808","0.0-18.0-1.32","6479","approach_avoid_sv1","""event"",""trial"",""time""
""fullscreenenter"",""1"",""4740""
","
","
","""event"",""trial"",""time""
""fullscreenenter"",""1"",""4740""
","
","","","","","","2394.400000035763","images/bed5.png","","","memory_trial","4","definitely_new",""
"html-keyboard-response","111","335309","0.0-18.0-0.33","6479","approach_avoid_sv1","""event"",""trial"",""time""
""fullscreenenter"",""1"",""4740""
","
","
","""event"",""trial"",""time""
""fullscreenenter"",""1"",""4740""
","
","","","","","","null","<div style=""font-size:60px;"">+</div>","null","","fixation","","",""
"memory-trial","112","338296","0.0-18.0-1.33","6479","approach_avoid_sv1","""event"",""trial"",""time""
""fullscreenenter"",""1"",""4740""
","
","
","""event"",""trial"",""time""
""fullscreenenter"",""1"",""4740""
","
","","","","","","1981.8999999761581","images/cat8.png","","","memory_trial","3","maybe_new",""
"html-keyboard-response","113","338799","0.0-18.0-0.34","6479","approach_avoid_sv1","""event"",""trial"",""time""
""fullscreenenter"",""1"",""4740""
","
","
","""event"",""trial"",""time""
""fullscreenenter"",""1"",""4740""
","
","","","","","","null","<div style=""font-size:60px;"">+</div>","null","","fixation","","",""
"memory-trial","114","340647","0.0-18.0-1.34","6479","approach_avoid_sv1","""event"",""trial"",""time""
""fullscreenenter"",""1"",""4740""
","
","
","""event"",""trial"",""time""
""fullscreenenter"",""1"",""4740""
","
","","","","","","844.8000000119209","images/cactus1.png","","","memory_trial","1","definitely_old",""
"html-keyboard-response","115","341149","0.0-18.0-0.35","6479","approach_avoid_sv1","""event"",""trial"",""time""
""fullscreenenter"",""1"",""4740""
","
","
","""event"",""trial"",""time""
""fullscreenenter"",""1"",""4740""
","
","","","","","","null","<div style=""font-size:60px;"">+</div>","null","","fixation","","",""
"memory-trial","116","344450","0.0-18.0-1.35","6479","approach_avoid_sv1","""event"",""trial"",""time""
""fullscreenenter"",""1"",""4740""
","
","
","""event"",""trial"",""time""
""fullscreenenter"",""1"",""4740""
","
","","","","","","2299.800000011921","images/truck5.png","","","memory_trial","4","definitely_new",""
"html-keyboard-response","117","344951","0.0-18.0-0.36","6479","approach_avoid_sv1","""event"",""trial"",""time""
""fullscreenenter"",""1"",""4740""
","
","
","""event"",""trial"",""time""
""fullscreenenter"",""1"",""4740""
","
","","","","","","null","<div style=""font-size:60px;"">+</div>","null","","fixation","","",""
"memory-trial","118","346661","0.0-18.0-1.36","6479","approach_avoid_sv1","""event"",""trial"",""time""
""fullscreenenter"",""1"",""4740""
","
","
","""event"",""trial"",""time""
""fullscreenenter"",""1"",""4740""
","
","","","","","","706.6000000238419","images/goat4.png","","","memory_trial","1","definitely_old",""
"html-keyboard-response","119","347162","0.0-18.0-0.37","6479","approach_avoid_sv1","""event"",""trial"",""time""
""fullscreenenter"",""1"",""4740""
","
","
","""event"",""trial"",""time""
""fullscreenenter"",""1"",""4740""
","
","","","","","","null","<div style=""font-size:60px;"">+</div>","null","","fixation","","",""
"memory-trial","120","350104","0.0-18.0-1.37","6479","approach_avoid_sv1","""event"",""trial"",""time""
""fullscreenenter"",""1"",""4740""
","
","
","""event"",""trial"",""time""
""fullscreenenter"",""1"",""4740""
","
","","","","","","1937.0999999642372","images/bed8.png","","","memory_trial","3","maybe_new",""
"html-keyboard-response","121","350606","0.0-18.0-0.38","6479","approach_avoid_sv1","""event"",""trial"",""time""
""fullscreenenter"",""1"",""4740""
","
","
","""event"",""trial"",""time""
""fullscreenenter"",""1"",""4740""
","
","","","","","","null","<div style=""font-size:60px;"">+</div>","null","","fixation","","",""
"memory-trial","122","352506","0.0-18.0-1.38","6479","approach_avoid_sv1","""event"",""trial"",""time""
""fullscreenenter"",""1"",""4740""
","
","
","""event"",""trial"",""time""
""fullscreenenter"",""1"",""4740""
","
","","","","","","895.5","images/chair1.png","","","memory_trial","1","definitely_old",""
"html-keyboard-response","123","353007","0.0-18.0-0.39","6479","approach_avoid_sv1","""event"",""trial"",""time""
""fullscreenenter"",""1"",""4740""
","
","
","""event"",""trial"",""time""
""fullscreenenter"",""1"",""4740""
","
","","","","","","null","<div style=""font-size:60px;"">+</div>","null","","fixation","","",""
"memory-trial","124","354660","0.0-18.0-1.39","6479","approach_avoid_sv1","""event"",""trial"",""time""
""fullscreenenter"",""1"",""4740""
","
","
","""event"",""trial"",""time""
""fullscreenenter"",""1"",""4740""
","
","","","","","","648.5","images/cactus4.png","","","memory_trial","1","definitely_old",""
"html-keyboard-response","125","355162","0.0-18.0-0.40","6479","approach_avoid_sv1","""event"",""trial"",""time""
""fullscreenenter"",""1"",""4740""
","
","
","""event"",""trial"",""time""
""fullscreenenter"",""1"",""4740""
","
","","","","","","null","<div style=""font-size:60px;"">+</div>","null","","fixation","","",""
"memory-trial","126","358813","0.0-18.0-1.40","6479","approach_avoid_sv1","""event"",""trial"",""time""
""fullscreenenter"",""1"",""4740""
","
","
","""event"",""trial"",""time""
""fullscreenenter"",""1"",""4740""
","
","","","","","","2646.600000023842","images/bush1.png","","","memory_trial","1","definitely_old",""
"html-keyboard-response","127","359315","0.0-18.0-0.41","6479","approach_avoid_sv1","""event"",""trial"",""time""
""fullscreenenter"",""1"",""4740""
","
","
","""event"",""trial"",""time""
""fullscreenenter"",""1"",""4740""
","
","","","","","","null","<div style=""font-size:60px;"">+</div>","null","","fixation","","",""
"memory-trial","128","361454","0.0-18.0-1.41","6479","approach_avoid_sv1","""event"",""trial"",""time""
""fullscreenenter"",""1"",""4740""
","
","
","""event"",""trial"",""time""
""fullscreenenter"",""1"",""4740""
","
","","","","","","1137.0999999642372","images/train6.png","","","memory_trial","4","definitely_new",""
"html-button-response","129","363887","0.0-18.0-2.41-0.41","6479","approach_avoid_sv1","""event"",""trial"",""time""
""fullscreenenter"",""1"",""4740""
","
","
","""event"",""trial"",""time""
""fullscreenenter"",""1"",""4740""
","
","","","","","","2432.399999976158","<p> Take a break! </p><p> Click the button to continue. </p>","0","","break","","",""
"html-keyboard-response","130","364388","0.0-18.0-0.42","6479","approach_avoid_sv1","""event"",""trial"",""time""
""fullscreenenter"",""1"",""4740""
","
","
","""event"",""trial"",""time""
""fullscreenenter"",""1"",""4740""
","
","","","","","","null","<div style=""font-size:60px;"">+</div>","null","","fixation","","",""
"memory-trial","131","366566","0.0-18.0-1.42","6479","approach_avoid_sv1","""event"",""trial"",""time""
""fullscreenenter"",""1"",""4740""
","
","
","""event"",""trial"",""time""
""fullscreenenter"",""1"",""4740""
","
","","","","","","1173.199999988079","images/horse5.png","","","memory_trial","1","definitely_old",""
"html-keyboard-response","132","367068","0.0-18.0-0.43","6479","approach_avoid_sv1","""event"",""trial"",""time""
""fullscreenenter"",""1"",""4740""
","
","
","""event"",""trial"",""time""
""fullscreenenter"",""1"",""4740""
","
","","","","","","null","<div style=""font-size:60px;"">+</div>","null","","fixation","","",""
"memory-trial","133","371121","0.0-18.0-1.43","6479","approach_avoid_sv1","""event"",""trial"",""time""
""fullscreenenter"",""1"",""4740""
","
","
","""event"",""trial"",""time""
""fullscreenenter"",""1"",""4740""
","
","","","","","","3050","images/apple5.png","","","memory_trial","3","maybe_new",""
"html-keyboard-response","134","371623","0.0-18.0-0.44","6479","approach_avoid_sv1","""event"",""trial"",""time""
""fullscreenenter"",""1"",""4740""
","
","
","""event"",""trial"",""time""
""fullscreenenter"",""1"",""4740""
","
","","","","","","null","<div style=""font-size:60px;"">+</div>","null","","fixation","","",""
"memory-trial","135","373974","0.0-18.0-1.44","6479","approach_avoid_sv1","""event"",""trial"",""time""
""fullscreenenter"",""1"",""4740""
","
","
","""event"",""trial"",""time""
""fullscreenenter"",""1"",""4740""
","
","","","","","","1345.6000000238419","images/flower5.png","","","memory_trial","1","definitely_old",""
"html-keyboard-response","136","374475","0.0-18.0-0.45","6479","approach_avoid_sv1","""event"",""trial"",""time""
""fullscreenenter"",""1"",""4740""
","
","
","""event"",""trial"",""time""
""fullscreenenter"",""1"",""4740""
","
","","","","","","null","<div style=""font-size:60px;"">+</div>","null","","fixation","","",""
"memory-trial","137","377338","0.0-18.0-1.45","6479","approach_avoid_sv1","""event"",""trial"",""time""
""fullscreenenter"",""1"",""4740""
","
","
","""event"",""trial"",""time""
""fullscreenenter"",""1"",""4740""
","
","","","","","","1859.800000011921","images/dog8.png","","","memory_trial","4","definitely_new",""
"html-keyboard-response","138","377840","0.0-18.0-0.46","6479","approach_avoid_sv1","""event"",""trial"",""time""
""fullscreenenter"",""1"",""4740""
","
","
","""event"",""trial"",""time""
""fullscreenenter"",""1"",""4740""
","
","","","","","","null","<div style=""font-size:60px;"">+</div>","null","","fixation","","",""
"memory-trial","139","379539","0.0-18.0-1.46","6479","approach_avoid_sv1","""event"",""trial"",""time""
""fullscreenenter"",""1"",""4740""
","
","
","""event"",""trial"",""time""
""fullscreenenter"",""1"",""4740""
","
","","","","","","692.1999999880791","images/plane8.png","","","memory_trial","1","definitely_old",""
"html-keyboard-response","140","380040","0.0-18.0-0.47","6479","approach_avoid_sv1","""event"",""trial"",""time""
""fullscreenenter"",""1"",""4740""
","
","
","""event"",""trial"",""time""
""fullscreenenter"",""1"",""4740""
","
","","","","","","null","<div style=""font-size:60px;"">+</div>","null","","fixation","","",""
"memory-trial","141","382870","0.0-18.0-1.47","6479","approach_avoid_sv1","""event"",""trial"",""time""
""fullscreenenter"",""1"",""4740""
","
","
","""event"",""trial"",""time""
""fullscreenenter"",""1"",""4740""
","
","","","","","","1828.0999999642372","images/chair7.png","","","memory_trial","3","maybe_new",""
"html-keyboard-response","142","383372","0.0-18.0-0.48","6479","approach_avoid_sv1","""event"",""trial"",""time""
""fullscreenenter"",""1"",""4740""
","
","
","""event"",""trial"",""time""
""fullscreenenter"",""1"",""4740""
","
","","","","","","null","<div style=""font-size:60px;"">+</div>","null","","fixation","","",""
"memory-trial","143","386903","0.0-18.0-1.48","6479","approach_avoid_sv1","""event"",""trial"",""time""
""fullscreenenter"",""1"",""4740""
","
","
","""event"",""trial"",""time""
""fullscreenenter"",""1"",""4740""
","
","","","","","","2527.100000023842","images/rabbit1.png","","","memory_trial","2","maybe_old",""
"html-keyboard-response","144","387406","0.0-18.0-0.49","6479","approach_avoid_sv1","""event"",""trial"",""time""
""fullscreenenter"",""1"",""4740""
","
","
","""event"",""trial"",""time""
""fullscreenenter"",""1"",""4740""
","
","","","","","","null","<div style=""font-size:60px;"">+</div>","null","","fixation","","",""
"memory-trial","145","389981","0.0-18.0-1.49","6479","approach_avoid_sv1","""event"",""trial"",""time""
""fullscreenenter"",""1"",""4740""
","
","
","""event"",""trial"",""time""
""fullscreenenter"",""1"",""4740""
","
","","","","","","1570.1000000238419","images/train4.png","","","memory_trial","1","definitely_old",""
"html-keyboard-response","146","390483","0.0-18.0-0.50","6479","approach_avoid_sv1","""event"",""trial"",""time""
""fullscreenenter"",""1"",""4740""
","
","
","""event"",""trial"",""time""
""fullscreenenter"",""1"",""4740""
","
","","","","","","null","<div style=""font-size:60px;"">+</div>","null","","fixation","","",""
"memory-trial","147","392090","0.0-18.0-1.50","6479","approach_avoid_sv1","""event"",""trial"",""time""
""fullscreenenter"",""1"",""4740""
","
","
","""event"",""trial"",""time""
""fullscreenenter"",""1"",""4740""
","
","","","","","","602.1999999880791","images/cactus3.png","","","memory_trial","1","definitely_old",""
"html-keyboard-response","148","392592","0.0-18.0-0.51","6479","approach_avoid_sv1","""event"",""trial"",""time""
""fullscreenenter"",""1"",""4740""
","
","
","""event"",""trial"",""time""
""fullscreenenter"",""1"",""4740""
","
","","","","","","null","<div style=""font-size:60px;"">+</div>","null","","fixation","","",""
"memory-trial","149","394159","0.0-18.0-1.51","6479","approach_avoid_sv1","""event"",""trial"",""time""
""fullscreenenter"",""1"",""4740""
","
","
","""event"",""trial"",""time""
""fullscreenenter"",""1"",""4740""
","
","","","","","","563.9000000357628","images/banana4.png","","","memory_trial","1","definitely_old",""
"html-keyboard-response","150","394661","0.0-18.0-0.52","6479","approach_avoid_sv1","""event"",""trial"",""time""
""fullscreenenter"",""1"",""4740""
","
","
","""event"",""trial"",""time""
""fullscreenenter"",""1"",""4740""
","
","","","","","","null","<div style=""font-size:60px;"">+</div>","null","","fixation","","",""
"memory-trial","151","396838","0.0-18.0-1.52","6479","approach_avoid_sv1","""event"",""trial"",""time""
""fullscreenenter"",""1"",""4740""
","
","
","""event"",""trial"",""time""
""fullscreenenter"",""1"",""4740""
","
","","","","","","1173.699999988079","images/plane5.png","","","memory_trial","1","definitely_old",""
"html-keyboard-response","152","397339","0.0-18.0-0.53","6479","approach_avoid_sv1","""event"",""trial"",""time""
""fullscreenenter"",""1"",""4740""
","
","
","""event"",""trial"",""time""
""fullscreenenter"",""1"",""4740""
","
","","","","","","null","<div style=""font-size:60px;"">+</div>","null","","fixation","","",""
"memory-trial","153","399044","0.0-18.0-1.53","6479","approach_avoid_sv1","""event"",""trial"",""time""
""fullscreenenter"",""1"",""4740""
","
","
","""event"",""trial"",""time""
""fullscreenenter"",""1"",""4740""
","
","","","","","","703.1999999880791","images/train2.png","","","memory_trial","1","definitely_old",""
"html-keyboard-response","154","399546","0.0-18.0-0.54","6479","approach_avoid_sv1","""event"",""trial"",""time""
""fullscreenenter"",""1"",""4740""
","
","
","""event"",""trial"",""time""
""fullscreenenter"",""1"",""4740""
","
","","","","","","null","<div style=""font-size:60px;"">+</div>","null","","fixation","","",""
"memory-trial","155","401896","0.0-18.0-1.54","6479","approach_avoid_sv1","""event"",""trial"",""time""
""fullscreenenter"",""1"",""4740""
","
","
","""event"",""trial"",""time""
""fullscreenenter"",""1"",""4740""
","
","","","","","","1348","images/bush4.png","","","memory_trial","4","definitely_new",""
"html-keyboard-response","156","402399","0.0-18.0-0.55","6479","approach_avoid_sv1","""event"",""trial"",""time""
""fullscreenenter"",""1"",""4740""
","
","
","""event"",""trial"",""time""
""fullscreenenter"",""1"",""4740""
","
","","","","","","null","<div style=""font-size:60px;"">+</div>","null","","fixation","","",""
"memory-trial","157","405099","0.0-18.0-1.55","6479","approach_avoid_sv1","""event"",""trial"",""time""
""fullscreenenter"",""1"",""4740""
","
","
","""event"",""trial"",""time""
""fullscreenenter"",""1"",""4740""
","
","","","","","","1695.800000011921","images/horse1.png","","","memory_trial","1","definitely_old",""
"html-keyboard-response","158","405601","0.0-18.0-0.56","6479","approach_avoid_sv1","""event"",""trial"",""time""
""fullscreenenter"",""1"",""4740""
","
","
","""event"",""trial"",""time""
""fullscreenenter"",""1"",""4740""
","
","","","","","","null","<div style=""font-size:60px;"">+</div>","null","","fixation","","",""
"memory-trial","159","407865","0.0-18.0-1.56","6479","approach_avoid_sv1","""event"",""trial"",""time""
""fullscreenenter"",""1"",""4740""
","
","
","""event"",""trial"",""time""
""fullscreenenter"",""1"",""4740""
","
","","","","","","1258.3999999761581","images/sheep8.png","","","memory_trial","4","definitely_new",""
"html-keyboard-response","160","408366","0.0-18.0-0.57","6479","approach_avoid_sv1","""event"",""trial"",""time""
""fullscreenenter"",""1"",""4740""
","
","
","""event"",""trial"",""time""
""fullscreenenter"",""1"",""4740""
","
","","","","","","null","<div style=""font-size:60px;"">+</div>","null","","fixation","","",""
"memory-trial","161","410455","0.0-18.0-1.57","6479","approach_avoid_sv1","""event"",""trial"",""time""
""fullscreenenter"",""1"",""4740""
","
","
","""event"",""trial"",""time""
""fullscreenenter"",""1"",""4740""
","
","","","","","","1085.199999988079","images/sheep6.png","","","memory_trial","4","definitely_new",""
"html-keyboard-response","162","410957","0.0-18.0-0.58","6479","approach_avoid_sv1","""event"",""trial"",""time""
""fullscreenenter"",""1"",""4740""
","
","
","""event"",""trial"",""time""
""fullscreenenter"",""1"",""4740""
","
","","","","","","null","<div style=""font-size:60px;"">+</div>","null","","fixation","","",""
"memory-trial","163","413008","0.0-18.0-1.58","6479","approach_avoid_sv1","""event"",""trial"",""time""
""fullscreenenter"",""1"",""4740""
","
","
","""event"",""trial"",""time""
""fullscreenenter"",""1"",""4740""
","
","","","","","","1047.5","images/sheep5.png","","","memory_trial","4","definitely_new",""
"html-keyboard-response","164","413510","0.0-18.0-0.59","6479","approach_avoid_sv1","""event"",""trial"",""time""
""fullscreenenter"",""1"",""4740""
","
","
","""event"",""trial"",""time""
""fullscreenenter"",""1"",""4740""
","
","","","","","","null","<div style=""font-size:60px;"">+</div>","null","","fixation","","",""
"memory-trial","165","417353","0.0-18.0-1.59","6479","approach_avoid_sv1","""event"",""trial"",""time""
""fullscreenenter"",""1"",""4740""
","
","
","""event"",""trial"",""time""
""fullscreenenter"",""1"",""4740""
","
","","","","","","2841.199999988079","images/table4.png","","","memory_trial","4","definitely_new",""
"html-keyboard-response","166","417855","0.0-18.0-0.60","6479","approach_avoid_sv1","""event"",""trial"",""time""
""fullscreenenter"",""1"",""4740""
","
","
","""event"",""trial"",""time""
""fullscreenenter"",""1"",""4740""
","
","","","","","","null","<div style=""font-size:60px;"">+</div>","null","","fixation","","",""
"memory-trial","167","422342","0.0-18.0-1.60","6479","approach_avoid_sv1","""event"",""trial"",""time""
""fullscreenenter"",""1"",""4740""
","
","
","""event"",""trial"",""time""
""fullscreenenter"",""1"",""4740""
","
","","","","","","3484.699999988079","images/sofa7.png","","","memory_trial","2","maybe_old",""
"html-keyboard-response","168","422844","0.0-18.0-0.61","6479","approach_avoid_sv1","""event"",""trial"",""time""
""fullscreenenter"",""1"",""4740""
","
","
","""event"",""trial"",""time""
""fullscreenenter"",""1"",""4740""
","
","","","","","","null","<div style=""font-size:60px;"">+</div>","null","","fixation","","",""
"memory-trial","169","425326","0.0-18.0-1.61","6479","approach_avoid_sv1","""event"",""trial"",""time""
""fullscreenenter"",""1"",""4740""
","
","
","""event"",""trial"",""time""
""fullscreenenter"",""1"",""4740""
","
","","","","","","1476.5","images/sofa6.png","","","memory_trial","1","definitely_old",""
"html-keyboard-response","170","425828","0.0-18.0-0.62","6479","approach_avoid_sv1","""event"",""trial"",""time""
""fullscreenenter"",""1"",""4740""
","
","
","""event"",""trial"",""time""
""fullscreenenter"",""1"",""4740""
","
","","","","","","null","<div style=""font-size:60px;"">+</div>","null","","fixation","","",""
"memory-trial","171","429226","0.0-18.0-1.62","6479","approach_avoid_sv1","""event"",""trial"",""time""
""fullscreenenter"",""1"",""4740""
","
","
","""event"",""trial"",""time""
""fullscreenenter"",""1"",""4740""
","
","","","","","","2394","images/tree6.png","","","memory_trial","1","definitely_old",""
"html-keyboard-response","172","429728","0.0-18.0-0.63","6479","approach_avoid_sv1","""event"",""trial"",""time""
""fullscreenenter"",""1"",""4740""
","
","
","""event"",""trial"",""time""
""fullscreenenter"",""1"",""4740""
","
","","","","","","null","<div style=""font-size:60px;"">+</div>","null","","fixation","","",""
"memory-trial","173","433134","0.0-18.0-1.63","6479","approach_avoid_sv1","""event"",""trial"",""time""
""fullscreenenter"",""1"",""4740""
","
","
","""event"",""trial"",""time""
""fullscreenenter"",""1"",""4740""
","
","","","","","","2400.400000035763","images/orange7.png","","","memory_trial","3","maybe_new",""
"html-keyboard-response","174","433637","0.0-18.0-0.64","6479","approach_avoid_sv1","""event"",""trial"",""time""
""fullscreenenter"",""1"",""4740""
","
","
","""event"",""trial"",""time""
""fullscreenenter"",""1"",""4740""
","
","","","","","","null","<div style=""font-size:60px;"">+</div>","null","","fixation","","",""
"memory-trial","175","435934","0.0-18.0-1.64","6479","approach_avoid_sv1","""event"",""trial"",""time""
""fullscreenenter"",""1"",""4740""
","
","
","""event"",""trial"",""time""
""fullscreenenter"",""1"",""4740""
","
","","","","","","1292.300000011921","images/orange8.png","","","memory_trial","3","maybe_new",""
"html-keyboard-response","176","436436","0.0-18.0-0.65","6479","approach_avoid_sv1","""event"",""trial"",""time""
""fullscreenenter"",""1"",""4740""
","
","
","""event"",""trial"",""time""
""fullscreenenter"",""1"",""4740""
","
","","","","","","null","<div style=""font-size:60px;"">+</div>","null","","fixation","","",""
"memory-trial","177","439183","0.0-18.0-1.65","6479","approach_avoid_sv1","""event"",""trial"",""time""
""fullscreenenter"",""1"",""4740""
","
","
","""event"",""trial"",""time""
""fullscreenenter"",""1"",""4740""
","
","","","","","","1742.0999999642372","images/truck7.png","","","memory_trial","1","definitely_old",""
"html-keyboard-response","178","439685","0.0-18.0-0.66","6479","approach_avoid_sv1","""event"",""trial"",""time""
""fullscreenenter"",""1"",""4740""
","
","
","""event"",""trial"",""time""
""fullscreenenter"",""1"",""4740""
","
","","","","","","null","<div style=""font-size:60px;"">+</div>","null","","fixation","","",""
"memory-trial","179","443522","0.0-18.0-1.66","6479","approach_avoid_sv1","""event"",""trial"",""time""
""fullscreenenter"",""1"",""4740""
","
","
","""event"",""trial"",""time""
""fullscreenenter"",""1"",""4740""
","
","","","","","","2832.300000011921","images/bed7.png","","","memory_trial","4","definitely_new",""
"html-keyboard-response","180","444023","0.0-18.0-0.67","6479","approach_avoid_sv1","""event"",""trial"",""time""
""fullscreenenter"",""1"",""4740""
","
","
","""event"",""trial"",""time""
""fullscreenenter"",""1"",""4740""
","
","","","","","","null","<div style=""font-size:60px;"">+</div>","null","","fixation","","",""
"memory-trial","181","445831","0.0-18.0-1.67","6479","approach_avoid_sv1","""event"",""trial"",""time""
""fullscreenenter"",""1"",""4740""
","
","
","""event"",""trial"",""time""
""fullscreenenter"",""1"",""4740""
","
","","","","","","802.5999999642372","images/boat1.png","","","memory_trial","1","definitely_old",""
"html-keyboard-response","182","446333","0.0-18.0-0.68","6479","approach_avoid_sv1","""event"",""trial"",""time""
""fullscreenenter"",""1"",""4740""
","
","
","""event"",""trial"",""time""
""fullscreenenter"",""1"",""4740""
","
","","","","","","null","<div style=""font-size:60px;"">+</div>","null","","fixation","","",""
"memory-trial","183","448362","0.0-18.0-1.68","6479","approach_avoid_sv1","""event"",""trial"",""time""
""fullscreenenter"",""1"",""4740""
","
","
","""event"",""trial"",""time""
""fullscreenenter"",""1"",""4740""
","
","","","","","","1024.800000011921","images/tree2.png","","","memory_trial","4","definitely_new",""
"html-keyboard-response","184","448863","0.0-18.0-0.69","6479","approach_avoid_sv1","""event"",""trial"",""time""
""fullscreenenter"",""1"",""4740""
","
","
","""event"",""trial"",""time""
""fullscreenenter"",""1"",""4740""
","
","","","","","","null","<div style=""font-size:60px;"">+</div>","null","","fixation","","",""
"memory-trial","185","450690","0.0-18.0-1.69","6479","approach_avoid_sv1","""event"",""trial"",""time""
""fullscreenenter"",""1"",""4740""
","
","
","""event"",""trial"",""time""
""fullscreenenter"",""1"",""4740""
","
","","","","","","824.1999999880791","images/cow6.png","","","memory_trial","1","definitely_old",""
"html-keyboard-response","186","451192","0.0-18.0-0.70","6479","approach_avoid_sv1","""event"",""trial"",""time""
""fullscreenenter"",""1"",""4740""
","
","
","""event"",""trial"",""time""
""fullscreenenter"",""1"",""4740""
","
","","","","","","null","<div style=""font-size:60px;"">+</div>","null","","fixation","","",""
"memory-trial","187","452875","0.0-18.0-1.70","6479","approach_avoid_sv1","""event"",""trial"",""time""
""fullscreenenter"",""1"",""4740""
","
","
","""event"",""trial"",""time""
""fullscreenenter"",""1"",""4740""
","
","","","","","","680","images/cat4.png","","","memory_trial","1","definitely_old",""
"html-keyboard-response","188","453376","0.0-18.0-0.71","6479","approach_avoid_sv1","""event"",""trial"",""time""
""fullscreenenter"",""1"",""4740""
","
","
","""event"",""trial"",""time""
""fullscreenenter"",""1"",""4740""
","
","","","","","","null","<div style=""font-size:60px;"">+</div>","null","","fixation","","",""
"memory-trial","189","455531","0.0-18.0-1.71","6479","approach_avoid_sv1","""event"",""trial"",""time""
""fullscreenenter"",""1"",""4740""
","
","
","""event"",""trial"",""time""
""fullscreenenter"",""1"",""4740""
","
","","","","","","1152.6000000238419","images/bush7.png","","","memory_trial","4","definitely_new",""
"html-keyboard-response","190","456033","0.0-18.0-0.72","6479","approach_avoid_sv1","""event"",""trial"",""time""
""fullscreenenter"",""1"",""4740""
","
","
","""event"",""trial"",""time""
""fullscreenenter"",""1"",""4740""
","
","","","","","","null","<div style=""font-size:60px;"">+</div>","null","","fixation","","",""
"memory-trial","191","458973","0.0-18.0-1.72","6479","approach_avoid_sv1","""event"",""trial"",""time""
""fullscreenenter"",""1"",""4740""
","
","
","""event"",""trial"",""time""
""fullscreenenter"",""1"",""4740""
","
","","","","","","1935.6000000238419","images/goat6.png","","","memory_trial","1","definitely_old",""
"html-keyboard-response","192","459475","0.0-18.0-0.73","6479","approach_avoid_sv1","""event"",""trial"",""time""
""fullscreenenter"",""1"",""4740""
","
","
","""event"",""trial"",""time""
""fullscreenenter"",""1"",""4740""
","
","","","","","","null","<div style=""font-size:60px;"">+</div>","null","","fixation","","",""
"memory-trial","193","465852","0.0-18.0-1.73","6479","approach_avoid_sv1","""event"",""trial"",""time""
""fullscreenenter"",""1"",""4740""
","
","
","""event"",""trial"",""time""
""fullscreenenter"",""1"",""4740""
","
","","","","","","5371.300000011921","images/bush5.png","","","memory_trial","3","maybe_new",""
"html-keyboard-response","194","466354","0.0-18.0-0.74","6479","approach_avoid_sv1","""event"",""trial"",""time""
""fullscreenenter"",""1"",""4740""
","
","
","""event"",""trial"",""time""
""fullscreenenter"",""1"",""4740""
","
","","","","","","null","<div style=""font-size:60px;"">+</div>","null","","fixation","","",""
"memory-trial","195","468975","0.0-18.0-1.74","6479","approach_avoid_sv1","""event"",""trial"",""time""
""fullscreenenter"",""1"",""4740""
","
","
","""event"",""trial"",""time""
""fullscreenenter"",""1"",""4740""
","
","","","","","","1618.9000000357628","images/table5.png","","","memory_trial","1","definitely_old",""
"html-keyboard-response","196","469477","0.0-18.0-0.75","6479","approach_avoid_sv1","""event"",""trial"",""time""
""fullscreenenter"",""1"",""4740""
","
","
","""event"",""trial"",""time""
""fullscreenenter"",""1"",""4740""
","
","","","","","","null","<div style=""font-size:60px;"">+</div>","null","","fixation","","",""
"memory-trial","197","471276","0.0-18.0-1.75","6479","approach_avoid_sv1","""event"",""trial"",""time""
""fullscreenenter"",""1"",""4740""
","
","
","""event"",""trial"",""time""
""fullscreenenter"",""1"",""4740""
","
","","","","","","796.0999999642372","images/boat8.png","","","memory_trial","1","definitely_old",""
"html-keyboard-response","198","471779","0.0-18.0-0.76","6479","approach_avoid_sv1","""event"",""trial"",""time""
""fullscreenenter"",""1"",""4740""
","
","
","""event"",""trial"",""time""
""fullscreenenter"",""1"",""4740""
","
","","","","","","null","<div style=""font-size:60px;"">+</div>","null","","fixation","","",""
"memory-trial","199","474966","0.0-18.0-1.76","6479","approach_avoid_sv1","""event"",""trial"",""time""
""fullscreenenter"",""1"",""4740""
","
","
","""event"",""trial"",""time""
""fullscreenenter"",""1"",""4740""
","
","","","","","","2183.800000011921","images/cat1.png","","","memory_trial","3","maybe_new",""
"html-keyboard-response","200","475469","0.0-18.0-0.77","6479","approach_avoid_sv1","""event"",""trial"",""time""
""fullscreenenter"",""1"",""4740""
","
","
","""event"",""trial"",""time""
""fullscreenenter"",""1"",""4740""
","
","","","","","","null","<div style=""font-size:60px;"">+</div>","null","","fixation","","",""
"memory-trial","201","477144","0.0-18.0-1.77","6479","approach_avoid_sv1","""event"",""trial"",""time""
""fullscreenenter"",""1"",""4740""
","
","
","""event"",""trial"",""time""
""fullscreenenter"",""1"",""4740""
","
","","","","","","669.6999999880791","images/apple2.png","","","memory_trial","1","definitely_old",""
"html-keyboard-response","202","477646","0.0-18.0-0.78","6479","approach_avoid_sv1","""event"",""trial"",""time""
""fullscreenenter"",""1"",""4740""
","
","
","""event"",""trial"",""time""
""fullscreenenter"",""1"",""4740""
","
","","","","","","null","<div style=""font-size:60px;"">+</div>","null","","fixation","","",""
"memory-trial","203","479919","0.0-18.0-1.78","6479","approach_avoid_sv1","""event"",""trial"",""time""
""fullscreenenter"",""1"",""4740""
","
","
","""event"",""trial"",""time""
""fullscreenenter"",""1"",""4740""
","
","","","","","","1270.5","images/banana2.png","","","memory_trial","1","definitely_old",""
"html-keyboard-response","204","480422","0.0-18.0-0.79","6479","approach_avoid_sv1","""event"",""trial"",""time""
""fullscreenenter"",""1"",""4740""
","
","
","""event"",""trial"",""time""
""fullscreenenter"",""1"",""4740""
","
","","","","","","null","<div style=""font-size:60px;"">+</div>","null","","fixation","","",""
"memory-trial","205","482158","0.0-18.0-1.79","6479","approach_avoid_sv1","""event"",""trial"",""time""
""fullscreenenter"",""1"",""4740""
","
","
","""event"",""trial"",""time""
""fullscreenenter"",""1"",""4740""
","
","","","","","","732.6999999880791","images/boat6.png","","","memory_trial","1","definitely_old",""
"html-keyboard-response","206","482660","0.0-18.0-0.80","6479","approach_avoid_sv1","""event"",""trial"",""time""
""fullscreenenter"",""1"",""4740""
","
","
","""event"",""trial"",""time""
""fullscreenenter"",""1"",""4740""
","
","","","","","","null","<div style=""font-size:60px;"">+</div>","null","","fixation","","",""
"memory-trial","207","484600","0.0-18.0-1.80","6479","approach_avoid_sv1","""event"",""trial"",""time""
""fullscreenenter"",""1"",""4740""
","
","
","""event"",""trial"",""time""
""fullscreenenter"",""1"",""4740""
","
","","","","","","936.1999999880791","images/apple1.png","","","memory_trial","1","definitely_old",""
"html-keyboard-response","208","485102","0.0-18.0-0.81","6479","approach_avoid_sv1","""event"",""trial"",""time""
""fullscreenenter"",""1"",""4740""
","
","
","""event"",""trial"",""time""
""fullscreenenter"",""1"",""4740""
","
","","","","","","null","<div style=""font-size:60px;"">+</div>","null","","fixation","","",""
"memory-trial","209","487173","0.0-18.0-1.81","6479","approach_avoid_sv1","""event"",""trial"",""time""
""fullscreenenter"",""1"",""4740""
","
","
","""event"",""trial"",""time""
""fullscreenenter"",""1"",""4740""
","
","","","","","","1065.2999999523163","images/goat2.png","","","memory_trial","1","definitely_old",""
"html-keyboard-response","210","487674","0.0-18.0-0.82","6479","approach_avoid_sv1","""event"",""trial"",""time""
""fullscreenenter"",""1"",""4740""
","
","
","""event"",""trial"",""time""
""fullscreenenter"",""1"",""4740""
","
","","","","","","null","<div style=""font-size:60px;"">+</div>","null","","fixation","","",""
"memory-trial","211","491086","0.0-18.0-1.82","6479","approach_avoid_sv1","""event"",""trial"",""time""
""fullscreenenter"",""1"",""4740""
","
","
","""event"",""trial"",""time""
""fullscreenenter"",""1"",""4740""
","
","","","","","","2408.7000000476837","images/cat3.png","","","memory_trial","1","definitely_old",""
"html-keyboard-response","212","491587","0.0-18.0-0.83","6479","approach_avoid_sv1","""event"",""trial"",""time""
""fullscreenenter"",""1"",""4740""
","
","
","""event"",""trial"",""time""
""fullscreenenter"",""1"",""4740""
","
","","","","","","null","<div style=""font-size:60px;"">+</div>","null","","fixation","","",""
"memory-trial","213","494338","0.0-18.0-1.83","6479","approach_avoid_sv1","""event"",""trial"",""time""
""fullscreenenter"",""1"",""4740""
","
","
","""event"",""trial"",""time""
""fullscreenenter"",""1"",""4740""
","
","","","","","","1745.6000000238419","images/rabbit2.png","","","memory_trial","2","maybe_old",""
"html-keyboard-response","214","494840","0.0-18.0-0.84","6479","approach_avoid_sv1","""event"",""trial"",""time""
""fullscreenenter"",""1"",""4740""
","
","
","""event"",""trial"",""time""
""fullscreenenter"",""1"",""4740""
","
","","","","","","null","<div style=""font-size:60px;"">+</div>","null","","fixation","","",""
"memory-trial","215","496426","0.0-18.0-1.84","6479","approach_avoid_sv1","""event"",""trial"",""time""
""fullscreenenter"",""1"",""4740""
","
","
","""event"",""trial"",""time""
""fullscreenenter"",""1"",""4740""
","
","","","","","","582.5","images/straw3.png","","","memory_trial","1","definitely_old",""
"html-keyboard-response","216","496927","0.0-18.0-0.85","6479","approach_avoid_sv1","""event"",""trial"",""time""
""fullscreenenter"",""1"",""4740""
","
","
","""event"",""trial"",""time""
""fullscreenenter"",""1"",""4740""
","
","","","","","","null","<div style=""font-size:60px;"">+</div>","null","","fixation","","",""
"memory-trial","217","499650","0.0-18.0-1.85","6479","approach_avoid_sv1","""event"",""trial"",""time""
""fullscreenenter"",""1"",""4740""
","
","
","""event"",""trial"",""time""
""fullscreenenter"",""1"",""4740""
","
","","","","","","1719.300000011921","images/boat7.png","","","memory_trial","1","definitely_old",""
"html-keyboard-response","218","500151","0.0-18.0-0.86","6479","approach_avoid_sv1","""event"",""trial"",""time""
""fullscreenenter"",""1"",""4740""
","
","
","""event"",""trial"",""time""
""fullscreenenter"",""1"",""4740""
","
","","","","","","null","<div style=""font-size:60px;"">+</div>","null","","fixation","","",""
"memory-trial","219","502039","0.0-18.0-1.86","6479","approach_avoid_sv1","""event"",""trial"",""time""
""fullscreenenter"",""1"",""4740""
","
","
","""event"",""trial"",""time""
""fullscreenenter"",""1"",""4740""
","
","","","","","","881.8999999761581","images/bed1.png","","","memory_trial","1","definitely_old",""
"html-keyboard-response","220","502541","0.0-18.0-0.87","6479","approach_avoid_sv1","""event"",""trial"",""time""
""fullscreenenter"",""1"",""4740""
","
","
","""event"",""trial"",""time""
""fullscreenenter"",""1"",""4740""
","
","","","","","","null","<div style=""font-size:60px;"">+</div>","null","","fixation","","",""
"memory-trial","221","504822","0.0-18.0-1.87","6479","approach_avoid_sv1","""event"",""trial"",""time""
""fullscreenenter"",""1"",""4740""
","
","
","""event"",""trial"",""time""
""fullscreenenter"",""1"",""4740""
","
","","","","","","1277.800000011921","images/boat5.png","","","memory_trial","1","definitely_old",""
"html-keyboard-response","222","505324","0.0-18.0-0.88","6479","approach_avoid_sv1","""event"",""trial"",""time""
""fullscreenenter"",""1"",""4740""
","
","
","""event"",""trial"",""time""
""fullscreenenter"",""1"",""4740""
","
","","","","","","null","<div style=""font-size:60px;"">+</div>","null","","fixation","","",""
"memory-trial","223","507311","0.0-18.0-1.88","6479","approach_avoid_sv1","""event"",""trial"",""time""
""fullscreenenter"",""1"",""4740""
","
","
","""event"",""trial"",""time""
""fullscreenenter"",""1"",""4740""
","
","","","","","","982.7000000476837","images/flower1.png","","","memory_trial","1","definitely_old",""
"html-keyboard-response","224","507813","0.0-18.0-0.89","6479","approach_avoid_sv1","""event"",""trial"",""time""
""fullscreenenter"",""1"",""4740""
","
","
","""event"",""trial"",""time""
""fullscreenenter"",""1"",""4740""
","
","","","","","","null","<div style=""font-size:60px;"">+</div>","null","","fixation","","",""
"memory-trial","225","509505","0.0-18.0-1.89","6479","approach_avoid_sv1","""event"",""trial"",""time""
""fullscreenenter"",""1"",""4740""
","
","
","""event"",""trial"",""time""
""fullscreenenter"",""1"",""4740""
","
","","","","","","687.4000000357628","images/straw8.png","","","memory_trial","1","definitely_old",""
"html-keyboard-response","226","510007","0.0-18.0-0.90","6479","approach_avoid_sv1","""event"",""trial"",""time""
""fullscreenenter"",""1"",""4740""
","
","
","""event"",""trial"",""time""
""fullscreenenter"",""1"",""4740""
","
","","","","","","null","<div style=""font-size:60px;"">+</div>","null","","fixation","","",""
"memory-trial","227","511838","0.0-18.0-1.90","6479","approach_avoid_sv1","""event"",""trial"",""time""
""fullscreenenter"",""1"",""4740""
","
","
","""event"",""trial"",""time""
""fullscreenenter"",""1"",""4740""
","
","","","","","","827.3000000119209","images/cow4.png","","","memory_trial","1","definitely_old",""
"html-keyboard-response","228","512339","0.0-18.0-0.91","6479","approach_avoid_sv1","""event"",""trial"",""time""
""fullscreenenter"",""1"",""4740""
","
","
","""event"",""trial"",""time""
""fullscreenenter"",""1"",""4740""
","
","","","","","","null","<div style=""font-size:60px;"">+</div>","null","","fixation","","",""
"memory-trial","229","514081","0.0-18.0-1.91","6479","approach_avoid_sv1","""event"",""trial"",""time""
""fullscreenenter"",""1"",""4740""
","
","
","""event"",""trial"",""time""
""fullscreenenter"",""1"",""4740""
","
","","","","","","737.2000000476837","images/horse7.png","","","memory_trial","1","definitely_old",""
"html-button-response","230","515774","0.0-18.0-2.91-0.91","6479","approach_avoid_sv1","""event"",""trial"",""time""
""fullscreenenter"",""1"",""4740""
","
","
","""event"",""trial"",""time""
""fullscreenenter"",""1"",""4740""
","
","","","","","","1691.199999988079","<p> Take a break! </p><p> Click the button to continue. </p>","0","","break","","",""
"html-keyboard-response","231","516276","0.0-18.0-0.92","6479","approach_avoid_sv1","""event"",""trial"",""time""
""fullscreenenter"",""1"",""4740""
","
","
","""event"",""trial"",""time""
""fullscreenenter"",""1"",""4740""
","
","","","","","","null","<div style=""font-size:60px;"">+</div>","null","","fixation","","",""
"memory-trial","232","522649","0.0-18.0-1.92","6479","approach_avoid_sv1","""event"",""trial"",""time""
""fullscreenenter"",""1"",""4740""
","
","
","""event"",""trial"",""time""
""fullscreenenter"",""1"",""4740""
","
","","","","","","5368","images/bed4.png","","","memory_trial","1","definitely_old",""
"html-keyboard-response","233","523152","0.0-18.0-0.93","6479","approach_avoid_sv1","""event"",""trial"",""time""
""fullscreenenter"",""1"",""4740""
","
","
","""event"",""trial"",""time""
""fullscreenenter"",""1"",""4740""
","
","","","","","","null","<div style=""font-size:60px;"">+</div>","null","","fixation","","",""
"memory-trial","234","525386","0.0-18.0-1.93","6479","approach_avoid_sv1","""event"",""trial"",""time""
""fullscreenenter"",""1"",""4740""
","
","
","""event"",""trial"",""time""
""fullscreenenter"",""1"",""4740""
","
","","","","","","1228.6000000238419","images/banana7.png","","","memory_trial","1","definitely_old",""
"html-keyboard-response","235","525887","0.0-18.0-0.94","6479","approach_avoid_sv1","""event"",""trial"",""time""
""fullscreenenter"",""1"",""4740""
","
","
","""event"",""trial"",""time""
""fullscreenenter"",""1"",""4740""
","
","","","","","","null","<div style=""font-size:60px;"">+</div>","null","","fixation","","",""
"memory-trial","236","527954","0.0-18.0-1.94","6479","approach_avoid_sv1","""event"",""trial"",""time""
""fullscreenenter"",""1"",""4740""
","
","
","""event"",""trial"",""time""
""fullscreenenter"",""1"",""4740""
","
","","","","","","1061.2000000476837","images/sheep2.png","","","memory_trial","1","definitely_old",""
"html-keyboard-response","237","528456","0.0-18.0-0.95","6479","approach_avoid_sv1","""event"",""trial"",""time""
""fullscreenenter"",""1"",""4740""
","
","
","""event"",""trial"",""time""
""fullscreenenter"",""1"",""4740""
","
","","","","","","null","<div style=""font-size:60px;"">+</div>","null","","fixation","","",""
"memory-trial","238","530756","0.0-18.0-1.95","6479","approach_avoid_sv1","""event"",""trial"",""time""
""fullscreenenter"",""1"",""4740""
","
","
","""event"",""trial"",""time""
""fullscreenenter"",""1"",""4740""
","
","","","","","","1294.6000000238419","images/chair6.png","","","memory_trial","1","definitely_old",""
"html-keyboard-response","239","531257","0.0-18.0-0.96","6479","approach_avoid_sv1","""event"",""trial"",""time""
""fullscreenenter"",""1"",""4740""
","
","
","""event"",""trial"",""time""
""fullscreenenter"",""1"",""4740""
","
","","","","","","null","<div style=""font-size:60px;"">+</div>","null","","fixation","","",""
"memory-trial","240","533441","0.0-18.0-1.96","6479","approach_avoid_sv1","""event"",""trial"",""time""
""fullscreenenter"",""1"",""4740""
","
","
","""event"",""trial"",""time""
""fullscreenenter"",""1"",""4740""
","
","","","","","","1178.5","images/goat1.png","","","memory_trial","1","definitely_old",""
"html-keyboard-response","241","533943","0.0-18.0-0.97","6479","approach_avoid_sv1","""event"",""trial"",""time""
""fullscreenenter"",""1"",""4740""
","
","
","""event"",""trial"",""time""
""fullscreenenter"",""1"",""4740""
","
","","","","","","null","<div style=""font-size:60px;"">+</div>","null","","fixation","","",""
"memory-trial","242","536705","0.0-18.0-1.97","6479","approach_avoid_sv1","""event"",""trial"",""time""
""fullscreenenter"",""1"",""4740""
","
","
","""event"",""trial"",""time""
""fullscreenenter"",""1"",""4740""
","
","","","","","","1758.1000000238419","images/dog1.png","","","memory_trial","1","definitely_old",""
"html-keyboard-response","243","537207","0.0-18.0-0.98","6479","approach_avoid_sv1","""event"",""trial"",""time""
""fullscreenenter"",""1"",""4740""
","
","
","""event"",""trial"",""time""
""fullscreenenter"",""1"",""4740""
","
","","","","","","null","<div style=""font-size:60px;"">+</div>","null","","fixation","","",""
"memory-trial","244","540451","0.0-18.0-1.98","6479","approach_avoid_sv1","""event"",""trial"",""time""
""fullscreenenter"",""1"",""4740""
","
","
","""event"",""trial"",""time""
""fullscreenenter"",""1"",""4740""
","
","","","","","","2239.7000000476837","images/dog4.png","","","memory_trial","4","definitely_new",""
"html-keyboard-response","245","540952","0.0-18.0-0.99","6479","approach_avoid_sv1","""event"",""trial"",""time""
""fullscreenenter"",""1"",""4740""
","
","
","""event"",""trial"",""time""
""fullscreenenter"",""1"",""4740""
","
","","","","","","null","<div style=""font-size:60px;"">+</div>","null","","fixation","","",""
"memory-trial","246","543421","0.0-18.0-1.99","6479","approach_avoid_sv1","""event"",""trial"",""time""
""fullscreenenter"",""1"",""4740""
","
","
","""event"",""trial"",""time""
""fullscreenenter"",""1"",""4740""
","
","","","","","","1463.300000011921","images/sofa5.png","","","memory_trial","1","definitely_old",""
"html-keyboard-response","247","543922","0.0-18.0-0.100","6479","approach_avoid_sv1","""event"",""trial"",""time""
""fullscreenenter"",""1"",""4740""
","
","
","""event"",""trial"",""time""
""fullscreenenter"",""1"",""4740""
","
","","","","","","null","<div style=""font-size:60px;"">+</div>","null","","fixation","","",""
"memory-trial","248","546419","0.0-18.0-1.100","6479","approach_avoid_sv1","""event"",""trial"",""time""
""fullscreenenter"",""1"",""4740""
","
","
","""event"",""trial"",""time""
""fullscreenenter"",""1"",""4740""
","
","","","","","","1491.300000011921","images/horse6.png","","","memory_trial","1","definitely_old",""
"html-keyboard-response","249","546922","0.0-18.0-0.101","6479","approach_avoid_sv1","""event"",""trial"",""time""
""fullscreenenter"",""1"",""4740""
","
","
","""event"",""trial"",""time""
""fullscreenenter"",""1"",""4740""
","
","","","","","","null","<div style=""font-size:60px;"">+</div>","null","","fixation","","",""
"memory-trial","250","550123","0.0-18.0-1.101","6479","approach_avoid_sv1","""event"",""trial"",""time""
""fullscreenenter"",""1"",""4740""
","
","
","""event"",""trial"",""time""
""fullscreenenter"",""1"",""4740""
","
","","","","","","2197.199999988079","images/horse3.png","","","memory_trial","4","definitely_new",""
"html-keyboard-response","251","550625","0.0-18.0-0.102","6479","approach_avoid_sv1","""event"",""trial"",""time""
""fullscreenenter"",""1"",""4740""
","
","
","""event"",""trial"",""time""
""fullscreenenter"",""1"",""4740""
","
","","","","","","null","<div style=""font-size:60px;"">+</div>","null","","fixation","","",""
"memory-trial","252","552514","0.0-18.0-1.102","6479","approach_avoid_sv1","""event"",""trial"",""time""
""fullscreenenter"",""1"",""4740""
","
","
","""event"",""trial"",""time""
""fullscreenenter"",""1"",""4740""
","
","","","","","","884.5999999642372","images/apple4.png","","","memory_trial","1","definitely_old",""
"html-keyboard-response","253","553015","0.0-18.0-0.103","6479","approach_avoid_sv1","""event"",""trial"",""time""
""fullscreenenter"",""1"",""4740""
","
","
","""event"",""trial"",""time""
""fullscreenenter"",""1"",""4740""
","
","","","","","","null","<div style=""font-size:60px;"">+</div>","null","","fixation","","",""
"memory-trial","254","554902","0.0-18.0-1.103","6479","approach_avoid_sv1","""event"",""trial"",""time""
""fullscreenenter"",""1"",""4740""
","
","
","""event"",""trial"",""time""
""fullscreenenter"",""1"",""4740""
","
","","","","","","883.3999999761581","images/dog5.png","","","memory_trial","1","definitely_old",""
"html-keyboard-response","255","555404","0.0-18.0-0.104","6479","approach_avoid_sv1","""event"",""trial"",""time""
""fullscreenenter"",""1"",""4740""
","
","
","""event"",""trial"",""time""
""fullscreenenter"",""1"",""4740""
","
","","","","","","null","<div style=""font-size:60px;"">+</div>","null","","fixation","","",""
"memory-trial","256","558273","0.0-18.0-1.104","6479","approach_avoid_sv1","""event"",""trial"",""time""
""fullscreenenter"",""1"",""4740""
","
","
","""event"",""trial"",""time""
""fullscreenenter"",""1"",""4740""
","
","","","","","","1864.0999999642372","images/table3.png","","","memory_trial","4","definitely_new",""
"html-keyboard-response","257","558775","0.0-18.0-0.105","6479","approach_avoid_sv1","""event"",""trial"",""time""
""fullscreenenter"",""1"",""4740""
","
","
","""event"",""trial"",""time""
""fullscreenenter"",""1"",""4740""
","
","","","","","","null","<div style=""font-size:60px;"">+</div>","null","","fixation","","",""
"memory-trial","258","560501","0.0-18.0-1.105","6479","approach_avoid_sv1","""event"",""trial"",""time""
""fullscreenenter"",""1"",""4740""
","
","
","""event"",""trial"",""time""
""fullscreenenter"",""1"",""4740""
","
","","","","","","722.6000000238419","images/horse4.png","","","memory_trial","1","definitely_old",""
"html-keyboard-response","259","561004","0.0-18.0-0.106","6479","approach_avoid_sv1","""event"",""trial"",""time""
""fullscreenenter"",""1"",""4740""
","
","
","""event"",""trial"",""time""
""fullscreenenter"",""1"",""4740""
","
","","","","","","null","<div style=""font-size:60px;"">+</div>","null","","fixation","","",""
"memory-trial","260","563576","0.0-18.0-1.106","6479","approach_avoid_sv1","""event"",""trial"",""time""
""fullscreenenter"",""1"",""4740""
","
","
","""event"",""trial"",""time""
""fullscreenenter"",""1"",""4740""
","
","","","","","","1567.6000000238419","images/rabbit8.png","","","memory_trial","3","maybe_new",""
"html-keyboard-response","261","564078","0.0-18.0-0.107","6479","approach_avoid_sv1","""event"",""trial"",""time""
""fullscreenenter"",""1"",""4740""
","
","
","""event"",""trial"",""time""
""fullscreenenter"",""1"",""4740""
","
","","","","","","null","<div style=""font-size:60px;"">+</div>","null","","fixation","","",""
"memory-trial","262","567969","0.0-18.0-1.107","6479","approach_avoid_sv1","""event"",""trial"",""time""
""fullscreenenter"",""1"",""4740""
","
","
","""event"",""trial"",""time""
""fullscreenenter"",""1"",""4740""
","
","","","","","","2886","images/sofa2.png","","","memory_trial","4","definitely_new",""
"html-keyboard-response","263","568471","0.0-18.0-0.108","6479","approach_avoid_sv1","""event"",""trial"",""time""
""fullscreenenter"",""1"",""4740""
","
","
","""event"",""trial"",""time""
""fullscreenenter"",""1"",""4740""
","
","","","","","","null","<div style=""font-size:60px;"">+</div>","null","","fixation","","",""
"memory-trial","264","570319","0.0-18.0-1.108","6479","approach_avoid_sv1","""event"",""trial"",""time""
""fullscreenenter"",""1"",""4740""
","
","
","""event"",""trial"",""time""
""fullscreenenter"",""1"",""4740""
","
","","","","","","841.3999999761581","images/train3.png","","","memory_trial","1","definitely_old",""
"html-keyboard-response","265","570820","0.0-18.0-0.109","6479","approach_avoid_sv1","""event"",""trial"",""time""
""fullscreenenter"",""1"",""4740""
","
","
","""event"",""trial"",""time""
""fullscreenenter"",""1"",""4740""
","
","","","","","","null","<div style=""font-size:60px;"">+</div>","null","","fixation","","",""
"memory-trial","266","574995","0.0-18.0-1.109","6479","approach_avoid_sv1","""event"",""trial"",""time""
""fullscreenenter"",""1"",""4740""
","
","
","""event"",""trial"",""time""
""fullscreenenter"",""1"",""4740""
","
","","","","","","3172.599999964237","images/truck8.png","","","memory_trial","1","definitely_old",""
"html-keyboard-response","267","575496","0.0-18.0-0.110","6479","approach_avoid_sv1","""event"",""trial"",""time""
""fullscreenenter"",""1"",""4740""
","
","
","""event"",""trial"",""time""
""fullscreenenter"",""1"",""4740""
","
","","","","","","null","<div style=""font-size:60px;"">+</div>","null","","fixation","","",""
"memory-trial","268","577639","0.0-18.0-1.110","6479","approach_avoid_sv1","""event"",""trial"",""time""
""fullscreenenter"",""1"",""4740""
","
","
","""event"",""trial"",""time""
""fullscreenenter"",""1"",""4740""
","
","","","","","","1141.1000000238419","images/train1.png","","","memory_trial","1","definitely_old",""
"html-keyboard-response","269","578142","0.0-18.0-0.111","6479","approach_avoid_sv1","""event"",""trial"",""time""
""fullscreenenter"",""1"",""4740""
","
","
","""event"",""trial"",""time""
""fullscreenenter"",""1"",""4740""
","
","","","","","","null","<div style=""font-size:60px;"">+</div>","null","","fixation","","",""
"memory-trial","270","583037","0.0-18.0-1.111","6479","approach_avoid_sv1","""event"",""trial"",""time""
""fullscreenenter"",""1"",""4740""
","
","
","""event"",""trial"",""time""
""fullscreenenter"",""1"",""4740""
","
","","","","","","3893.900000035763","images/bed2.png","","","memory_trial","1","definitely_old",""
"html-keyboard-response","271","583539","0.0-18.0-0.112","6479","approach_avoid_sv1","""event"",""trial"",""time""
""fullscreenenter"",""1"",""4740""
","
","
","""event"",""trial"",""time""
""fullscreenenter"",""1"",""4740""
","
","","","","","","null","<div style=""font-size:60px;"">+</div>","null","","fixation","","",""
"memory-trial","272","585205","0.0-18.0-1.112","6479","approach_avoid_sv1","""event"",""trial"",""time""
""fullscreenenter"",""1"",""4740""
","
","
","""event"",""trial"",""time""
""fullscreenenter"",""1"",""4740""
","
","","","","","","660.8000000119209","images/banana6.png","","","memory_trial","1","definitely_old",""
"html-keyboard-response","273","585707","0.0-18.0-0.113","6479","approach_avoid_sv1","""event"",""trial"",""time""
""fullscreenenter"",""1"",""4740""
","
","
","""event"",""trial"",""time""
""fullscreenenter"",""1"",""4740""
","
","","","","","","null","<div style=""font-size:60px;"">+</div>","null","","fixation","","",""
"memory-trial","274","588461","0.0-18.0-1.113","6479","approach_avoid_sv1","""event"",""trial"",""time""
""fullscreenenter"",""1"",""4740""
","
","
","""event"",""trial"",""time""
""fullscreenenter"",""1"",""4740""
","
","","","","","","1749","images/rodent1.png","","","memory_trial","1","definitely_old",""
"html-keyboard-response","275","588962","0.0-18.0-0.114","6479","approach_avoid_sv1","""event"",""trial"",""time""
""fullscreenenter"",""1"",""4740""
","
","
","""event"",""trial"",""time""
""fullscreenenter"",""1"",""4740""
","
","","","","","","null","<div style=""font-size:60px;"">+</div>","null","","fixation","","",""
"memory-trial","276","590715","0.0-18.0-1.114","6479","approach_avoid_sv1","""event"",""trial"",""time""
""fullscreenenter"",""1"",""4740""
","
","
","""event"",""trial"",""time""
""fullscreenenter"",""1"",""4740""
","
","","","","","","749.0999999642372","images/dog3.png","","","memory_trial","1","definitely_old",""
"html-keyboard-response","277","591218","0.0-18.0-0.115","6479","approach_avoid_sv1","""event"",""trial"",""time""
""fullscreenenter"",""1"",""4740""
","
","
","""event"",""trial"",""time""
""fullscreenenter"",""1"",""4740""
","
","","","","","","null","<div style=""font-size:60px;"">+</div>","null","","fixation","","",""
"memory-trial","278","593363","0.0-18.0-1.115","6479","approach_avoid_sv1","""event"",""trial"",""time""
""fullscreenenter"",""1"",""4740""
","
","
","""event"",""trial"",""time""
""fullscreenenter"",""1"",""4740""
","
","","","","","","1138.8999999761581","images/bush6.png","","","memory_trial","4","definitely_new",""
"html-keyboard-response","279","593864","0.0-18.0-0.116","6479","approach_avoid_sv1","""event"",""trial"",""time""
""fullscreenenter"",""1"",""4740""
","
","
","""event"",""trial"",""time""
""fullscreenenter"",""1"",""4740""
","
","","","","","","null","<div style=""font-size:60px;"">+</div>","null","","fixation","","",""
"memory-trial","280","596343","0.0-18.0-1.116","6479","approach_avoid_sv1","""event"",""trial"",""time""
""fullscreenenter"",""1"",""4740""
","
","
","""event"",""trial"",""time""
""fullscreenenter"",""1"",""4740""
","
","","","","","","1474.7000000476837","images/rodent3.png","","","memory_trial","1","definitely_old",""
"html-keyboard-response","281","596845","0.0-18.0-0.117","6479","approach_avoid_sv1","""event"",""trial"",""time""
""fullscreenenter"",""1"",""4740""
","
","
","""event"",""trial"",""time""
""fullscreenenter"",""1"",""4740""
","
","","","","","","null","<div style=""font-size:60px;"">+</div>","null","","fixation","","",""
"memory-trial","282","598575","0.0-18.0-1.117","6479","approach_avoid_sv1","""event"",""trial"",""time""
""fullscreenenter"",""1"",""4740""
","
","
","""event"",""trial"",""time""
""fullscreenenter"",""1"",""4740""
","
","","","","","","726.6000000238419","images/plane6.png","","","memory_trial","1","definitely_old",""
"html-keyboard-response","283","599077","0.0-18.0-0.118","6479","approach_avoid_sv1","""event"",""trial"",""time""
""fullscreenenter"",""1"",""4740""
","
","
","""event"",""trial"",""time""
""fullscreenenter"",""1"",""4740""
","
","","","","","","null","<div style=""font-size:60px;"">+</div>","null","","fixation","","",""
"memory-trial","284","602099","0.0-18.0-1.118","6479","approach_avoid_sv1","""event"",""trial"",""time""
""fullscreenenter"",""1"",""4740""
","
","
","""event"",""trial"",""time""
""fullscreenenter"",""1"",""4740""
","
","","","","","","2017.3999999761581","images/cow8.png","","","memory_trial","1","definitely_old",""
"html-keyboard-response","285","602601","0.0-18.0-0.119","6479","approach_avoid_sv1","""event"",""trial"",""time""
""fullscreenenter"",""1"",""4740""
","
","
","""event"",""trial"",""time""
""fullscreenenter"",""1"",""4740""
","
","","","","","","null","<div style=""font-size:60px;"">+</div>","null","","fixation","","",""
"memory-trial","286","604610","0.0-18.0-1.119","6479","approach_avoid_sv1","""event"",""trial"",""time""
""fullscreenenter"",""1"",""4740""
","
","
","""event"",""trial"",""time""
""fullscreenenter"",""1"",""4740""
","
","","","","","","1005.1000000238419","images/cow7.png","","","memory_trial","1","definitely_old",""
"html-keyboard-response","287","605113","0.0-18.0-0.120","6479","approach_avoid_sv1","""event"",""trial"",""time""
""fullscreenenter"",""1"",""4740""
","
","
","""event"",""trial"",""time""
""fullscreenenter"",""1"",""4740""
","
","","","","","","null","<div style=""font-size:60px;"">+</div>","null","","fixation","","",""
"memory-trial","288","607194","0.0-18.0-1.120","6479","approach_avoid_sv1","""event"",""trial"",""time""
""fullscreenenter"",""1"",""4740""
","
","
","""event"",""trial"",""time""
""fullscreenenter"",""1"",""4740""
","
","","","","","","1075.6000000238419","images/goat3.png","","","memory_trial","1","definitely_old",""
"html-keyboard-response","289","607696","0.0-18.0-0.121","6479","approach_avoid_sv1","""event"",""trial"",""time""
""fullscreenenter"",""1"",""4740""
","
","
","""event"",""trial"",""time""
""fullscreenenter"",""1"",""4740""
","
","","","","","","null","<div style=""font-size:60px;"">+</div>","null","","fixation","","",""
"memory-trial","290","611191","0.0-18.0-1.121","6479","approach_avoid_sv1","""event"",""trial"",""time""
""fullscreenenter"",""1"",""4740""
","
","
","""event"",""trial"",""time""
""fullscreenenter"",""1"",""4740""
","
","","","","","","2491.5","images/boat3.png","","","memory_trial","4","definitely_new",""
"html-keyboard-response","291","611693","0.0-18.0-0.122","6479","approach_avoid_sv1","""event"",""trial"",""time""
""fullscreenenter"",""1"",""4740""
","
","
","""event"",""trial"",""time""
""fullscreenenter"",""1"",""4740""
","
","","","","","","null","<div style=""font-size:60px;"">+</div>","null","","fixation","","",""
"memory-trial","292","614217","0.0-18.0-1.122","6479","approach_avoid_sv1","""event"",""trial"",""time""
""fullscreenenter"",""1"",""4740""
","
","
","""event"",""trial"",""time""
""fullscreenenter"",""1"",""4740""
","
","","","","","","1518.4000000357628","images/rabbit7.png","","","memory_trial","2","maybe_old",""
"html-keyboard-response","293","614719","0.0-18.0-0.123","6479","approach_avoid_sv1","""event"",""trial"",""time""
""fullscreenenter"",""1"",""4740""
","
","
","""event"",""trial"",""time""
""fullscreenenter"",""1"",""4740""
","
","","","","","","null","<div style=""font-size:60px;"">+</div>","null","","fixation","","",""
"memory-trial","294","617795","0.0-18.0-1.123","6479","approach_avoid_sv1","""event"",""trial"",""time""
""fullscreenenter"",""1"",""4740""
","
","
","""event"",""trial"",""time""
""fullscreenenter"",""1"",""4740""
","
","","","","","","2071.199999988079","images/rabbit4.png","","","memory_trial","4","definitely_new",""
"html-keyboard-response","295","618297","0.0-18.0-0.124","6479","approach_avoid_sv1","""event"",""trial"",""time""
""fullscreenenter"",""1"",""4740""
","
","
","""event"",""trial"",""time""
""fullscreenenter"",""1"",""4740""
","
","","","","","","null","<div style=""font-size:60px;"">+</div>","null","","fixation","","",""
"memory-trial","296","619816","0.0-18.0-1.124","6479","approach_avoid_sv1","""event"",""trial"",""time""
""fullscreenenter"",""1"",""4740""
","
","
","""event"",""trial"",""time""
""fullscreenenter"",""1"",""4740""
","
","","","","","","515.1999999880791","images/straw4.png","","","memory_trial","1","definitely_old",""
