"trial_type","trial_index","time_elapsed","internal_node_id","subject_id","task_version","interactions","blur_events","focus_events","fullscreenenter_events","fullscreenexit_events","success","timeout","failed_images","failed_audio","failed_video","rt","stimulus","response","button_pressed","task_part","key_press","answer","correct"
"pavlovia","0","3","0.0-0.0","4532","approach_avoid_sv1","""event"",""trial"",""time""
""fullscreenenter"",""1"",""1710""
","
","
","""event"",""trial"",""time""
""fullscreenenter"",""1"",""1710""
","
","","","","","","","","","","","","",""
"fullscreen","1","2692","0.0-1.0","4532","approach_avoid_sv1","""event"",""trial"",""time""
""fullscreenenter"",""1"",""1710""
","
","
","""event"",""trial"",""time""
""fullscreenenter"",""1"",""1710""
","
","true","","","","","","","","","","","",""
"preload","2","3872","0.0-2.0","4532","approach_avoid_sv1","""event"",""trial"",""time""
""fullscreenenter"",""1"",""1710""
","
","
","""event"",""trial"",""time""
""fullscreenenter"",""1"",""1710""
","
","true","false","[]","[]","[]","","","","","","","",""
"preload","3","4356","0.0-3.0","4532","approach_avoid_sv1","""event"",""trial"",""time""
""fullscreenenter"",""1"",""1710""
","
","
","""event"",""trial"",""time""
""fullscreenenter"",""1"",""1710""
","
","true","false","[]","[]","[]","","","","","","","",""
"preload","4","4580","0.0-4.0","4532","approach_avoid_sv1","""event"",""trial"",""time""
""fullscreenenter"",""1"",""1710""
","
","
","""event"",""trial"",""time""
""fullscreenenter"",""1"",""1710""
","
","true","false","[]","[]","[]","","","","","","","",""
"audio-keyboard-response","5","6469","0.0-5.0","4532","approach_avoid_sv1","""event"",""trial"",""time""
""fullscreenenter"",""1"",""1710""
","
","
","""event"",""trial"",""time""
""fullscreenenter"",""1"",""1710""
","
","","","","","","1888.0000000000002","audio/beep_loop.wav"," ","","","","",""
"audio-button-response","6","7693","0.0-6.0","4532","approach_avoid_sv1","""event"",""trial"",""time""
""fullscreenenter"",""1"",""1710""
","
","
","""event"",""trial"",""time""
""fullscreenenter"",""1"",""1710""
","
","","","","","","1221","audio/turtle.wav","3","","","","",""
"audio-button-response","7","9720","0.0-7.0","4532","approach_avoid_sv1","""event"",""trial"",""time""
""fullscreenenter"",""1"",""1710""
","
","
","""event"",""trial"",""time""
""fullscreenenter"",""1"",""1710""
","
","","","","","","1024","audio/shark.wav","2","","","","",""
"preload","8","12402","0.0-8.0","4532","approach_avoid_sv1","""event"",""trial"",""time""
""fullscreenenter"",""1"",""1710""
","
","
","""event"",""trial"",""time""
""fullscreenenter"",""1"",""1710""
","
","true","false","[]","[]","[]","","","","","","","",""
"learning-instructions","9","19109","0.0-9.0-0.0","4532","approach_avoid_sv1","""event"",""trial"",""time""
""fullscreenenter"",""1"",""1710""
","
","
","""event"",""trial"",""time""
""fullscreenenter"",""1"",""1710""
","
","","","","","","2227.0999999940395","<p> Welcome back! </p><p> Last week, you had to make choices about lots of different items.  </p>","","0","instructions","","",""
"learning-instructions","10","24458","0.0-9.0-0.1","4532","approach_avoid_sv1","""event"",""trial"",""time""
""fullscreenenter"",""1"",""1710""
","
","
","""event"",""trial"",""time""
""fullscreenenter"",""1"",""1710""
","
","","","","","","1235.5","<p> Today, we are going to ask you to try to remember all the items. </p>","","0","instructions","","",""
"learning-instructions","11","36862","0.0-9.0-0.2","4532","approach_avoid_sv1","""event"",""trial"",""time""
""fullscreenenter"",""1"",""1710""
","
","
","""event"",""trial"",""time""
""fullscreenenter"",""1"",""1710""
","
","","","","","","2269.0999999940395","<p> On every trial, you will see an image. </p><p> The image may be an OLD image you saw during the games last week or it may be a NEW image that was not presented. </p>","","0","instructions","","",""
"learning-instructions","12","47127","0.0-9.0-0.3","4532","approach_avoid_sv1","""event"",""trial"",""time""
""fullscreenenter"",""1"",""1710""
","
","
","""event"",""trial"",""time""
""fullscreenenter"",""1"",""1710""
","
","","","","","","1765.0999999940395","<p> You need to select whether the image is:  </p><p>  'Definitely old', 'Maybe old', 'Maybe new', or 'Definitely new.'  </p><div class=""mem-choice-instructions-grid""><div class=""choice-option"" id=""choice-option-1"" ><img src=""images/definitely_old_1.png"" id=""choice-option-img-1"" class=""choice-option-img"" stage=""1""></div><div class=""choice-option"" id=""choice-option-2"" ><img src=""images/maybe_old_1.png"" id=""choice-option-img-2"" class=""choice-option-img"" stage=""1""></div><div class=""choice-option"" id=""choice-option-3"" ><img src=""images/maybe_new_1.png"" id=""choice-option-img-3"" class=""choice-option-img"" stage=""1""></div><div class=""choice-option"" id=""choice-option-4"" > <img src=""images/definitely_new_1.png"" id=""choice-option-img-4"" class=""choice-option-img"" stage=""1""></div></div>","","0","instructions","","",""
"learning-instructions","13","54984","0.0-9.0-0.4","4532","approach_avoid_sv1","""event"",""trial"",""time""
""fullscreenenter"",""1"",""1710""
","
","
","""event"",""trial"",""time""
""fullscreenenter"",""1"",""1710""
","
","","","","","","1339.2999999821186","<p> You should use the 1, 2, 3, and 4 keys to make your responses.  </p><div class=""mem-choice-instructions-grid""><div class=""choice-option"" id=""choice-option-1"" ><img src=""images/definitely_old.png"" id=""choice-option-img-1"" class=""choice-option-img"" stage=""1""></div><div class=""choice-option"" id=""choice-option-2"" ><img src=""images/maybe_old.png"" id=""choice-option-img-2"" class=""choice-option-img"" stage=""1""></div><div class=""choice-option"" id=""choice-option-3"" ><img src=""images/maybe_new.png"" id=""choice-option-img-3"" class=""choice-option-img"" stage=""1""></div><div class=""choice-option"" id=""choice-option-4"" > <img src=""images/definitely_new.png"" id=""choice-option-img-4"" class=""choice-option-img"" stage=""1""></div></div>","","0","instructions","","",""
"learning-instructions","14","62067","0.0-9.0-0.5","4532","approach_avoid_sv1","""event"",""trial"",""time""
""fullscreenenter"",""1"",""1710""
","
","
","""event"",""trial"",""time""
""fullscreenenter"",""1"",""1710""
","
","","","","","","760.1999999880791","<p> You will have 10 seconds to make each response.  </p><p>  Make sure to respond before time runs out! </p>","","0","instructions","","",""
"learning-instructions","15","70595","0.0-9.0-0.6","4532","approach_avoid_sv1","""event"",""trial"",""time""
""fullscreenenter"",""1"",""1710""
","
","
","""event"",""trial"",""time""
""fullscreenenter"",""1"",""1710""
","
","","","","","","1458.4000000059605","<p> Today, you will see each image ONCE only.  </p><p>  That means none of the images will repeat. </p>","","0","instructions","","",""
"learning-instructions","16","85025","0.0-9.0-0.7","4532","approach_avoid_sv1","""event"",""trial"",""time""
""fullscreenenter"",""1"",""1710""
","
","
","""event"",""trial"",""time""
""fullscreenenter"",""1"",""1710""
","
","","","","","","1766.0999999940395","<p> Before you play the real game, it is time to practice. </p><p>  Just like in the real game, some of the images in the practice will be ones you have seen before. </p><p>  Others will be entirely new. </p>","","0","instructions","","",""
"html-button-response","17","87698","0.0-10.0","4532","approach_avoid_sv1","""event"",""trial"",""time""
""fullscreenenter"",""1"",""1710""
","
","
","""event"",""trial"",""time""
""fullscreenenter"",""1"",""1710""
","
","","","","","","2570.199999988079","<p> Ready to practice? </p><p> Remember, use the 1, 2, 3, and 4 keys to make your responses. </p>","0","","instructions","","",""
"html-keyboard-response","18","88301","0.0-11.0-0.0","4532","approach_avoid_sv1","""event"",""trial"",""time""
""fullscreenenter"",""1"",""1710""
","
","
","""event"",""trial"",""time""
""fullscreenenter"",""1"",""1710""
","
","","","","","","null","<div style=""font-size:60px;"">+</div>","null","","fixation","","",""
"memory-trial","19","92107","0.0-11.0-1.0","4532","approach_avoid_sv1","""event"",""trial"",""time""
""fullscreenenter"",""1"",""1710""
","
","
","""event"",""trial"",""time""
""fullscreenenter"",""1"",""1710""
","
","","","","","","2799.600000023842","images/ball2.png","","","practice","1","definitely_old",""
"html-keyboard-response","20","92613","0.0-11.0-0.1","4532","approach_avoid_sv1","""event"",""trial"",""time""
""fullscreenenter"",""1"",""1710""
","
","
","""event"",""trial"",""time""
""fullscreenenter"",""1"",""1710""
","
","","","","","","null","<div style=""font-size:60px;"">+</div>","null","","fixation","","",""
"memory-trial","21","95589","0.0-11.0-1.1","4532","approach_avoid_sv1","""event"",""trial"",""time""
""fullscreenenter"",""1"",""1710""
","
","
","""event"",""trial"",""time""
""fullscreenenter"",""1"",""1710""
","
","","","","","","1972.2000000178814","images/racket1.png","","","practice","1","definitely_old",""
"html-keyboard-response","22","96093","0.0-11.0-0.2","4532","approach_avoid_sv1","""event"",""trial"",""time""
""fullscreenenter"",""1"",""1710""
","
","
","""event"",""trial"",""time""
""fullscreenenter"",""1"",""1710""
","
","","","","","","null","<div style=""font-size:60px;"">+</div>","null","","fixation","","",""
"memory-trial","23","98795","0.0-11.0-1.2","4532","approach_avoid_sv1","""event"",""trial"",""time""
""fullscreenenter"",""1"",""1710""
","
","
","""event"",""trial"",""time""
""fullscreenenter"",""1"",""1710""
","
","","","","","","1699.5","images/racket5.png","","","practice","2","maybe_old",""
"html-keyboard-response","24","99298","0.0-11.0-0.3","4532","approach_avoid_sv1","""event"",""trial"",""time""
""fullscreenenter"",""1"",""1710""
","
","
","""event"",""trial"",""time""
""fullscreenenter"",""1"",""1710""
","
","","","","","","null","<div style=""font-size:60px;"">+</div>","null","","fixation","","",""
"memory-trial","25","101723","0.0-11.0-1.3","4532","approach_avoid_sv1","""event"",""trial"",""time""
""fullscreenenter"",""1"",""1710""
","
","
","""event"",""trial"",""time""
""fullscreenenter"",""1"",""1710""
","
","","","","","","1422.0999999940395","images/racket2.png","","","practice","1","definitely_old",""
"html-keyboard-response","26","102228","0.0-11.0-0.4","4532","approach_avoid_sv1","""event"",""trial"",""time""
""fullscreenenter"",""1"",""1710""
","
","
","""event"",""trial"",""time""
""fullscreenenter"",""1"",""1710""
","
","","","","","","null","<div style=""font-size:60px;"">+</div>","null","","fixation","","",""
"memory-trial","27","104458","0.0-11.0-1.4","4532","approach_avoid_sv1","""event"",""trial"",""time""
""fullscreenenter"",""1"",""1710""
","
","
","""event"",""trial"",""time""
""fullscreenenter"",""1"",""1710""
","
","","","","","","1224.800000011921","images/ball3.png","","","practice","1","definitely_old",""
"html-keyboard-response","28","104961","0.0-11.0-0.5","4532","approach_avoid_sv1","""event"",""trial"",""time""
""fullscreenenter"",""1"",""1710""
","
","
","""event"",""trial"",""time""
""fullscreenenter"",""1"",""1710""
","
","","","","","","null","<div style=""font-size:60px;"">+</div>","null","","fixation","","",""
"memory-trial","29","107028","0.0-11.0-1.5","4532","approach_avoid_sv1","""event"",""trial"",""time""
""fullscreenenter"",""1"",""1710""
","
","
","""event"",""trial"",""time""
""fullscreenenter"",""1"",""1710""
","
","","","","","","1061.300000011921","images/ball1.png","","","practice","1","definitely_old",""
"html-keyboard-response","30","107531","0.0-11.0-0.6","4532","approach_avoid_sv1","""event"",""trial"",""time""
""fullscreenenter"",""1"",""1710""
","
","
","""event"",""trial"",""time""
""fullscreenenter"",""1"",""1710""
","
","","","","","","null","<div style=""font-size:60px;"">+</div>","null","","fixation","","",""
"memory-trial","31","111022","0.0-11.0-1.6","4532","approach_avoid_sv1","""event"",""trial"",""time""
""fullscreenenter"",""1"",""1710""
","
","
","""event"",""trial"",""time""
""fullscreenenter"",""1"",""1710""
","
","","","","","","2487.800000011921","images/ball5.png","","","practice","1","definitely_old",""
"html-keyboard-response","32","111526","0.0-11.0-0.7","4532","approach_avoid_sv1","""event"",""trial"",""time""
""fullscreenenter"",""1"",""1710""
","
","
","""event"",""trial"",""time""
""fullscreenenter"",""1"",""1710""
","
","","","","","","null","<div style=""font-size:60px;"">+</div>","null","","fixation","","",""
"memory-trial","33","115339","0.0-11.0-1.7","4532","approach_avoid_sv1","""event"",""trial"",""time""
""fullscreenenter"",""1"",""1710""
","
","
","""event"",""trial"",""time""
""fullscreenenter"",""1"",""1710""
","
","","","","","","2805","images/racket3.png","","","practice","4","definitely_new",""
"learning-instructions","34","125216","0.0-12.0-0.0","4532","approach_avoid_sv1","""event"",""trial"",""time""
""fullscreenenter"",""1"",""1710""
","
","
","""event"",""trial"",""time""
""fullscreenenter"",""1"",""1710""
","
","","","","","","2516.4000000059605","<p> Great! You have completed the practice. </p><p> Before you start, we're going to ask you a few questions about how the game works.  </p>","","0","instructions","","",""
"preload","35","126347","0.0-13.0","4532","approach_avoid_sv1","""event"",""trial"",""time""
""fullscreenenter"",""1"",""1710""
","
","
","""event"",""trial"",""time""
""fullscreenenter"",""1"",""1710""
","
","true","false","[]","[]","[]","","","","","","","",""
"comp-q","36","133301","0.0-14.0-0.0","4532","approach_avoid_sv1","""event"",""trial"",""time""
""fullscreenenter"",""1"",""1710""
","
","
","""event"",""trial"",""time""
""fullscreenenter"",""1"",""1710""
","
","","","","","","1124.0999999940395","<p> <b> True or False? </b> </p><p> In this game, you will only see each image once. </p>","","0","comp_question","","","true"
"comp-q","37","141296","0.0-14.0-1.0","4532","approach_avoid_sv1","""event"",""trial"",""time""
""fullscreenenter"",""1"",""1710""
","
","
","""event"",""trial"",""time""
""fullscreenenter"",""1"",""1710""
","
","","","","","","1657.9000000059605","<p> <b> That's right! </b> You will see many different images <i> one time each </i> in this game. </p>","","0","comp_answer","","",""
"comp-q","38","148934","0.0-15.0-0.0","4532","approach_avoid_sv1","""event"",""trial"",""time""
""fullscreenenter"",""1"",""1710""
","
","
","""event"",""trial"",""time""
""fullscreenenter"",""1"",""1710""
","
","","","","","","2635.699999988079","<p> <b> True or False? </b> </p><p> You should use the mouse and click to make your response. </p>","","1","comp_question","","","true"
"comp-q","39","156803","0.0-15.0-1.0","4532","approach_avoid_sv1","""event"",""trial"",""time""
""fullscreenenter"",""1"",""1710""
","
","
","""event"",""trial"",""time""
""fullscreenenter"",""1"",""1710""
","
","","","","","","1363.1000000238419","<p><b> That's right! </b> You should use the '1', '2', '3', and '4' keys to make your response. </p>","","0","comp_answer","","",""
"comp-q","40","162962","0.0-16.0-0.0","4532","approach_avoid_sv1","""event"",""trial"",""time""
""fullscreenenter"",""1"",""1710""
","
","
","""event"",""trial"",""time""
""fullscreenenter"",""1"",""1710""
","
","","","","","","482.5","<p> <b> True or False? </b> </p><p> You will have as much time as you want to make each choice. </p>","","1","comp_question","","","true"
"comp-q","41","169006","0.0-16.0-1.0","4532","approach_avoid_sv1","""event"",""trial"",""time""
""fullscreenenter"",""1"",""1710""
","
","
","""event"",""trial"",""time""
""fullscreenenter"",""1"",""1710""
","
","","","","","","1348","<p> <b> That's right! </b> You will only have 10 seconds to make each choice. </p>","","0","comp_answer","","",""
"learning-instructions","42","180093","0.0-17.0","4532","approach_avoid_sv1","""event"",""trial"",""time""
""fullscreenenter"",""1"",""1710""
","
","
","""event"",""trial"",""time""
""fullscreenenter"",""1"",""1710""
","
","","","","","","2419","<p> Great! You are now ready to begin the game. </p><p> Remember, use the 1, 2, 3, and 4 keys to make your responses. </p>","","0","instructions","","",""
"html-keyboard-response","43","180701","0.0-18.0-0.0","4532","approach_avoid_sv1","""event"",""trial"",""time""
""fullscreenenter"",""1"",""1710""
","
","
","""event"",""trial"",""time""
""fullscreenenter"",""1"",""1710""
","
","","","","","","null","<div style=""font-size:60px;"">+</div>","null","","fixation","","",""
"memory-trial","44","183855","0.0-18.0-1.0","4532","approach_avoid_sv1","""event"",""trial"",""time""
""fullscreenenter"",""1"",""1710""
","
","
","""event"",""trial"",""time""
""fullscreenenter"",""1"",""1710""
","
","","","","","","2148.5999999940395","images/boat1.png","","","memory_trial","1","definitely_old",""
"html-keyboard-response","45","184359","0.0-18.0-0.1","4532","approach_avoid_sv1","""event"",""trial"",""time""
""fullscreenenter"",""1"",""1710""
","
","
","""event"",""trial"",""time""
""fullscreenenter"",""1"",""1710""
","
","","","","","","null","<div style=""font-size:60px;"">+</div>","null","","fixation","","",""
"memory-trial","46","186963","0.0-18.0-1.1","4532","approach_avoid_sv1","""event"",""trial"",""time""
""fullscreenenter"",""1"",""1710""
","
","
","""event"",""trial"",""time""
""fullscreenenter"",""1"",""1710""
","
","","","","","","1601.7999999821186","images/rabbit7.png","","","memory_trial","1","definitely_old",""
"html-keyboard-response","47","187469","0.0-18.0-0.2","4532","approach_avoid_sv1","""event"",""trial"",""time""
""fullscreenenter"",""1"",""1710""
","
","
","""event"",""trial"",""time""
""fullscreenenter"",""1"",""1710""
","
","","","","","","null","<div style=""font-size:60px;"">+</div>","null","","fixation","","",""
"memory-trial","48","189506","0.0-18.0-1.2","4532","approach_avoid_sv1","""event"",""trial"",""time""
""fullscreenenter"",""1"",""1710""
","
","
","""event"",""trial"",""time""
""fullscreenenter"",""1"",""1710""
","
","","","","","","1033.300000011921","images/cactus6.png","","","memory_trial","1","definitely_old",""
"html-keyboard-response","49","190008","0.0-18.0-0.3","4532","approach_avoid_sv1","""event"",""trial"",""time""
""fullscreenenter"",""1"",""1710""
","
","
","""event"",""trial"",""time""
""fullscreenenter"",""1"",""1710""
","
","","","","","","null","<div style=""font-size:60px;"">+</div>","null","","fixation","","",""
"memory-trial","50","193151","0.0-18.0-1.3","4532","approach_avoid_sv1","""event"",""trial"",""time""
""fullscreenenter"",""1"",""1710""
","
","
","""event"",""trial"",""time""
""fullscreenenter"",""1"",""1710""
","
","","","","","","2137.600000023842","images/horse6.png","","","memory_trial","4","definitely_new",""
"html-keyboard-response","51","193653","0.0-18.0-0.4","4532","approach_avoid_sv1","""event"",""trial"",""time""
""fullscreenenter"",""1"",""1710""
","
","
","""event"",""trial"",""time""
""fullscreenenter"",""1"",""1710""
","
","","","","","","null","<div style=""font-size:60px;"">+</div>","null","","fixation","","",""
"memory-trial","52","196526","0.0-18.0-1.4","4532","approach_avoid_sv1","""event"",""trial"",""time""
""fullscreenenter"",""1"",""1710""
","
","
","""event"",""trial"",""time""
""fullscreenenter"",""1"",""1710""
","
","","","","","","1866.7999999821186","images/boat5.png","","","memory_trial","1","definitely_old",""
"html-keyboard-response","53","197027","0.0-18.0-0.5","4532","approach_avoid_sv1","""event"",""trial"",""time""
""fullscreenenter"",""1"",""1710""
","
","
","""event"",""trial"",""time""
""fullscreenenter"",""1"",""1710""
","
","","","","","","null","<div style=""font-size:60px;"">+</div>","null","","fixation","","",""
"memory-trial","54","199059","0.0-18.0-1.5","4532","approach_avoid_sv1","""event"",""trial"",""time""
""fullscreenenter"",""1"",""1710""
","
","
","""event"",""trial"",""time""
""fullscreenenter"",""1"",""1710""
","
","","","","","","1027.5999999940395","images/chair1.png","","","memory_trial","1","definitely_old",""
"html-keyboard-response","55","199560","0.0-18.0-0.6","4532","approach_avoid_sv1","""event"",""trial"",""time""
""fullscreenenter"",""1"",""1710""
","
","
","""event"",""trial"",""time""
""fullscreenenter"",""1"",""1710""
","
","","","","","","null","<div style=""font-size:60px;"">+</div>","null","","fixation","","",""
"memory-trial","56","202993","0.0-18.0-1.6","4532","approach_avoid_sv1","""event"",""trial"",""time""
""fullscreenenter"",""1"",""1710""
","
","
","""event"",""trial"",""time""
""fullscreenenter"",""1"",""1710""
","
","","","","","","2430","images/straw5.png","","","memory_trial","3","maybe_new",""
"html-keyboard-response","57","203497","0.0-18.0-0.7","4532","approach_avoid_sv1","""event"",""trial"",""time""
""fullscreenenter"",""1"",""1710""
","
","
","""event"",""trial"",""time""
""fullscreenenter"",""1"",""1710""
","
","","","","","","null","<div style=""font-size:60px;"">+</div>","null","","fixation","","",""
"memory-trial","58","206497","0.0-18.0-1.7","4532","approach_avoid_sv1","""event"",""trial"",""time""
""fullscreenenter"",""1"",""1710""
","
","
","""event"",""trial"",""time""
""fullscreenenter"",""1"",""1710""
","
","","","","","","1995.2999999821186","images/rabbit1.png","","","memory_trial","1","definitely_old",""
"html-keyboard-response","59","206999","0.0-18.0-0.8","4532","approach_avoid_sv1","""event"",""trial"",""time""
""fullscreenenter"",""1"",""1710""
","
","
","""event"",""trial"",""time""
""fullscreenenter"",""1"",""1710""
","
","","","","","","null","<div style=""font-size:60px;"">+</div>","null","","fixation","","",""
"memory-trial","60","209636","0.0-18.0-1.8","4532","approach_avoid_sv1","""event"",""trial"",""time""
""fullscreenenter"",""1"",""1710""
","
","
","""event"",""trial"",""time""
""fullscreenenter"",""1"",""1710""
","
","","","","","","1629.5","images/horse2.png","","","memory_trial","4","definitely_new",""
"html-keyboard-response","61","210137","0.0-18.0-0.9","4532","approach_avoid_sv1","""event"",""trial"",""time""
""fullscreenenter"",""1"",""1710""
","
","
","""event"",""trial"",""time""
""fullscreenenter"",""1"",""1710""
","
","","","","","","null","<div style=""font-size:60px;"">+</div>","null","","fixation","","",""
"memory-trial","62","213903","0.0-18.0-1.9","4532","approach_avoid_sv1","""event"",""trial"",""time""
""fullscreenenter"",""1"",""1710""
","
","
","""event"",""trial"",""time""
""fullscreenenter"",""1"",""1710""
","
","","","","","","2760.199999988079","images/goat7.png","","","memory_trial","3","maybe_new",""
"html-keyboard-response","63","214408","0.0-18.0-0.10","4532","approach_avoid_sv1","""event"",""trial"",""time""
""fullscreenenter"",""1"",""1710""
","
","
","""event"",""trial"",""time""
""fullscreenenter"",""1"",""1710""
","
","","","","","","null","<div style=""font-size:60px;"">+</div>","null","","fixation","","",""
"memory-trial","64","217422","0.0-18.0-1.10","4532","approach_avoid_sv1","""event"",""trial"",""time""
""fullscreenenter"",""1"",""1710""
","
","
","""event"",""trial"",""time""
""fullscreenenter"",""1"",""1710""
","
","","","","","","2010.300000011921","images/banana3.png","","","memory_trial","1","definitely_old",""
"html-keyboard-response","65","217926","0.0-18.0-0.11","4532","approach_avoid_sv1","""event"",""trial"",""time""
""fullscreenenter"",""1"",""1710""
","
","
","""event"",""trial"",""time""
""fullscreenenter"",""1"",""1710""
","
","","","","","","null","<div style=""font-size:60px;"">+</div>","null","","fixation","","",""
"memory-trial","66","220340","0.0-18.0-1.11","4532","approach_avoid_sv1","""event"",""trial"",""time""
""fullscreenenter"",""1"",""1710""
","
","
","""event"",""trial"",""time""
""fullscreenenter"",""1"",""1710""
","
","","","","","","1409.4000000059605","images/goat8.png","","","memory_trial","1","definitely_old",""
"html-keyboard-response","67","220841","0.0-18.0-0.12","4532","approach_avoid_sv1","""event"",""trial"",""time""
""fullscreenenter"",""1"",""1710""
","
","
","""event"",""trial"",""time""
""fullscreenenter"",""1"",""1710""
","
","","","","","","null","<div style=""font-size:60px;"">+</div>","null","","fixation","","",""
"memory-trial","68","223084","0.0-18.0-1.12","4532","approach_avoid_sv1","""event"",""trial"",""time""
""fullscreenenter"",""1"",""1710""
","
","
","""event"",""trial"",""time""
""fullscreenenter"",""1"",""1710""
","
","","","","","","1235.699999988079","images/orange7.png","","","memory_trial","4","definitely_new",""
"html-keyboard-response","69","223588","0.0-18.0-0.13","4532","approach_avoid_sv1","""event"",""trial"",""time""
""fullscreenenter"",""1"",""1710""
","
","
","""event"",""trial"",""time""
""fullscreenenter"",""1"",""1710""
","
","","","","","","null","<div style=""font-size:60px;"">+</div>","null","","fixation","","",""
"memory-trial","70","226246","0.0-18.0-1.13","4532","approach_avoid_sv1","""event"",""trial"",""time""
""fullscreenenter"",""1"",""1710""
","
","
","""event"",""trial"",""time""
""fullscreenenter"",""1"",""1710""
","
","","","","","","1653.199999988079","images/goat3.png","","","memory_trial","3","maybe_new",""
"html-keyboard-response","71","226750","0.0-18.0-0.14","4532","approach_avoid_sv1","""event"",""trial"",""time""
""fullscreenenter"",""1"",""1710""
","
","
","""event"",""trial"",""time""
""fullscreenenter"",""1"",""1710""
","
","","","","","","null","<div style=""font-size:60px;"">+</div>","null","","fixation","","",""
"memory-trial","72","229486","0.0-18.0-1.14","4532","approach_avoid_sv1","""event"",""trial"",""time""
""fullscreenenter"",""1"",""1710""
","
","
","""event"",""trial"",""time""
""fullscreenenter"",""1"",""1710""
","
","","","","","","1730.0999999940395","images/train3.png","","","memory_trial","4","definitely_new",""
"html-keyboard-response","73","229989","0.0-18.0-0.15","4532","approach_avoid_sv1","""event"",""trial"",""time""
""fullscreenenter"",""1"",""1710""
","
","
","""event"",""trial"",""time""
""fullscreenenter"",""1"",""1710""
","
","","","","","","null","<div style=""font-size:60px;"">+</div>","null","","fixation","","",""
"memory-trial","74","233982","0.0-18.0-1.15","4532","approach_avoid_sv1","""event"",""trial"",""time""
""fullscreenenter"",""1"",""1710""
","
","
","""event"",""trial"",""time""
""fullscreenenter"",""1"",""1710""
","
","","","","","","2987.199999988079","images/banana8.png","","","memory_trial","4","definitely_new",""
"html-keyboard-response","75","234484","0.0-18.0-0.16","4532","approach_avoid_sv1","""event"",""trial"",""time""
""fullscreenenter"",""1"",""1710""
","
","
","""event"",""trial"",""time""
""fullscreenenter"",""1"",""1710""
","
","","","","","","null","<div style=""font-size:60px;"">+</div>","null","","fixation","","",""
"memory-trial","76","236672","0.0-18.0-1.16","4532","approach_avoid_sv1","""event"",""trial"",""time""
""fullscreenenter"",""1"",""1710""
","
","
","""event"",""trial"",""time""
""fullscreenenter"",""1"",""1710""
","
","","","","","","1182.5","images/bed6.png","","","memory_trial","1","definitely_old",""
"html-keyboard-response","77","237177","0.0-18.0-0.17","4532","approach_avoid_sv1","""event"",""trial"",""time""
""fullscreenenter"",""1"",""1710""
","
","
","""event"",""trial"",""time""
""fullscreenenter"",""1"",""1710""
","
","","","","","","null","<div style=""font-size:60px;"">+</div>","null","","fixation","","",""
"memory-trial","78","239246","0.0-18.0-1.17","4532","approach_avoid_sv1","""event"",""trial"",""time""
""fullscreenenter"",""1"",""1710""
","
","
","""event"",""trial"",""time""
""fullscreenenter"",""1"",""1710""
","
","","","","","","1063.1000000238419","images/banana5.png","","","memory_trial","1","definitely_old",""
"html-keyboard-response","79","239750","0.0-18.0-0.18","4532","approach_avoid_sv1","""event"",""trial"",""time""
""fullscreenenter"",""1"",""1710""
","
","
","""event"",""trial"",""time""
""fullscreenenter"",""1"",""1710""
","
","","","","","","null","<div style=""font-size:60px;"">+</div>","null","","fixation","","",""
"memory-trial","80","241625","0.0-18.0-1.18","4532","approach_avoid_sv1","""event"",""trial"",""time""
""fullscreenenter"",""1"",""1710""
","
","
","""event"",""trial"",""time""
""fullscreenenter"",""1"",""1710""
","
","","","","","","870.6999999880791","images/cow8.png","","","memory_trial","1","definitely_old",""
"html-keyboard-response","81","242126","0.0-18.0-0.19","4532","approach_avoid_sv1","""event"",""trial"",""time""
""fullscreenenter"",""1"",""1710""
","
","
","""event"",""trial"",""time""
""fullscreenenter"",""1"",""1710""
","
","","","","","","null","<div style=""font-size:60px;"">+</div>","null","","fixation","","",""
"memory-trial","82","244825","0.0-18.0-1.19","4532","approach_avoid_sv1","""event"",""trial"",""time""
""fullscreenenter"",""1"",""1710""
","
","
","""event"",""trial"",""time""
""fullscreenenter"",""1"",""1710""
","
","","","","","","1692.2999999821186","images/cactus8.png","","","memory_trial","3","maybe_new",""
"html-keyboard-response","83","245326","0.0-18.0-0.20","4532","approach_avoid_sv1","""event"",""trial"",""time""
""fullscreenenter"",""1"",""1710""
","
","
","""event"",""trial"",""time""
""fullscreenenter"",""1"",""1710""
","
","","","","","","null","<div style=""font-size:60px;"">+</div>","null","","fixation","","",""
"memory-trial","84","248217","0.0-18.0-1.20","4532","approach_avoid_sv1","""event"",""trial"",""time""
""fullscreenenter"",""1"",""1710""
","
","
","""event"",""trial"",""time""
""fullscreenenter"",""1"",""1710""
","
","","","","","","1883.199999988079","images/orange3.png","","","memory_trial","3","maybe_new",""
"html-keyboard-response","85","248718","0.0-18.0-0.21","4532","approach_avoid_sv1","""event"",""trial"",""time""
""fullscreenenter"",""1"",""1710""
","
","
","""event"",""trial"",""time""
""fullscreenenter"",""1"",""1710""
","
","","","","","","null","<div style=""font-size:60px;"">+</div>","null","","fixation","","",""
"memory-trial","86","251209","0.0-18.0-1.21","4532","approach_avoid_sv1","""event"",""trial"",""time""
""fullscreenenter"",""1"",""1710""
","
","
","""event"",""trial"",""time""
""fullscreenenter"",""1"",""1710""
","
","","","","","","1488.4000000059605","images/plane1.png","","","memory_trial","3","maybe_new",""
"html-keyboard-response","87","251712","0.0-18.0-0.22","4532","approach_avoid_sv1","""event"",""trial"",""time""
""fullscreenenter"",""1"",""1710""
","
","
","""event"",""trial"",""time""
""fullscreenenter"",""1"",""1710""
","
","","","","","","null","<div style=""font-size:60px;"">+</div>","null","","fixation","","",""
"memory-trial","88","253892","0.0-18.0-1.22","4532","approach_avoid_sv1","""event"",""trial"",""time""
""fullscreenenter"",""1"",""1710""
","
","
","""event"",""trial"",""time""
""fullscreenenter"",""1"",""1710""
","
","","","","","","1172","images/sofa5.png","","","memory_trial","3","maybe_new",""
"html-keyboard-response","89","254393","0.0-18.0-0.23","4532","approach_avoid_sv1","""event"",""trial"",""time""
""fullscreenenter"",""1"",""1710""
","
","
","""event"",""trial"",""time""
""fullscreenenter"",""1"",""1710""
","
","","","","","","null","<div style=""font-size:60px;"">+</div>","null","","fixation","","",""
"memory-trial","90","256101","0.0-18.0-1.23","4532","approach_avoid_sv1","""event"",""trial"",""time""
""fullscreenenter"",""1"",""1710""
","
","
","""event"",""trial"",""time""
""fullscreenenter"",""1"",""1710""
","
","","","","","","701.0999999940395","images/bush4.png","","","memory_trial","3","maybe_new",""
"html-keyboard-response","91","256606","0.0-18.0-0.24","4532","approach_avoid_sv1","""event"",""trial"",""time""
""fullscreenenter"",""1"",""1710""
","
","
","""event"",""trial"",""time""
""fullscreenenter"",""1"",""1710""
","
","","","","","","null","<div style=""font-size:60px;"">+</div>","null","","fixation","","",""
"memory-trial","92","258564","0.0-18.0-1.24","4532","approach_avoid_sv1","""event"",""trial"",""time""
""fullscreenenter"",""1"",""1710""
","
","
","""event"",""trial"",""time""
""fullscreenenter"",""1"",""1710""
","
","","","","","","951.2999999821186","images/tree6.png","","","memory_trial","3","maybe_new",""
"html-keyboard-response","93","259067","0.0-18.0-0.25","4532","approach_avoid_sv1","""event"",""trial"",""time""
""fullscreenenter"",""1"",""1710""
","
","
","""event"",""trial"",""time""
""fullscreenenter"",""1"",""1710""
","
","","","","","","null","<div style=""font-size:60px;"">+</div>","null","","fixation","","",""
"memory-trial","94","261438","0.0-18.0-1.25","4532","approach_avoid_sv1","""event"",""trial"",""time""
""fullscreenenter"",""1"",""1710""
","
","
","""event"",""trial"",""time""
""fullscreenenter"",""1"",""1710""
","
","","","","","","1366.5","images/rabbit3.png","","","memory_trial","3","maybe_new",""
"html-keyboard-response","95","261942","0.0-18.0-0.26","4532","approach_avoid_sv1","""event"",""trial"",""time""
""fullscreenenter"",""1"",""1710""
","
","
","""event"",""trial"",""time""
""fullscreenenter"",""1"",""1710""
","
","","","","","","null","<div style=""font-size:60px;"">+</div>","null","","fixation","","",""
"memory-trial","96","264115","0.0-18.0-1.26","4532","approach_avoid_sv1","""event"",""trial"",""time""
""fullscreenenter"",""1"",""1710""
","
","
","""event"",""trial"",""time""
""fullscreenenter"",""1"",""1710""
","
","","","","","","1166.9000000059605","images/table6.png","","","memory_trial","1","definitely_old",""
"html-keyboard-response","97","264617","0.0-18.0-0.27","4532","approach_avoid_sv1","""event"",""trial"",""time""
""fullscreenenter"",""1"",""1710""
","
","
","""event"",""trial"",""time""
""fullscreenenter"",""1"",""1710""
","
","","","","","","null","<div style=""font-size:60px;"">+</div>","null","","fixation","","",""
"memory-trial","98","267241","0.0-18.0-1.27","4532","approach_avoid_sv1","""event"",""trial"",""time""
""fullscreenenter"",""1"",""1710""
","
","
","""event"",""trial"",""time""
""fullscreenenter"",""1"",""1710""
","
","","","","","","1617.2000000178814","images/straw6.png","","","memory_trial","4","definitely_new",""
"html-keyboard-response","99","267742","0.0-18.0-0.28","4532","approach_avoid_sv1","""event"",""trial"",""time""
""fullscreenenter"",""1"",""1710""
","
","
","""event"",""trial"",""time""
""fullscreenenter"",""1"",""1710""
","
","","","","","","null","<div style=""font-size:60px;"">+</div>","null","","fixation","","",""
"memory-trial","100","270036","0.0-18.0-1.28","4532","approach_avoid_sv1","""event"",""trial"",""time""
""fullscreenenter"",""1"",""1710""
","
","
","""event"",""trial"",""time""
""fullscreenenter"",""1"",""1710""
","
","","","","","","1287.9000000059605","images/bed4.png","","","memory_trial","1","definitely_old",""
"html-keyboard-response","101","270541","0.0-18.0-0.29","4532","approach_avoid_sv1","""event"",""trial"",""time""
""fullscreenenter"",""1"",""1710""
","
","
","""event"",""trial"",""time""
""fullscreenenter"",""1"",""1710""
","
","","","","","","null","<div style=""font-size:60px;"">+</div>","null","","fixation","","",""
"memory-trial","102","272500","0.0-18.0-1.29","4532","approach_avoid_sv1","""event"",""trial"",""time""
""fullscreenenter"",""1"",""1710""
","
","
","""event"",""trial"",""time""
""fullscreenenter"",""1"",""1710""
","
","","","","","","951.9000000059605","images/bed8.png","","","memory_trial","1","definitely_old",""
"html-keyboard-response","103","273001","0.0-18.0-0.30","4532","approach_avoid_sv1","""event"",""trial"",""time""
""fullscreenenter"",""1"",""1710""
","
","
","""event"",""trial"",""time""
""fullscreenenter"",""1"",""1710""
","
","","","","","","null","<div style=""font-size:60px;"">+</div>","null","","fixation","","",""
"memory-trial","104","275348","0.0-18.0-1.30","4532","approach_avoid_sv1","""event"",""trial"",""time""
""fullscreenenter"",""1"",""1710""
","
","
","""event"",""trial"",""time""
""fullscreenenter"",""1"",""1710""
","
","","","","","","1343.4000000059605","images/dog6.png","","","memory_trial","4","definitely_new",""
"html-keyboard-response","105","275852","0.0-18.0-0.31","4532","approach_avoid_sv1","""event"",""trial"",""time""
""fullscreenenter"",""1"",""1710""
","
","
","""event"",""trial"",""time""
""fullscreenenter"",""1"",""1710""
","
","","","","","","null","<div style=""font-size:60px;"">+</div>","null","","fixation","","",""
"memory-trial","106","278702","0.0-18.0-1.31","4532","approach_avoid_sv1","""event"",""trial"",""time""
""fullscreenenter"",""1"",""1710""
","
","
","""event"",""trial"",""time""
""fullscreenenter"",""1"",""1710""
","
","","","","","","1843.5","images/cactus5.png","","","memory_trial","1","definitely_old",""
"html-keyboard-response","107","279207","0.0-18.0-0.32","4532","approach_avoid_sv1","""event"",""trial"",""time""
""fullscreenenter"",""1"",""1710""
","
","
","""event"",""trial"",""time""
""fullscreenenter"",""1"",""1710""
","
","","","","","","null","<div style=""font-size:60px;"">+</div>","null","","fixation","","",""
"memory-trial","108","281273","0.0-18.0-1.32","4532","approach_avoid_sv1","""event"",""trial"",""time""
""fullscreenenter"",""1"",""1710""
","
","
","""event"",""trial"",""time""
""fullscreenenter"",""1"",""1710""
","
","","","","","","1057.9000000059605","images/bush7.png","","","memory_trial","4","definitely_new",""
"html-keyboard-response","109","281778","0.0-18.0-0.33","4532","approach_avoid_sv1","""event"",""trial"",""time""
""fullscreenenter"",""1"",""1710""
","
","
","""event"",""trial"",""time""
""fullscreenenter"",""1"",""1710""
","
","","","","","","null","<div style=""font-size:60px;"">+</div>","null","","fixation","","",""
"memory-trial","110","283881","0.0-18.0-1.33","4532","approach_avoid_sv1","""event"",""trial"",""time""
""fullscreenenter"",""1"",""1710""
","
","
","""event"",""trial"",""time""
""fullscreenenter"",""1"",""1710""
","
","","","","","","1097","images/train8.png","","","memory_trial","4","definitely_new",""
"html-keyboard-response","111","284382","0.0-18.0-0.34","4532","approach_avoid_sv1","""event"",""trial"",""time""
""fullscreenenter"",""1"",""1710""
","
","
","""event"",""trial"",""time""
""fullscreenenter"",""1"",""1710""
","
","","","","","","null","<div style=""font-size:60px;"">+</div>","null","","fixation","","",""
"memory-trial","112","287141","0.0-18.0-1.34","4532","approach_avoid_sv1","""event"",""trial"",""time""
""fullscreenenter"",""1"",""1710""
","
","
","""event"",""trial"",""time""
""fullscreenenter"",""1"",""1710""
","
","","","","","","1755.5999999940395","images/tree8.png","","","memory_trial","2","maybe_old",""
"html-keyboard-response","113","287646","0.0-18.0-0.35","4532","approach_avoid_sv1","""event"",""trial"",""time""
""fullscreenenter"",""1"",""1710""
","
","
","""event"",""trial"",""time""
""fullscreenenter"",""1"",""1710""
","
","","","","","","null","<div style=""font-size:60px;"">+</div>","null","","fixation","","",""
"memory-trial","114","289646","0.0-18.0-1.35","4532","approach_avoid_sv1","""event"",""trial"",""time""
""fullscreenenter"",""1"",""1710""
","
","
","""event"",""trial"",""time""
""fullscreenenter"",""1"",""1710""
","
","","","","","","995.3999999761581","images/chair4.png","","","memory_trial","4","definitely_new",""
"html-keyboard-response","115","290150","0.0-18.0-0.36","4532","approach_avoid_sv1","""event"",""trial"",""time""
""fullscreenenter"",""1"",""1710""
","
","
","""event"",""trial"",""time""
""fullscreenenter"",""1"",""1710""
","
","","","","","","null","<div style=""font-size:60px;"">+</div>","null","","fixation","","",""
"memory-trial","116","292227","0.0-18.0-1.36","4532","approach_avoid_sv1","""event"",""trial"",""time""
""fullscreenenter"",""1"",""1710""
","
","
","""event"",""trial"",""time""
""fullscreenenter"",""1"",""1710""
","
","","","","","","1071.2999999821186","images/truck3.png","","","memory_trial","4","definitely_new",""
"html-keyboard-response","117","292729","0.0-18.0-0.37","4532","approach_avoid_sv1","""event"",""trial"",""time""
""fullscreenenter"",""1"",""1710""
","
","
","""event"",""trial"",""time""
""fullscreenenter"",""1"",""1710""
","
","","","","","","null","<div style=""font-size:60px;"">+</div>","null","","fixation","","",""
"memory-trial","118","294782","0.0-18.0-1.37","4532","approach_avoid_sv1","""event"",""trial"",""time""
""fullscreenenter"",""1"",""1710""
","
","
","""event"",""trial"",""time""
""fullscreenenter"",""1"",""1710""
","
","","","","","","1047.3999999761581","images/cow2.png","","","memory_trial","4","definitely_new",""
"html-keyboard-response","119","295283","0.0-18.0-0.38","4532","approach_avoid_sv1","""event"",""trial"",""time""
""fullscreenenter"",""1"",""1710""
","
","
","""event"",""trial"",""time""
""fullscreenenter"",""1"",""1710""
","
","","","","","","null","<div style=""font-size:60px;"">+</div>","null","","fixation","","",""
"memory-trial","120","297935","0.0-18.0-1.38","4532","approach_avoid_sv1","""event"",""trial"",""time""
""fullscreenenter"",""1"",""1710""
","
","
","""event"",""trial"",""time""
""fullscreenenter"",""1"",""1710""
","
","","","","","","1647.300000011921","images/plane6.png","","","memory_trial","2","maybe_old",""
"html-keyboard-response","121","298441","0.0-18.0-0.39","4532","approach_avoid_sv1","""event"",""trial"",""time""
""fullscreenenter"",""1"",""1710""
","
","
","""event"",""trial"",""time""
""fullscreenenter"",""1"",""1710""
","
","","","","","","null","<div style=""font-size:60px;"">+</div>","null","","fixation","","",""
"memory-trial","122","301449","0.0-18.0-1.39","4532","approach_avoid_sv1","""event"",""trial"",""time""
""fullscreenenter"",""1"",""1710""
","
","
","""event"",""trial"",""time""
""fullscreenenter"",""1"",""1710""
","
","","","","","","2004.4000000059605","images/table7.png","","","memory_trial","3","maybe_new",""
"html-keyboard-response","123","301951","0.0-18.0-0.40","4532","approach_avoid_sv1","""event"",""trial"",""time""
""fullscreenenter"",""1"",""1710""
","
","
","""event"",""trial"",""time""
""fullscreenenter"",""1"",""1710""
","
","","","","","","null","<div style=""font-size:60px;"">+</div>","null","","fixation","","",""
"memory-trial","124","305139","0.0-18.0-1.40","4532","approach_avoid_sv1","""event"",""trial"",""time""
""fullscreenenter"",""1"",""1710""
","
","
","""event"",""trial"",""time""
""fullscreenenter"",""1"",""1710""
","
","","","","","","2181","images/goat4.png","","","memory_trial","3","maybe_new",""
"html-keyboard-response","125","305645","0.0-18.0-0.41","4532","approach_avoid_sv1","""event"",""trial"",""time""
""fullscreenenter"",""1"",""1710""
","
","
","""event"",""trial"",""time""
""fullscreenenter"",""1"",""1710""
","
","","","","","","null","<div style=""font-size:60px;"">+</div>","null","","fixation","","",""
"memory-trial","126","308249","0.0-18.0-1.41","4532","approach_avoid_sv1","""event"",""trial"",""time""
""fullscreenenter"",""1"",""1710""
","
","
","""event"",""trial"",""time""
""fullscreenenter"",""1"",""1710""
","
","","","","","","1596.5999999940395","images/boat7.png","","","memory_trial","2","maybe_old",""
"html-button-response","127","310432","0.0-18.0-2.41-0.41","4532","approach_avoid_sv1","""event"",""trial"",""time""
""fullscreenenter"",""1"",""1710""
","
","
","""event"",""trial"",""time""
""fullscreenenter"",""1"",""1710""
","
","","","","","","2182.5","<p> Take a break! </p><p> Click the button to continue. </p>","0","","break","","",""
"html-keyboard-response","128","310937","0.0-18.0-0.42","4532","approach_avoid_sv1","""event"",""trial"",""time""
""fullscreenenter"",""1"",""1710""
","
","
","""event"",""trial"",""time""
""fullscreenenter"",""1"",""1710""
","
","","","","","","null","<div style=""font-size:60px;"">+</div>","null","","fixation","","",""
"memory-trial","129","313219","0.0-18.0-1.42","4532","approach_avoid_sv1","""event"",""trial"",""time""
""fullscreenenter"",""1"",""1710""
","
","
","""event"",""trial"",""time""
""fullscreenenter"",""1"",""1710""
","
","","","","","","1276.5999999940395","images/cow4.png","","","memory_trial","1","definitely_old",""
"html-keyboard-response","130","313722","0.0-18.0-0.43","4532","approach_avoid_sv1","""event"",""trial"",""time""
""fullscreenenter"",""1"",""1710""
","
","
","""event"",""trial"",""time""
""fullscreenenter"",""1"",""1710""
","
","","","","","","null","<div style=""font-size:60px;"">+</div>","null","","fixation","","",""
"memory-trial","131","316046","0.0-18.0-1.43","4532","approach_avoid_sv1","""event"",""trial"",""time""
""fullscreenenter"",""1"",""1710""
","
","
","""event"",""trial"",""time""
""fullscreenenter"",""1"",""1710""
","
","","","","","","1317.7000000178814","images/apple2.png","","","memory_trial","4","definitely_new",""
"html-keyboard-response","132","316547","0.0-18.0-0.44","4532","approach_avoid_sv1","""event"",""trial"",""time""
""fullscreenenter"",""1"",""1710""
","
","
","""event"",""trial"",""time""
""fullscreenenter"",""1"",""1710""
","
","","","","","","null","<div style=""font-size:60px;"">+</div>","null","","fixation","","",""
"memory-trial","133","320829","0.0-18.0-1.44","4532","approach_avoid_sv1","""event"",""trial"",""time""
""fullscreenenter"",""1"",""1710""
","
","
","""event"",""trial"",""time""
""fullscreenenter"",""1"",""1710""
","
","","","","","","3278.9000000059605","images/tree2.png","","","memory_trial","1","definitely_old",""
"html-keyboard-response","134","321333","0.0-18.0-0.45","4532","approach_avoid_sv1","""event"",""trial"",""time""
""fullscreenenter"",""1"",""1710""
","
","
","""event"",""trial"",""time""
""fullscreenenter"",""1"",""1710""
","
","","","","","","null","<div style=""font-size:60px;"">+</div>","null","","fixation","","",""
"memory-trial","135","323337","0.0-18.0-1.45","4532","approach_avoid_sv1","""event"",""trial"",""time""
""fullscreenenter"",""1"",""1710""
","
","
","""event"",""trial"",""time""
""fullscreenenter"",""1"",""1710""
","
","","","","","","997.5999999940395","images/rodent2.png","","","memory_trial","1","definitely_old",""
"html-keyboard-response","136","323839","0.0-18.0-0.46","4532","approach_avoid_sv1","""event"",""trial"",""time""
""fullscreenenter"",""1"",""1710""
","
","
","""event"",""trial"",""time""
""fullscreenenter"",""1"",""1710""
","
","","","","","","null","<div style=""font-size:60px;"">+</div>","null","","fixation","","",""
"memory-trial","137","326702","0.0-18.0-1.46","4532","approach_avoid_sv1","""event"",""trial"",""time""
""fullscreenenter"",""1"",""1710""
","
","
","""event"",""trial"",""time""
""fullscreenenter"",""1"",""1710""
","
","","","","","","1858.2999999821186","images/straw1.png","","","memory_trial","3","maybe_new",""
"html-keyboard-response","138","327203","0.0-18.0-0.47","4532","approach_avoid_sv1","""event"",""trial"",""time""
""fullscreenenter"",""1"",""1710""
","
","
","""event"",""trial"",""time""
""fullscreenenter"",""1"",""1710""
","
","","","","","","null","<div style=""font-size:60px;"">+</div>","null","","fixation","","",""
"memory-trial","139","329613","0.0-18.0-1.47","4532","approach_avoid_sv1","""event"",""trial"",""time""
""fullscreenenter"",""1"",""1710""
","
","
","""event"",""trial"",""time""
""fullscreenenter"",""1"",""1710""
","
","","","","","","1402.5","images/tree7.png","","","memory_trial","3","maybe_new",""
"html-keyboard-response","140","330115","0.0-18.0-0.48","4532","approach_avoid_sv1","""event"",""trial"",""time""
""fullscreenenter"",""1"",""1710""
","
","
","""event"",""trial"",""time""
""fullscreenenter"",""1"",""1710""
","
","","","","","","null","<div style=""font-size:60px;"">+</div>","null","","fixation","","",""
"memory-trial","141","332985","0.0-18.0-1.48","4532","approach_avoid_sv1","""event"",""trial"",""time""
""fullscreenenter"",""1"",""1710""
","
","
","""event"",""trial"",""time""
""fullscreenenter"",""1"",""1710""
","
","","","","","","1866.800000011921","images/horse3.png","","","memory_trial","4","definitely_new",""
"html-keyboard-response","142","333486","0.0-18.0-0.49","4532","approach_avoid_sv1","""event"",""trial"",""time""
""fullscreenenter"",""1"",""1710""
","
","
","""event"",""trial"",""time""
""fullscreenenter"",""1"",""1710""
","
","","","","","","null","<div style=""font-size:60px;"">+</div>","null","","fixation","","",""
"memory-trial","143","335449","0.0-18.0-1.49","4532","approach_avoid_sv1","""event"",""trial"",""time""
""fullscreenenter"",""1"",""1710""
","
","
","""event"",""trial"",""time""
""fullscreenenter"",""1"",""1710""
","
","","","","","","956.5999999940395","images/cow7.png","","","memory_trial","1","definitely_old",""
"html-keyboard-response","144","335951","0.0-18.0-0.50","4532","approach_avoid_sv1","""event"",""trial"",""time""
""fullscreenenter"",""1"",""1710""
","
","
","""event"",""trial"",""time""
""fullscreenenter"",""1"",""1710""
","
","","","","","","null","<div style=""font-size:60px;"">+</div>","null","","fixation","","",""
"memory-trial","145","338718","0.0-18.0-1.50","4532","approach_avoid_sv1","""event"",""trial"",""time""
""fullscreenenter"",""1"",""1710""
","
","
","""event"",""trial"",""time""
""fullscreenenter"",""1"",""1710""
","
","","","","","","1761.7000000178814","images/dog4.png","","","memory_trial","4","definitely_new",""
"html-keyboard-response","146","339219","0.0-18.0-0.51","4532","approach_avoid_sv1","""event"",""trial"",""time""
""fullscreenenter"",""1"",""1710""
","
","
","""event"",""trial"",""time""
""fullscreenenter"",""1"",""1710""
","
","","","","","","null","<div style=""font-size:60px;"">+</div>","null","","fixation","","",""
"memory-trial","147","341228","0.0-18.0-1.51","4532","approach_avoid_sv1","""event"",""trial"",""time""
""fullscreenenter"",""1"",""1710""
","
","
","""event"",""trial"",""time""
""fullscreenenter"",""1"",""1710""
","
","","","","","","1002.4000000059605","images/apple3.png","","","memory_trial","4","definitely_new",""
"html-keyboard-response","148","341730","0.0-18.0-0.52","4532","approach_avoid_sv1","""event"",""trial"",""time""
""fullscreenenter"",""1"",""1710""
","
","
","""event"",""trial"",""time""
""fullscreenenter"",""1"",""1710""
","
","","","","","","null","<div style=""font-size:60px;"">+</div>","null","","fixation","","",""
"memory-trial","149","344029","0.0-18.0-1.52","4532","approach_avoid_sv1","""event"",""trial"",""time""
""fullscreenenter"",""1"",""1710""
","
","
","""event"",""trial"",""time""
""fullscreenenter"",""1"",""1710""
","
","","","","","","1296.2999999821186","images/flower6.png","","","memory_trial","1","definitely_old",""
"html-keyboard-response","150","344531","0.0-18.0-0.53","4532","approach_avoid_sv1","""event"",""trial"",""time""
""fullscreenenter"",""1"",""1710""
","
","
","""event"",""trial"",""time""
""fullscreenenter"",""1"",""1710""
","
","","","","","","null","<div style=""font-size:60px;"">+</div>","null","","fixation","","",""
"memory-trial","151","346766","0.0-18.0-1.53","4532","approach_avoid_sv1","""event"",""trial"",""time""
""fullscreenenter"",""1"",""1710""
","
","
","""event"",""trial"",""time""
""fullscreenenter"",""1"",""1710""
","
","","","","","","1227.800000011921","images/orange8.png","","","memory_trial","4","definitely_new",""
"html-keyboard-response","152","347269","0.0-18.0-0.54","4532","approach_avoid_sv1","""event"",""trial"",""time""
""fullscreenenter"",""1"",""1710""
","
","
","""event"",""trial"",""time""
""fullscreenenter"",""1"",""1710""
","
","","","","","","null","<div style=""font-size:60px;"">+</div>","null","","fixation","","",""
"memory-trial","153","349512","0.0-18.0-1.54","4532","approach_avoid_sv1","""event"",""trial"",""time""
""fullscreenenter"",""1"",""1710""
","
","
","""event"",""trial"",""time""
""fullscreenenter"",""1"",""1710""
","
","","","","","","1237.7000000178814","images/chair7.png","","","memory_trial","4","definitely_new",""
"html-keyboard-response","154","350013","0.0-18.0-0.55","4532","approach_avoid_sv1","""event"",""trial"",""time""
""fullscreenenter"",""1"",""1710""
","
","
","""event"",""trial"",""time""
""fullscreenenter"",""1"",""1710""
","
","","","","","","null","<div style=""font-size:60px;"">+</div>","null","","fixation","","",""
"memory-trial","155","352056","0.0-18.0-1.55","4532","approach_avoid_sv1","""event"",""trial"",""time""
""fullscreenenter"",""1"",""1710""
","
","
","""event"",""trial"",""time""
""fullscreenenter"",""1"",""1710""
","
","","","","","","1037.5","images/sheep6.png","","","memory_trial","1","definitely_old",""
"html-keyboard-response","156","352558","0.0-18.0-0.56","4532","approach_avoid_sv1","""event"",""trial"",""time""
""fullscreenenter"",""1"",""1710""
","
","
","""event"",""trial"",""time""
""fullscreenenter"",""1"",""1710""
","
","","","","","","null","<div style=""font-size:60px;"">+</div>","null","","fixation","","",""
"memory-trial","157","355016","0.0-18.0-1.56","4532","approach_avoid_sv1","""event"",""trial"",""time""
""fullscreenenter"",""1"",""1710""
","
","
","""event"",""trial"",""time""
""fullscreenenter"",""1"",""1710""
","
","","","","","","1451.8999999761581","images/boat6.png","","","memory_trial","2","maybe_old",""
"html-keyboard-response","158","355518","0.0-18.0-0.57","4532","approach_avoid_sv1","""event"",""trial"",""time""
""fullscreenenter"",""1"",""1710""
","
","
","""event"",""trial"",""time""
""fullscreenenter"",""1"",""1710""
","
","","","","","","null","<div style=""font-size:60px;"">+</div>","null","","fixation","","",""
"memory-trial","159","358029","0.0-18.0-1.57","4532","approach_avoid_sv1","""event"",""trial"",""time""
""fullscreenenter"",""1"",""1710""
","
","
","""event"",""trial"",""time""
""fullscreenenter"",""1"",""1710""
","
","","","","","","1506.199999988079","images/sofa2.png","","","memory_trial","4","definitely_new",""
"html-keyboard-response","160","358531","0.0-18.0-0.58","4532","approach_avoid_sv1","""event"",""trial"",""time""
""fullscreenenter"",""1"",""1710""
","
","
","""event"",""trial"",""time""
""fullscreenenter"",""1"",""1710""
","
","","","","","","null","<div style=""font-size:60px;"">+</div>","null","","fixation","","",""
"memory-trial","161","361039","0.0-18.0-1.58","4532","approach_avoid_sv1","""event"",""trial"",""time""
""fullscreenenter"",""1"",""1710""
","
","
","""event"",""trial"",""time""
""fullscreenenter"",""1"",""1710""
","
","","","","","","1504.800000011921","images/dog8.png","","","memory_trial","4","definitely_new",""
"html-keyboard-response","162","361544","0.0-18.0-0.59","4532","approach_avoid_sv1","""event"",""trial"",""time""
""fullscreenenter"",""1"",""1710""
","
","
","""event"",""trial"",""time""
""fullscreenenter"",""1"",""1710""
","
","","","","","","null","<div style=""font-size:60px;"">+</div>","null","","fixation","","",""
"memory-trial","163","363630","0.0-18.0-1.59","4532","approach_avoid_sv1","""event"",""trial"",""time""
""fullscreenenter"",""1"",""1710""
","
","
","""event"",""trial"",""time""
""fullscreenenter"",""1"",""1710""
","
","","","","","","1079.9000000059605","images/table8.png","","","memory_trial","4","definitely_new",""
"html-keyboard-response","164","364131","0.0-18.0-0.60","4532","approach_avoid_sv1","""event"",""trial"",""time""
""fullscreenenter"",""1"",""1710""
","
","
","""event"",""trial"",""time""
""fullscreenenter"",""1"",""1710""
","
","","","","","","null","<div style=""font-size:60px;"">+</div>","null","","fixation","","",""
"memory-trial","165","366099","0.0-18.0-1.60","4532","approach_avoid_sv1","""event"",""trial"",""time""
""fullscreenenter"",""1"",""1710""
","
","
","""event"",""trial"",""time""
""fullscreenenter"",""1"",""1710""
","
","","","","","","961.1999999880791","images/boat2.png","","","memory_trial","4","definitely_new",""
"html-keyboard-response","166","366600","0.0-18.0-0.61","4532","approach_avoid_sv1","""event"",""trial"",""time""
""fullscreenenter"",""1"",""1710""
","
","
","""event"",""trial"",""time""
""fullscreenenter"",""1"",""1710""
","
","","","","","","null","<div style=""font-size:60px;"">+</div>","null","","fixation","","",""
"memory-trial","167","369187","0.0-18.0-1.61","4532","approach_avoid_sv1","""event"",""trial"",""time""
""fullscreenenter"",""1"",""1710""
","
","
","""event"",""trial"",""time""
""fullscreenenter"",""1"",""1710""
","
","","","","","","1582.4000000059605","images/sheep8.png","","","memory_trial","2","maybe_old",""
"html-keyboard-response","168","369689","0.0-18.0-0.62","4532","approach_avoid_sv1","""event"",""trial"",""time""
""fullscreenenter"",""1"",""1710""
","
","
","""event"",""trial"",""time""
""fullscreenenter"",""1"",""1710""
","
","","","","","","null","<div style=""font-size:60px;"">+</div>","null","","fixation","","",""
"memory-trial","169","372328","0.0-18.0-1.62","4532","approach_avoid_sv1","""event"",""trial"",""time""
""fullscreenenter"",""1"",""1710""
","
","
","""event"",""trial"",""time""
""fullscreenenter"",""1"",""1710""
","
","","","","","","1635.5","images/horse4.png","","","memory_trial","4","definitely_new",""
"html-keyboard-response","170","372833","0.0-18.0-0.63","4532","approach_avoid_sv1","""event"",""trial"",""time""
""fullscreenenter"",""1"",""1710""
","
","
","""event"",""trial"",""time""
""fullscreenenter"",""1"",""1710""
","
","","","","","","null","<div style=""font-size:60px;"">+</div>","null","","fixation","","",""
"memory-trial","171","376270","0.0-18.0-1.63","4532","approach_avoid_sv1","""event"",""trial"",""time""
""fullscreenenter"",""1"",""1710""
","
","
","""event"",""trial"",""time""
""fullscreenenter"",""1"",""1710""
","
","","","","","","2431.5999999940395","images/bed3.png","","","memory_trial","3","maybe_new",""
"html-keyboard-response","172","376776","0.0-18.0-0.64","4532","approach_avoid_sv1","""event"",""trial"",""time""
""fullscreenenter"",""1"",""1710""
","
","
","""event"",""trial"",""time""
""fullscreenenter"",""1"",""1710""
","
","","","","","","null","<div style=""font-size:60px;"">+</div>","null","","fixation","","",""
"memory-trial","173","378751","0.0-18.0-1.64","4532","approach_avoid_sv1","""event"",""trial"",""time""
""fullscreenenter"",""1"",""1710""
","
","
","""event"",""trial"",""time""
""fullscreenenter"",""1"",""1710""
","
","","","","","","970.3000000119209","images/rodent5.png","","","memory_trial","1","definitely_old",""
"html-keyboard-response","174","379256","0.0-18.0-0.65","4532","approach_avoid_sv1","""event"",""trial"",""time""
""fullscreenenter"",""1"",""1710""
","
","
","""event"",""trial"",""time""
""fullscreenenter"",""1"",""1710""
","
","","","","","","null","<div style=""font-size:60px;"">+</div>","null","","fixation","","",""
"memory-trial","175","382334","0.0-18.0-1.65","4532","approach_avoid_sv1","""event"",""trial"",""time""
""fullscreenenter"",""1"",""1710""
","
","
","""event"",""trial"",""time""
""fullscreenenter"",""1"",""1710""
","
","","","","","","2071.300000011921","images/straw3.png","","","memory_trial","3","maybe_new",""
"html-keyboard-response","176","382835","0.0-18.0-0.66","4532","approach_avoid_sv1","""event"",""trial"",""time""
""fullscreenenter"",""1"",""1710""
","
","
","""event"",""trial"",""time""
""fullscreenenter"",""1"",""1710""
","
","","","","","","null","<div style=""font-size:60px;"">+</div>","null","","fixation","","",""
"memory-trial","177","385485","0.0-18.0-1.66","4532","approach_avoid_sv1","""event"",""trial"",""time""
""fullscreenenter"",""1"",""1710""
","
","
","""event"",""trial"",""time""
""fullscreenenter"",""1"",""1710""
","
","","","","","","1644.7999999821186","images/bed2.png","","","memory_trial","4","definitely_new",""
"html-keyboard-response","178","385987","0.0-18.0-0.67","4532","approach_avoid_sv1","""event"",""trial"",""time""
""fullscreenenter"",""1"",""1710""
","
","
","""event"",""trial"",""time""
""fullscreenenter"",""1"",""1710""
","
","","","","","","null","<div style=""font-size:60px;"">+</div>","null","","fixation","","",""
"memory-trial","179","388675","0.0-18.0-1.67","4532","approach_avoid_sv1","""event"",""trial"",""time""
""fullscreenenter"",""1"",""1710""
","
","
","""event"",""trial"",""time""
""fullscreenenter"",""1"",""1710""
","
","","","","","","1684.0999999940395","images/rabbit5.png","","","memory_trial","4","definitely_new",""
"html-keyboard-response","180","389178","0.0-18.0-0.68","4532","approach_avoid_sv1","""event"",""trial"",""time""
""fullscreenenter"",""1"",""1710""
","
","
","""event"",""trial"",""time""
""fullscreenenter"",""1"",""1710""
","
","","","","","","null","<div style=""font-size:60px;"">+</div>","null","","fixation","","",""
"memory-trial","181","391448","0.0-18.0-1.68","4532","approach_avoid_sv1","""event"",""trial"",""time""
""fullscreenenter"",""1"",""1710""
","
","
","""event"",""trial"",""time""
""fullscreenenter"",""1"",""1710""
","
","","","","","","1263","images/orange2.png","","","memory_trial","4","definitely_new",""
"html-keyboard-response","182","391951","0.0-18.0-0.69","4532","approach_avoid_sv1","""event"",""trial"",""time""
""fullscreenenter"",""1"",""1710""
","
","
","""event"",""trial"",""time""
""fullscreenenter"",""1"",""1710""
","
","","","","","","null","<div style=""font-size:60px;"">+</div>","null","","fixation","","",""
"memory-trial","183","394592","0.0-18.0-1.69","4532","approach_avoid_sv1","""event"",""trial"",""time""
""fullscreenenter"",""1"",""1710""
","
","
","""event"",""trial"",""time""
""fullscreenenter"",""1"",""1710""
","
","","","","","","1635.6000000238419","images/cactus1.png","","","memory_trial","2","maybe_old",""
"html-keyboard-response","184","395097","0.0-18.0-0.70","4532","approach_avoid_sv1","""event"",""trial"",""time""
""fullscreenenter"",""1"",""1710""
","
","
","""event"",""trial"",""time""
""fullscreenenter"",""1"",""1710""
","
","","","","","","null","<div style=""font-size:60px;"">+</div>","null","","fixation","","",""
"memory-trial","185","397512","0.0-18.0-1.70","4532","approach_avoid_sv1","""event"",""trial"",""time""
""fullscreenenter"",""1"",""1710""
","
","
","""event"",""trial"",""time""
""fullscreenenter"",""1"",""1710""
","
","","","","","","1409.199999988079","images/chair5.png","","","memory_trial","2","maybe_old",""
"html-keyboard-response","186","398013","0.0-18.0-0.71","4532","approach_avoid_sv1","""event"",""trial"",""time""
""fullscreenenter"",""1"",""1710""
","
","
","""event"",""trial"",""time""
""fullscreenenter"",""1"",""1710""
","
","","","","","","null","<div style=""font-size:60px;"">+</div>","null","","fixation","","",""
"memory-trial","187","400232","0.0-18.0-1.71","4532","approach_avoid_sv1","""event"",""trial"",""time""
""fullscreenenter"",""1"",""1710""
","
","
","""event"",""trial"",""time""
""fullscreenenter"",""1"",""1710""
","
","","","","","","1213","images/horse7.png","","","memory_trial","3","maybe_new",""
"html-keyboard-response","188","400736","0.0-18.0-0.72","4532","approach_avoid_sv1","""event"",""trial"",""time""
""fullscreenenter"",""1"",""1710""
","
","
","""event"",""trial"",""time""
""fullscreenenter"",""1"",""1710""
","
","","","","","","null","<div style=""font-size:60px;"">+</div>","null","","fixation","","",""
"memory-trial","189","402671","0.0-18.0-1.72","4532","approach_avoid_sv1","""event"",""trial"",""time""
""fullscreenenter"",""1"",""1710""
","
","
","""event"",""trial"",""time""
""fullscreenenter"",""1"",""1710""
","
","","","","","","930.0999999940395","images/flower5.png","","","memory_trial","1","definitely_old",""
"html-keyboard-response","190","403176","0.0-18.0-0.73","4532","approach_avoid_sv1","""event"",""trial"",""time""
""fullscreenenter"",""1"",""1710""
","
","
","""event"",""trial"",""time""
""fullscreenenter"",""1"",""1710""
","
","","","","","","null","<div style=""font-size:60px;"">+</div>","null","","fixation","","",""
"memory-trial","191","405971","0.0-18.0-1.73","4532","approach_avoid_sv1","""event"",""trial"",""time""
""fullscreenenter"",""1"",""1710""
","
","
","""event"",""trial"",""time""
""fullscreenenter"",""1"",""1710""
","
","","","","","","1788.0999999940395","images/apple1.png","","","memory_trial","4","definitely_new",""
"html-keyboard-response","192","406476","0.0-18.0-0.74","4532","approach_avoid_sv1","""event"",""trial"",""time""
""fullscreenenter"",""1"",""1710""
","
","
","""event"",""trial"",""time""
""fullscreenenter"",""1"",""1710""
","
","","","","","","null","<div style=""font-size:60px;"">+</div>","null","","fixation","","",""
"memory-trial","193","408504","0.0-18.0-1.74","4532","approach_avoid_sv1","""event"",""trial"",""time""
""fullscreenenter"",""1"",""1710""
","
","
","""event"",""trial"",""time""
""fullscreenenter"",""1"",""1710""
","
","","","","","","1023","images/sofa6.png","","","memory_trial","4","definitely_new",""
"html-keyboard-response","194","409007","0.0-18.0-0.75","4532","approach_avoid_sv1","""event"",""trial"",""time""
""fullscreenenter"",""1"",""1710""
","
","
","""event"",""trial"",""time""
""fullscreenenter"",""1"",""1710""
","
","","","","","","null","<div style=""font-size:60px;"">+</div>","null","","fixation","","",""
"memory-trial","195","411283","0.0-18.0-1.75","4532","approach_avoid_sv1","""event"",""trial"",""time""
""fullscreenenter"",""1"",""1710""
","
","
","""event"",""trial"",""time""
""fullscreenenter"",""1"",""1710""
","
","","","","","","1271.5999999940395","images/cat7.png","","","memory_trial","1","definitely_old",""
"html-keyboard-response","196","411787","0.0-18.0-0.76","4532","approach_avoid_sv1","""event"",""trial"",""time""
""fullscreenenter"",""1"",""1710""
","
","
","""event"",""trial"",""time""
""fullscreenenter"",""1"",""1710""
","
","","","","","","null","<div style=""font-size:60px;"">+</div>","null","","fixation","","",""
"memory-trial","197","413779","0.0-18.0-1.76","4532","approach_avoid_sv1","""event"",""trial"",""time""
""fullscreenenter"",""1"",""1710""
","
","
","""event"",""trial"",""time""
""fullscreenenter"",""1"",""1710""
","
","","","","","","988.6999999880791","images/straw7.png","","","memory_trial","4","definitely_new",""
"html-keyboard-response","198","414283","0.0-18.0-0.77","4532","approach_avoid_sv1","""event"",""trial"",""time""
""fullscreenenter"",""1"",""1710""
","
","
","""event"",""trial"",""time""
""fullscreenenter"",""1"",""1710""
","
","","","","","","null","<div style=""font-size:60px;"">+</div>","null","","fixation","","",""
"memory-trial","199","416626","0.0-18.0-1.77","4532","approach_avoid_sv1","""event"",""trial"",""time""
""fullscreenenter"",""1"",""1710""
","
","
","""event"",""trial"",""time""
""fullscreenenter"",""1"",""1710""
","
","","","","","","1339.9000000059605","images/tree3.png","","","memory_trial","2","maybe_old",""
"html-keyboard-response","200","417128","0.0-18.0-0.78","4532","approach_avoid_sv1","""event"",""trial"",""time""
""fullscreenenter"",""1"",""1710""
","
","
","""event"",""trial"",""time""
""fullscreenenter"",""1"",""1710""
","
","","","","","","null","<div style=""font-size:60px;"">+</div>","null","","fixation","","",""
"memory-trial","201","420184","0.0-18.0-1.78","4532","approach_avoid_sv1","""event"",""trial"",""time""
""fullscreenenter"",""1"",""1710""
","
","
","""event"",""trial"",""time""
""fullscreenenter"",""1"",""1710""
","
","","","","","","2050","images/cow3.png","","","memory_trial","3","maybe_new",""
"html-keyboard-response","202","420686","0.0-18.0-0.79","4532","approach_avoid_sv1","""event"",""trial"",""time""
""fullscreenenter"",""1"",""1710""
","
","
","""event"",""trial"",""time""
""fullscreenenter"",""1"",""1710""
","
","","","","","","null","<div style=""font-size:60px;"">+</div>","null","","fixation","","",""
"memory-trial","203","422765","0.0-18.0-1.79","4532","approach_avoid_sv1","""event"",""trial"",""time""
""fullscreenenter"",""1"",""1710""
","
","
","""event"",""trial"",""time""
""fullscreenenter"",""1"",""1710""
","
","","","","","","1073.8999999761581","images/table2.png","","","memory_trial","4","definitely_new",""
"html-keyboard-response","204","423269","0.0-18.0-0.80","4532","approach_avoid_sv1","""event"",""trial"",""time""
""fullscreenenter"",""1"",""1710""
","
","
","""event"",""trial"",""time""
""fullscreenenter"",""1"",""1710""
","
","","","","","","null","<div style=""font-size:60px;"">+</div>","null","","fixation","","",""
"memory-trial","205","425048","0.0-18.0-1.80","4532","approach_avoid_sv1","""event"",""trial"",""time""
""fullscreenenter"",""1"",""1710""
","
","
","""event"",""trial"",""time""
""fullscreenenter"",""1"",""1710""
","
","","","","","","773.3000000119209","images/dog5.png","","","memory_trial","4","definitely_new",""
"html-keyboard-response","206","425553","0.0-18.0-0.81","4532","approach_avoid_sv1","""event"",""trial"",""time""
""fullscreenenter"",""1"",""1710""
","
","
","""event"",""trial"",""time""
""fullscreenenter"",""1"",""1710""
","
","","","","","","null","<div style=""font-size:60px;"">+</div>","null","","fixation","","",""
"memory-trial","207","427156","0.0-18.0-1.81","4532","approach_avoid_sv1","""event"",""trial"",""time""
""fullscreenenter"",""1"",""1710""
","
","
","""event"",""trial"",""time""
""fullscreenenter"",""1"",""1710""
","
","","","","","","599.7999999821186","images/sofa4.png","","","memory_trial","4","definitely_new",""
"html-keyboard-response","208","427661","0.0-18.0-0.82","4532","approach_avoid_sv1","""event"",""trial"",""time""
""fullscreenenter"",""1"",""1710""
","
","
","""event"",""trial"",""time""
""fullscreenenter"",""1"",""1710""
","
","","","","","","null","<div style=""font-size:60px;"">+</div>","null","","fixation","","",""
"memory-trial","209","429293","0.0-18.0-1.82","4532","approach_avoid_sv1","""event"",""trial"",""time""
""fullscreenenter"",""1"",""1710""
","
","
","""event"",""trial"",""time""
""fullscreenenter"",""1"",""1710""
","
","","","","","","627","images/horse1.png","","","memory_trial","4","definitely_new",""
"html-keyboard-response","210","429798","0.0-18.0-0.83","4532","approach_avoid_sv1","""event"",""trial"",""time""
""fullscreenenter"",""1"",""1710""
","
","
","""event"",""trial"",""time""
""fullscreenenter"",""1"",""1710""
","
","","","","","","null","<div style=""font-size:60px;"">+</div>","null","","fixation","","",""
"memory-trial","211","432707","0.0-18.0-1.83","4532","approach_avoid_sv1","""event"",""trial"",""time""
""fullscreenenter"",""1"",""1710""
","
","
","""event"",""trial"",""time""
""fullscreenenter"",""1"",""1710""
","
","","","","","","1905.0999999940395","images/cactus3.png","","","memory_trial","2","maybe_old",""
"html-keyboard-response","212","433208","0.0-18.0-0.84","4532","approach_avoid_sv1","""event"",""trial"",""time""
""fullscreenenter"",""1"",""1710""
","
","
","""event"",""trial"",""time""
""fullscreenenter"",""1"",""1710""
","
","","","","","","null","<div style=""font-size:60px;"">+</div>","null","","fixation","","",""
"memory-trial","213","434835","0.0-18.0-1.84","4532","approach_avoid_sv1","""event"",""trial"",""time""
""fullscreenenter"",""1"",""1710""
","
","
","""event"",""trial"",""time""
""fullscreenenter"",""1"",""1710""
","
","","","","","","621","images/sofa7.png","","","memory_trial","4","definitely_new",""
"html-keyboard-response","214","435336","0.0-18.0-0.85","4532","approach_avoid_sv1","""event"",""trial"",""time""
""fullscreenenter"",""1"",""1710""
","
","
","""event"",""trial"",""time""
""fullscreenenter"",""1"",""1710""
","
","","","","","","null","<div style=""font-size:60px;"">+</div>","null","","fixation","","",""
"memory-trial","215","437501","0.0-18.0-1.85","4532","approach_avoid_sv1","""event"",""trial"",""time""
""fullscreenenter"",""1"",""1710""
","
","
","""event"",""trial"",""time""
""fullscreenenter"",""1"",""1710""
","
","","","","","","1158.9000000059605","images/train6.png","","","memory_trial","1","definitely_old",""
"html-keyboard-response","216","438005","0.0-18.0-0.86","4532","approach_avoid_sv1","""event"",""trial"",""time""
""fullscreenenter"",""1"",""1710""
","
","
","""event"",""trial"",""time""
""fullscreenenter"",""1"",""1710""
","
","","","","","","null","<div style=""font-size:60px;"">+</div>","null","","fixation","","",""
"memory-trial","217","440579","0.0-18.0-1.86","4532","approach_avoid_sv1","""event"",""trial"",""time""
""fullscreenenter"",""1"",""1710""
","
","
","""event"",""trial"",""time""
""fullscreenenter"",""1"",""1710""
","
","","","","","","1569.5999999940395","images/dog2.png","","","memory_trial","4","definitely_new",""
"html-keyboard-response","218","441080","0.0-18.0-0.87","4532","approach_avoid_sv1","""event"",""trial"",""time""
""fullscreenenter"",""1"",""1710""
","
","
","""event"",""trial"",""time""
""fullscreenenter"",""1"",""1710""
","
","","","","","","null","<div style=""font-size:60px;"">+</div>","null","","fixation","","",""
"memory-trial","219","443426","0.0-18.0-1.87","4532","approach_avoid_sv1","""event"",""trial"",""time""
""fullscreenenter"",""1"",""1710""
","
","
","""event"",""trial"",""time""
""fullscreenenter"",""1"",""1710""
","
","","","","","","1340.0999999940395","images/rodent8.png","","","memory_trial","1","definitely_old",""
"html-keyboard-response","220","443932","0.0-18.0-0.88","4532","approach_avoid_sv1","""event"",""trial"",""time""
""fullscreenenter"",""1"",""1710""
","
","
","""event"",""trial"",""time""
""fullscreenenter"",""1"",""1710""
","
","","","","","","null","<div style=""font-size:60px;"">+</div>","null","","fixation","","",""
"memory-trial","221","445848","0.0-18.0-1.88","4532","approach_avoid_sv1","""event"",""trial"",""time""
""fullscreenenter"",""1"",""1710""
","
","
","""event"",""trial"",""time""
""fullscreenenter"",""1"",""1710""
","
","","","","","","911.3000000119209","images/apple7.png","","","memory_trial","4","definitely_new",""
"html-keyboard-response","222","446349","0.0-18.0-0.89","4532","approach_avoid_sv1","""event"",""trial"",""time""
""fullscreenenter"",""1"",""1710""
","
","
","""event"",""trial"",""time""
""fullscreenenter"",""1"",""1710""
","
","","","","","","null","<div style=""font-size:60px;"">+</div>","null","","fixation","","",""
"memory-trial","223","448520","0.0-18.0-1.89","4532","approach_avoid_sv1","""event"",""trial"",""time""
""fullscreenenter"",""1"",""1710""
","
","
","""event"",""trial"",""time""
""fullscreenenter"",""1"",""1710""
","
","","","","","","1167.1000000238419","images/bush5.png","","","memory_trial","4","definitely_new",""
"html-keyboard-response","224","449021","0.0-18.0-0.90","4532","approach_avoid_sv1","""event"",""trial"",""time""
""fullscreenenter"",""1"",""1710""
","
","
","""event"",""trial"",""time""
""fullscreenenter"",""1"",""1710""
","
","","","","","","null","<div style=""font-size:60px;"">+</div>","null","","fixation","","",""
"memory-trial","225","451617","0.0-18.0-1.90","4532","approach_avoid_sv1","""event"",""trial"",""time""
""fullscreenenter"",""1"",""1710""
","
","
","""event"",""trial"",""time""
""fullscreenenter"",""1"",""1710""
","
","","","","","","1590","images/goat2.png","","","memory_trial","2","maybe_old",""
"html-keyboard-response","226","452120","0.0-18.0-0.91","4532","approach_avoid_sv1","""event"",""trial"",""time""
""fullscreenenter"",""1"",""1710""
","
","
","""event"",""trial"",""time""
""fullscreenenter"",""1"",""1710""
","
","","","","","","null","<div style=""font-size:60px;"">+</div>","null","","fixation","","",""
"memory-trial","227","454855","0.0-18.0-1.91","4532","approach_avoid_sv1","""event"",""trial"",""time""
""fullscreenenter"",""1"",""1710""
","
","
","""event"",""trial"",""time""
""fullscreenenter"",""1"",""1710""
","
","","","","","","1731","images/table5.png","","","memory_trial","1","definitely_old",""
"html-button-response","228","456006","0.0-18.0-2.91-0.91","4532","approach_avoid_sv1","""event"",""trial"",""time""
""fullscreenenter"",""1"",""1710""
","
","
","""event"",""trial"",""time""
""fullscreenenter"",""1"",""1710""
","
","","","","","","1149.5999999940395","<p> Take a break! </p><p> Click the button to continue. </p>","0","","break","","",""
"html-keyboard-response","229","456510","0.0-18.0-0.92","4532","approach_avoid_sv1","""event"",""trial"",""time""
""fullscreenenter"",""1"",""1710""
","
","
","""event"",""trial"",""time""
""fullscreenenter"",""1"",""1710""
","
","","","","","","null","<div style=""font-size:60px;"">+</div>","null","","fixation","","",""
"memory-trial","230","460211","0.0-18.0-1.92","4532","approach_avoid_sv1","""event"",""trial"",""time""
""fullscreenenter"",""1"",""1710""
","
","
","""event"",""trial"",""time""
""fullscreenenter"",""1"",""1710""
","
","","","","","","2693.0999999940395","images/banana6.png","","","memory_trial","3","maybe_new",""
"html-keyboard-response","231","460712","0.0-18.0-0.93","4532","approach_avoid_sv1","""event"",""trial"",""time""
""fullscreenenter"",""1"",""1710""
","
","
","""event"",""trial"",""time""
""fullscreenenter"",""1"",""1710""
","
","","","","","","null","<div style=""font-size:60px;"">+</div>","null","","fixation","","",""
"memory-trial","232","462931","0.0-18.0-1.93","4532","approach_avoid_sv1","""event"",""trial"",""time""
""fullscreenenter"",""1"",""1710""
","
","
","""event"",""trial"",""time""
""fullscreenenter"",""1"",""1710""
","
","","","","","","1211.3999999761581","images/sofa3.png","","","memory_trial","4","definitely_new",""
"html-keyboard-response","233","463432","0.0-18.0-0.94","4532","approach_avoid_sv1","""event"",""trial"",""time""
""fullscreenenter"",""1"",""1710""
","
","
","""event"",""trial"",""time""
""fullscreenenter"",""1"",""1710""
","
","","","","","","null","<div style=""font-size:60px;"">+</div>","null","","fixation","","",""
"memory-trial","234","465965","0.0-18.0-1.94","4532","approach_avoid_sv1","""event"",""trial"",""time""
""fullscreenenter"",""1"",""1710""
","
","
","""event"",""trial"",""time""
""fullscreenenter"",""1"",""1710""
","
","","","","","","1528.800000011921","images/table3.png","","","memory_trial","2","maybe_old",""
"html-keyboard-response","235","466467","0.0-18.0-0.95","4532","approach_avoid_sv1","""event"",""trial"",""time""
""fullscreenenter"",""1"",""1710""
","
","
","""event"",""trial"",""time""
""fullscreenenter"",""1"",""1710""
","
","","","","","","null","<div style=""font-size:60px;"">+</div>","null","","fixation","","",""
"memory-trial","236","468674","0.0-18.0-1.95","4532","approach_avoid_sv1","""event"",""trial"",""time""
""fullscreenenter"",""1"",""1710""
","
","
","""event"",""trial"",""time""
""fullscreenenter"",""1"",""1710""
","
","","","","","","1204.2999999821186","images/apple4.png","","","memory_trial","4","definitely_new",""
"html-keyboard-response","237","469177","0.0-18.0-0.96","4532","approach_avoid_sv1","""event"",""trial"",""time""
""fullscreenenter"",""1"",""1710""
","
","
","""event"",""trial"",""time""
""fullscreenenter"",""1"",""1710""
","
","","","","","","null","<div style=""font-size:60px;"">+</div>","null","","fixation","","",""
"memory-trial","238","471912","0.0-18.0-1.96","4532","approach_avoid_sv1","""event"",""trial"",""time""
""fullscreenenter"",""1"",""1710""
","
","
","""event"",""trial"",""time""
""fullscreenenter"",""1"",""1710""
","
","","","","","","1729","images/rabbit4.png","","","memory_trial","2","maybe_old",""
"html-keyboard-response","239","472415","0.0-18.0-0.97","4532","approach_avoid_sv1","""event"",""trial"",""time""
""fullscreenenter"",""1"",""1710""
","
","
","""event"",""trial"",""time""
""fullscreenenter"",""1"",""1710""
","
","","","","","","null","<div style=""font-size:60px;"">+</div>","null","","fixation","","",""
"memory-trial","240","474637","0.0-18.0-1.97","4532","approach_avoid_sv1","""event"",""trial"",""time""
""fullscreenenter"",""1"",""1710""
","
","
","""event"",""trial"",""time""
""fullscreenenter"",""1"",""1710""
","
","","","","","","1217.699999988079","images/bush6.png","","","memory_trial","4","definitely_new",""
"html-keyboard-response","241","475138","0.0-18.0-0.98","4532","approach_avoid_sv1","""event"",""trial"",""time""
""fullscreenenter"",""1"",""1710""
","
","
","""event"",""trial"",""time""
""fullscreenenter"",""1"",""1710""
","
","","","","","","null","<div style=""font-size:60px;"">+</div>","null","","fixation","","",""
"memory-trial","242","479016","0.0-18.0-1.98","4532","approach_avoid_sv1","""event"",""trial"",""time""
""fullscreenenter"",""1"",""1710""
","
","
","""event"",""trial"",""time""
""fullscreenenter"",""1"",""1710""
","
","","","","","","2874.0999999940395","images/cow5.png","","","memory_trial","1","definitely_old",""
"html-keyboard-response","243","479522","0.0-18.0-0.99","4532","approach_avoid_sv1","""event"",""trial"",""time""
""fullscreenenter"",""1"",""1710""
","
","
","""event"",""trial"",""time""
""fullscreenenter"",""1"",""1710""
","
","","","","","","null","<div style=""font-size:60px;"">+</div>","null","","fixation","","",""
"memory-trial","244","481389","0.0-18.0-1.99","4532","approach_avoid_sv1","""event"",""trial"",""time""
""fullscreenenter"",""1"",""1710""
","
","
","""event"",""trial"",""time""
""fullscreenenter"",""1"",""1710""
","
","","","","","","859.9000000059605","images/sofa8.png","","","memory_trial","4","definitely_new",""
"html-keyboard-response","245","481891","0.0-18.0-0.100","4532","approach_avoid_sv1","""event"",""trial"",""time""
""fullscreenenter"",""1"",""1710""
","
","
","""event"",""trial"",""time""
""fullscreenenter"",""1"",""1710""
","
","","","","","","null","<div style=""font-size:60px;"">+</div>","null","","fixation","","",""
"memory-trial","246","483618","0.0-18.0-1.100","4532","approach_avoid_sv1","""event"",""trial"",""time""
""fullscreenenter"",""1"",""1710""
","
","
","""event"",""trial"",""time""
""fullscreenenter"",""1"",""1710""
","
","","","","","","724.5","images/chair3.png","","","memory_trial","4","definitely_new",""
"html-keyboard-response","247","484123","0.0-18.0-0.101","4532","approach_avoid_sv1","""event"",""trial"",""time""
""fullscreenenter"",""1"",""1710""
","
","
","""event"",""trial"",""time""
""fullscreenenter"",""1"",""1710""
","
","","","","","","null","<div style=""font-size:60px;"">+</div>","null","","fixation","","",""
"memory-trial","248","486066","0.0-18.0-1.101","4532","approach_avoid_sv1","""event"",""trial"",""time""
""fullscreenenter"",""1"",""1710""
","
","
","""event"",""trial"",""time""
""fullscreenenter"",""1"",""1710""
","
","","","","","","937.9000000059605","images/train1.png","","","memory_trial","4","definitely_new",""
"html-keyboard-response","249","486571","0.0-18.0-0.102","4532","approach_avoid_sv1","""event"",""trial"",""time""
""fullscreenenter"",""1"",""1710""
","
","
","""event"",""trial"",""time""
""fullscreenenter"",""1"",""1710""
","
","","","","","","null","<div style=""font-size:60px;"">+</div>","null","","fixation","","",""
"memory-trial","250","489394","0.0-18.0-1.102","4532","approach_avoid_sv1","""event"",""trial"",""time""
""fullscreenenter"",""1"",""1710""
","
","
","""event"",""trial"",""time""
""fullscreenenter"",""1"",""1710""
","
","","","","","","1817.4000000059605","images/plane8.png","","","memory_trial","2","maybe_old",""
"html-keyboard-response","251","489900","0.0-18.0-0.103","4532","approach_avoid_sv1","""event"",""trial"",""time""
""fullscreenenter"",""1"",""1710""
","
","
","""event"",""trial"",""time""
""fullscreenenter"",""1"",""1710""
","
","","","","","","null","<div style=""font-size:60px;"">+</div>","null","","fixation","","",""
"memory-trial","252","491901","0.0-18.0-1.103","4532","approach_avoid_sv1","""event"",""trial"",""time""
""fullscreenenter"",""1"",""1710""
","
","
","""event"",""trial"",""time""
""fullscreenenter"",""1"",""1710""
","
","","","","","","994.3000000119209","images/horse5.png","","","memory_trial","4","definitely_new",""
"html-keyboard-response","253","492402","0.0-18.0-0.104","4532","approach_avoid_sv1","""event"",""trial"",""time""
""fullscreenenter"",""1"",""1710""
","
","
","""event"",""trial"",""time""
""fullscreenenter"",""1"",""1710""
","
","","","","","","null","<div style=""font-size:60px;"">+</div>","null","","fixation","","",""
"memory-trial","254","494925","0.0-18.0-1.104","4532","approach_avoid_sv1","""event"",""trial"",""time""
""fullscreenenter"",""1"",""1710""
","
","
","""event"",""trial"",""time""
""fullscreenenter"",""1"",""1710""
","
","","","","","","1518.9000000059605","images/boat3.png","","","memory_trial","4","definitely_new",""
"html-keyboard-response","255","495428","0.0-18.0-0.105","4532","approach_avoid_sv1","""event"",""trial"",""time""
""fullscreenenter"",""1"",""1710""
","
","
","""event"",""trial"",""time""
""fullscreenenter"",""1"",""1710""
","
","","","","","","null","<div style=""font-size:60px;"">+</div>","null","","fixation","","",""
"memory-trial","256","497368","0.0-18.0-1.105","4532","approach_avoid_sv1","""event"",""trial"",""time""
""fullscreenenter"",""1"",""1710""
","
","
","""event"",""trial"",""time""
""fullscreenenter"",""1"",""1710""
","
","","","","","","932.4000000059605","images/apple8.png","","","memory_trial","4","definitely_new",""
"html-keyboard-response","257","497871","0.0-18.0-0.106","4532","approach_avoid_sv1","""event"",""trial"",""time""
""fullscreenenter"",""1"",""1710""
","
","
","""event"",""trial"",""time""
""fullscreenenter"",""1"",""1710""
","
","","","","","","null","<div style=""font-size:60px;"">+</div>","null","","fixation","","",""
"memory-trial","258","500653","0.0-18.0-1.106","4532","approach_avoid_sv1","""event"",""trial"",""time""
""fullscreenenter"",""1"",""1710""
","
","
","""event"",""trial"",""time""
""fullscreenenter"",""1"",""1710""
","
","","","","","","1779.5999999940395","images/truck2.png","","","memory_trial","2","maybe_old",""
"html-keyboard-response","259","501156","0.0-18.0-0.107","4532","approach_avoid_sv1","""event"",""trial"",""time""
""fullscreenenter"",""1"",""1710""
","
","
","""event"",""trial"",""time""
""fullscreenenter"",""1"",""1710""
","
","","","","","","null","<div style=""font-size:60px;"">+</div>","null","","fixation","","",""
"memory-trial","260","503085","0.0-18.0-1.107","4532","approach_avoid_sv1","""event"",""trial"",""time""
""fullscreenenter"",""1"",""1710""
","
","
","""event"",""trial"",""time""
""fullscreenenter"",""1"",""1710""
","
","","","","","","923.7999999821186","images/train4.png","","","memory_trial","4","definitely_new",""
"html-keyboard-response","261","503586","0.0-18.0-0.108","4532","approach_avoid_sv1","""event"",""trial"",""time""
""fullscreenenter"",""1"",""1710""
","
","
","""event"",""trial"",""time""
""fullscreenenter"",""1"",""1710""
","
","","","","","","null","<div style=""font-size:60px;"">+</div>","null","","fixation","","",""
"memory-trial","262","505853","0.0-18.0-1.108","4532","approach_avoid_sv1","""event"",""trial"",""time""
""fullscreenenter"",""1"",""1710""
","
","
","""event"",""trial"",""time""
""fullscreenenter"",""1"",""1710""
","
","","","","","","1260.699999988079","images/sheep2.png","","","memory_trial","1","definitely_old",""
"html-keyboard-response","263","506359","0.0-18.0-0.109","4532","approach_avoid_sv1","""event"",""trial"",""time""
""fullscreenenter"",""1"",""1710""
","
","
","""event"",""trial"",""time""
""fullscreenenter"",""1"",""1710""
","
","","","","","","null","<div style=""font-size:60px;"">+</div>","null","","fixation","","",""
"memory-trial","264","508946","0.0-18.0-1.109","4532","approach_avoid_sv1","""event"",""trial"",""time""
""fullscreenenter"",""1"",""1710""
","
","
","""event"",""trial"",""time""
""fullscreenenter"",""1"",""1710""
","
","","","","","","1584.0999999940395","images/banana7.png","","","memory_trial","2","maybe_old",""
"html-keyboard-response","265","509448","0.0-18.0-0.110","4532","approach_avoid_sv1","""event"",""trial"",""time""
""fullscreenenter"",""1"",""1710""
","
","
","""event"",""trial"",""time""
""fullscreenenter"",""1"",""1710""
","
","","","","","","null","<div style=""font-size:60px;"">+</div>","null","","fixation","","",""
"memory-trial","266","513490","0.0-18.0-1.110","4532","approach_avoid_sv1","""event"",""trial"",""time""
""fullscreenenter"",""1"",""1710""
","
","
","""event"",""trial"",""time""
""fullscreenenter"",""1"",""1710""
","
","","","","","","3038.0999999940395","images/goat6.png","","","memory_trial","2","maybe_old",""
"html-keyboard-response","267","513992","0.0-18.0-0.111","4532","approach_avoid_sv1","""event"",""trial"",""time""
""fullscreenenter"",""1"",""1710""
","
","
","""event"",""trial"",""time""
""fullscreenenter"",""1"",""1710""
","
","","","","","","null","<div style=""font-size:60px;"">+</div>","null","","fixation","","",""
"memory-trial","268","516109","0.0-18.0-1.111","4532","approach_avoid_sv1","""event"",""trial"",""time""
""fullscreenenter"",""1"",""1710""
","
","
","""event"",""trial"",""time""
""fullscreenenter"",""1"",""1710""
","
","","","","","","1113.300000011921","images/tree5.png","","","memory_trial","1","definitely_old",""
"html-keyboard-response","269","516610","0.0-18.0-0.112","4532","approach_avoid_sv1","""event"",""trial"",""time""
""fullscreenenter"",""1"",""1710""
","
","
","""event"",""trial"",""time""
""fullscreenenter"",""1"",""1710""
","
","","","","","","null","<div style=""font-size:60px;"">+</div>","null","","fixation","","",""
"memory-trial","270","518584","0.0-18.0-1.112","4532","approach_avoid_sv1","""event"",""trial"",""time""
""fullscreenenter"",""1"",""1710""
","
","
","""event"",""trial"",""time""
""fullscreenenter"",""1"",""1710""
","
","","","","","","967.6999999880791","images/cat3.png","","","memory_trial","1","definitely_old",""
"html-keyboard-response","271","519085","0.0-18.0-0.113","4532","approach_avoid_sv1","""event"",""trial"",""time""
""fullscreenenter"",""1"",""1710""
","
","
","""event"",""trial"",""time""
""fullscreenenter"",""1"",""1710""
","
","","","","","","null","<div style=""font-size:60px;"">+</div>","null","","fixation","","",""
"memory-trial","272","521016","0.0-18.0-1.113","4532","approach_avoid_sv1","""event"",""trial"",""time""
""fullscreenenter"",""1"",""1710""
","
","
","""event"",""trial"",""time""
""fullscreenenter"",""1"",""1710""
","
","","","","","","928.1000000238419","images/cactus4.png","","","memory_trial","1","definitely_old",""
"html-keyboard-response","273","521519","0.0-18.0-0.114","4532","approach_avoid_sv1","""event"",""trial"",""time""
""fullscreenenter"",""1"",""1710""
","
","
","""event"",""trial"",""time""
""fullscreenenter"",""1"",""1710""
","
","","","","","","null","<div style=""font-size:60px;"">+</div>","null","","fixation","","",""
"memory-trial","274","523421","0.0-18.0-1.114","4532","approach_avoid_sv1","""event"",""trial"",""time""
""fullscreenenter"",""1"",""1710""
","
","
","""event"",""trial"",""time""
""fullscreenenter"",""1"",""1710""
","
","","","","","","894.6999999880791","images/horse8.png","","","memory_trial","4","definitely_new",""
"html-keyboard-response","275","523923","0.0-18.0-0.115","4532","approach_avoid_sv1","""event"",""trial"",""time""
""fullscreenenter"",""1"",""1710""
","
","
","""event"",""trial"",""time""
""fullscreenenter"",""1"",""1710""
","
","","","","","","null","<div style=""font-size:60px;"">+</div>","null","","fixation","","",""
"memory-trial","276","525982","0.0-18.0-1.115","4532","approach_avoid_sv1","""event"",""trial"",""time""
""fullscreenenter"",""1"",""1710""
","
","
","""event"",""trial"",""time""
""fullscreenenter"",""1"",""1710""
","
","","","","","","1055.5","images/dog3.png","","","memory_trial","4","definitely_new",""
"html-keyboard-response","277","526488","0.0-18.0-0.116","4532","approach_avoid_sv1","""event"",""trial"",""time""
""fullscreenenter"",""1"",""1710""
","
","
","""event"",""trial"",""time""
""fullscreenenter"",""1"",""1710""
","
","","","","","","null","<div style=""font-size:60px;"">+</div>","null","","fixation","","",""
"memory-trial","278","528310","0.0-18.0-1.116","4532","approach_avoid_sv1","""event"",""trial"",""time""
""fullscreenenter"",""1"",""1710""
","
","
","""event"",""trial"",""time""
""fullscreenenter"",""1"",""1710""
","
","","","","","","816.7999999821186","images/dog1.png","","","memory_trial","4","definitely_new",""
"html-keyboard-response","279","528813","0.0-18.0-0.117","4532","approach_avoid_sv1","""event"",""trial"",""time""
""fullscreenenter"",""1"",""1710""
","
","
","""event"",""trial"",""time""
""fullscreenenter"",""1"",""1710""
","
","","","","","","null","<div style=""font-size:60px;"">+</div>","null","","fixation","","",""
"memory-trial","280","530701","0.0-18.0-1.117","4532","approach_avoid_sv1","""event"",""trial"",""time""
""fullscreenenter"",""1"",""1710""
","
","
","""event"",""trial"",""time""
""fullscreenenter"",""1"",""1710""
","
","","","","","","883.2999999821186","images/flower7.png","","","memory_trial","1","definitely_old",""
"html-keyboard-response","281","531202","0.0-18.0-0.118","4532","approach_avoid_sv1","""event"",""trial"",""time""
""fullscreenenter"",""1"",""1710""
","
","
","""event"",""trial"",""time""
""fullscreenenter"",""1"",""1710""
","
","","","","","","null","<div style=""font-size:60px;"">+</div>","null","","fixation","","",""
"memory-trial","282","533474","0.0-18.0-1.118","4532","approach_avoid_sv1","""event"",""trial"",""time""
""fullscreenenter"",""1"",""1710""
","
","
","""event"",""trial"",""time""
""fullscreenenter"",""1"",""1710""
","
","","","","","","1265.3999999761581","images/sheep4.png","","","memory_trial","1","definitely_old",""
"html-keyboard-response","283","533975","0.0-18.0-0.119","4532","approach_avoid_sv1","""event"",""trial"",""time""
""fullscreenenter"",""1"",""1710""
","
","
","""event"",""trial"",""time""
""fullscreenenter"",""1"",""1710""
","
","","","","","","null","<div style=""font-size:60px;"">+</div>","null","","fixation","","",""
"memory-trial","284","535863","0.0-18.0-1.119","4532","approach_avoid_sv1","""event"",""trial"",""time""
""fullscreenenter"",""1"",""1710""
","
","
","""event"",""trial"",""time""
""fullscreenenter"",""1"",""1710""
","
","","","","","","882.0999999940395","images/orange6.png","","","memory_trial","4","definitely_new",""
"html-keyboard-response","285","536367","0.0-18.0-0.120","4532","approach_avoid_sv1","""event"",""trial"",""time""
""fullscreenenter"",""1"",""1710""
","
","
","""event"",""trial"",""time""
""fullscreenenter"",""1"",""1710""
","
","","","","","","null","<div style=""font-size:60px;"">+</div>","null","","fixation","","",""
"memory-trial","286","538564","0.0-18.0-1.120","4532","approach_avoid_sv1","""event"",""trial"",""time""
""fullscreenenter"",""1"",""1710""
","
","
","""event"",""trial"",""time""
""fullscreenenter"",""1"",""1710""
","
","","","","","","1191.7000000178814","images/sheep5.png","","","memory_trial","4","definitely_new",""
"html-keyboard-response","287","539069","0.0-18.0-0.121","4532","approach_avoid_sv1","""event"",""trial"",""time""
""fullscreenenter"",""1"",""1710""
","
","
","""event"",""trial"",""time""
""fullscreenenter"",""1"",""1710""
","
","","","","","","null","<div style=""font-size:60px;"">+</div>","null","","fixation","","",""
"memory-trial","288","541202","0.0-18.0-1.121","4532","approach_avoid_sv1","""event"",""trial"",""time""
""fullscreenenter"",""1"",""1710""
","
","
","""event"",""trial"",""time""
""fullscreenenter"",""1"",""1710""
","
","","","","","","1130.699999988079","images/tree1.png","","","memory_trial","1","definitely_old",""
"html-keyboard-response","289","541707","0.0-18.0-0.122","4532","approach_avoid_sv1","""event"",""trial"",""time""
""fullscreenenter"",""1"",""1710""
","
","
","""event"",""trial"",""time""
""fullscreenenter"",""1"",""1710""
","
","","","","","","null","<div style=""font-size:60px;"">+</div>","null","","fixation","","",""
"memory-trial","290","543432","0.0-18.0-1.122","4532","approach_avoid_sv1","""event"",""trial"",""time""
""fullscreenenter"",""1"",""1710""
","
","
","""event"",""trial"",""time""
""fullscreenenter"",""1"",""1710""
","
","","","","","","718.0999999940395","images/straw8.png","","","memory_trial","4","definitely_new",""
"html-keyboard-response","291","543934","0.0-18.0-0.123","4532","approach_avoid_sv1","""event"",""trial"",""time""
""fullscreenenter"",""1"",""1710""
","
","
","""event"",""trial"",""time""
""fullscreenenter"",""1"",""1710""
","
","","","","","","null","<div style=""font-size:60px;"">+</div>","null","","fixation","","",""
"memory-trial","292","545904","0.0-18.0-1.123","4532","approach_avoid_sv1","""event"",""trial"",""time""
""fullscreenenter"",""1"",""1710""
","
","
","""event"",""trial"",""time""
""fullscreenenter"",""1"",""1710""
","
","","","","","","963.8000000119209","images/bed7.png","","","memory_trial","1","definitely_old",""
"html-keyboard-response","293","546407","0.0-18.0-0.124","4532","approach_avoid_sv1","""event"",""trial"",""time""
""fullscreenenter"",""1"",""1710""
","
","
","""event"",""trial"",""time""
""fullscreenenter"",""1"",""1710""
","
","","","","","","null","<div style=""font-size:60px;"">+</div>","null","","fixation","","",""
"memory-trial","294","548466","0.0-18.0-1.124","4532","approach_avoid_sv1","""event"",""trial"",""time""
""fullscreenenter"",""1"",""1710""
","
","
","""event"",""trial"",""time""
""fullscreenenter"",""1"",""1710""
","
","","","","","","1053.5999999940395","images/cactus2.png","","","memory_trial","1","definitely_old",""
"html-keyboard-response","295","548967","0.0-18.0-0.125","4532","approach_avoid_sv1","""event"",""trial"",""time""
""fullscreenenter"",""1"",""1710""
","
","
","""event"",""trial"",""time""
""fullscreenenter"",""1"",""1710""
","
","","","","","","null","<div style=""font-size:60px;"">+</div>","null","","fixation","","",""
"memory-trial","296","551053","0.0-18.0-1.125","4532","approach_avoid_sv1","""event"",""trial"",""time""
""fullscreenenter"",""1"",""1710""
","
","
","""event"",""trial"",""time""
""fullscreenenter"",""1"",""1710""
","
","","","","","","1080.300000011921","images/train7.png","","","memory_trial","4","definitely_new",""
"html-keyboard-response","297","551554","0.0-18.0-0.126","4532","approach_avoid_sv1","""event"",""trial"",""time""
