"trial_type","trial_index","time_elapsed","internal_node_id","subject_id","task_version","interactions","blur_events","focus_events","fullscreenenter_events","fullscreenexit_events","success","timeout","failed_images","failed_audio","failed_video","rt","stimulus","response","button_pressed","task_part","key_press","answer","correct"
"pavlovia","0","5","0.0-0.0","4148","approach_avoid_sv1","""event"",""trial"",""time""
""fullscreenenter"",""1"",""2574""
","
","
","""event"",""trial"",""time""
""fullscreenenter"",""1"",""2574""
","
","","","","","","","","","","","","",""
"fullscreen","1","3534","0.0-1.0","4148","approach_avoid_sv1","""event"",""trial"",""time""
""fullscreenenter"",""1"",""2574""
","
","
","""event"",""trial"",""time""
""fullscreenenter"",""1"",""2574""
","
","true","","","","","","","","","","","",""
"preload","2","4625","0.0-2.0","4148","approach_avoid_sv1","""event"",""trial"",""time""
""fullscreenenter"",""1"",""2574""
","
","
","""event"",""trial"",""time""
""fullscreenenter"",""1"",""2574""
","
","true","false","[]","[]","[]","","","","","","","",""
"preload","3","5055","0.0-3.0","4148","approach_avoid_sv1","""event"",""trial"",""time""
""fullscreenenter"",""1"",""2574""
","
","
","""event"",""trial"",""time""
""fullscreenenter"",""1"",""2574""
","
","true","false","[]","[]","[]","","","","","","","",""
"preload","4","5243","0.0-4.0","4148","approach_avoid_sv1","""event"",""trial"",""time""
""fullscreenenter"",""1"",""2574""
","
","
","""event"",""trial"",""time""
""fullscreenenter"",""1"",""2574""
","
","true","false","[]","[]","[]","","","","","","","",""
"audio-keyboard-response","5","43038","0.0-5.0","4148","approach_avoid_sv1","""event"",""trial"",""time""
""fullscreenenter"",""1"",""2574""
","
","
","""event"",""trial"",""time""
""fullscreenenter"",""1"",""2574""
","
","","","","","","0","audio/beep_loop.wav"," ","","","","",""
"audio-button-response","6","45331","0.0-6.0","4148","approach_avoid_sv1","""event"",""trial"",""time""
""fullscreenenter"",""1"",""2574""
","
","
","""event"",""trial"",""time""
""fullscreenenter"",""1"",""2574""
","
","","","","","","2256","audio/turtle.wav","3","","","","",""
"audio-button-response","7","47388","0.0-7.0","4148","approach_avoid_sv1","""event"",""trial"",""time""
""fullscreenenter"",""1"",""2574""
","
","
","""event"",""trial"",""time""
""fullscreenenter"",""1"",""2574""
","
","","","","","","1053","audio/shark.wav","2","","","","",""
"preload","8","49631","0.0-8.0","4148","approach_avoid_sv1","""event"",""trial"",""time""
""fullscreenenter"",""1"",""2574""
","
","
","""event"",""trial"",""time""
""fullscreenenter"",""1"",""2574""
","
","true","false","[]","[]","[]","","","","","","","",""
"learning-instructions","9","60824","0.0-9.0-0.0","4148","approach_avoid_sv1","""event"",""trial"",""time""
""fullscreenenter"",""1"",""2574""
","
","
","""event"",""trial"",""time""
""fullscreenenter"",""1"",""2574""
","
","","","","","","6713","<p> Welcome back! </p><p> Last week, you had to make choices about lots of different items.  </p>","","0","instructions","","",""
"learning-instructions","10","68245","0.0-9.0-0.1","4148","approach_avoid_sv1","""event"",""trial"",""time""
""fullscreenenter"",""1"",""2574""
","
","
","""event"",""trial"",""time""
""fullscreenenter"",""1"",""2574""
","
","","","","","","3307.9999999999854","<p> Today, we are going to ask you to try to remember all the items. </p>","","0","instructions","","",""
"learning-instructions","11","84111","0.0-9.0-0.2","4148","approach_avoid_sv1","""event"",""trial"",""time""
""fullscreenenter"",""1"",""2574""
","
","
","""event"",""trial"",""time""
""fullscreenenter"",""1"",""2574""
","
","","","","","","5735","<p> On every trial, you will see an image. </p><p> The image may be an OLD image you saw during the games last week or it may be a NEW image that was not presented. </p>","","0","instructions","","",""
"learning-instructions","12","98437","0.0-9.0-0.3","4148","approach_avoid_sv1","""event"",""trial"",""time""
""fullscreenenter"",""1"",""2574""
","
","
","""event"",""trial"",""time""
""fullscreenenter"",""1"",""2574""
","
","","","","","","5832","<p> You need to select whether the image is:  </p><p>  'Definitely old', 'Maybe old', 'Maybe new', or 'Definitely new.'  </p><div class=""mem-choice-instructions-grid""><div class=""choice-option"" id=""choice-option-1"" ><img src=""images/definitely_old_1.png"" id=""choice-option-img-1"" class=""choice-option-img"" stage=""1""></div><div class=""choice-option"" id=""choice-option-2"" ><img src=""images/maybe_old_1.png"" id=""choice-option-img-2"" class=""choice-option-img"" stage=""1""></div><div class=""choice-option"" id=""choice-option-3"" ><img src=""images/maybe_new_1.png"" id=""choice-option-img-3"" class=""choice-option-img"" stage=""1""></div><div class=""choice-option"" id=""choice-option-4"" > <img src=""images/definitely_new_1.png"" id=""choice-option-img-4"" class=""choice-option-img"" stage=""1""></div></div>","","0","instructions","","",""
"learning-instructions","13","107860","0.0-9.0-0.4","4148","approach_avoid_sv1","""event"",""trial"",""time""
""fullscreenenter"",""1"",""2574""
","
","
","""event"",""trial"",""time""
""fullscreenenter"",""1"",""2574""
","
","","","","","","2914","<p> You should use the 1, 2, 3, and 4 keys to make your responses.  </p><div class=""mem-choice-instructions-grid""><div class=""choice-option"" id=""choice-option-1"" ><img src=""images/definitely_old.png"" id=""choice-option-img-1"" class=""choice-option-img"" stage=""1""></div><div class=""choice-option"" id=""choice-option-2"" ><img src=""images/maybe_old.png"" id=""choice-option-img-2"" class=""choice-option-img"" stage=""1""></div><div class=""choice-option"" id=""choice-option-3"" ><img src=""images/maybe_new.png"" id=""choice-option-img-3"" class=""choice-option-img"" stage=""1""></div><div class=""choice-option"" id=""choice-option-4"" > <img src=""images/definitely_new.png"" id=""choice-option-img-4"" class=""choice-option-img"" stage=""1""></div></div>","","0","instructions","","",""
"learning-instructions","14","116329","0.0-9.0-0.5","4148","approach_avoid_sv1","""event"",""trial"",""time""
""fullscreenenter"",""1"",""2574""
","
","
","""event"",""trial"",""time""
""fullscreenenter"",""1"",""2574""
","
","","","","","","2146","<p> You will have 10 seconds to make each response.  </p><p>  Make sure to respond before time runs out! </p>","","0","instructions","","",""
"learning-instructions","15","129557","0.0-9.0-0.6","4148","approach_avoid_sv1","""event"",""trial"",""time""
""fullscreenenter"",""1"",""2574""
","
","
","""event"",""trial"",""time""
""fullscreenenter"",""1"",""2574""
","
","","","","","","6154.000000000015","<p> Today, you will see each image ONCE only.  </p><p>  That means none of the images will repeat. </p>","","0","instructions","","",""
"learning-instructions","16","168739","0.0-9.0-0.7","4148","approach_avoid_sv1","""event"",""trial"",""time""
""fullscreenenter"",""1"",""2574""
","
","
","""event"",""trial"",""time""
""fullscreenenter"",""1"",""2574""
","
","","","","","","26518","<p> Before you play the real game, it is time to practice. </p><p>  Just like in the real game, some of the images in the practice will be ones you have seen before. </p><p>  Others will be entirely new. </p>","","0","instructions","","",""
"html-button-response","17","202330","0.0-10.0","4148","approach_avoid_sv1","""event"",""trial"",""time""
""fullscreenenter"",""1"",""2574""
","
","
","""event"",""trial"",""time""
""fullscreenenter"",""1"",""2574""
","
","","","","","","33488.00000000003","<p> Ready to practice? </p><p> Remember, use the 1, 2, 3, and 4 keys to make your responses. </p>","0","","instructions","","",""
"html-keyboard-response","18","202935","0.0-11.0-0.0","4148","approach_avoid_sv1","""event"",""trial"",""time""
""fullscreenenter"",""1"",""2574""
","
","
","""event"",""trial"",""time""
""fullscreenenter"",""1"",""2574""
","
","","","","","","null","<div style=""font-size:60px;"">+</div>","null","","fixation","","",""
"memory-trial","19","205433","0.0-11.0-1.0","4148","approach_avoid_sv1","""event"",""trial"",""time""
""fullscreenenter"",""1"",""2574""
","
","
","""event"",""trial"",""time""
""fullscreenenter"",""1"",""2574""
","
","","","","","","1493.000000000029","images/ball3.png","","","practice","1","definitely_old",""
"html-keyboard-response","20","205935","0.0-11.0-0.1","4148","approach_avoid_sv1","""event"",""trial"",""time""
""fullscreenenter"",""1"",""2574""
","
","
","""event"",""trial"",""time""
""fullscreenenter"",""1"",""2574""
","
","","","","","","null","<div style=""font-size:60px;"">+</div>","null","","fixation","","",""
"memory-trial","21","208359","0.0-11.0-1.1","4148","approach_avoid_sv1","""event"",""trial"",""time""
""fullscreenenter"",""1"",""2574""
","
","
","""event"",""trial"",""time""
""fullscreenenter"",""1"",""2574""
","
","","","","","","1420.999999999971","images/racket3.png","","","practice","1","definitely_old",""
"html-keyboard-response","22","208861","0.0-11.0-0.2","4148","approach_avoid_sv1","""event"",""trial"",""time""
""fullscreenenter"",""1"",""2574""
","
","
","""event"",""trial"",""time""
""fullscreenenter"",""1"",""2574""
","
","","","","","","null","<div style=""font-size:60px;"">+</div>","null","","fixation","","",""
"memory-trial","23","211755","0.0-11.0-1.2","4148","approach_avoid_sv1","""event"",""trial"",""time""
""fullscreenenter"",""1"",""2574""
","
","
","""event"",""trial"",""time""
""fullscreenenter"",""1"",""2574""
","
","","","","","","1890","images/racket5.png","","","practice","2","maybe_old",""
"html-keyboard-response","24","212258","0.0-11.0-0.3","4148","approach_avoid_sv1","""event"",""trial"",""time""
""fullscreenenter"",""1"",""2574""
","
","
","""event"",""trial"",""time""
""fullscreenenter"",""1"",""2574""
","
","","","","","","null","<div style=""font-size:60px;"">+</div>","null","","fixation","","",""
"memory-trial","25","214552","0.0-11.0-1.3","4148","approach_avoid_sv1","""event"",""trial"",""time""
""fullscreenenter"",""1"",""2574""
","
","
","""event"",""trial"",""time""
""fullscreenenter"",""1"",""2574""
","
","","","","","","1291","images/racket2.png","","","practice","1","definitely_old",""
"html-keyboard-response","26","215055","0.0-11.0-0.4","4148","approach_avoid_sv1","""event"",""trial"",""time""
""fullscreenenter"",""1"",""2574""
","
","
","""event"",""trial"",""time""
""fullscreenenter"",""1"",""2574""
","
","","","","","","null","<div style=""font-size:60px;"">+</div>","null","","fixation","","",""
"memory-trial","27","218088","0.0-11.0-1.4","4148","approach_avoid_sv1","""event"",""trial"",""time""
""fullscreenenter"",""1"",""2574""
","
","
","""event"",""trial"",""time""
""fullscreenenter"",""1"",""2574""
","
","","","","","","2030","images/ball5.png","","","practice","2","maybe_old",""
"html-keyboard-response","28","218590","0.0-11.0-0.5","4148","approach_avoid_sv1","""event"",""trial"",""time""
""fullscreenenter"",""1"",""2574""
","
","
","""event"",""trial"",""time""
""fullscreenenter"",""1"",""2574""
","
","","","","","","null","<div style=""font-size:60px;"">+</div>","null","","fixation","","",""
"memory-trial","29","221700","0.0-11.0-1.5","4148","approach_avoid_sv1","""event"",""trial"",""time""
""fullscreenenter"",""1"",""2574""
","
","
","""event"",""trial"",""time""
""fullscreenenter"",""1"",""2574""
","
","","","","","","2106.000000000029","images/ball2.png","","","practice","2","maybe_old",""
"html-keyboard-response","30","222202","0.0-11.0-0.6","4148","approach_avoid_sv1","""event"",""trial"",""time""
""fullscreenenter"",""1"",""2574""
","
","
","""event"",""trial"",""time""
""fullscreenenter"",""1"",""2574""
","
","","","","","","null","<div style=""font-size:60px;"">+</div>","null","","fixation","","",""
"memory-trial","31","225154","0.0-11.0-1.6","4148","approach_avoid_sv1","""event"",""trial"",""time""
""fullscreenenter"",""1"",""2574""
","
","
","""event"",""trial"",""time""
""fullscreenenter"",""1"",""2574""
","
","","","","","","1950","images/racket1.png","","","practice","2","maybe_old",""
"html-keyboard-response","32","225657","0.0-11.0-0.7","4148","approach_avoid_sv1","""event"",""trial"",""time""
""fullscreenenter"",""1"",""2574""
","
","
","""event"",""trial"",""time""
""fullscreenenter"",""1"",""2574""
","
","","","","","","null","<div style=""font-size:60px;"">+</div>","null","","fixation","","",""
"memory-trial","33","227875","0.0-11.0-1.7","4148","approach_avoid_sv1","""event"",""trial"",""time""
""fullscreenenter"",""1"",""2574""
","
","
","""event"",""trial"",""time""
""fullscreenenter"",""1"",""2574""
","
","","","","","","1215","images/ball1.png","","","practice","1","definitely_old",""
"learning-instructions","34","239676","0.0-12.0-0.0","4148","approach_avoid_sv1","""event"",""trial"",""time""
""fullscreenenter"",""1"",""2574""
","
","
","""event"",""trial"",""time""
""fullscreenenter"",""1"",""2574""
","
","","","","","","4492","<p> Great! You have completed the practice. </p><p> Before you start, we're going to ask you a few questions about how the game works.  </p>","","0","instructions","","",""
"preload","35","241188","0.0-13.0","4148","approach_avoid_sv1","""event"",""trial"",""time""
""fullscreenenter"",""1"",""2574""
","
","
","""event"",""trial"",""time""
""fullscreenenter"",""1"",""2574""
","
","true","false","[]","[]","[]","","","","","","","",""
"comp-q","36","248925","0.0-14.0-0.0","4148","approach_avoid_sv1","""event"",""trial"",""time""
""fullscreenenter"",""1"",""2574""
","
","
","""event"",""trial"",""time""
""fullscreenenter"",""1"",""2574""
","
","","","","","","1905","<p> <b> True or False? </b> </p><p> In this game, you will only see each image once. </p>","","1","comp_question","","","false"
"comp-q","37","256374","0.0-14.0-1.0","4148","approach_avoid_sv1","""event"",""trial"",""time""
""fullscreenenter"",""1"",""2574""
","
","
","""event"",""trial"",""time""
""fullscreenenter"",""1"",""2574""
","
","","","","","","916","<p> <b>Incorrect.</b> You will see many different images <i> one time each </i> in this game. </p>","","0","comp_answer","","",""
"comp-q","38","263234","0.0-14.1-0.1","4148","approach_avoid_sv1","""event"",""trial"",""time""
""fullscreenenter"",""1"",""2574""
","
","
","""event"",""trial"",""time""
""fullscreenenter"",""1"",""2574""
","
","","","","","","927","<p> <b> True or False? </b> </p><p> In this game, you will only see each image once. </p>","","0","comp_question","","","true"
"comp-q","39","278907","0.0-14.1-1.1","4148","approach_avoid_sv1","""event"",""trial"",""time""
""fullscreenenter"",""1"",""2574""
","
","
","""event"",""trial"",""time""
""fullscreenenter"",""1"",""2574""
","
","","","","","","9336","<p> <b> That's right! </b> You will see many different images <i> one time each </i> in this game. </p>","","0","comp_answer","","",""
"comp-q","40","284888","0.0-15.0-0.0","4148","approach_avoid_sv1","""event"",""trial"",""time""
""fullscreenenter"",""1"",""2574""
","
","
","""event"",""trial"",""time""
""fullscreenenter"",""1"",""2574""
","
","","","","","","975","<p> <b> True or False? </b> </p><p> You should use the mouse and click to make your response. </p>","","1","comp_question","","","true"
"comp-q","41","292854","0.0-15.0-1.0","4148","approach_avoid_sv1","""event"",""trial"",""time""
""fullscreenenter"",""1"",""2574""
","
","
","""event"",""trial"",""time""
""fullscreenenter"",""1"",""2574""
","
","","","","","","1467","<p><b> That's right! </b> You should use the '1', '2', '3', and '4' keys to make your response. </p>","","0","comp_answer","","",""
"comp-q","42","299106","0.0-16.0-0.0","4148","approach_avoid_sv1","""event"",""trial"",""time""
""fullscreenenter"",""1"",""2574""
","
","
","""event"",""trial"",""time""
""fullscreenenter"",""1"",""2574""
","
","","","","","","578","<p> <b> True or False? </b> </p><p> You will have as much time as you want to make each choice. </p>","","1","comp_question","","","true"
"comp-q","43","304930","0.0-16.0-1.0","4148","approach_avoid_sv1","""event"",""trial"",""time""
""fullscreenenter"",""1"",""2574""
""blur"",""44"",""311269""
""fullscreenexit"",""44"",""325384""
""focus"",""44"",""325401""
","""event"",""trial"",""time""
""blur"",""44"",""311269""
","""event"",""trial"",""time""
""focus"",""44"",""325401""
","""event"",""trial"",""time""
""fullscreenenter"",""1"",""2574""
","""event"",""trial"",""time""
""fullscreenexit"",""44"",""325384""
","","","","","","1129","<p> <b> That's right! </b> You will only have 10 seconds to make each choice. </p>","","0","comp_answer","","",""
"learning-instructions","44","327035","0.0-17.0","4148","approach_avoid_sv1","""event"",""trial"",""time""
""fullscreenenter"",""1"",""2574""
""blur"",""44"",""311269""
""fullscreenexit"",""44"",""325384""
""focus"",""44"",""325401""
","""event"",""trial"",""time""
""blur"",""44"",""311269""
","""event"",""trial"",""time""
""focus"",""44"",""325401""
","""event"",""trial"",""time""
""fullscreenenter"",""1"",""2574""
","""event"",""trial"",""time""
""fullscreenexit"",""44"",""325384""
","","","","","","13437.999999999942","<p> Great! You are now ready to begin the game. </p><p> Remember, use the 1, 2, 3, and 4 keys to make your responses. </p>","","0","instructions","","",""
"html-keyboard-response","45","327639","0.0-18.0-0.0","4148","approach_avoid_sv1","""event"",""trial"",""time""
""fullscreenenter"",""1"",""2574""
""blur"",""44"",""311269""
""fullscreenexit"",""44"",""325384""
""focus"",""44"",""325401""
","""event"",""trial"",""time""
""blur"",""44"",""311269""
","""event"",""trial"",""time""
""focus"",""44"",""325401""
","""event"",""trial"",""time""
""fullscreenenter"",""1"",""2574""
","""event"",""trial"",""time""
""fullscreenexit"",""44"",""325384""
","","","","","","null","<div style=""font-size:60px;"">+</div>","null","","fixation","","",""
"memory-trial","46","333107","0.0-18.0-1.0","4148","approach_avoid_sv1","""event"",""trial"",""time""
""fullscreenenter"",""1"",""2574""
""blur"",""44"",""311269""
""fullscreenexit"",""44"",""325384""
""focus"",""44"",""325401""
","""event"",""trial"",""time""
""blur"",""44"",""311269""
","""event"",""trial"",""time""
""focus"",""44"",""325401""
","""event"",""trial"",""time""
""fullscreenenter"",""1"",""2574""
","""event"",""trial"",""time""
""fullscreenexit"",""44"",""325384""
","","","","","","4464","images/train2.png","","","memory_trial","2","maybe_old",""
"html-keyboard-response","47","333610","0.0-18.0-0.1","4148","approach_avoid_sv1","""event"",""trial"",""time""
""fullscreenenter"",""1"",""2574""
""blur"",""44"",""311269""
""fullscreenexit"",""44"",""325384""
""focus"",""44"",""325401""
","""event"",""trial"",""time""
""blur"",""44"",""311269""
","""event"",""trial"",""time""
""focus"",""44"",""325401""
","""event"",""trial"",""time""
""fullscreenenter"",""1"",""2574""
","""event"",""trial"",""time""
""fullscreenexit"",""44"",""325384""
","","","","","","null","<div style=""font-size:60px;"">+</div>","null","","fixation","","",""
"memory-trial","48","336360","0.0-18.0-1.1","4148","approach_avoid_sv1","""event"",""trial"",""time""
""fullscreenenter"",""1"",""2574""
""blur"",""44"",""311269""
""fullscreenexit"",""44"",""325384""
""focus"",""44"",""325401""
","""event"",""trial"",""time""
""blur"",""44"",""311269""
","""event"",""trial"",""time""
""focus"",""44"",""325401""
","""event"",""trial"",""time""
""fullscreenenter"",""1"",""2574""
","""event"",""trial"",""time""
""fullscreenexit"",""44"",""325384""
","","","","","","1747.0000000000582","images/rodent7.png","","","memory_trial","2","maybe_old",""
"html-keyboard-response","49","336862","0.0-18.0-0.2","4148","approach_avoid_sv1","""event"",""trial"",""time""
""fullscreenenter"",""1"",""2574""
""blur"",""44"",""311269""
""fullscreenexit"",""44"",""325384""
""focus"",""44"",""325401""
","""event"",""trial"",""time""
""blur"",""44"",""311269""
","""event"",""trial"",""time""
""focus"",""44"",""325401""
","""event"",""trial"",""time""
""fullscreenenter"",""1"",""2574""
","""event"",""trial"",""time""
""fullscreenexit"",""44"",""325384""
","","","","","","null","<div style=""font-size:60px;"">+</div>","null","","fixation","","",""
"memory-trial","50","339122","0.0-18.0-1.2","4148","approach_avoid_sv1","""event"",""trial"",""time""
""fullscreenenter"",""1"",""2574""
""blur"",""44"",""311269""
""fullscreenexit"",""44"",""325384""
""focus"",""44"",""325401""
","""event"",""trial"",""time""
""blur"",""44"",""311269""
","""event"",""trial"",""time""
""focus"",""44"",""325401""
","""event"",""trial"",""time""
""fullscreenenter"",""1"",""2574""
","""event"",""trial"",""time""
""fullscreenexit"",""44"",""325384""
","","","","","","1256.0000000000582","images/dog1.png","","","memory_trial","1","definitely_old",""
"html-keyboard-response","51","339624","0.0-18.0-0.3","4148","approach_avoid_sv1","""event"",""trial"",""time""
""fullscreenenter"",""1"",""2574""
""blur"",""44"",""311269""
""fullscreenexit"",""44"",""325384""
""focus"",""44"",""325401""
","""event"",""trial"",""time""
""blur"",""44"",""311269""
","""event"",""trial"",""time""
""focus"",""44"",""325401""
","""event"",""trial"",""time""
""fullscreenenter"",""1"",""2574""
","""event"",""trial"",""time""
""fullscreenexit"",""44"",""325384""
","","","","","","null","<div style=""font-size:60px;"">+</div>","null","","fixation","","",""
"memory-trial","52","341988","0.0-18.0-1.3","4148","approach_avoid_sv1","""event"",""trial"",""time""
""fullscreenenter"",""1"",""2574""
""blur"",""44"",""311269""
""fullscreenexit"",""44"",""325384""
""focus"",""44"",""325401""
","""event"",""trial"",""time""
""blur"",""44"",""311269""
","""event"",""trial"",""time""
""focus"",""44"",""325401""
","""event"",""trial"",""time""
""fullscreenenter"",""1"",""2574""
","""event"",""trial"",""time""
""fullscreenexit"",""44"",""325384""
","","","","","","1361","images/plane5.png","","","memory_trial","2","maybe_old",""
"html-keyboard-response","53","342490","0.0-18.0-0.4","4148","approach_avoid_sv1","""event"",""trial"",""time""
""fullscreenenter"",""1"",""2574""
""blur"",""44"",""311269""
""fullscreenexit"",""44"",""325384""
""focus"",""44"",""325401""
","""event"",""trial"",""time""
""blur"",""44"",""311269""
","""event"",""trial"",""time""
""focus"",""44"",""325401""
","""event"",""trial"",""time""
""fullscreenenter"",""1"",""2574""
","""event"",""trial"",""time""
""fullscreenexit"",""44"",""325384""
","","","","","","null","<div style=""font-size:60px;"">+</div>","null","","fixation","","",""
"memory-trial","54","344581","0.0-18.0-1.4","4148","approach_avoid_sv1","""event"",""trial"",""time""
""fullscreenenter"",""1"",""2574""
""blur"",""44"",""311269""
""fullscreenexit"",""44"",""325384""
""focus"",""44"",""325401""
","""event"",""trial"",""time""
""blur"",""44"",""311269""
","""event"",""trial"",""time""
""focus"",""44"",""325401""
","""event"",""trial"",""time""
""fullscreenenter"",""1"",""2574""
","""event"",""trial"",""time""
""fullscreenexit"",""44"",""325384""
","","","","","","1087","images/bed7.png","","","memory_trial","2","maybe_old",""
"html-keyboard-response","55","345083","0.0-18.0-0.5","4148","approach_avoid_sv1","""event"",""trial"",""time""
""fullscreenenter"",""1"",""2574""
""blur"",""44"",""311269""
""fullscreenexit"",""44"",""325384""
""focus"",""44"",""325401""
","""event"",""trial"",""time""
""blur"",""44"",""311269""
","""event"",""trial"",""time""
""focus"",""44"",""325401""
","""event"",""trial"",""time""
""fullscreenenter"",""1"",""2574""
","""event"",""trial"",""time""
""fullscreenexit"",""44"",""325384""
","","","","","","null","<div style=""font-size:60px;"">+</div>","null","","fixation","","",""
"memory-trial","56","347049","0.0-18.0-1.5","4148","approach_avoid_sv1","""event"",""trial"",""time""
""fullscreenenter"",""1"",""2574""
""blur"",""44"",""311269""
""fullscreenexit"",""44"",""325384""
""focus"",""44"",""325401""
","""event"",""trial"",""time""
""blur"",""44"",""311269""
","""event"",""trial"",""time""
""focus"",""44"",""325401""
","""event"",""trial"",""time""
""fullscreenenter"",""1"",""2574""
","""event"",""trial"",""time""
""fullscreenexit"",""44"",""325384""
","","","","","","963.0000000000582","images/banana3.png","","","memory_trial","1","definitely_old",""
"html-keyboard-response","57","347552","0.0-18.0-0.6","4148","approach_avoid_sv1","""event"",""trial"",""time""
""fullscreenenter"",""1"",""2574""
""blur"",""44"",""311269""
""fullscreenexit"",""44"",""325384""
""focus"",""44"",""325401""
","""event"",""trial"",""time""
""blur"",""44"",""311269""
","""event"",""trial"",""time""
""focus"",""44"",""325401""
","""event"",""trial"",""time""
""fullscreenenter"",""1"",""2574""
","""event"",""trial"",""time""
""fullscreenexit"",""44"",""325384""
","","","","","","null","<div style=""font-size:60px;"">+</div>","null","","fixation","","",""
"memory-trial","58","352012","0.0-18.0-1.6","4148","approach_avoid_sv1","""event"",""trial"",""time""
""fullscreenenter"",""1"",""2574""
""blur"",""44"",""311269""
""fullscreenexit"",""44"",""325384""
""focus"",""44"",""325401""
","""event"",""trial"",""time""
""blur"",""44"",""311269""
","""event"",""trial"",""time""
""focus"",""44"",""325401""
","""event"",""trial"",""time""
""fullscreenenter"",""1"",""2574""
","""event"",""trial"",""time""
""fullscreenexit"",""44"",""325384""
","","","","","","3457","images/straw8.png","","","memory_trial","1","definitely_old",""
"html-keyboard-response","59","352514","0.0-18.0-0.7","4148","approach_avoid_sv1","""event"",""trial"",""time""
""fullscreenenter"",""1"",""2574""
""blur"",""44"",""311269""
""fullscreenexit"",""44"",""325384""
""focus"",""44"",""325401""
","""event"",""trial"",""time""
""blur"",""44"",""311269""
","""event"",""trial"",""time""
""focus"",""44"",""325401""
","""event"",""trial"",""time""
""fullscreenenter"",""1"",""2574""
","""event"",""trial"",""time""
""fullscreenexit"",""44"",""325384""
","","","","","","null","<div style=""font-size:60px;"">+</div>","null","","fixation","","",""
"memory-trial","60","354373","0.0-18.0-1.7","4148","approach_avoid_sv1","""event"",""trial"",""time""
""fullscreenenter"",""1"",""2574""
""blur"",""44"",""311269""
""fullscreenexit"",""44"",""325384""
""focus"",""44"",""325401""
","""event"",""trial"",""time""
""blur"",""44"",""311269""
","""event"",""trial"",""time""
""focus"",""44"",""325401""
","""event"",""trial"",""time""
""fullscreenenter"",""1"",""2574""
","""event"",""trial"",""time""
""fullscreenexit"",""44"",""325384""
","","","","","","855","images/chair1.png","","","memory_trial","1","definitely_old",""
"html-keyboard-response","61","354876","0.0-18.0-0.8","4148","approach_avoid_sv1","""event"",""trial"",""time""
""fullscreenenter"",""1"",""2574""
""blur"",""44"",""311269""
""fullscreenexit"",""44"",""325384""
""focus"",""44"",""325401""
","""event"",""trial"",""time""
""blur"",""44"",""311269""
","""event"",""trial"",""time""
""focus"",""44"",""325401""
","""event"",""trial"",""time""
""fullscreenenter"",""1"",""2574""
","""event"",""trial"",""time""
""fullscreenexit"",""44"",""325384""
","","","","","","null","<div style=""font-size:60px;"">+</div>","null","","fixation","","",""
"memory-trial","62","357268","0.0-18.0-1.8","4148","approach_avoid_sv1","""event"",""trial"",""time""
""fullscreenenter"",""1"",""2574""
""blur"",""44"",""311269""
""fullscreenexit"",""44"",""325384""
""focus"",""44"",""325401""
","""event"",""trial"",""time""
""blur"",""44"",""311269""
","""event"",""trial"",""time""
""focus"",""44"",""325401""
","""event"",""trial"",""time""
""fullscreenenter"",""1"",""2574""
","""event"",""trial"",""time""
""fullscreenexit"",""44"",""325384""
","","","","","","1389","images/plane3.png","","","memory_trial","2","maybe_old",""
"html-keyboard-response","63","357770","0.0-18.0-0.9","4148","approach_avoid_sv1","""event"",""trial"",""time""
""fullscreenenter"",""1"",""2574""
""blur"",""44"",""311269""
""fullscreenexit"",""44"",""325384""
""focus"",""44"",""325401""
","""event"",""trial"",""time""
""blur"",""44"",""311269""
","""event"",""trial"",""time""
""focus"",""44"",""325401""
","""event"",""trial"",""time""
""fullscreenenter"",""1"",""2574""
","""event"",""trial"",""time""
""fullscreenexit"",""44"",""325384""
","","","","","","null","<div style=""font-size:60px;"">+</div>","null","","fixation","","",""
"memory-trial","64","359789","0.0-18.0-1.9","4148","approach_avoid_sv1","""event"",""trial"",""time""
""fullscreenenter"",""1"",""2574""
""blur"",""44"",""311269""
""fullscreenexit"",""44"",""325384""
""focus"",""44"",""325401""
","""event"",""trial"",""time""
""blur"",""44"",""311269""
","""event"",""trial"",""time""
""focus"",""44"",""325401""
","""event"",""trial"",""time""
""fullscreenenter"",""1"",""2574""
","""event"",""trial"",""time""
""fullscreenexit"",""44"",""325384""
","","","","","","1014","images/banana5.png","","","memory_trial","2","maybe_old",""
"html-keyboard-response","65","360291","0.0-18.0-0.10","4148","approach_avoid_sv1","""event"",""trial"",""time""
""fullscreenenter"",""1"",""2574""
""blur"",""44"",""311269""
""fullscreenexit"",""44"",""325384""
""focus"",""44"",""325401""
","""event"",""trial"",""time""
""blur"",""44"",""311269""
","""event"",""trial"",""time""
""focus"",""44"",""325401""
","""event"",""trial"",""time""
""fullscreenenter"",""1"",""2574""
","""event"",""trial"",""time""
""fullscreenexit"",""44"",""325384""
","","","","","","null","<div style=""font-size:60px;"">+</div>","null","","fixation","","",""
"memory-trial","66","363301","0.0-18.0-1.10","4148","approach_avoid_sv1","""event"",""trial"",""time""
""fullscreenenter"",""1"",""2574""
""blur"",""44"",""311269""
""fullscreenexit"",""44"",""325384""
""focus"",""44"",""325401""
","""event"",""trial"",""time""
""blur"",""44"",""311269""
","""event"",""trial"",""time""
""focus"",""44"",""325401""
","""event"",""trial"",""time""
""fullscreenenter"",""1"",""2574""
","""event"",""trial"",""time""
""fullscreenexit"",""44"",""325384""
","","","","","","2006.9999999999418","images/bush5.png","","","memory_trial","2","maybe_old",""
"html-keyboard-response","67","363804","0.0-18.0-0.11","4148","approach_avoid_sv1","""event"",""trial"",""time""
""fullscreenenter"",""1"",""2574""
""blur"",""44"",""311269""
""fullscreenexit"",""44"",""325384""
""focus"",""44"",""325401""
","""event"",""trial"",""time""
""blur"",""44"",""311269""
","""event"",""trial"",""time""
""focus"",""44"",""325401""
","""event"",""trial"",""time""
""fullscreenenter"",""1"",""2574""
","""event"",""trial"",""time""
""fullscreenexit"",""44"",""325384""
","","","","","","null","<div style=""font-size:60px;"">+</div>","null","","fixation","","",""
"memory-trial","68","366145","0.0-18.0-1.11","4148","approach_avoid_sv1","""event"",""trial"",""time""
""fullscreenenter"",""1"",""2574""
""blur"",""44"",""311269""
""fullscreenexit"",""44"",""325384""
""focus"",""44"",""325401""
","""event"",""trial"",""time""
""blur"",""44"",""311269""
","""event"",""trial"",""time""
""focus"",""44"",""325401""
","""event"",""trial"",""time""
""fullscreenenter"",""1"",""2574""
","""event"",""trial"",""time""
""fullscreenexit"",""44"",""325384""
","","","","","","1338.0000000000582","images/bush8.png","","","memory_trial","2","maybe_old",""
"html-keyboard-response","69","366648","0.0-18.0-0.12","4148","approach_avoid_sv1","""event"",""trial"",""time""
""fullscreenenter"",""1"",""2574""
""blur"",""44"",""311269""
""fullscreenexit"",""44"",""325384""
""focus"",""44"",""325401""
","""event"",""trial"",""time""
""blur"",""44"",""311269""
","""event"",""trial"",""time""
""focus"",""44"",""325401""
","""event"",""trial"",""time""
""fullscreenenter"",""1"",""2574""
","""event"",""trial"",""time""
""fullscreenexit"",""44"",""325384""
","","","","","","null","<div style=""font-size:60px;"">+</div>","null","","fixation","","",""
"memory-trial","70","369507","0.0-18.0-1.12","4148","approach_avoid_sv1","""event"",""trial"",""time""
""fullscreenenter"",""1"",""2574""
""blur"",""44"",""311269""
""fullscreenexit"",""44"",""325384""
""focus"",""44"",""325401""
","""event"",""trial"",""time""
""blur"",""44"",""311269""
","""event"",""trial"",""time""
""focus"",""44"",""325401""
","""event"",""trial"",""time""
""fullscreenenter"",""1"",""2574""
","""event"",""trial"",""time""
""fullscreenexit"",""44"",""325384""
","","","","","","1856","images/dog6.png","","","memory_trial","2","maybe_old",""
"html-keyboard-response","71","370010","0.0-18.0-0.13","4148","approach_avoid_sv1","""event"",""trial"",""time""
""fullscreenenter"",""1"",""2574""
""blur"",""44"",""311269""
""fullscreenexit"",""44"",""325384""
""focus"",""44"",""325401""
","""event"",""trial"",""time""
""blur"",""44"",""311269""
","""event"",""trial"",""time""
""focus"",""44"",""325401""
","""event"",""trial"",""time""
""fullscreenenter"",""1"",""2574""
","""event"",""trial"",""time""
""fullscreenexit"",""44"",""325384""
","","","","","","null","<div style=""font-size:60px;"">+</div>","null","","fixation","","",""
"memory-trial","72","372131","0.0-18.0-1.13","4148","approach_avoid_sv1","""event"",""trial"",""time""
""fullscreenenter"",""1"",""2574""
""blur"",""44"",""311269""
""fullscreenexit"",""44"",""325384""
""focus"",""44"",""325401""
","""event"",""trial"",""time""
""blur"",""44"",""311269""
","""event"",""trial"",""time""
""focus"",""44"",""325401""
","""event"",""trial"",""time""
""fullscreenenter"",""1"",""2574""
","""event"",""trial"",""time""
""fullscreenexit"",""44"",""325384""
","","","","","","1117.9999999999418","images/rabbit2.png","","","memory_trial","3","maybe_new",""
"html-keyboard-response","73","372633","0.0-18.0-0.14","4148","approach_avoid_sv1","""event"",""trial"",""time""
""fullscreenenter"",""1"",""2574""
""blur"",""44"",""311269""
""fullscreenexit"",""44"",""325384""
""focus"",""44"",""325401""
","""event"",""trial"",""time""
""blur"",""44"",""311269""
","""event"",""trial"",""time""
""focus"",""44"",""325401""
","""event"",""trial"",""time""
""fullscreenenter"",""1"",""2574""
","""event"",""trial"",""time""
""fullscreenexit"",""44"",""325384""
","","","","","","null","<div style=""font-size:60px;"">+</div>","null","","fixation","","",""
"memory-trial","74","374766","0.0-18.0-1.14","4148","approach_avoid_sv1","""event"",""trial"",""time""
""fullscreenenter"",""1"",""2574""
""blur"",""44"",""311269""
""fullscreenexit"",""44"",""325384""
""focus"",""44"",""325401""
","""event"",""trial"",""time""
""blur"",""44"",""311269""
","""event"",""trial"",""time""
""focus"",""44"",""325401""
","""event"",""trial"",""time""
""fullscreenenter"",""1"",""2574""
","""event"",""trial"",""time""
""fullscreenexit"",""44"",""325384""
","","","","","","1130","images/orange7.png","","","memory_trial","3","maybe_new",""
"html-keyboard-response","75","375269","0.0-18.0-0.15","4148","approach_avoid_sv1","""event"",""trial"",""time""
""fullscreenenter"",""1"",""2574""
""blur"",""44"",""311269""
""fullscreenexit"",""44"",""325384""
""focus"",""44"",""325401""
","""event"",""trial"",""time""
""blur"",""44"",""311269""
","""event"",""trial"",""time""
""focus"",""44"",""325401""
","""event"",""trial"",""time""
""fullscreenenter"",""1"",""2574""
","""event"",""trial"",""time""
""fullscreenexit"",""44"",""325384""
","","","","","","null","<div style=""font-size:60px;"">+</div>","null","","fixation","","",""
"memory-trial","76","377632","0.0-18.0-1.15","4148","approach_avoid_sv1","""event"",""trial"",""time""
""fullscreenenter"",""1"",""2574""
""blur"",""44"",""311269""
""fullscreenexit"",""44"",""325384""
""focus"",""44"",""325401""
","""event"",""trial"",""time""
""blur"",""44"",""311269""
","""event"",""trial"",""time""
""focus"",""44"",""325401""
","""event"",""trial"",""time""
""fullscreenenter"",""1"",""2574""
","""event"",""trial"",""time""
""fullscreenexit"",""44"",""325384""
","","","","","","1361.0000000000582","images/cow7.png","","","memory_trial","3","maybe_new",""
"html-keyboard-response","77","378135","0.0-18.0-0.16","4148","approach_avoid_sv1","""event"",""trial"",""time""
""fullscreenenter"",""1"",""2574""
""blur"",""44"",""311269""
""fullscreenexit"",""44"",""325384""
""focus"",""44"",""325401""
","""event"",""trial"",""time""
""blur"",""44"",""311269""
","""event"",""trial"",""time""
""focus"",""44"",""325401""
","""event"",""trial"",""time""
""fullscreenenter"",""1"",""2574""
","""event"",""trial"",""time""
""fullscreenexit"",""44"",""325384""
","","","","","","null","<div style=""font-size:60px;"">+</div>","null","","fixation","","",""
"memory-trial","78","380427","0.0-18.0-1.16","4148","approach_avoid_sv1","""event"",""trial"",""time""
""fullscreenenter"",""1"",""2574""
""blur"",""44"",""311269""
""fullscreenexit"",""44"",""325384""
""focus"",""44"",""325401""
","""event"",""trial"",""time""
""blur"",""44"",""311269""
","""event"",""trial"",""time""
""focus"",""44"",""325401""
","""event"",""trial"",""time""
""fullscreenenter"",""1"",""2574""
","""event"",""trial"",""time""
""fullscreenexit"",""44"",""325384""
","","","","","","1288","images/train7.png","","","memory_trial","2","maybe_old",""
"html-keyboard-response","79","380929","0.0-18.0-0.17","4148","approach_avoid_sv1","""event"",""trial"",""time""
""fullscreenenter"",""1"",""2574""
""blur"",""44"",""311269""
""fullscreenexit"",""44"",""325384""
""focus"",""44"",""325401""
","""event"",""trial"",""time""
""blur"",""44"",""311269""
","""event"",""trial"",""time""
""focus"",""44"",""325401""
","""event"",""trial"",""time""
""fullscreenenter"",""1"",""2574""
","""event"",""trial"",""time""
""fullscreenexit"",""44"",""325384""
","","","","","","null","<div style=""font-size:60px;"">+</div>","null","","fixation","","",""
"memory-trial","80","384263","0.0-18.0-1.17","4148","approach_avoid_sv1","""event"",""trial"",""time""
""fullscreenenter"",""1"",""2574""
""blur"",""44"",""311269""
""fullscreenexit"",""44"",""325384""
""focus"",""44"",""325401""
","""event"",""trial"",""time""
""blur"",""44"",""311269""
","""event"",""trial"",""time""
""focus"",""44"",""325401""
","""event"",""trial"",""time""
""fullscreenenter"",""1"",""2574""
","""event"",""trial"",""time""
""fullscreenexit"",""44"",""325384""
","","","","","","2331","images/cactus8.png","","","memory_trial","3","maybe_new",""
"html-keyboard-response","81","384765","0.0-18.0-0.18","4148","approach_avoid_sv1","""event"",""trial"",""time""
""fullscreenenter"",""1"",""2574""
""blur"",""44"",""311269""
""fullscreenexit"",""44"",""325384""
""focus"",""44"",""325401""
","""event"",""trial"",""time""
""blur"",""44"",""311269""
","""event"",""trial"",""time""
""focus"",""44"",""325401""
","""event"",""trial"",""time""
""fullscreenenter"",""1"",""2574""
","""event"",""trial"",""time""
""fullscreenexit"",""44"",""325384""
","","","","","","null","<div style=""font-size:60px;"">+</div>","null","","fixation","","",""
"memory-trial","82","387863","0.0-18.0-1.18","4148","approach_avoid_sv1","""event"",""trial"",""time""
""fullscreenenter"",""1"",""2574""
""blur"",""44"",""311269""
""fullscreenexit"",""44"",""325384""
""focus"",""44"",""325401""
","""event"",""trial"",""time""
""blur"",""44"",""311269""
","""event"",""trial"",""time""
""focus"",""44"",""325401""
","""event"",""trial"",""time""
""fullscreenenter"",""1"",""2574""
","""event"",""trial"",""time""
""fullscreenexit"",""44"",""325384""
","","","","","","2093.999999999942","images/cat7.png","","","memory_trial","1","definitely_old",""
"html-keyboard-response","83","388366","0.0-18.0-0.19","4148","approach_avoid_sv1","""event"",""trial"",""time""
""fullscreenenter"",""1"",""2574""
""blur"",""44"",""311269""
""fullscreenexit"",""44"",""325384""
""focus"",""44"",""325401""
","""event"",""trial"",""time""
""blur"",""44"",""311269""
","""event"",""trial"",""time""
""focus"",""44"",""325401""
","""event"",""trial"",""time""
""fullscreenenter"",""1"",""2574""
","""event"",""trial"",""time""
""fullscreenexit"",""44"",""325384""
","","","","","","null","<div style=""font-size:60px;"">+</div>","null","","fixation","","",""
"memory-trial","84","390562","0.0-18.0-1.19","4148","approach_avoid_sv1","""event"",""trial"",""time""
""fullscreenenter"",""1"",""2574""
""blur"",""44"",""311269""
""fullscreenexit"",""44"",""325384""
""focus"",""44"",""325401""
","""event"",""trial"",""time""
""blur"",""44"",""311269""
","""event"",""trial"",""time""
""focus"",""44"",""325401""
","""event"",""trial"",""time""
""fullscreenenter"",""1"",""2574""
","""event"",""trial"",""time""
""fullscreenexit"",""44"",""325384""
","","","","","","1193","images/sofa1.png","","","memory_trial","1","definitely_old",""
"html-keyboard-response","85","391065","0.0-18.0-0.20","4148","approach_avoid_sv1","""event"",""trial"",""time""
""fullscreenenter"",""1"",""2574""
""blur"",""44"",""311269""
""fullscreenexit"",""44"",""325384""
""focus"",""44"",""325401""
","""event"",""trial"",""time""
""blur"",""44"",""311269""
","""event"",""trial"",""time""
""focus"",""44"",""325401""
","""event"",""trial"",""time""
""fullscreenenter"",""1"",""2574""
","""event"",""trial"",""time""
""fullscreenexit"",""44"",""325384""
","","","","","","null","<div style=""font-size:60px;"">+</div>","null","","fixation","","",""
"memory-trial","86","393640","0.0-18.0-1.20","4148","approach_avoid_sv1","""event"",""trial"",""time""
""fullscreenenter"",""1"",""2574""
""blur"",""44"",""311269""
""fullscreenexit"",""44"",""325384""
""focus"",""44"",""325401""
","""event"",""trial"",""time""
""blur"",""44"",""311269""
","""event"",""trial"",""time""
""focus"",""44"",""325401""
","""event"",""trial"",""time""
""fullscreenenter"",""1"",""2574""
","""event"",""trial"",""time""
""fullscreenexit"",""44"",""325384""
","","","","","","1572","images/rodent3.png","","","memory_trial","2","maybe_old",""
"html-keyboard-response","87","394142","0.0-18.0-0.21","4148","approach_avoid_sv1","""event"",""trial"",""time""
""fullscreenenter"",""1"",""2574""
""blur"",""44"",""311269""
""fullscreenexit"",""44"",""325384""
""focus"",""44"",""325401""
","""event"",""trial"",""time""
""blur"",""44"",""311269""
","""event"",""trial"",""time""
""focus"",""44"",""325401""
","""event"",""trial"",""time""
""fullscreenenter"",""1"",""2574""
","""event"",""trial"",""time""
""fullscreenexit"",""44"",""325384""
","","","","","","null","<div style=""font-size:60px;"">+</div>","null","","fixation","","",""
"memory-trial","88","398552","0.0-18.0-1.21","4148","approach_avoid_sv1","""event"",""trial"",""time""
""fullscreenenter"",""1"",""2574""
""blur"",""44"",""311269""
""fullscreenexit"",""44"",""325384""
""focus"",""44"",""325401""
","""event"",""trial"",""time""
""blur"",""44"",""311269""
","""event"",""trial"",""time""
""focus"",""44"",""325401""
","""event"",""trial"",""time""
""fullscreenenter"",""1"",""2574""
","""event"",""trial"",""time""
""fullscreenexit"",""44"",""325384""
","","","","","","3407","images/train8.png","","","memory_trial","3","maybe_new",""
"html-keyboard-response","89","399054","0.0-18.0-0.22","4148","approach_avoid_sv1","""event"",""trial"",""time""
""fullscreenenter"",""1"",""2574""
""blur"",""44"",""311269""
""fullscreenexit"",""44"",""325384""
""focus"",""44"",""325401""
","""event"",""trial"",""time""
""blur"",""44"",""311269""
","""event"",""trial"",""time""
""focus"",""44"",""325401""
","""event"",""trial"",""time""
""fullscreenenter"",""1"",""2574""
","""event"",""trial"",""time""
""fullscreenexit"",""44"",""325384""
","","","","","","null","<div style=""font-size:60px;"">+</div>","null","","fixation","","",""
"memory-trial","90","402397","0.0-18.0-1.22","4148","approach_avoid_sv1","""event"",""trial"",""time""
""fullscreenenter"",""1"",""2574""
""blur"",""44"",""311269""
""fullscreenexit"",""44"",""325384""
""focus"",""44"",""325401""
","""event"",""trial"",""time""
""blur"",""44"",""311269""
","""event"",""trial"",""time""
""focus"",""44"",""325401""
","""event"",""trial"",""time""
""fullscreenenter"",""1"",""2574""
","""event"",""trial"",""time""
""fullscreenexit"",""44"",""325384""
","","","","","","2339","images/cat5.png","","","memory_trial","3","maybe_new",""
"html-keyboard-response","91","402898","0.0-18.0-0.23","4148","approach_avoid_sv1","""event"",""trial"",""time""
""fullscreenenter"",""1"",""2574""
""blur"",""44"",""311269""
""fullscreenexit"",""44"",""325384""
""focus"",""44"",""325401""
","""event"",""trial"",""time""
""blur"",""44"",""311269""
","""event"",""trial"",""time""
""focus"",""44"",""325401""
","""event"",""trial"",""time""
""fullscreenenter"",""1"",""2574""
","""event"",""trial"",""time""
""fullscreenexit"",""44"",""325384""
","","","","","","null","<div style=""font-size:60px;"">+</div>","null","","fixation","","",""
"memory-trial","92","406055","0.0-18.0-1.23","4148","approach_avoid_sv1","""event"",""trial"",""time""
""fullscreenenter"",""1"",""2574""
""blur"",""44"",""311269""
""fullscreenexit"",""44"",""325384""
""focus"",""44"",""325401""
","""event"",""trial"",""time""
""blur"",""44"",""311269""
","""event"",""trial"",""time""
""focus"",""44"",""325401""
","""event"",""trial"",""time""
""fullscreenenter"",""1"",""2574""
","""event"",""trial"",""time""
""fullscreenexit"",""44"",""325384""
","","","","","","2153.000000000058","images/chair7.png","","","memory_trial","3","maybe_new",""
"html-keyboard-response","93","406557","0.0-18.0-0.24","4148","approach_avoid_sv1","""event"",""trial"",""time""
""fullscreenenter"",""1"",""2574""
""blur"",""44"",""311269""
""fullscreenexit"",""44"",""325384""
""focus"",""44"",""325401""
","""event"",""trial"",""time""
""blur"",""44"",""311269""
","""event"",""trial"",""time""
""focus"",""44"",""325401""
","""event"",""trial"",""time""
""fullscreenenter"",""1"",""2574""
","""event"",""trial"",""time""
""fullscreenexit"",""44"",""325384""
","","","","","","null","<div style=""font-size:60px;"">+</div>","null","","fixation","","",""
"memory-trial","94","408924","0.0-18.0-1.24","4148","approach_avoid_sv1","""event"",""trial"",""time""
""fullscreenenter"",""1"",""2574""
""blur"",""44"",""311269""
""fullscreenexit"",""44"",""325384""
""focus"",""44"",""325401""
","""event"",""trial"",""time""
""blur"",""44"",""311269""
","""event"",""trial"",""time""
""focus"",""44"",""325401""
","""event"",""trial"",""time""
""fullscreenenter"",""1"",""2574""
","""event"",""trial"",""time""
""fullscreenexit"",""44"",""325384""
","","","","","","1363","images/horse3.png","","","memory_trial","3","maybe_new",""
"html-keyboard-response","95","409426","0.0-18.0-0.25","4148","approach_avoid_sv1","""event"",""trial"",""time""
""fullscreenenter"",""1"",""2574""
""blur"",""44"",""311269""
""fullscreenexit"",""44"",""325384""
""focus"",""44"",""325401""
","""event"",""trial"",""time""
""blur"",""44"",""311269""
","""event"",""trial"",""time""
""focus"",""44"",""325401""
","""event"",""trial"",""time""
""fullscreenenter"",""1"",""2574""
","""event"",""trial"",""time""
""fullscreenexit"",""44"",""325384""
","","","","","","null","<div style=""font-size:60px;"">+</div>","null","","fixation","","",""
"memory-trial","96","412336","0.0-18.0-1.25","4148","approach_avoid_sv1","""event"",""trial"",""time""
""fullscreenenter"",""1"",""2574""
""blur"",""44"",""311269""
""fullscreenexit"",""44"",""325384""
""focus"",""44"",""325401""
","""event"",""trial"",""time""
""blur"",""44"",""311269""
","""event"",""trial"",""time""
""focus"",""44"",""325401""
","""event"",""trial"",""time""
""fullscreenenter"",""1"",""2574""
","""event"",""trial"",""time""
""fullscreenexit"",""44"",""325384""
","","","","","","1906.9999999999418","images/table3.png","","","memory_trial","4","definitely_new",""
"html-keyboard-response","97","412839","0.0-18.0-0.26","4148","approach_avoid_sv1","""event"",""trial"",""time""
""fullscreenenter"",""1"",""2574""
""blur"",""44"",""311269""
""fullscreenexit"",""44"",""325384""
""focus"",""44"",""325401""
","""event"",""trial"",""time""
""blur"",""44"",""311269""
","""event"",""trial"",""time""
""focus"",""44"",""325401""
","""event"",""trial"",""time""
""fullscreenenter"",""1"",""2574""
","""event"",""trial"",""time""
""fullscreenexit"",""44"",""325384""
","","","","","","null","<div style=""font-size:60px;"">+</div>","null","","fixation","","",""
"memory-trial","98","414814","0.0-18.0-1.26","4148","approach_avoid_sv1","""event"",""trial"",""time""
""fullscreenenter"",""1"",""2574""
""blur"",""44"",""311269""
""fullscreenexit"",""44"",""325384""
""focus"",""44"",""325401""
","""event"",""trial"",""time""
""blur"",""44"",""311269""
","""event"",""trial"",""time""
""focus"",""44"",""325401""
","""event"",""trial"",""time""
""fullscreenenter"",""1"",""2574""
","""event"",""trial"",""time""
""fullscreenexit"",""44"",""325384""
","","","","","","972","images/tree4.png","","","memory_trial","1","definitely_old",""
"html-keyboard-response","99","415316","0.0-18.0-0.27","4148","approach_avoid_sv1","""event"",""trial"",""time""
""fullscreenenter"",""1"",""2574""
""blur"",""44"",""311269""
""fullscreenexit"",""44"",""325384""
""focus"",""44"",""325401""
","""event"",""trial"",""time""
""blur"",""44"",""311269""
","""event"",""trial"",""time""
""focus"",""44"",""325401""
","""event"",""trial"",""time""
""fullscreenenter"",""1"",""2574""
","""event"",""trial"",""time""
""fullscreenexit"",""44"",""325384""
","","","","","","null","<div style=""font-size:60px;"">+</div>","null","","fixation","","",""
"memory-trial","100","418378","0.0-18.0-1.27","4148","approach_avoid_sv1","""event"",""trial"",""time""
""fullscreenenter"",""1"",""2574""
""blur"",""44"",""311269""
""fullscreenexit"",""44"",""325384""
""focus"",""44"",""325401""
","""event"",""trial"",""time""
""blur"",""44"",""311269""
","""event"",""trial"",""time""
""focus"",""44"",""325401""
","""event"",""trial"",""time""
""fullscreenenter"",""1"",""2574""
","""event"",""trial"",""time""
""fullscreenexit"",""44"",""325384""
","","","","","","2057","images/apple6.png","","","memory_trial","3","maybe_new",""
"html-keyboard-response","101","418880","0.0-18.0-0.28","4148","approach_avoid_sv1","""event"",""trial"",""time""
""fullscreenenter"",""1"",""2574""
""blur"",""44"",""311269""
""fullscreenexit"",""44"",""325384""
""focus"",""44"",""325401""
","""event"",""trial"",""time""
""blur"",""44"",""311269""
","""event"",""trial"",""time""
""focus"",""44"",""325401""
","""event"",""trial"",""time""
""fullscreenenter"",""1"",""2574""
","""event"",""trial"",""time""
""fullscreenexit"",""44"",""325384""
","","","","","","null","<div style=""font-size:60px;"">+</div>","null","","fixation","","",""
"memory-trial","102","421464","0.0-18.0-1.28","4148","approach_avoid_sv1","""event"",""trial"",""time""
""fullscreenenter"",""1"",""2574""
""blur"",""44"",""311269""
""fullscreenexit"",""44"",""325384""
""focus"",""44"",""325401""
","""event"",""trial"",""time""
""blur"",""44"",""311269""
","""event"",""trial"",""time""
""focus"",""44"",""325401""
","""event"",""trial"",""time""
""fullscreenenter"",""1"",""2574""
","""event"",""trial"",""time""
""fullscreenexit"",""44"",""325384""
","","","","","","1582","images/straw5.png","","","memory_trial","2","maybe_old",""
"html-keyboard-response","103","421967","0.0-18.0-0.29","4148","approach_avoid_sv1","""event"",""trial"",""time""
""fullscreenenter"",""1"",""2574""
""blur"",""44"",""311269""
""fullscreenexit"",""44"",""325384""
""focus"",""44"",""325401""
","""event"",""trial"",""time""
""blur"",""44"",""311269""
","""event"",""trial"",""time""
""focus"",""44"",""325401""
","""event"",""trial"",""time""
""fullscreenenter"",""1"",""2574""
","""event"",""trial"",""time""
""fullscreenexit"",""44"",""325384""
","","","","","","null","<div style=""font-size:60px;"">+</div>","null","","fixation","","",""
"memory-trial","104","424273","0.0-18.0-1.29","4148","approach_avoid_sv1","""event"",""trial"",""time""
""fullscreenenter"",""1"",""2574""
""blur"",""44"",""311269""
""fullscreenexit"",""44"",""325384""
""focus"",""44"",""325401""
","""event"",""trial"",""time""
""blur"",""44"",""311269""
","""event"",""trial"",""time""
""focus"",""44"",""325401""
","""event"",""trial"",""time""
""fullscreenenter"",""1"",""2574""
","""event"",""trial"",""time""
""fullscreenexit"",""44"",""325384""
","","","","","","1303.9999999999418","images/orange6.png","","","memory_trial","4","definitely_new",""
"html-keyboard-response","105","424776","0.0-18.0-0.30","4148","approach_avoid_sv1","""event"",""trial"",""time""
""fullscreenenter"",""1"",""2574""
""blur"",""44"",""311269""
""fullscreenexit"",""44"",""325384""
""focus"",""44"",""325401""
","""event"",""trial"",""time""
""blur"",""44"",""311269""
","""event"",""trial"",""time""
""focus"",""44"",""325401""
","""event"",""trial"",""time""
""fullscreenenter"",""1"",""2574""
","""event"",""trial"",""time""
""fullscreenexit"",""44"",""325384""
","","","","","","null","<div style=""font-size:60px;"">+</div>","null","","fixation","","",""
"memory-trial","106","427052","0.0-18.0-1.30","4148","approach_avoid_sv1","""event"",""trial"",""time""
""fullscreenenter"",""1"",""2574""
""blur"",""44"",""311269""
""fullscreenexit"",""44"",""325384""
""focus"",""44"",""325401""
","""event"",""trial"",""time""
""blur"",""44"",""311269""
","""event"",""trial"",""time""
""focus"",""44"",""325401""
","""event"",""trial"",""time""
""fullscreenenter"",""1"",""2574""
","""event"",""trial"",""time""
""fullscreenexit"",""44"",""325384""
","","","","","","1273","images/apple8.png","","","memory_trial","1","definitely_old",""
"html-keyboard-response","107","427554","0.0-18.0-0.31","4148","approach_avoid_sv1","""event"",""trial"",""time""
""fullscreenenter"",""1"",""2574""
""blur"",""44"",""311269""
""fullscreenexit"",""44"",""325384""
""focus"",""44"",""325401""
","""event"",""trial"",""time""
""blur"",""44"",""311269""
","""event"",""trial"",""time""
""focus"",""44"",""325401""
","""event"",""trial"",""time""
""fullscreenenter"",""1"",""2574""
","""event"",""trial"",""time""
""fullscreenexit"",""44"",""325384""
","","","","","","null","<div style=""font-size:60px;"">+</div>","null","","fixation","","",""
"memory-trial","108","430309","0.0-18.0-1.31","4148","approach_avoid_sv1","""event"",""trial"",""time""
""fullscreenenter"",""1"",""2574""
""blur"",""44"",""311269""
""fullscreenexit"",""44"",""325384""
""focus"",""44"",""325401""
","""event"",""trial"",""time""
""blur"",""44"",""311269""
","""event"",""trial"",""time""
""focus"",""44"",""325401""
","""event"",""trial"",""time""
""fullscreenenter"",""1"",""2574""
","""event"",""trial"",""time""
""fullscreenexit"",""44"",""325384""
","","","","","","1752.0000000000582","images/orange1.png","","","memory_trial","3","maybe_new",""
"html-keyboard-response","109","430811","0.0-18.0-0.32","4148","approach_avoid_sv1","""event"",""trial"",""time""
""fullscreenenter"",""1"",""2574""
""blur"",""44"",""311269""
""fullscreenexit"",""44"",""325384""
""focus"",""44"",""325401""
","""event"",""trial"",""time""
""blur"",""44"",""311269""
","""event"",""trial"",""time""
""focus"",""44"",""325401""
","""event"",""trial"",""time""
""fullscreenenter"",""1"",""2574""
","""event"",""trial"",""time""
""fullscreenexit"",""44"",""325384""
","","","","","","null","<div style=""font-size:60px;"">+</div>","null","","fixation","","",""
"memory-trial","110","433177","0.0-18.0-1.32","4148","approach_avoid_sv1","""event"",""trial"",""time""
""fullscreenenter"",""1"",""2574""
""blur"",""44"",""311269""
""fullscreenexit"",""44"",""325384""
""focus"",""44"",""325401""
","""event"",""trial"",""time""
""blur"",""44"",""311269""
","""event"",""trial"",""time""
""focus"",""44"",""325401""
","""event"",""trial"",""time""
""fullscreenenter"",""1"",""2574""
","""event"",""trial"",""time""
""fullscreenexit"",""44"",""325384""
","","","","","","1363","images/chair5.png","","","memory_trial","2","maybe_old",""
"html-keyboard-response","111","433679","0.0-18.0-0.33","4148","approach_avoid_sv1","""event"",""trial"",""time""
""fullscreenenter"",""1"",""2574""
""blur"",""44"",""311269""
""fullscreenexit"",""44"",""325384""
""focus"",""44"",""325401""
","""event"",""trial"",""time""
""blur"",""44"",""311269""
","""event"",""trial"",""time""
""focus"",""44"",""325401""
","""event"",""trial"",""time""
""fullscreenenter"",""1"",""2574""
","""event"",""trial"",""time""
""fullscreenexit"",""44"",""325384""
","","","","","","null","<div style=""font-size:60px;"">+</div>","null","","fixation","","",""
"memory-trial","112","436199","0.0-18.0-1.33","4148","approach_avoid_sv1","""event"",""trial"",""time""
""fullscreenenter"",""1"",""2574""
""blur"",""44"",""311269""
""fullscreenexit"",""44"",""325384""
""focus"",""44"",""325401""
","""event"",""trial"",""time""
""blur"",""44"",""311269""
","""event"",""trial"",""time""
""focus"",""44"",""325401""
","""event"",""trial"",""time""
""fullscreenenter"",""1"",""2574""
","""event"",""trial"",""time""
""fullscreenexit"",""44"",""325384""
","","","","","","1516","images/table2.png","","","memory_trial","3","maybe_new",""
"html-keyboard-response","113","436702","0.0-18.0-0.34","4148","approach_avoid_sv1","""event"",""trial"",""time""
""fullscreenenter"",""1"",""2574""
""blur"",""44"",""311269""
""fullscreenexit"",""44"",""325384""
""focus"",""44"",""325401""
","""event"",""trial"",""time""
""blur"",""44"",""311269""
","""event"",""trial"",""time""
""focus"",""44"",""325401""
","""event"",""trial"",""time""
""fullscreenenter"",""1"",""2574""
","""event"",""trial"",""time""
""fullscreenexit"",""44"",""325384""
","","","","","","null","<div style=""font-size:60px;"">+</div>","null","","fixation","","",""
"memory-trial","114","439072","0.0-18.0-1.34","4148","approach_avoid_sv1","""event"",""trial"",""time""
""fullscreenenter"",""1"",""2574""
""blur"",""44"",""311269""
""fullscreenexit"",""44"",""325384""
""focus"",""44"",""325401""
","""event"",""trial"",""time""
""blur"",""44"",""311269""
","""event"",""trial"",""time""
""focus"",""44"",""325401""
","""event"",""trial"",""time""
""fullscreenenter"",""1"",""2574""
","""event"",""trial"",""time""
""fullscreenexit"",""44"",""325384""
","","","","","","1367","images/tree8.png","","","memory_trial","3","maybe_new",""
"html-keyboard-response","115","439575","0.0-18.0-0.35","4148","approach_avoid_sv1","""event"",""trial"",""time""
""fullscreenenter"",""1"",""2574""
""blur"",""44"",""311269""
""fullscreenexit"",""44"",""325384""
""focus"",""44"",""325401""
","""event"",""trial"",""time""
""blur"",""44"",""311269""
","""event"",""trial"",""time""
""focus"",""44"",""325401""
","""event"",""trial"",""time""
""fullscreenenter"",""1"",""2574""
","""event"",""trial"",""time""
""fullscreenexit"",""44"",""325384""
","","","","","","null","<div style=""font-size:60px;"">+</div>","null","","fixation","","",""
"memory-trial","116","441943","0.0-18.0-1.35","4148","approach_avoid_sv1","""event"",""trial"",""time""
""fullscreenenter"",""1"",""2574""
""blur"",""44"",""311269""
""fullscreenexit"",""44"",""325384""
""focus"",""44"",""325401""
","""event"",""trial"",""time""
""blur"",""44"",""311269""
","""event"",""trial"",""time""
""focus"",""44"",""325401""
","""event"",""trial"",""time""
""fullscreenenter"",""1"",""2574""
","""event"",""trial"",""time""
""fullscreenexit"",""44"",""325384""
","","","","","","1365","images/straw1.png","","","memory_trial","1","definitely_old",""
"html-keyboard-response","117","442445","0.0-18.0-0.36","4148","approach_avoid_sv1","""event"",""trial"",""time""
""fullscreenenter"",""1"",""2574""
""blur"",""44"",""311269""
""fullscreenexit"",""44"",""325384""
""focus"",""44"",""325401""
","""event"",""trial"",""time""
""blur"",""44"",""311269""
","""event"",""trial"",""time""
""focus"",""44"",""325401""
","""event"",""trial"",""time""
""fullscreenenter"",""1"",""2574""
","""event"",""trial"",""time""
""fullscreenexit"",""44"",""325384""
","","","","","","null","<div style=""font-size:60px;"">+</div>","null","","fixation","","",""
"memory-trial","118","445331","0.0-18.0-1.36","4148","approach_avoid_sv1","""event"",""trial"",""time""
""fullscreenenter"",""1"",""2574""
""blur"",""44"",""311269""
""fullscreenexit"",""44"",""325384""
""focus"",""44"",""325401""
","""event"",""trial"",""time""
""blur"",""44"",""311269""
","""event"",""trial"",""time""
""focus"",""44"",""325401""
","""event"",""trial"",""time""
""fullscreenenter"",""1"",""2574""
","""event"",""trial"",""time""
""fullscreenexit"",""44"",""325384""
","","","","","","1883","images/goat6.png","","","memory_trial","3","maybe_new",""
"html-keyboard-response","119","445834","0.0-18.0-0.37","4148","approach_avoid_sv1","""event"",""trial"",""time""
""fullscreenenter"",""1"",""2574""
""blur"",""44"",""311269""
""fullscreenexit"",""44"",""325384""
""focus"",""44"",""325401""
","""event"",""trial"",""time""
""blur"",""44"",""311269""
","""event"",""trial"",""time""
""focus"",""44"",""325401""
","""event"",""trial"",""time""
""fullscreenenter"",""1"",""2574""
","""event"",""trial"",""time""
""fullscreenexit"",""44"",""325384""
","","","","","","null","<div style=""font-size:60px;"">+</div>","null","","fixation","","",""
"memory-trial","120","448613","0.0-18.0-1.37","4148","approach_avoid_sv1","""event"",""trial"",""time""
""fullscreenenter"",""1"",""2574""
""blur"",""44"",""311269""
""fullscreenexit"",""44"",""325384""
""focus"",""44"",""325401""
","""event"",""trial"",""time""
""blur"",""44"",""311269""
","""event"",""trial"",""time""
""focus"",""44"",""325401""
","""event"",""trial"",""time""
""fullscreenenter"",""1"",""2574""
","""event"",""trial"",""time""
""fullscreenexit"",""44"",""325384""
","","","","","","1776","images/tree3.png","","","memory_trial","3","maybe_new",""
"html-keyboard-response","121","449116","0.0-18.0-0.38","4148","approach_avoid_sv1","""event"",""trial"",""time""
""fullscreenenter"",""1"",""2574""
""blur"",""44"",""311269""
""fullscreenexit"",""44"",""325384""
""focus"",""44"",""325401""
","""event"",""trial"",""time""
""blur"",""44"",""311269""
","""event"",""trial"",""time""
""focus"",""44"",""325401""
","""event"",""trial"",""time""
""fullscreenenter"",""1"",""2574""
","""event"",""trial"",""time""
""fullscreenexit"",""44"",""325384""
","","","","","","null","<div style=""font-size:60px;"">+</div>","null","","fixation","","",""
"memory-trial","122","455135","0.0-18.0-1.38","4148","approach_avoid_sv1","""event"",""trial"",""time""
""fullscreenenter"",""1"",""2574""
""blur"",""44"",""311269""
""fullscreenexit"",""44"",""325384""
""focus"",""44"",""325401""
","""event"",""trial"",""time""
""blur"",""44"",""311269""
","""event"",""trial"",""time""
""focus"",""44"",""325401""
","""event"",""trial"",""time""
""fullscreenenter"",""1"",""2574""
","""event"",""trial"",""time""
""fullscreenexit"",""44"",""325384""
","","","","","","5017","images/bed8.png","","","memory_trial","4","definitely_new",""
"html-keyboard-response","123","455638","0.0-18.0-0.39","4148","approach_avoid_sv1","""event"",""trial"",""time""
""fullscreenenter"",""1"",""2574""
""blur"",""44"",""311269""
""fullscreenexit"",""44"",""325384""
""focus"",""44"",""325401""
","""event"",""trial"",""time""
""blur"",""44"",""311269""
","""event"",""trial"",""time""
""focus"",""44"",""325401""
","""event"",""trial"",""time""
""fullscreenenter"",""1"",""2574""
","""event"",""trial"",""time""
""fullscreenexit"",""44"",""325384""
","","","","","","null","<div style=""font-size:60px;"">+</div>","null","","fixation","","",""
"memory-trial","124","458136","0.0-18.0-1.39","4148","approach_avoid_sv1","""event"",""trial"",""time""
""fullscreenenter"",""1"",""2574""
""blur"",""44"",""311269""
""fullscreenexit"",""44"",""325384""
""focus"",""44"",""325401""
","""event"",""trial"",""time""
""blur"",""44"",""311269""
","""event"",""trial"",""time""
""focus"",""44"",""325401""
","""event"",""trial"",""time""
""fullscreenenter"",""1"",""2574""
","""event"",""trial"",""time""
""fullscreenexit"",""44"",""325384""
","","","","","","1495","images/goat7.png","","","memory_trial","1","definitely_old",""
"html-keyboard-response","125","458638","0.0-18.0-0.40","4148","approach_avoid_sv1","""event"",""trial"",""time""
""fullscreenenter"",""1"",""2574""
""blur"",""44"",""311269""
""fullscreenexit"",""44"",""325384""
""focus"",""44"",""325401""
","""event"",""trial"",""time""
""blur"",""44"",""311269""
","""event"",""trial"",""time""
""focus"",""44"",""325401""
","""event"",""trial"",""time""
""fullscreenenter"",""1"",""2574""
","""event"",""trial"",""time""
""fullscreenexit"",""44"",""325384""
","","","","","","null","<div style=""font-size:60px;"">+</div>","null","","fixation","","",""
"memory-trial","126","460809","0.0-18.0-1.40","4148","approach_avoid_sv1","""event"",""trial"",""time""
""fullscreenenter"",""1"",""2574""
""blur"",""44"",""311269""
""fullscreenexit"",""44"",""325384""
""focus"",""44"",""325401""
","""event"",""trial"",""time""
""blur"",""44"",""311269""
","""event"",""trial"",""time""
""focus"",""44"",""325401""
","""event"",""trial"",""time""
""fullscreenenter"",""1"",""2574""
","""event"",""trial"",""time""
""fullscreenexit"",""44"",""325384""
","","","","","","1167.9999999999418","images/apple1.png","","","memory_trial","1","definitely_old",""
"html-keyboard-response","127","461311","0.0-18.0-0.41","4148","approach_avoid_sv1","""event"",""trial"",""time""
""fullscreenenter"",""1"",""2574""
""blur"",""44"",""311269""
""fullscreenexit"",""44"",""325384""
""focus"",""44"",""325401""
","""event"",""trial"",""time""
""blur"",""44"",""311269""
","""event"",""trial"",""time""
""focus"",""44"",""325401""
","""event"",""trial"",""time""
""fullscreenenter"",""1"",""2574""
","""event"",""trial"",""time""
""fullscreenexit"",""44"",""325384""
","","","","","","null","<div style=""font-size:60px;"">+</div>","null","","fixation","","",""
"memory-trial","128","463276","0.0-18.0-1.41","4148","approach_avoid_sv1","""event"",""trial"",""time""
""fullscreenenter"",""1"",""2574""
""blur"",""44"",""311269""
""fullscreenexit"",""44"",""325384""
""focus"",""44"",""325401""
","""event"",""trial"",""time""
""blur"",""44"",""311269""
","""event"",""trial"",""time""
""focus"",""44"",""325401""
","""event"",""trial"",""time""
""fullscreenenter"",""1"",""2574""
","""event"",""trial"",""time""
""fullscreenexit"",""44"",""325384""
","","","","","","960.9999999999418","images/rodent2.png","","","memory_trial","1","definitely_old",""
"html-button-response","129","467192","0.0-18.0-2.41-0.41","4148","approach_avoid_sv1","""event"",""trial"",""time""
""fullscreenenter"",""1"",""2574""
""blur"",""44"",""311269""
""fullscreenexit"",""44"",""325384""
""focus"",""44"",""325401""
","""event"",""trial"",""time""
""blur"",""44"",""311269""
","""event"",""trial"",""time""
""focus"",""44"",""325401""
","""event"",""trial"",""time""
""fullscreenenter"",""1"",""2574""
","""event"",""trial"",""time""
""fullscreenexit"",""44"",""325384""
","","","","","","3914","<p> Take a break! </p><p> Click the button to continue. </p>","0","","break","","",""
"html-keyboard-response","130","467695","0.0-18.0-0.42","4148","approach_avoid_sv1","""event"",""trial"",""time""
""fullscreenenter"",""1"",""2574""
""blur"",""44"",""311269""
""fullscreenexit"",""44"",""325384""
""focus"",""44"",""325401""
","""event"",""trial"",""time""
""blur"",""44"",""311269""
","""event"",""trial"",""time""
""focus"",""44"",""325401""
","""event"",""trial"",""time""
""fullscreenenter"",""1"",""2574""
","""event"",""trial"",""time""
""fullscreenexit"",""44"",""325384""
","","","","","","null","<div style=""font-size:60px;"">+</div>","null","","fixation","","",""
"memory-trial","131","471224","0.0-18.0-1.42","4148","approach_avoid_sv1","""event"",""trial"",""time""
""fullscreenenter"",""1"",""2574""
""blur"",""44"",""311269""
""fullscreenexit"",""44"",""325384""
""focus"",""44"",""325401""
","""event"",""trial"",""time""
""blur"",""44"",""311269""
","""event"",""trial"",""time""
""focus"",""44"",""325401""
","""event"",""trial"",""time""
""fullscreenenter"",""1"",""2574""
","""event"",""trial"",""time""
""fullscreenexit"",""44"",""325384""
","","","","","","2526","images/table5.png","","","memory_trial","2","maybe_old",""
"html-keyboard-response","132","471726","0.0-18.0-0.43","4148","approach_avoid_sv1","""event"",""trial"",""time""
""fullscreenenter"",""1"",""2574""
""blur"",""44"",""311269""
""fullscreenexit"",""44"",""325384""
""focus"",""44"",""325401""
","""event"",""trial"",""time""
""blur"",""44"",""311269""
","""event"",""trial"",""time""
""focus"",""44"",""325401""
","""event"",""trial"",""time""
""fullscreenenter"",""1"",""2574""
","""event"",""trial"",""time""
""fullscreenexit"",""44"",""325384""
","","","","","","null","<div style=""font-size:60px;"">+</div>","null","","fixation","","",""
"memory-trial","133","474640","0.0-18.0-1.43","4148","approach_avoid_sv1","""event"",""trial"",""time""
""fullscreenenter"",""1"",""2574""
""blur"",""44"",""311269""
""fullscreenexit"",""44"",""325384""
""focus"",""44"",""325401""
","""event"",""trial"",""time""
""blur"",""44"",""311269""
","""event"",""trial"",""time""
""focus"",""44"",""325401""
","""event"",""trial"",""time""
""fullscreenenter"",""1"",""2574""
","""event"",""trial"",""time""
""fullscreenexit"",""44"",""325384""
","","","","","","1911","images/bush6.png","","","memory_trial","1","definitely_old",""
"html-keyboard-response","134","475143","0.0-18.0-0.44","4148","approach_avoid_sv1","""event"",""trial"",""time""
""fullscreenenter"",""1"",""2574""
""blur"",""44"",""311269""
""fullscreenexit"",""44"",""325384""
""focus"",""44"",""325401""
","""event"",""trial"",""time""
""blur"",""44"",""311269""
","""event"",""trial"",""time""
""focus"",""44"",""325401""
","""event"",""trial"",""time""
""fullscreenenter"",""1"",""2574""
","""event"",""trial"",""time""
""fullscreenexit"",""44"",""325384""
","","","","","","null","<div style=""font-size:60px;"">+</div>","null","","fixation","","",""
"memory-trial","135","477070","0.0-18.0-1.44","4148","approach_avoid_sv1","""event"",""trial"",""time""
""fullscreenenter"",""1"",""2574""
""blur"",""44"",""311269""
""fullscreenexit"",""44"",""325384""
""focus"",""44"",""325401""
","""event"",""trial"",""time""
""blur"",""44"",""311269""
","""event"",""trial"",""time""
""focus"",""44"",""325401""
","""event"",""trial"",""time""
""fullscreenenter"",""1"",""2574""
","""event"",""trial"",""time""
""fullscreenexit"",""44"",""325384""
","","","","","","923.9999999999418","images/cat8.png","","","memory_trial","2","maybe_old",""
"html-keyboard-response","136","477572","0.0-18.0-0.45","4148","approach_avoid_sv1","""event"",""trial"",""time""
""fullscreenenter"",""1"",""2574""
""blur"",""44"",""311269""
""fullscreenexit"",""44"",""325384""
""focus"",""44"",""325401""
","""event"",""trial"",""time""
""blur"",""44"",""311269""
","""event"",""trial"",""time""
""focus"",""44"",""325401""
","""event"",""trial"",""time""
""fullscreenenter"",""1"",""2574""
","""event"",""trial"",""time""
""fullscreenexit"",""44"",""325384""
","","","","","","null","<div style=""font-size:60px;"">+</div>","null","","fixation","","",""
"memory-trial","137","480644","0.0-18.0-1.45","4148","approach_avoid_sv1","""event"",""trial"",""time""
""fullscreenenter"",""1"",""2574""
""blur"",""44"",""311269""
""fullscreenexit"",""44"",""325384""
""focus"",""44"",""325401""
","""event"",""trial"",""time""
""blur"",""44"",""311269""
","""event"",""trial"",""time""
""focus"",""44"",""325401""
","""event"",""trial"",""time""
""fullscreenenter"",""1"",""2574""
","""event"",""trial"",""time""
""fullscreenexit"",""44"",""325384""
","","","","","","2070","images/banana8.png","","","memory_trial","2","maybe_old",""
"html-keyboard-response","138","481147","0.0-18.0-0.46","4148","approach_avoid_sv1","""event"",""trial"",""time""
""fullscreenenter"",""1"",""2574""
""blur"",""44"",""311269""
""fullscreenexit"",""44"",""325384""
""focus"",""44"",""325401""
","""event"",""trial"",""time""
""blur"",""44"",""311269""
","""event"",""trial"",""time""
""focus"",""44"",""325401""
","""event"",""trial"",""time""
""fullscreenenter"",""1"",""2574""
","""event"",""trial"",""time""
""fullscreenexit"",""44"",""325384""
","","","","","","null","<div style=""font-size:60px;"">+</div>","null","","fixation","","",""
"memory-trial","139","483883","0.0-18.0-1.46","4148","approach_avoid_sv1","""event"",""trial"",""time""
""fullscreenenter"",""1"",""2574""
""blur"",""44"",""311269""
""fullscreenexit"",""44"",""325384""
""focus"",""44"",""325401""
","""event"",""trial"",""time""
""blur"",""44"",""311269""
","""event"",""trial"",""time""
""focus"",""44"",""325401""
","""event"",""trial"",""time""
""fullscreenenter"",""1"",""2574""
","""event"",""trial"",""time""
""fullscreenexit"",""44"",""325384""
","","","","","","1733","images/truck7.png","","","memory_trial","3","maybe_new",""
"html-keyboard-response","140","484386","0.0-18.0-0.47","4148","approach_avoid_sv1","""event"",""trial"",""time""
""fullscreenenter"",""1"",""2574""
""blur"",""44"",""311269""
""fullscreenexit"",""44"",""325384""
""focus"",""44"",""325401""
","""event"",""trial"",""time""
""blur"",""44"",""311269""
","""event"",""trial"",""time""
""focus"",""44"",""325401""
","""event"",""trial"",""time""
""fullscreenenter"",""1"",""2574""
","""event"",""trial"",""time""
""fullscreenexit"",""44"",""325384""
","","","","","","null","<div style=""font-size:60px;"">+</div>","null","","fixation","","",""
"memory-trial","141","486608","0.0-18.0-1.47","4148","approach_avoid_sv1","""event"",""trial"",""time""
""fullscreenenter"",""1"",""2574""
""blur"",""44"",""311269""
""fullscreenexit"",""44"",""325384""
""focus"",""44"",""325401""
","""event"",""trial"",""time""
""blur"",""44"",""311269""
","""event"",""trial"",""time""
""focus"",""44"",""325401""
","""event"",""trial"",""time""
""fullscreenenter"",""1"",""2574""
","""event"",""trial"",""time""
""fullscreenexit"",""44"",""325384""
","","","","","","1219","images/sofa6.png","","","memory_trial","1","definitely_old",""
"html-keyboard-response","142","487110","0.0-18.0-0.48","4148","approach_avoid_sv1","""event"",""trial"",""time""
""fullscreenenter"",""1"",""2574""
""blur"",""44"",""311269""
""fullscreenexit"",""44"",""325384""
""focus"",""44"",""325401""
","""event"",""trial"",""time""
""blur"",""44"",""311269""
","""event"",""trial"",""time""
""focus"",""44"",""325401""
","""event"",""trial"",""time""
""fullscreenenter"",""1"",""2574""
","""event"",""trial"",""time""
""fullscreenexit"",""44"",""325384""
","","","","","","null","<div style=""font-size:60px;"">+</div>","null","","fixation","","",""
"memory-trial","143","490965","0.0-18.0-1.48","4148","approach_avoid_sv1","""event"",""trial"",""time""
""fullscreenenter"",""1"",""2574""
""blur"",""44"",""311269""
""fullscreenexit"",""44"",""325384""
""focus"",""44"",""325401""
","""event"",""trial"",""time""
""blur"",""44"",""311269""
","""event"",""trial"",""time""
""focus"",""44"",""325401""
","""event"",""trial"",""time""
""fullscreenenter"",""1"",""2574""
","""event"",""trial"",""time""
""fullscreenexit"",""44"",""325384""
","","","","","","2853","images/rabbit5.png","","","memory_trial","4","definitely_new",""
"html-keyboard-response","144","491467","0.0-18.0-0.49","4148","approach_avoid_sv1","""event"",""trial"",""time""
""fullscreenenter"",""1"",""2574""
""blur"",""44"",""311269""
""fullscreenexit"",""44"",""325384""
""focus"",""44"",""325401""
","""event"",""trial"",""time""
""blur"",""44"",""311269""
","""event"",""trial"",""time""
""focus"",""44"",""325401""
","""event"",""trial"",""time""
""fullscreenenter"",""1"",""2574""
","""event"",""trial"",""time""
""fullscreenexit"",""44"",""325384""
","","","","","","null","<div style=""font-size:60px;"">+</div>","null","","fixation","","",""
"memory-trial","145","494093","0.0-18.0-1.49","4148","approach_avoid_sv1","""event"",""trial"",""time""
""fullscreenenter"",""1"",""2574""
""blur"",""44"",""311269""
""fullscreenexit"",""44"",""325384""
""focus"",""44"",""325401""
","""event"",""trial"",""time""
""blur"",""44"",""311269""
","""event"",""trial"",""time""
""focus"",""44"",""325401""
","""event"",""trial"",""time""
""fullscreenenter"",""1"",""2574""
","""event"",""trial"",""time""
""fullscreenexit"",""44"",""325384""
","","","","","","1622.0000000000582","images/train6.png","","","memory_trial","4","definitely_new",""
"html-keyboard-response","146","494595","0.0-18.0-0.50","4148","approach_avoid_sv1","""event"",""trial"",""time""
""fullscreenenter"",""1"",""2574""
""blur"",""44"",""311269""
""fullscreenexit"",""44"",""325384""
""focus"",""44"",""325401""
","""event"",""trial"",""time""
""blur"",""44"",""311269""
","""event"",""trial"",""time""
""focus"",""44"",""325401""
","""event"",""trial"",""time""
""fullscreenenter"",""1"",""2574""
","""event"",""trial"",""time""
""fullscreenexit"",""44"",""325384""
","","","","","","null","<div style=""font-size:60px;"">+</div>","null","","fixation","","",""
"memory-trial","147","497106","0.0-18.0-1.50","4148","approach_avoid_sv1","""event"",""trial"",""time""
""fullscreenenter"",""1"",""2574""
""blur"",""44"",""311269""
""fullscreenexit"",""44"",""325384""
""focus"",""44"",""325401""
","""event"",""trial"",""time""
""blur"",""44"",""311269""
","""event"",""trial"",""time""
""focus"",""44"",""325401""
","""event"",""trial"",""time""
""fullscreenenter"",""1"",""2574""
","""event"",""trial"",""time""
""fullscreenexit"",""44"",""325384""
","","","","","","1509","images/table1.png","","","memory_trial","4","definitely_new",""
"html-keyboard-response","148","497609","0.0-18.0-0.51","4148","approach_avoid_sv1","""event"",""trial"",""time""
""fullscreenenter"",""1"",""2574""
""blur"",""44"",""311269""
""fullscreenexit"",""44"",""325384""
""focus"",""44"",""325401""
","""event"",""trial"",""time""
""blur"",""44"",""311269""
","""event"",""trial"",""time""
""focus"",""44"",""325401""
","""event"",""trial"",""time""
""fullscreenenter"",""1"",""2574""
","""event"",""trial"",""time""
""fullscreenexit"",""44"",""325384""
","","","","","","null","<div style=""font-size:60px;"">+</div>","null","","fixation","","",""
"memory-trial","149","499884","0.0-18.0-1.51","4148","approach_avoid_sv1","""event"",""trial"",""time""
""fullscreenenter"",""1"",""2574""
""blur"",""44"",""311269""
""fullscreenexit"",""44"",""325384""
""focus"",""44"",""325401""
","""event"",""trial"",""time""
""blur"",""44"",""311269""
","""event"",""trial"",""time""
""focus"",""44"",""325401""
","""event"",""trial"",""time""
""fullscreenenter"",""1"",""2574""
","""event"",""trial"",""time""
""fullscreenexit"",""44"",""325384""
","","","","","","1272","images/table8.png","","","memory_trial","3","maybe_new",""
"html-keyboard-response","150","500386","0.0-18.0-0.52","4148","approach_avoid_sv1","""event"",""trial"",""time""
""fullscreenenter"",""1"",""2574""
""blur"",""44"",""311269""
""fullscreenexit"",""44"",""325384""
""focus"",""44"",""325401""
","""event"",""trial"",""time""
""blur"",""44"",""311269""
","""event"",""trial"",""time""
""focus"",""44"",""325401""
","""event"",""trial"",""time""
""fullscreenenter"",""1"",""2574""
","""event"",""trial"",""time""
""fullscreenexit"",""44"",""325384""
","","","","","","null","<div style=""font-size:60px;"">+</div>","null","","fixation","","",""
"memory-trial","151","502952","0.0-18.0-1.52","4148","approach_avoid_sv1","""event"",""trial"",""time""
""fullscreenenter"",""1"",""2574""
""blur"",""44"",""311269""
""fullscreenexit"",""44"",""325384""
""focus"",""44"",""325401""
","""event"",""trial"",""time""
""blur"",""44"",""311269""
","""event"",""trial"",""time""
""focus"",""44"",""325401""
","""event"",""trial"",""time""
""fullscreenenter"",""1"",""2574""
","""event"",""trial"",""time""
""fullscreenexit"",""44"",""325384""
","","","","","","1563","images/cactus5.png","","","memory_trial","2","maybe_old",""
"html-keyboard-response","152","503454","0.0-18.0-0.53","4148","approach_avoid_sv1","""event"",""trial"",""time""
""fullscreenenter"",""1"",""2574""
""blur"",""44"",""311269""
""fullscreenexit"",""44"",""325384""
""focus"",""44"",""325401""
""blur"",""153"",""503785""
","""event"",""trial"",""time""
""blur"",""44"",""311269""
""blur"",""153"",""503785""
","""event"",""trial"",""time""
""focus"",""44"",""325401""
","""event"",""trial"",""time""
""fullscreenenter"",""1"",""2574""
","""event"",""trial"",""time""
""fullscreenexit"",""44"",""325384""
","","","","","","null","<div style=""font-size:60px;"">+</div>","null","","fixation","","",""
"memory-trial","153","513457","0.0-18.0-1.53","4148","approach_avoid_sv1","""event"",""trial"",""time""
""fullscreenenter"",""1"",""2574""
""blur"",""44"",""311269""
""fullscreenexit"",""44"",""325384""
""focus"",""44"",""325401""
""blur"",""153"",""503785""
","""event"",""trial"",""time""
""blur"",""44"",""311269""
""blur"",""153"",""503785""
","""event"",""trial"",""time""
""focus"",""44"",""325401""
","""event"",""trial"",""time""
""fullscreenenter"",""1"",""2574""
","""event"",""trial"",""time""
""fullscreenexit"",""44"",""325384""
","","","","","","null","images/sheep8.png","","","memory_trial","null","null",""
"html-keyboard-response","154","513960","0.0-18.0-0.54","4148","approach_avoid_sv1","""event"",""trial"",""time""
""fullscreenenter"",""1"",""2574""
""blur"",""44"",""311269""
""fullscreenexit"",""44"",""325384""
""focus"",""44"",""325401""
""blur"",""153"",""503785""
""focus"",""155"",""521863""
","""event"",""trial"",""time""
""blur"",""44"",""311269""
""blur"",""153"",""503785""
","""event"",""trial"",""time""
""focus"",""44"",""325401""
""focus"",""155"",""521863""
","""event"",""trial"",""time""
""fullscreenenter"",""1"",""2574""
","""event"",""trial"",""time""
""fullscreenexit"",""44"",""325384""
","","","","","","null","<div style=""font-size:60px;"">+</div>","null","","fixation","","",""
"memory-trial","155","523758","0.0-18.0-1.54","4148","approach_avoid_sv1","""event"",""trial"",""time""
""fullscreenenter"",""1"",""2574""
""blur"",""44"",""311269""
""fullscreenexit"",""44"",""325384""
""focus"",""44"",""325401""
""blur"",""153"",""503785""
""focus"",""155"",""521863""
","""event"",""trial"",""time""
""blur"",""44"",""311269""
""blur"",""153"",""503785""
","""event"",""trial"",""time""
""focus"",""44"",""325401""
""focus"",""155"",""521863""
","""event"",""trial"",""time""
""fullscreenenter"",""1"",""2574""
","""event"",""trial"",""time""
""fullscreenexit"",""44"",""325384""
","","","","","","8795.000000000116","images/plane6.png","","","memory_trial","2","maybe_old",""
"html-keyboard-response","156","524260","0.0-18.0-0.55","4148","approach_avoid_sv1","""event"",""trial"",""time""
""fullscreenenter"",""1"",""2574""
""blur"",""44"",""311269""
""fullscreenexit"",""44"",""325384""
""focus"",""44"",""325401""
""blur"",""153"",""503785""
""focus"",""155"",""521863""
","""event"",""trial"",""time""
""blur"",""44"",""311269""
""blur"",""153"",""503785""
","""event"",""trial"",""time""
""focus"",""44"",""325401""
""focus"",""155"",""521863""
","""event"",""trial"",""time""
""fullscreenenter"",""1"",""2574""
","""event"",""trial"",""time""
""fullscreenexit"",""44"",""325384""
","","","","","","null","<div style=""font-size:60px;"">+</div>","null","","fixation","","",""
"memory-trial","157","530511","0.0-18.0-1.55","4148","approach_avoid_sv1","""event"",""trial"",""time""
""fullscreenenter"",""1"",""2574""
""blur"",""44"",""311269""
""fullscreenexit"",""44"",""325384""
""focus"",""44"",""325401""
""blur"",""153"",""503785""
""focus"",""155"",""521863""
","""event"",""trial"",""time""
""blur"",""44"",""311269""
""blur"",""153"",""503785""
","""event"",""trial"",""time""
""focus"",""44"",""325401""
""focus"",""155"",""521863""
","""event"",""trial"",""time""
""fullscreenenter"",""1"",""2574""
","""event"",""trial"",""time""
""fullscreenexit"",""44"",""325384""
","","","","","","5247","images/train4.png","","","memory_trial","3","maybe_new",""
"html-keyboard-response","158","531013","0.0-18.0-0.56","4148","approach_avoid_sv1","""event"",""trial"",""time""
""fullscreenenter"",""1"",""2574""
""blur"",""44"",""311269""
""fullscreenexit"",""44"",""325384""
""focus"",""44"",""325401""
""blur"",""153"",""503785""
""focus"",""155"",""521863""
","""event"",""trial"",""time""
""blur"",""44"",""311269""
""blur"",""153"",""503785""
","""event"",""trial"",""time""
""focus"",""44"",""325401""
""focus"",""155"",""521863""
","""event"",""trial"",""time""
""fullscreenenter"",""1"",""2574""
","""event"",""trial"",""time""
""fullscreenexit"",""44"",""325384""
","","","","","","null","<div style=""font-size:60px;"">+</div>","null","","fixation","","",""
"memory-trial","159","534658","0.0-18.0-1.56","4148","approach_avoid_sv1","""event"",""trial"",""time""
""fullscreenenter"",""1"",""2574""
""blur"",""44"",""311269""
""fullscreenexit"",""44"",""325384""
""focus"",""44"",""325401""
""blur"",""153"",""503785""
""focus"",""155"",""521863""
","""event"",""trial"",""time""
""blur"",""44"",""311269""
""blur"",""153"",""503785""
","""event"",""trial"",""time""
""focus"",""44"",""325401""
""focus"",""155"",""521863""
","""event"",""trial"",""time""
""fullscreenenter"",""1"",""2574""
","""event"",""trial"",""time""
""fullscreenexit"",""44"",""325384""
","","","","","","2642","images/horse8.png","","","memory_trial","1","definitely_old",""
"html-keyboard-response","160","535160","0.0-18.0-0.57","4148","approach_avoid_sv1","""event"",""trial"",""time""
""fullscreenenter"",""1"",""2574""
""blur"",""44"",""311269""
""fullscreenexit"",""44"",""325384""
""focus"",""44"",""325401""
""blur"",""153"",""503785""
""focus"",""155"",""521863""
","""event"",""trial"",""time""
""blur"",""44"",""311269""
""blur"",""153"",""503785""
","""event"",""trial"",""time""
""focus"",""44"",""325401""
""focus"",""155"",""521863""
","""event"",""trial"",""time""
""fullscreenenter"",""1"",""2574""
","""event"",""trial"",""time""
""fullscreenexit"",""44"",""325384""
","","","","","","null","<div style=""font-size:60px;"">+</div>","null","","fixation","","",""
"memory-trial","161","538451","0.0-18.0-1.57","4148","approach_avoid_sv1","""event"",""trial"",""time""
""fullscreenenter"",""1"",""2574""
""blur"",""44"",""311269""
""fullscreenexit"",""44"",""325384""
""focus"",""44"",""325401""
""blur"",""153"",""503785""
""focus"",""155"",""521863""
","""event"",""trial"",""time""
""blur"",""44"",""311269""
""blur"",""153"",""503785""
","""event"",""trial"",""time""
""focus"",""44"",""325401""
""focus"",""155"",""521863""
","""event"",""trial"",""time""
""fullscreenenter"",""1"",""2574""
","""event"",""trial"",""time""
""fullscreenexit"",""44"",""325384""
","","","","","","2287","images/goat8.png","","","memory_trial","3","maybe_new",""
"html-keyboard-response","162","538953","0.0-18.0-0.58","4148","approach_avoid_sv1","""event"",""trial"",""time""
""fullscreenenter"",""1"",""2574""
""blur"",""44"",""311269""
""fullscreenexit"",""44"",""325384""
""focus"",""44"",""325401""
""blur"",""153"",""503785""
""focus"",""155"",""521863""
","""event"",""trial"",""time""
""blur"",""44"",""311269""
""blur"",""153"",""503785""
","""event"",""trial"",""time""
""focus"",""44"",""325401""
""focus"",""155"",""521863""
","""event"",""trial"",""time""
""fullscreenenter"",""1"",""2574""
","""event"",""trial"",""time""
""fullscreenexit"",""44"",""325384""
","","","","","","null","<div style=""font-size:60px;"">+</div>","null","","fixation","","",""
"memory-trial","163","541180","0.0-18.0-1.58","4148","approach_avoid_sv1","""event"",""trial"",""time""
""fullscreenenter"",""1"",""2574""
""blur"",""44"",""311269""
""fullscreenexit"",""44"",""325384""
""focus"",""44"",""325401""
""blur"",""153"",""503785""
""focus"",""155"",""521863""
","""event"",""trial"",""time""
""blur"",""44"",""311269""
""blur"",""153"",""503785""
","""event"",""trial"",""time""
""focus"",""44"",""325401""
""focus"",""155"",""521863""
","""event"",""trial"",""time""
""fullscreenenter"",""1"",""2574""
","""event"",""trial"",""time""
""fullscreenexit"",""44"",""325384""
","","","","","","1223","images/orange4.png","","","memory_trial","3","maybe_new",""
"html-keyboard-response","164","541683","0.0-18.0-0.59","4148","approach_avoid_sv1","""event"",""trial"",""time""
""fullscreenenter"",""1"",""2574""
""blur"",""44"",""311269""
""fullscreenexit"",""44"",""325384""
""focus"",""44"",""325401""
""blur"",""153"",""503785""
""focus"",""155"",""521863""
","""event"",""trial"",""time""
""blur"",""44"",""311269""
""blur"",""153"",""503785""
","""event"",""trial"",""time""
""focus"",""44"",""325401""
""focus"",""155"",""521863""
","""event"",""trial"",""time""
""fullscreenenter"",""1"",""2574""
","""event"",""trial"",""time""
""fullscreenexit"",""44"",""325384""
","","","","","","null","<div style=""font-size:60px;"">+</div>","null","","fixation","","",""
"memory-trial","165","544147","0.0-18.0-1.59","4148","approach_avoid_sv1","""event"",""trial"",""time""
""fullscreenenter"",""1"",""2574""
""blur"",""44"",""311269""
""fullscreenexit"",""44"",""325384""
""focus"",""44"",""325401""
""blur"",""153"",""503785""
""focus"",""155"",""521863""
","""event"",""trial"",""time""
""blur"",""44"",""311269""
""blur"",""153"",""503785""
","""event"",""trial"",""time""
""focus"",""44"",""325401""
""focus"",""155"",""521863""
","""event"",""trial"",""time""
""fullscreenenter"",""1"",""2574""
","""event"",""trial"",""time""
""fullscreenexit"",""44"",""325384""
","","","","","","1461","images/cat6.png","","","memory_trial","1","definitely_old",""
"html-keyboard-response","166","544649","0.0-18.0-0.60","4148","approach_avoid_sv1","""event"",""trial"",""time""
""fullscreenenter"",""1"",""2574""
""blur"",""44"",""311269""
""fullscreenexit"",""44"",""325384""
""focus"",""44"",""325401""
""blur"",""153"",""503785""
""focus"",""155"",""521863""
","""event"",""trial"",""time""
""blur"",""44"",""311269""
""blur"",""153"",""503785""
","""event"",""trial"",""time""
""focus"",""44"",""325401""
""focus"",""155"",""521863""
","""event"",""trial"",""time""
""fullscreenenter"",""1"",""2574""
","""event"",""trial"",""time""
""fullscreenexit"",""44"",""325384""
","","","","","","null","<div style=""font-size:60px;"">+</div>","null","","fixation","","",""
"memory-trial","167","547117","0.0-18.0-1.60","4148","approach_avoid_sv1","""event"",""trial"",""time""
""fullscreenenter"",""1"",""2574""
""blur"",""44"",""311269""
""fullscreenexit"",""44"",""325384""
""focus"",""44"",""325401""
""blur"",""153"",""503785""
""focus"",""155"",""521863""
","""event"",""trial"",""time""
""blur"",""44"",""311269""
""blur"",""153"",""503785""
","""event"",""trial"",""time""
""focus"",""44"",""325401""
""focus"",""155"",""521863""
","""event"",""trial"",""time""
""fullscreenenter"",""1"",""2574""
","""event"",""trial"",""time""
""fullscreenexit"",""44"",""325384""
","","","","","","1464","images/table6.png","","","memory_trial","3","maybe_new",""
"html-keyboard-response","168","547619","0.0-18.0-0.61","4148","approach_avoid_sv1","""event"",""trial"",""time""
""fullscreenenter"",""1"",""2574""
""blur"",""44"",""311269""
""fullscreenexit"",""44"",""325384""
""focus"",""44"",""325401""
""blur"",""153"",""503785""
""focus"",""155"",""521863""
","""event"",""trial"",""time""
""blur"",""44"",""311269""
""blur"",""153"",""503785""
","""event"",""trial"",""time""
""focus"",""44"",""325401""
""focus"",""155"",""521863""
","""event"",""trial"",""time""
""fullscreenenter"",""1"",""2574""
","""event"",""trial"",""time""
""fullscreenexit"",""44"",""325384""
","","","","","","null","<div style=""font-size:60px;"">+</div>","null","","fixation","","",""
"memory-trial","169","549976","0.0-18.0-1.61","4148","approach_avoid_sv1","""event"",""trial"",""time""
""fullscreenenter"",""1"",""2574""
""blur"",""44"",""311269""
""fullscreenexit"",""44"",""325384""
""focus"",""44"",""325401""
""blur"",""153"",""503785""
""focus"",""155"",""521863""
","""event"",""trial"",""time""
""blur"",""44"",""311269""
""blur"",""153"",""503785""
","""event"",""trial"",""time""
""focus"",""44"",""325401""
""focus"",""155"",""521863""
","""event"",""trial"",""time""
""fullscreenenter"",""1"",""2574""
","""event"",""trial"",""time""
""fullscreenexit"",""44"",""325384""
","","","","","","1355","images/straw6.png","","","memory_trial","3","maybe_new",""
"html-keyboard-response","170","550479","0.0-18.0-0.62","4148","approach_avoid_sv1","""event"",""trial"",""time""
""fullscreenenter"",""1"",""2574""
""blur"",""44"",""311269""
""fullscreenexit"",""44"",""325384""
""focus"",""44"",""325401""
""blur"",""153"",""503785""
""focus"",""155"",""521863""
","""event"",""trial"",""time""
""blur"",""44"",""311269""
""blur"",""153"",""503785""
","""event"",""trial"",""time""
""focus"",""44"",""325401""
""focus"",""155"",""521863""
","""event"",""trial"",""time""
""fullscreenenter"",""1"",""2574""
","""event"",""trial"",""time""
""fullscreenexit"",""44"",""325384""
","","","","","","null","<div style=""font-size:60px;"">+</div>","null","","fixation","","",""
"memory-trial","171","552735","0.0-18.0-1.62","4148","approach_avoid_sv1","""event"",""trial"",""time""
""fullscreenenter"",""1"",""2574""
""blur"",""44"",""311269""
""fullscreenexit"",""44"",""325384""
""focus"",""44"",""325401""
""blur"",""153"",""503785""
""focus"",""155"",""521863""
","""event"",""trial"",""time""
""blur"",""44"",""311269""
""blur"",""153"",""503785""
","""event"",""trial"",""time""
""focus"",""44"",""325401""
""focus"",""155"",""521863""
","""event"",""trial"",""time""
""fullscreenenter"",""1"",""2574""
","""event"",""trial"",""time""
""fullscreenexit"",""44"",""325384""
","","","","","","1253","images/horse2.png","","","memory_trial","1","definitely_old",""
"html-keyboard-response","172","553237","0.0-18.0-0.63","4148","approach_avoid_sv1","""event"",""trial"",""time""
""fullscreenenter"",""1"",""2574""
""blur"",""44"",""311269""
""fullscreenexit"",""44"",""325384""
""focus"",""44"",""325401""
""blur"",""153"",""503785""
""focus"",""155"",""521863""
","""event"",""trial"",""time""
""blur"",""44"",""311269""
""blur"",""153"",""503785""
","""event"",""trial"",""time""
""focus"",""44"",""325401""
""focus"",""155"",""521863""
","""event"",""trial"",""time""
""fullscreenenter"",""1"",""2574""
","""event"",""trial"",""time""
""fullscreenexit"",""44"",""325384""
","","","","","","null","<div style=""font-size:60px;"">+</div>","null","","fixation","","",""
"memory-trial","173","555838","0.0-18.0-1.63","4148","approach_avoid_sv1","""event"",""trial"",""time""
""fullscreenenter"",""1"",""2574""
""blur"",""44"",""311269""
""fullscreenexit"",""44"",""325384""
""focus"",""44"",""325401""
""blur"",""153"",""503785""
""focus"",""155"",""521863""
","""event"",""trial"",""time""
""blur"",""44"",""311269""
""blur"",""153"",""503785""
","""event"",""trial"",""time""
""focus"",""44"",""325401""
""focus"",""155"",""521863""
","""event"",""trial"",""time""
""fullscreenenter"",""1"",""2574""
","""event"",""trial"",""time""
""fullscreenexit"",""44"",""325384""
","","","","","","1599","images/flower8.png","","","memory_trial","3","maybe_new",""
"html-keyboard-response","174","556340","0.0-18.0-0.64","4148","approach_avoid_sv1","""event"",""trial"",""time""
""fullscreenenter"",""1"",""2574""
""blur"",""44"",""311269""
""fullscreenexit"",""44"",""325384""
""focus"",""44"",""325401""
""blur"",""153"",""503785""
""focus"",""155"",""521863""
","""event"",""trial"",""time""
""blur"",""44"",""311269""
""blur"",""153"",""503785""
","""event"",""trial"",""time""
""focus"",""44"",""325401""
""focus"",""155"",""521863""
","""event"",""trial"",""time""
""fullscreenenter"",""1"",""2574""
","""event"",""trial"",""time""
""fullscreenexit"",""44"",""325384""
","","","","","","null","<div style=""font-size:60px;"">+</div>","null","","fixation","","",""
"memory-trial","175","558832","0.0-18.0-1.64","4148","approach_avoid_sv1","""event"",""trial"",""time""
""fullscreenenter"",""1"",""2574""
""blur"",""44"",""311269""
""fullscreenexit"",""44"",""325384""
""focus"",""44"",""325401""
""blur"",""153"",""503785""
""focus"",""155"",""521863""
","""event"",""trial"",""time""
""blur"",""44"",""311269""
""blur"",""153"",""503785""
","""event"",""trial"",""time""
""focus"",""44"",""325401""
""focus"",""155"",""521863""
","""event"",""trial"",""time""
""fullscreenenter"",""1"",""2574""
","""event"",""trial"",""time""
""fullscreenexit"",""44"",""325384""
","","","","","","1488","images/plane1.png","","","memory_trial","4","definitely_new",""
"html-keyboard-response","176","559334","0.0-18.0-0.65","4148","approach_avoid_sv1","""event"",""trial"",""time""
""fullscreenenter"",""1"",""2574""
""blur"",""44"",""311269""
""fullscreenexit"",""44"",""325384""
""focus"",""44"",""325401""
""blur"",""153"",""503785""
""focus"",""155"",""521863""
","""event"",""trial"",""time""
""blur"",""44"",""311269""
""blur"",""153"",""503785""
","""event"",""trial"",""time""
""focus"",""44"",""325401""
""focus"",""155"",""521863""
","""event"",""trial"",""time""
""fullscreenenter"",""1"",""2574""
","""event"",""trial"",""time""
""fullscreenexit"",""44"",""325384""
","","","","","","null","<div style=""font-size:60px;"">+</div>","null","","fixation","","",""
"memory-trial","177","561426","0.0-18.0-1.65","4148","approach_avoid_sv1","""event"",""trial"",""time""
""fullscreenenter"",""1"",""2574""
""blur"",""44"",""311269""
""fullscreenexit"",""44"",""325384""
""focus"",""44"",""325401""
""blur"",""153"",""503785""
""focus"",""155"",""521863""
","""event"",""trial"",""time""
""blur"",""44"",""311269""
""blur"",""153"",""503785""
","""event"",""trial"",""time""
""focus"",""44"",""325401""
""focus"",""155"",""521863""
","""event"",""trial"",""time""
""fullscreenenter"",""1"",""2574""
","""event"",""trial"",""time""
""fullscreenexit"",""44"",""325384""
","","","","","","1088","images/bed6.png","","","memory_trial","4","definitely_new",""
