"trial_type","trial_index","time_elapsed","internal_node_id","subject_id","task_version","interactions","blur_events","focus_events","fullscreenenter_events","fullscreenexit_events","success","timeout","failed_images","failed_audio","failed_video","rt","stimulus","response","button_pressed","task_part","key_press","answer","correct"
"pavlovia","0","5","0.0-0.0","5669","approach_avoid_sv1","""event"",""trial"",""time""
""blur"",""1"",""379910""
""focus"",""1"",""394531""
""fullscreenenter"",""1"",""395836""
","""event"",""trial"",""time""
""blur"",""1"",""379910""
","""event"",""trial"",""time""
""focus"",""1"",""394531""
","""event"",""trial"",""time""
""fullscreenenter"",""1"",""395836""
","
","","","","","","","","","","","","",""
"fullscreen","1","396795","0.0-1.0","5669","approach_avoid_sv1","""event"",""trial"",""time""
""blur"",""1"",""379910""
""focus"",""1"",""394531""
""fullscreenenter"",""1"",""395836""
","""event"",""trial"",""time""
""blur"",""1"",""379910""
","""event"",""trial"",""time""
""focus"",""1"",""394531""
","""event"",""trial"",""time""
""fullscreenenter"",""1"",""395836""
","
","true","","","","","","","","","","","",""
"preload","2","400252","0.0-2.0","5669","approach_avoid_sv1","""event"",""trial"",""time""
""blur"",""1"",""379910""
""focus"",""1"",""394531""
""fullscreenenter"",""1"",""395836""
","""event"",""trial"",""time""
""blur"",""1"",""379910""
","""event"",""trial"",""time""
""focus"",""1"",""394531""
","""event"",""trial"",""time""
""fullscreenenter"",""1"",""395836""
","
","true","false","[]","[]","[]","","","","","","","",""
"preload","3","401797","0.0-3.0","5669","approach_avoid_sv1","""event"",""trial"",""time""
""blur"",""1"",""379910""
""focus"",""1"",""394531""
""fullscreenenter"",""1"",""395836""
","""event"",""trial"",""time""
""blur"",""1"",""379910""
","""event"",""trial"",""time""
""focus"",""1"",""394531""
","""event"",""trial"",""time""
""fullscreenenter"",""1"",""395836""
","
","true","false","[]","[]","[]","","","","","","","",""
"preload","4","402101","0.0-4.0","5669","approach_avoid_sv1","""event"",""trial"",""time""
""blur"",""1"",""379910""
""focus"",""1"",""394531""
""fullscreenenter"",""1"",""395836""
","""event"",""trial"",""time""
""blur"",""1"",""379910""
","""event"",""trial"",""time""
""focus"",""1"",""394531""
","""event"",""trial"",""time""
""fullscreenenter"",""1"",""395836""
","
","true","false","[]","[]","[]","","","","","","","",""
"audio-keyboard-response","5","404715","0.0-5.0","5669","approach_avoid_sv1","""event"",""trial"",""time""
""blur"",""1"",""379910""
""focus"",""1"",""394531""
""fullscreenenter"",""1"",""395836""
","""event"",""trial"",""time""
""blur"",""1"",""379910""
","""event"",""trial"",""time""
""focus"",""1"",""394531""
","""event"",""trial"",""time""
""fullscreenenter"",""1"",""395836""
","
","","","","","","2610.666666666667","audio/beep_loop.wav"," ","","","","",""
"audio-button-response","6","408221","0.0-6.0","5669","approach_avoid_sv1","""event"",""trial"",""time""
""blur"",""1"",""379910""
""focus"",""1"",""394531""
""fullscreenenter"",""1"",""395836""
","""event"",""trial"",""time""
""blur"",""1"",""379910""
","""event"",""trial"",""time""
""focus"",""1"",""394531""
","""event"",""trial"",""time""
""fullscreenenter"",""1"",""395836""
","
","","","","","","3509","audio/turtle.wav","3","","","","",""
"audio-button-response","7","411044","0.0-7.0","5669","approach_avoid_sv1","""event"",""trial"",""time""
""blur"",""1"",""379910""
""focus"",""1"",""394531""
""fullscreenenter"",""1"",""395836""
","""event"",""trial"",""time""
""blur"",""1"",""379910""
","""event"",""trial"",""time""
""focus"",""1"",""394531""
","""event"",""trial"",""time""
""fullscreenenter"",""1"",""395836""
","
","","","","","","1800","audio/shark.wav","2","","","","",""
"preload","8","416119","0.0-8.0","5669","approach_avoid_sv1","""event"",""trial"",""time""
""blur"",""1"",""379910""
""focus"",""1"",""394531""
""fullscreenenter"",""1"",""395836""
","""event"",""trial"",""time""
""blur"",""1"",""379910""
","""event"",""trial"",""time""
""focus"",""1"",""394531""
","""event"",""trial"",""time""
""fullscreenenter"",""1"",""395836""
","
","true","false","[]","[]","[]","","","","","","","",""
"learning-instructions","9","425594","0.0-9.0-0.0","5669","approach_avoid_sv1","""event"",""trial"",""time""
""blur"",""1"",""379910""
""focus"",""1"",""394531""
""fullscreenenter"",""1"",""395836""
","""event"",""trial"",""time""
""blur"",""1"",""379910""
","""event"",""trial"",""time""
""focus"",""1"",""394531""
","""event"",""trial"",""time""
""fullscreenenter"",""1"",""395836""
","
","","","","","","4995.399999976158","<p> Welcome back! </p><p> Last week, you had to make choices about lots of different items.  </p>","","0","instructions","","",""
"learning-instructions","10","431133","0.0-9.0-0.1","5669","approach_avoid_sv1","""event"",""trial"",""time""
""blur"",""1"",""379910""
""focus"",""1"",""394531""
""fullscreenenter"",""1"",""395836""
","""event"",""trial"",""time""
""blur"",""1"",""379910""
","""event"",""trial"",""time""
""focus"",""1"",""394531""
","""event"",""trial"",""time""
""fullscreenenter"",""1"",""395836""
","
","","","","","","1424.8999999761581","<p> Today, we are going to ask you to try to remember all the items. </p>","","0","instructions","","",""
"learning-instructions","11","443013","0.0-9.0-0.2","5669","approach_avoid_sv1","""event"",""trial"",""time""
""blur"",""1"",""379910""
""focus"",""1"",""394531""
""fullscreenenter"",""1"",""395836""
","""event"",""trial"",""time""
""blur"",""1"",""379910""
","""event"",""trial"",""time""
""focus"",""1"",""394531""
","""event"",""trial"",""time""
""fullscreenenter"",""1"",""395836""
","
","","","","","","1744.3999999761581","<p> On every trial, you will see an image. </p><p> The image may be an OLD image you saw during the games last week or it may be a NEW image that was not presented. </p>","","0","instructions","","",""
"learning-instructions","12","452186","0.0-9.0-0.3","5669","approach_avoid_sv1","""event"",""trial"",""time""
""blur"",""1"",""379910""
""focus"",""1"",""394531""
""fullscreenenter"",""1"",""395836""
","""event"",""trial"",""time""
""blur"",""1"",""379910""
","""event"",""trial"",""time""
""focus"",""1"",""394531""
","""event"",""trial"",""time""
""fullscreenenter"",""1"",""395836""
","
","","","","","","677.4000000953674","<p> You need to select whether the image is:  </p><p>  'Definitely old', 'Maybe old', 'Maybe new', or 'Definitely new.'  </p><div class=""mem-choice-instructions-grid""><div class=""choice-option"" id=""choice-option-1"" ><img src=""images/definitely_old_1.png"" id=""choice-option-img-1"" class=""choice-option-img"" stage=""1""></div><div class=""choice-option"" id=""choice-option-2"" ><img src=""images/maybe_old_1.png"" id=""choice-option-img-2"" class=""choice-option-img"" stage=""1""></div><div class=""choice-option"" id=""choice-option-3"" ><img src=""images/maybe_new_1.png"" id=""choice-option-img-3"" class=""choice-option-img"" stage=""1""></div><div class=""choice-option"" id=""choice-option-4"" > <img src=""images/definitely_new_1.png"" id=""choice-option-img-4"" class=""choice-option-img"" stage=""1""></div></div>","","0","instructions","","",""
"learning-instructions","13","481821","0.0-9.0-0.4","5669","approach_avoid_sv1","""event"",""trial"",""time""
""blur"",""1"",""379910""
""focus"",""1"",""394531""
""fullscreenenter"",""1"",""395836""
","""event"",""trial"",""time""
""blur"",""1"",""379910""
","""event"",""trial"",""time""
""focus"",""1"",""394531""
","""event"",""trial"",""time""
""fullscreenenter"",""1"",""395836""
","
","","","","","","23100.400000095367","<p> You should use the 1, 2, 3, and 4 keys to make your responses.  </p><div class=""mem-choice-instructions-grid""><div class=""choice-option"" id=""choice-option-1"" ><img src=""images/definitely_old.png"" id=""choice-option-img-1"" class=""choice-option-img"" stage=""1""></div><div class=""choice-option"" id=""choice-option-2"" ><img src=""images/maybe_old.png"" id=""choice-option-img-2"" class=""choice-option-img"" stage=""1""></div><div class=""choice-option"" id=""choice-option-3"" ><img src=""images/maybe_new.png"" id=""choice-option-img-3"" class=""choice-option-img"" stage=""1""></div><div class=""choice-option"" id=""choice-option-4"" > <img src=""images/definitely_new.png"" id=""choice-option-img-4"" class=""choice-option-img"" stage=""1""></div></div>","","0","instructions","","",""
"learning-instructions","14","488726","0.0-9.0-0.5","5669","approach_avoid_sv1","""event"",""trial"",""time""
""blur"",""1"",""379910""
""focus"",""1"",""394531""
""fullscreenenter"",""1"",""395836""
","""event"",""trial"",""time""
""blur"",""1"",""379910""
","""event"",""trial"",""time""
""focus"",""1"",""394531""
","""event"",""trial"",""time""
""fullscreenenter"",""1"",""395836""
","
","","","","","","566.8999999761581","<p> You will have 10 seconds to make each response.  </p><p>  Make sure to respond before time runs out! </p>","","0","instructions","","",""
"learning-instructions","15","496339","0.0-9.0-0.6","5669","approach_avoid_sv1","""event"",""trial"",""time""
""blur"",""1"",""379910""
""focus"",""1"",""394531""
""fullscreenenter"",""1"",""395836""
","""event"",""trial"",""time""
""blur"",""1"",""379910""
","""event"",""trial"",""time""
""focus"",""1"",""394531""
","""event"",""trial"",""time""
""fullscreenenter"",""1"",""395836""
","
","","","","","","530.2000000476837","<p> Today, you will see each image ONCE only.  </p><p>  That means none of the images will repeat. </p>","","0","instructions","","",""
"learning-instructions","16","510130","0.0-9.0-0.7","5669","approach_avoid_sv1","""event"",""trial"",""time""
""blur"",""1"",""379910""
""focus"",""1"",""394531""
""fullscreenenter"",""1"",""395836""
","""event"",""trial"",""time""
""blur"",""1"",""379910""
","""event"",""trial"",""time""
""focus"",""1"",""394531""
","""event"",""trial"",""time""
""fullscreenenter"",""1"",""395836""
","
","","","","","","1122.5","<p> Before you play the real game, it is time to practice. </p><p>  Just like in the real game, some of the images in the practice will be ones you have seen before. </p><p>  Others will be entirely new. </p>","","0","instructions","","",""
"html-button-response","17","512139","0.0-10.0","5669","approach_avoid_sv1","""event"",""trial"",""time""
""blur"",""1"",""379910""
""focus"",""1"",""394531""
""fullscreenenter"",""1"",""395836""
","""event"",""trial"",""time""
""blur"",""1"",""379910""
","""event"",""trial"",""time""
""focus"",""1"",""394531""
","""event"",""trial"",""time""
""fullscreenenter"",""1"",""395836""
","
","","","","","","1885","<p> Ready to practice? </p><p> Remember, use the 1, 2, 3, and 4 keys to make your responses. </p>","0","","instructions","","",""
"html-keyboard-response","18","512753","0.0-11.0-0.0","5669","approach_avoid_sv1","""event"",""trial"",""time""
""blur"",""1"",""379910""
""focus"",""1"",""394531""
""fullscreenenter"",""1"",""395836""
","""event"",""trial"",""time""
""blur"",""1"",""379910""
","""event"",""trial"",""time""
""focus"",""1"",""394531""
","""event"",""trial"",""time""
""fullscreenenter"",""1"",""395836""
","
","","","","","","null","<div style=""font-size:60px;"">+</div>","null","","fixation","","",""
"memory-trial","19","516255","0.0-11.0-1.0","5669","approach_avoid_sv1","""event"",""trial"",""time""
""blur"",""1"",""379910""
""focus"",""1"",""394531""
""fullscreenenter"",""1"",""395836""
","""event"",""trial"",""time""
""blur"",""1"",""379910""
","""event"",""trial"",""time""
""focus"",""1"",""394531""
","""event"",""trial"",""time""
""fullscreenenter"",""1"",""395836""
","
","","","","","","2486.2999999523163","images/racket3.png","","","practice","2","maybe_old",""
"html-keyboard-response","20","516766","0.0-11.0-0.1","5669","approach_avoid_sv1","""event"",""trial"",""time""
""blur"",""1"",""379910""
""focus"",""1"",""394531""
""fullscreenenter"",""1"",""395836""
","""event"",""trial"",""time""
""blur"",""1"",""379910""
","""event"",""trial"",""time""
""focus"",""1"",""394531""
","""event"",""trial"",""time""
""fullscreenenter"",""1"",""395836""
","
","","","","","","null","<div style=""font-size:60px;"">+</div>","null","","fixation","","",""
"memory-trial","21","519088","0.0-11.0-1.1","5669","approach_avoid_sv1","""event"",""trial"",""time""
""blur"",""1"",""379910""
""focus"",""1"",""394531""
""fullscreenenter"",""1"",""395836""
","""event"",""trial"",""time""
""blur"",""1"",""379910""
","""event"",""trial"",""time""
""focus"",""1"",""394531""
","""event"",""trial"",""time""
""fullscreenenter"",""1"",""395836""
","
","","","","","","1312.5","images/ball1.png","","","practice","4","definitely_new",""
"html-keyboard-response","22","519599","0.0-11.0-0.2","5669","approach_avoid_sv1","""event"",""trial"",""time""
""blur"",""1"",""379910""
""focus"",""1"",""394531""
""fullscreenenter"",""1"",""395836""
","""event"",""trial"",""time""
""blur"",""1"",""379910""
","""event"",""trial"",""time""
""focus"",""1"",""394531""
","""event"",""trial"",""time""
""fullscreenenter"",""1"",""395836""
","
","","","","","","null","<div style=""font-size:60px;"">+</div>","null","","fixation","","",""
"memory-trial","23","521472","0.0-11.0-1.2","5669","approach_avoid_sv1","""event"",""trial"",""time""
""blur"",""1"",""379910""
""focus"",""1"",""394531""
""fullscreenenter"",""1"",""395836""
","""event"",""trial"",""time""
""blur"",""1"",""379910""
","""event"",""trial"",""time""
""focus"",""1"",""394531""
","""event"",""trial"",""time""
""fullscreenenter"",""1"",""395836""
","
","","","","","","860.8999999761581","images/racket1.png","","","practice","1","definitely_old",""
"html-keyboard-response","24","521983","0.0-11.0-0.3","5669","approach_avoid_sv1","""event"",""trial"",""time""
""blur"",""1"",""379910""
""focus"",""1"",""394531""
""fullscreenenter"",""1"",""395836""
","""event"",""trial"",""time""
""blur"",""1"",""379910""
","""event"",""trial"",""time""
""focus"",""1"",""394531""
","""event"",""trial"",""time""
""fullscreenenter"",""1"",""395836""
","
","","","","","","null","<div style=""font-size:60px;"">+</div>","null","","fixation","","",""
"memory-trial","25","524640","0.0-11.0-1.3","5669","approach_avoid_sv1","""event"",""trial"",""time""
""blur"",""1"",""379910""
""focus"",""1"",""394531""
""fullscreenenter"",""1"",""395836""
","""event"",""trial"",""time""
""blur"",""1"",""379910""
","""event"",""trial"",""time""
""focus"",""1"",""394531""
","""event"",""trial"",""time""
""fullscreenenter"",""1"",""395836""
","
","","","","","","1641.3999999761581","images/ball5.png","","","practice","4","definitely_new",""
"html-keyboard-response","26","525154","0.0-11.0-0.4","5669","approach_avoid_sv1","""event"",""trial"",""time""
""blur"",""1"",""379910""
""focus"",""1"",""394531""
""fullscreenenter"",""1"",""395836""
","""event"",""trial"",""time""
""blur"",""1"",""379910""
","""event"",""trial"",""time""
""focus"",""1"",""394531""
","""event"",""trial"",""time""
""fullscreenenter"",""1"",""395836""
","
","","","","","","null","<div style=""font-size:60px;"">+</div>","null","","fixation","","",""
"memory-trial","27","528498","0.0-11.0-1.4","5669","approach_avoid_sv1","""event"",""trial"",""time""
""blur"",""1"",""379910""
""focus"",""1"",""394531""
""fullscreenenter"",""1"",""395836""
","""event"",""trial"",""time""
""blur"",""1"",""379910""
","""event"",""trial"",""time""
""focus"",""1"",""394531""
","""event"",""trial"",""time""
""fullscreenenter"",""1"",""395836""
","
","","","","","","2329.5","images/racket2.png","","","practice","3","maybe_new",""
"html-keyboard-response","28","529008","0.0-11.0-0.5","5669","approach_avoid_sv1","""event"",""trial"",""time""
""blur"",""1"",""379910""
""focus"",""1"",""394531""
""fullscreenenter"",""1"",""395836""
","""event"",""trial"",""time""
""blur"",""1"",""379910""
","""event"",""trial"",""time""
""focus"",""1"",""394531""
","""event"",""trial"",""time""
""fullscreenenter"",""1"",""395836""
","
","","","","","","null","<div style=""font-size:60px;"">+</div>","null","","fixation","","",""
"memory-trial","29","532122","0.0-11.0-1.5","5669","approach_avoid_sv1","""event"",""trial"",""time""
""blur"",""1"",""379910""
""focus"",""1"",""394531""
""fullscreenenter"",""1"",""395836""
","""event"",""trial"",""time""
""blur"",""1"",""379910""
","""event"",""trial"",""time""
""focus"",""1"",""394531""
","""event"",""trial"",""time""
""fullscreenenter"",""1"",""395836""
","
","","","","","","2093.600000023842","images/ball3.png","","","practice","4","definitely_new",""
"html-keyboard-response","30","532632","0.0-11.0-0.6","5669","approach_avoid_sv1","""event"",""trial"",""time""
""blur"",""1"",""379910""
""focus"",""1"",""394531""
""fullscreenenter"",""1"",""395836""
","""event"",""trial"",""time""
""blur"",""1"",""379910""
","""event"",""trial"",""time""
""focus"",""1"",""394531""
","""event"",""trial"",""time""
""fullscreenenter"",""1"",""395836""
","
","","","","","","null","<div style=""font-size:60px;"">+</div>","null","","fixation","","",""
"memory-trial","31","534536","0.0-11.0-1.6","5669","approach_avoid_sv1","""event"",""trial"",""time""
""blur"",""1"",""379910""
""focus"",""1"",""394531""
""fullscreenenter"",""1"",""395836""
","""event"",""trial"",""time""
""blur"",""1"",""379910""
","""event"",""trial"",""time""
""focus"",""1"",""394531""
","""event"",""trial"",""time""
""fullscreenenter"",""1"",""395836""
","
","","","","","","885.5","images/racket5.png","","","practice","3","maybe_new",""
"html-keyboard-response","32","535048","0.0-11.0-0.7","5669","approach_avoid_sv1","""event"",""trial"",""time""
""blur"",""1"",""379910""
""focus"",""1"",""394531""
""fullscreenenter"",""1"",""395836""
","""event"",""trial"",""time""
""blur"",""1"",""379910""
","""event"",""trial"",""time""
""focus"",""1"",""394531""
","""event"",""trial"",""time""
""fullscreenenter"",""1"",""395836""
","
","","","","","","null","<div style=""font-size:60px;"">+</div>","null","","fixation","","",""
"memory-trial","33","537448","0.0-11.0-1.7","5669","approach_avoid_sv1","""event"",""trial"",""time""
""blur"",""1"",""379910""
""focus"",""1"",""394531""
""fullscreenenter"",""1"",""395836""
","""event"",""trial"",""time""
""blur"",""1"",""379910""
","""event"",""trial"",""time""
""focus"",""1"",""394531""
","""event"",""trial"",""time""
""fullscreenenter"",""1"",""395836""
","
","","","","","","1395.9000000953674","images/ball2.png","","","practice","2","maybe_old",""
"learning-instructions","34","545673","0.0-12.0-0.0","5669","approach_avoid_sv1","""event"",""trial"",""time""
""blur"",""1"",""379910""
""focus"",""1"",""394531""
""fullscreenenter"",""1"",""395836""
","""event"",""trial"",""time""
""blur"",""1"",""379910""
","""event"",""trial"",""time""
""focus"",""1"",""394531""
","""event"",""trial"",""time""
""fullscreenenter"",""1"",""395836""
","
","","","","","","915.5","<p> Great! You have completed the practice. </p><p> Before you start, we're going to ask you a few questions about how the game works.  </p>","","0","instructions","","",""
"preload","35","548528","0.0-13.0","5669","approach_avoid_sv1","""event"",""trial"",""time""
""blur"",""1"",""379910""
""focus"",""1"",""394531""
""fullscreenenter"",""1"",""395836""
","""event"",""trial"",""time""
""blur"",""1"",""379910""
","""event"",""trial"",""time""
""focus"",""1"",""394531""
","""event"",""trial"",""time""
""fullscreenenter"",""1"",""395836""
","
","true","false","[]","[]","[]","","","","","","","",""
"comp-q","36","555100","0.0-14.0-0.0","5669","approach_avoid_sv1","""event"",""trial"",""time""
""blur"",""1"",""379910""
""focus"",""1"",""394531""
""fullscreenenter"",""1"",""395836""
","""event"",""trial"",""time""
""blur"",""1"",""379910""
","""event"",""trial"",""time""
""focus"",""1"",""394531""
","""event"",""trial"",""time""
""fullscreenenter"",""1"",""395836""
","
","","","","","","741.8999999761581","<p> <b> True or False? </b> </p><p> In this game, you will only see each image once. </p>","","0","comp_question","","","true"
"comp-q","37","562247","0.0-14.0-1.0","5669","approach_avoid_sv1","""event"",""trial"",""time""
""blur"",""1"",""379910""
""focus"",""1"",""394531""
""fullscreenenter"",""1"",""395836""
","""event"",""trial"",""time""
""blur"",""1"",""379910""
","""event"",""trial"",""time""
""focus"",""1"",""394531""
","""event"",""trial"",""time""
""fullscreenenter"",""1"",""395836""
","
","","","","","","799.1000000238419","<p> <b> That's right! </b> You will see many different images <i> one time each </i> in this game. </p>","","0","comp_answer","","",""
"comp-q","38","567797","0.0-15.0-0.0","5669","approach_avoid_sv1","""event"",""trial"",""time""
""blur"",""1"",""379910""
""focus"",""1"",""394531""
""fullscreenenter"",""1"",""395836""
","""event"",""trial"",""time""
""blur"",""1"",""379910""
","""event"",""trial"",""time""
""focus"",""1"",""394531""
","""event"",""trial"",""time""
""fullscreenenter"",""1"",""395836""
","
","","","","","","538.7000000476837","<p> <b> True or False? </b> </p><p> You should use the mouse and click to make your response. </p>","","1","comp_question","","","true"
"comp-q","39","574539","0.0-15.0-1.0","5669","approach_avoid_sv1","""event"",""trial"",""time""
""blur"",""1"",""379910""
""focus"",""1"",""394531""
""fullscreenenter"",""1"",""395836""
","""event"",""trial"",""time""
""blur"",""1"",""379910""
","""event"",""trial"",""time""
""focus"",""1"",""394531""
","""event"",""trial"",""time""
""fullscreenenter"",""1"",""395836""
","
","","","","","","241.40000009536743","<p><b> That's right! </b> You should use the '1', '2', '3', and '4' keys to make your response. </p>","","0","comp_answer","","",""
"comp-q","40","580647","0.0-16.0-0.0","5669","approach_avoid_sv1","""event"",""trial"",""time""
""blur"",""1"",""379910""
""focus"",""1"",""394531""
""fullscreenenter"",""1"",""395836""
","""event"",""trial"",""time""
""blur"",""1"",""379910""
","""event"",""trial"",""time""
""focus"",""1"",""394531""
","""event"",""trial"",""time""
""fullscreenenter"",""1"",""395836""
","
","","","","","","429.10000002384186","<p> <b> True or False? </b> </p><p> You will have as much time as you want to make each choice. </p>","","1","comp_question","","","true"
"comp-q","41","585715","0.0-16.0-1.0","5669","approach_avoid_sv1","""event"",""trial"",""time""
""blur"",""1"",""379910""
""focus"",""1"",""394531""
""fullscreenenter"",""1"",""395836""
","""event"",""trial"",""time""
""blur"",""1"",""379910""
","""event"",""trial"",""time""
""focus"",""1"",""394531""
","""event"",""trial"",""time""
""fullscreenenter"",""1"",""395836""
","
","","","","","","367.60000002384186","<p> <b> That's right! </b> You will only have 10 seconds to make each choice. </p>","","0","comp_answer","","",""
"learning-instructions","42","596448","0.0-17.0","5669","approach_avoid_sv1","""event"",""trial"",""time""
""blur"",""1"",""379910""
""focus"",""1"",""394531""
""fullscreenenter"",""1"",""395836""
","""event"",""trial"",""time""
""blur"",""1"",""379910""
","""event"",""trial"",""time""
""focus"",""1"",""394531""
","""event"",""trial"",""time""
""fullscreenenter"",""1"",""395836""
","
","","","","","","2048.899999976158","<p> Great! You are now ready to begin the game. </p><p> Remember, use the 1, 2, 3, and 4 keys to make your responses. </p>","","0","instructions","","",""
"html-keyboard-response","43","597070","0.0-18.0-0.0","5669","approach_avoid_sv1","""event"",""trial"",""time""
""blur"",""1"",""379910""
""focus"",""1"",""394531""
""fullscreenenter"",""1"",""395836""
","""event"",""trial"",""time""
""blur"",""1"",""379910""
","""event"",""trial"",""time""
""focus"",""1"",""394531""
","""event"",""trial"",""time""
""fullscreenenter"",""1"",""395836""
","
","","","","","","null","<div style=""font-size:60px;"">+</div>","null","","fixation","","",""
"memory-trial","44","600296","0.0-18.0-1.0","5669","approach_avoid_sv1","""event"",""trial"",""time""
""blur"",""1"",""379910""
""focus"",""1"",""394531""
""fullscreenenter"",""1"",""395836""
","""event"",""trial"",""time""
""blur"",""1"",""379910""
","""event"",""trial"",""time""
""focus"",""1"",""394531""
","""event"",""trial"",""time""
""fullscreenenter"",""1"",""395836""
","
","","","","","","2207","images/bed5.png","","","memory_trial","2","maybe_old",""
"html-keyboard-response","45","600808","0.0-18.0-0.1","5669","approach_avoid_sv1","""event"",""trial"",""time""
""blur"",""1"",""379910""
""focus"",""1"",""394531""
""fullscreenenter"",""1"",""395836""
","""event"",""trial"",""time""
""blur"",""1"",""379910""
","""event"",""trial"",""time""
""focus"",""1"",""394531""
","""event"",""trial"",""time""
""fullscreenenter"",""1"",""395836""
","
","","","","","","null","<div style=""font-size:60px;"">+</div>","null","","fixation","","",""
"memory-trial","46","602853","0.0-18.0-1.1","5669","approach_avoid_sv1","""event"",""trial"",""time""
""blur"",""1"",""379910""
""focus"",""1"",""394531""
""fullscreenenter"",""1"",""395836""
","""event"",""trial"",""time""
""blur"",""1"",""379910""
","""event"",""trial"",""time""
""focus"",""1"",""394531""
","""event"",""trial"",""time""
""fullscreenenter"",""1"",""395836""
","
","","","","","","1032.6000000238419","images/flower1.png","","","memory_trial","4","definitely_new",""
"html-keyboard-response","47","603364","0.0-18.0-0.2","5669","approach_avoid_sv1","""event"",""trial"",""time""
""blur"",""1"",""379910""
""focus"",""1"",""394531""
""fullscreenenter"",""1"",""395836""
","""event"",""trial"",""time""
""blur"",""1"",""379910""
","""event"",""trial"",""time""
""focus"",""1"",""394531""
","""event"",""trial"",""time""
""fullscreenenter"",""1"",""395836""
","
","","","","","","null","<div style=""font-size:60px;"">+</div>","null","","fixation","","",""
"memory-trial","48","605921","0.0-18.0-1.2","5669","approach_avoid_sv1","""event"",""trial"",""time""
""blur"",""1"",""379910""
""focus"",""1"",""394531""
""fullscreenenter"",""1"",""395836""
","""event"",""trial"",""time""
""blur"",""1"",""379910""
","""event"",""trial"",""time""
""focus"",""1"",""394531""
","""event"",""trial"",""time""
""fullscreenenter"",""1"",""395836""
","
","","","","","","1542.1000000238419","images/truck7.png","","","memory_trial","2","maybe_old",""
"html-keyboard-response","49","606433","0.0-18.0-0.3","5669","approach_avoid_sv1","""event"",""trial"",""time""
""blur"",""1"",""379910""
""focus"",""1"",""394531""
""fullscreenenter"",""1"",""395836""
","""event"",""trial"",""time""
""blur"",""1"",""379910""
","""event"",""trial"",""time""
""focus"",""1"",""394531""
","""event"",""trial"",""time""
""fullscreenenter"",""1"",""395836""
","
","","","","","","null","<div style=""font-size:60px;"">+</div>","null","","fixation","","",""
"memory-trial","50","609545","0.0-18.0-1.3","5669","approach_avoid_sv1","""event"",""trial"",""time""
""blur"",""1"",""379910""
""focus"",""1"",""394531""
""fullscreenenter"",""1"",""395836""
","""event"",""trial"",""time""
""blur"",""1"",""379910""
","""event"",""trial"",""time""
""focus"",""1"",""394531""
","""event"",""trial"",""time""
""fullscreenenter"",""1"",""395836""
","
","","","","","","2100.9000000953674","images/orange5.png","","","memory_trial","4","definitely_new",""
"html-keyboard-response","51","610054","0.0-18.0-0.4","5669","approach_avoid_sv1","""event"",""trial"",""time""
""blur"",""1"",""379910""
""focus"",""1"",""394531""
""fullscreenenter"",""1"",""395836""
","""event"",""trial"",""time""
""blur"",""1"",""379910""
","""event"",""trial"",""time""
""focus"",""1"",""394531""
","""event"",""trial"",""time""
""fullscreenenter"",""1"",""395836""
","
","","","","","","null","<div style=""font-size:60px;"">+</div>","null","","fixation","","",""
"memory-trial","52","612377","0.0-18.0-1.4","5669","approach_avoid_sv1","""event"",""trial"",""time""
""blur"",""1"",""379910""
""focus"",""1"",""394531""
""fullscreenenter"",""1"",""395836""
","""event"",""trial"",""time""
""blur"",""1"",""379910""
","""event"",""trial"",""time""
""focus"",""1"",""394531""
","""event"",""trial"",""time""
""fullscreenenter"",""1"",""395836""
","
","","","","","","1302.8000000715256","images/boat4.png","","","memory_trial","1","definitely_old",""
"html-keyboard-response","53","612890","0.0-18.0-0.5","5669","approach_avoid_sv1","""event"",""trial"",""time""
""blur"",""1"",""379910""
""focus"",""1"",""394531""
""fullscreenenter"",""1"",""395836""
","""event"",""trial"",""time""
""blur"",""1"",""379910""
","""event"",""trial"",""time""
""focus"",""1"",""394531""
","""event"",""trial"",""time""
""fullscreenenter"",""1"",""395836""
","
","","","","","","null","<div style=""font-size:60px;"">+</div>","null","","fixation","","",""
"memory-trial","54","614677","0.0-18.0-1.5","5669","approach_avoid_sv1","""event"",""trial"",""time""
""blur"",""1"",""379910""
""focus"",""1"",""394531""
""fullscreenenter"",""1"",""395836""
","""event"",""trial"",""time""
""blur"",""1"",""379910""
","""event"",""trial"",""time""
""focus"",""1"",""394531""
","""event"",""trial"",""time""
""fullscreenenter"",""1"",""395836""
","
","","","","","","770.5","images/bush4.png","","","memory_trial","1","definitely_old",""
"html-keyboard-response","55","615187","0.0-18.0-0.6","5669","approach_avoid_sv1","""event"",""trial"",""time""
""blur"",""1"",""379910""
""focus"",""1"",""394531""
""fullscreenenter"",""1"",""395836""
","""event"",""trial"",""time""
""blur"",""1"",""379910""
","""event"",""trial"",""time""
""focus"",""1"",""394531""
","""event"",""trial"",""time""
""fullscreenenter"",""1"",""395836""
","
","","","","","","null","<div style=""font-size:60px;"">+</div>","null","","fixation","","",""
"memory-trial","56","617236","0.0-18.0-1.6","5669","approach_avoid_sv1","""event"",""trial"",""time""
""blur"",""1"",""379910""
""focus"",""1"",""394531""
""fullscreenenter"",""1"",""395836""
","""event"",""trial"",""time""
""blur"",""1"",""379910""
","""event"",""trial"",""time""
""focus"",""1"",""394531""
","""event"",""trial"",""time""
""fullscreenenter"",""1"",""395836""
","
","","","","","","1034.8000000715256","images/cow2.png","","","memory_trial","1","definitely_old",""
"html-keyboard-response","57","617745","0.0-18.0-0.7","5669","approach_avoid_sv1","""event"",""trial"",""time""
""blur"",""1"",""379910""
""focus"",""1"",""394531""
""fullscreenenter"",""1"",""395836""
","""event"",""trial"",""time""
""blur"",""1"",""379910""
","""event"",""trial"",""time""
""focus"",""1"",""394531""
","""event"",""trial"",""time""
""fullscreenenter"",""1"",""395836""
","
","","","","","","null","<div style=""font-size:60px;"">+</div>","null","","fixation","","",""
"memory-trial","58","619766","0.0-18.0-1.7","5669","approach_avoid_sv1","""event"",""trial"",""time""
""blur"",""1"",""379910""
""focus"",""1"",""394531""
""fullscreenenter"",""1"",""395836""
","""event"",""trial"",""time""
""blur"",""1"",""379910""
","""event"",""trial"",""time""
""focus"",""1"",""394531""
","""event"",""trial"",""time""
""fullscreenenter"",""1"",""395836""
","
","","","","","","1004.5","images/horse2.png","","","memory_trial","4","definitely_new",""
"html-keyboard-response","59","620276","0.0-18.0-0.8","5669","approach_avoid_sv1","""event"",""trial"",""time""
""blur"",""1"",""379910""
""focus"",""1"",""394531""
""fullscreenenter"",""1"",""395836""
","""event"",""trial"",""time""
""blur"",""1"",""379910""
","""event"",""trial"",""time""
""focus"",""1"",""394531""
","""event"",""trial"",""time""
""fullscreenenter"",""1"",""395836""
","
","","","","","","null","<div style=""font-size:60px;"">+</div>","null","","fixation","","",""
"memory-trial","60","621978","0.0-18.0-1.8","5669","approach_avoid_sv1","""event"",""trial"",""time""
""blur"",""1"",""379910""
""focus"",""1"",""394531""
""fullscreenenter"",""1"",""395836""
","""event"",""trial"",""time""
""blur"",""1"",""379910""
","""event"",""trial"",""time""
""focus"",""1"",""394531""
","""event"",""trial"",""time""
""fullscreenenter"",""1"",""395836""
","
","","","","","","692.7000000476837","images/rabbit6.png","","","memory_trial","1","definitely_old",""
"html-keyboard-response","61","622490","0.0-18.0-0.9","5669","approach_avoid_sv1","""event"",""trial"",""time""
""blur"",""1"",""379910""
""focus"",""1"",""394531""
""fullscreenenter"",""1"",""395836""
","""event"",""trial"",""time""
""blur"",""1"",""379910""
","""event"",""trial"",""time""
""focus"",""1"",""394531""
","""event"",""trial"",""time""
""fullscreenenter"",""1"",""395836""
","
","","","","","","null","<div style=""font-size:60px;"">+</div>","null","","fixation","","",""
"memory-trial","62","624151","0.0-18.0-1.9","5669","approach_avoid_sv1","""event"",""trial"",""time""
""blur"",""1"",""379910""
""focus"",""1"",""394531""
""fullscreenenter"",""1"",""395836""
","""event"",""trial"",""time""
""blur"",""1"",""379910""
","""event"",""trial"",""time""
""focus"",""1"",""394531""
","""event"",""trial"",""time""
""fullscreenenter"",""1"",""395836""
","
","","","","","","643.6999999284744","images/bush3.png","","","memory_trial","1","definitely_old",""
"html-keyboard-response","63","624653","0.0-18.0-0.10","5669","approach_avoid_sv1","""event"",""trial"",""time""
""blur"",""1"",""379910""
""focus"",""1"",""394531""
""fullscreenenter"",""1"",""395836""
","""event"",""trial"",""time""
""blur"",""1"",""379910""
","""event"",""trial"",""time""
""focus"",""1"",""394531""
","""event"",""trial"",""time""
""fullscreenenter"",""1"",""395836""
","
","","","","","","null","<div style=""font-size:60px;"">+</div>","null","","fixation","","",""
"memory-trial","64","626661","0.0-18.0-1.10","5669","approach_avoid_sv1","""event"",""trial"",""time""
""blur"",""1"",""379910""
""focus"",""1"",""394531""
""fullscreenenter"",""1"",""395836""
","""event"",""trial"",""time""
""blur"",""1"",""379910""
","""event"",""trial"",""time""
""focus"",""1"",""394531""
","""event"",""trial"",""time""
""fullscreenenter"",""1"",""395836""
","
","","","","","","1002","images/chair2.png","","","memory_trial","1","definitely_old",""
"html-keyboard-response","65","627166","0.0-18.0-0.11","5669","approach_avoid_sv1","""event"",""trial"",""time""
""blur"",""1"",""379910""
""focus"",""1"",""394531""
""fullscreenenter"",""1"",""395836""
","""event"",""trial"",""time""
""blur"",""1"",""379910""
","""event"",""trial"",""time""
""focus"",""1"",""394531""
","""event"",""trial"",""time""
""fullscreenenter"",""1"",""395836""
","
","","","","","","null","<div style=""font-size:60px;"">+</div>","null","","fixation","","",""
"memory-trial","66","631157","0.0-18.0-1.11","5669","approach_avoid_sv1","""event"",""trial"",""time""
""blur"",""1"",""379910""
""focus"",""1"",""394531""
""fullscreenenter"",""1"",""395836""
","""event"",""trial"",""time""
""blur"",""1"",""379910""
","""event"",""trial"",""time""
""focus"",""1"",""394531""
","""event"",""trial"",""time""
""fullscreenenter"",""1"",""395836""
","
","","","","","","2987.5999999046326","images/sheep2.png","","","memory_trial","3","maybe_new",""
"html-keyboard-response","67","631661","0.0-18.0-0.12","5669","approach_avoid_sv1","""event"",""trial"",""time""
""blur"",""1"",""379910""
""focus"",""1"",""394531""
""fullscreenenter"",""1"",""395836""
","""event"",""trial"",""time""
""blur"",""1"",""379910""
","""event"",""trial"",""time""
""focus"",""1"",""394531""
","""event"",""trial"",""time""
""fullscreenenter"",""1"",""395836""
","
","","","","","","null","<div style=""font-size:60px;"">+</div>","null","","fixation","","",""
"memory-trial","68","634365","0.0-18.0-1.12","5669","approach_avoid_sv1","""event"",""trial"",""time""
""blur"",""1"",""379910""
""focus"",""1"",""394531""
""fullscreenenter"",""1"",""395836""
","""event"",""trial"",""time""
""blur"",""1"",""379910""
","""event"",""trial"",""time""
""focus"",""1"",""394531""
","""event"",""trial"",""time""
""fullscreenenter"",""1"",""395836""
","
","","","","","","1698.8999999761581","images/rodent3.png","","","memory_trial","2","maybe_old",""
"html-keyboard-response","69","634870","0.0-18.0-0.13","5669","approach_avoid_sv1","""event"",""trial"",""time""
""blur"",""1"",""379910""
""focus"",""1"",""394531""
""fullscreenenter"",""1"",""395836""
","""event"",""trial"",""time""
""blur"",""1"",""379910""
","""event"",""trial"",""time""
""focus"",""1"",""394531""
","""event"",""trial"",""time""
""fullscreenenter"",""1"",""395836""
","
","","","","","","null","<div style=""font-size:60px;"">+</div>","null","","fixation","","",""
"memory-trial","70","637398","0.0-18.0-1.13","5669","approach_avoid_sv1","""event"",""trial"",""time""
""blur"",""1"",""379910""
""focus"",""1"",""394531""
""fullscreenenter"",""1"",""395836""
","""event"",""trial"",""time""
""blur"",""1"",""379910""
","""event"",""trial"",""time""
""focus"",""1"",""394531""
","""event"",""trial"",""time""
""fullscreenenter"",""1"",""395836""
","
","","","","","","1524.6000000238419","images/horse4.png","","","memory_trial","4","definitely_new",""
"html-keyboard-response","71","637901","0.0-18.0-0.14","5669","approach_avoid_sv1","""event"",""trial"",""time""
""blur"",""1"",""379910""
""focus"",""1"",""394531""
""fullscreenenter"",""1"",""395836""
","""event"",""trial"",""time""
""blur"",""1"",""379910""
","""event"",""trial"",""time""
""focus"",""1"",""394531""
","""event"",""trial"",""time""
""fullscreenenter"",""1"",""395836""
","
","","","","","","null","<div style=""font-size:60px;"">+</div>","null","","fixation","","",""
"memory-trial","72","640134","0.0-18.0-1.14","5669","approach_avoid_sv1","""event"",""trial"",""time""
""blur"",""1"",""379910""
""focus"",""1"",""394531""
""fullscreenenter"",""1"",""395836""
","""event"",""trial"",""time""
""blur"",""1"",""379910""
","""event"",""trial"",""time""
""focus"",""1"",""394531""
","""event"",""trial"",""time""
""fullscreenenter"",""1"",""395836""
","
","","","","","","1228","images/cow4.png","","","memory_trial","1","definitely_old",""
"html-keyboard-response","73","640637","0.0-18.0-0.15","5669","approach_avoid_sv1","""event"",""trial"",""time""
""blur"",""1"",""379910""
""focus"",""1"",""394531""
""fullscreenenter"",""1"",""395836""
","""event"",""trial"",""time""
""blur"",""1"",""379910""
","""event"",""trial"",""time""
""focus"",""1"",""394531""
","""event"",""trial"",""time""
""fullscreenenter"",""1"",""395836""
","
","","","","","","null","<div style=""font-size:60px;"">+</div>","null","","fixation","","",""
"memory-trial","74","644253","0.0-18.0-1.15","5669","approach_avoid_sv1","""event"",""trial"",""time""
""blur"",""1"",""379910""
""focus"",""1"",""394531""
""fullscreenenter"",""1"",""395836""
","""event"",""trial"",""time""
""blur"",""1"",""379910""
","""event"",""trial"",""time""
""focus"",""1"",""394531""
","""event"",""trial"",""time""
""fullscreenenter"",""1"",""395836""
","
","","","","","","2614.100000023842","images/banana5.png","","","memory_trial","3","maybe_new",""
"html-keyboard-response","75","644757","0.0-18.0-0.16","5669","approach_avoid_sv1","""event"",""trial"",""time""
""blur"",""1"",""379910""
""focus"",""1"",""394531""
""fullscreenenter"",""1"",""395836""
","""event"",""trial"",""time""
""blur"",""1"",""379910""
","""event"",""trial"",""time""
""focus"",""1"",""394531""
","""event"",""trial"",""time""
""fullscreenenter"",""1"",""395836""
","
","","","","","","null","<div style=""font-size:60px;"">+</div>","null","","fixation","","",""
"memory-trial","76","648845","0.0-18.0-1.16","5669","approach_avoid_sv1","""event"",""trial"",""time""
""blur"",""1"",""379910""
""focus"",""1"",""394531""
""fullscreenenter"",""1"",""395836""
","""event"",""trial"",""time""
""blur"",""1"",""379910""
","""event"",""trial"",""time""
""focus"",""1"",""394531""
","""event"",""trial"",""time""
""fullscreenenter"",""1"",""395836""
","
","","","","","","3082","images/plane2.png","","","memory_trial","2","maybe_old",""
"html-keyboard-response","77","649349","0.0-18.0-0.17","5669","approach_avoid_sv1","""event"",""trial"",""time""
""blur"",""1"",""379910""
""focus"",""1"",""394531""
""fullscreenenter"",""1"",""395836""
","""event"",""trial"",""time""
""blur"",""1"",""379910""
","""event"",""trial"",""time""
""focus"",""1"",""394531""
","""event"",""trial"",""time""
""fullscreenenter"",""1"",""395836""
","
","","","","","","null","<div style=""font-size:60px;"">+</div>","null","","fixation","","",""
"memory-trial","78","652333","0.0-18.0-1.17","5669","approach_avoid_sv1","""event"",""trial"",""time""
""blur"",""1"",""379910""
""focus"",""1"",""394531""
""fullscreenenter"",""1"",""395836""
","""event"",""trial"",""time""
""blur"",""1"",""379910""
","""event"",""trial"",""time""
""focus"",""1"",""394531""
","""event"",""trial"",""time""
""fullscreenenter"",""1"",""395836""
","
","","","","","","1979","images/dog6.png","","","memory_trial","4","definitely_new",""
"html-keyboard-response","79","652836","0.0-18.0-0.18","5669","approach_avoid_sv1","""event"",""trial"",""time""
""blur"",""1"",""379910""
""focus"",""1"",""394531""
""fullscreenenter"",""1"",""395836""
","""event"",""trial"",""time""
""blur"",""1"",""379910""
","""event"",""trial"",""time""
""focus"",""1"",""394531""
","""event"",""trial"",""time""
""fullscreenenter"",""1"",""395836""
","
","","","","","","null","<div style=""font-size:60px;"">+</div>","null","","fixation","","",""
"memory-trial","80","654485","0.0-18.0-1.18","5669","approach_avoid_sv1","""event"",""trial"",""time""
""blur"",""1"",""379910""
""focus"",""1"",""394531""
""fullscreenenter"",""1"",""395836""
","""event"",""trial"",""time""
""blur"",""1"",""379910""
","""event"",""trial"",""time""
""focus"",""1"",""394531""
","""event"",""trial"",""time""
""fullscreenenter"",""1"",""395836""
","
","","","","","","641.7000000476837","images/cactus8.png","","","memory_trial","1","definitely_old",""
"html-keyboard-response","81","654989","0.0-18.0-0.19","5669","approach_avoid_sv1","""event"",""trial"",""time""
""blur"",""1"",""379910""
""focus"",""1"",""394531""
""fullscreenenter"",""1"",""395836""
","""event"",""trial"",""time""
""blur"",""1"",""379910""
","""event"",""trial"",""time""
""focus"",""1"",""394531""
","""event"",""trial"",""time""
""fullscreenenter"",""1"",""395836""
","
","","","","","","null","<div style=""font-size:60px;"">+</div>","null","","fixation","","",""
"memory-trial","82","658405","0.0-18.0-1.19","5669","approach_avoid_sv1","""event"",""trial"",""time""
""blur"",""1"",""379910""
""focus"",""1"",""394531""
""fullscreenenter"",""1"",""395836""
","""event"",""trial"",""time""
""blur"",""1"",""379910""
","""event"",""trial"",""time""
""focus"",""1"",""394531""
","""event"",""trial"",""time""
""fullscreenenter"",""1"",""395836""
","
","","","","","","2412.0999999046326","images/truck8.png","","","memory_trial","2","maybe_old",""
"html-keyboard-response","83","658909","0.0-18.0-0.20","5669","approach_avoid_sv1","""event"",""trial"",""time""
""blur"",""1"",""379910""
""focus"",""1"",""394531""
""fullscreenenter"",""1"",""395836""
","""event"",""trial"",""time""
""blur"",""1"",""379910""
","""event"",""trial"",""time""
""focus"",""1"",""394531""
","""event"",""trial"",""time""
""fullscreenenter"",""1"",""395836""
","
","","","","","","null","<div style=""font-size:60px;"">+</div>","null","","fixation","","",""
"memory-trial","84","663309","0.0-18.0-1.20","5669","approach_avoid_sv1","""event"",""trial"",""time""
""blur"",""1"",""379910""
""focus"",""1"",""394531""
""fullscreenenter"",""1"",""395836""
","""event"",""trial"",""time""
""blur"",""1"",""379910""
","""event"",""trial"",""time""
""focus"",""1"",""394531""
","""event"",""trial"",""time""
""fullscreenenter"",""1"",""395836""
","
","","","","","","3391.7999999523163","images/sofa4.png","","","memory_trial","3","maybe_new",""
"html-keyboard-response","85","663813","0.0-18.0-0.21","5669","approach_avoid_sv1","""event"",""trial"",""time""
""blur"",""1"",""379910""
""focus"",""1"",""394531""
""fullscreenenter"",""1"",""395836""
","""event"",""trial"",""time""
""blur"",""1"",""379910""
","""event"",""trial"",""time""
""focus"",""1"",""394531""
","""event"",""trial"",""time""
""fullscreenenter"",""1"",""395836""
","
","","","","","","null","<div style=""font-size:60px;"">+</div>","null","","fixation","","",""
"memory-trial","86","666180","0.0-18.0-1.21","5669","approach_avoid_sv1","""event"",""trial"",""time""
""blur"",""1"",""379910""
""focus"",""1"",""394531""
""fullscreenenter"",""1"",""395836""
","""event"",""trial"",""time""
""blur"",""1"",""379910""
","""event"",""trial"",""time""
""focus"",""1"",""394531""
","""event"",""trial"",""time""
""fullscreenenter"",""1"",""395836""
","
","","","","","","1360.8999999761581","images/banana3.png","","","memory_trial","1","definitely_old",""
"html-keyboard-response","87","666685","0.0-18.0-0.22","5669","approach_avoid_sv1","""event"",""trial"",""time""
""blur"",""1"",""379910""
""focus"",""1"",""394531""
""fullscreenenter"",""1"",""395836""
","""event"",""trial"",""time""
""blur"",""1"",""379910""
","""event"",""trial"",""time""
""focus"",""1"",""394531""
","""event"",""trial"",""time""
""fullscreenenter"",""1"",""395836""
","
","","","","","","null","<div style=""font-size:60px;"">+</div>","null","","fixation","","",""
"memory-trial","88","670422","0.0-18.0-1.22","5669","approach_avoid_sv1","""event"",""trial"",""time""
""blur"",""1"",""379910""
""focus"",""1"",""394531""
""fullscreenenter"",""1"",""395836""
","""event"",""trial"",""time""
""blur"",""1"",""379910""
","""event"",""trial"",""time""
""focus"",""1"",""394531""
","""event"",""trial"",""time""
""fullscreenenter"",""1"",""395836""
","
","","","","","","2729.100000023842","images/boat1.png","","","memory_trial","4","definitely_new",""
"html-keyboard-response","89","670925","0.0-18.0-0.23","5669","approach_avoid_sv1","""event"",""trial"",""time""
""blur"",""1"",""379910""
""focus"",""1"",""394531""
""fullscreenenter"",""1"",""395836""
","""event"",""trial"",""time""
""blur"",""1"",""379910""
","""event"",""trial"",""time""
""focus"",""1"",""394531""
","""event"",""trial"",""time""
""fullscreenenter"",""1"",""395836""
","
","","","","","","null","<div style=""font-size:60px;"">+</div>","null","","fixation","","",""
"memory-trial","90","672861","0.0-18.0-1.23","5669","approach_avoid_sv1","""event"",""trial"",""time""
""blur"",""1"",""379910""
""focus"",""1"",""394531""
""fullscreenenter"",""1"",""395836""
","""event"",""trial"",""time""
""blur"",""1"",""379910""
","""event"",""trial"",""time""
""focus"",""1"",""394531""
","""event"",""trial"",""time""
""fullscreenenter"",""1"",""395836""
","
","","","","","","926.7000000476837","images/goat1.png","","","memory_trial","4","definitely_new",""
"html-keyboard-response","91","673367","0.0-18.0-0.24","5669","approach_avoid_sv1","""event"",""trial"",""time""
""blur"",""1"",""379910""
""focus"",""1"",""394531""
""fullscreenenter"",""1"",""395836""
","""event"",""trial"",""time""
""blur"",""1"",""379910""
","""event"",""trial"",""time""
""focus"",""1"",""394531""
","""event"",""trial"",""time""
""fullscreenenter"",""1"",""395836""
","
","","","","","","null","<div style=""font-size:60px;"">+</div>","null","","fixation","","",""
"memory-trial","92","675324","0.0-18.0-1.24","5669","approach_avoid_sv1","""event"",""trial"",""time""
""blur"",""1"",""379910""
""focus"",""1"",""394531""
""fullscreenenter"",""1"",""395836""
","""event"",""trial"",""time""
""blur"",""1"",""379910""
","""event"",""trial"",""time""
""focus"",""1"",""394531""
","""event"",""trial"",""time""
""fullscreenenter"",""1"",""395836""
","
","","","","","","949.2999999523163","images/train3.png","","","memory_trial","1","definitely_old",""
"html-keyboard-response","93","675834","0.0-18.0-0.25","5669","approach_avoid_sv1","""event"",""trial"",""time""
""blur"",""1"",""379910""
""focus"",""1"",""394531""
""fullscreenenter"",""1"",""395836""
","""event"",""trial"",""time""
""blur"",""1"",""379910""
","""event"",""trial"",""time""
""focus"",""1"",""394531""
","""event"",""trial"",""time""
""fullscreenenter"",""1"",""395836""
","
","","","","","","null","<div style=""font-size:60px;"">+</div>","null","","fixation","","",""
"memory-trial","94","678149","0.0-18.0-1.25","5669","approach_avoid_sv1","""event"",""trial"",""time""
""blur"",""1"",""379910""
""focus"",""1"",""394531""
""fullscreenenter"",""1"",""395836""
","""event"",""trial"",""time""
""blur"",""1"",""379910""
","""event"",""trial"",""time""
""focus"",""1"",""394531""
","""event"",""trial"",""time""
""fullscreenenter"",""1"",""395836""
","
","","","","","","1304.5","images/dog4.png","","","memory_trial","4","definitely_new",""
"html-keyboard-response","95","678652","0.0-18.0-0.26","5669","approach_avoid_sv1","""event"",""trial"",""time""
""blur"",""1"",""379910""
""focus"",""1"",""394531""
""fullscreenenter"",""1"",""395836""
","""event"",""trial"",""time""
""blur"",""1"",""379910""
","""event"",""trial"",""time""
""focus"",""1"",""394531""
","""event"",""trial"",""time""
""fullscreenenter"",""1"",""395836""
","
","","","","","","null","<div style=""font-size:60px;"">+</div>","null","","fixation","","",""
"memory-trial","96","680533","0.0-18.0-1.26","5669","approach_avoid_sv1","""event"",""trial"",""time""
""blur"",""1"",""379910""
""focus"",""1"",""394531""
""fullscreenenter"",""1"",""395836""
","""event"",""trial"",""time""
""blur"",""1"",""379910""
","""event"",""trial"",""time""
""focus"",""1"",""394531""
","""event"",""trial"",""time""
""fullscreenenter"",""1"",""395836""
","
","","","","","","872.5","images/chair4.png","","","memory_trial","4","definitely_new",""
"html-keyboard-response","97","681037","0.0-18.0-0.27","5669","approach_avoid_sv1","""event"",""trial"",""time""
""blur"",""1"",""379910""
""focus"",""1"",""394531""
""fullscreenenter"",""1"",""395836""
","""event"",""trial"",""time""
""blur"",""1"",""379910""
","""event"",""trial"",""time""
""focus"",""1"",""394531""
","""event"",""trial"",""time""
""fullscreenenter"",""1"",""395836""
","
","","","","","","null","<div style=""font-size:60px;"">+</div>","null","","fixation","","",""
"memory-trial","98","682597","0.0-18.0-1.27","5669","approach_avoid_sv1","""event"",""trial"",""time""
""blur"",""1"",""379910""
""focus"",""1"",""394531""
""fullscreenenter"",""1"",""395836""
","""event"",""trial"",""time""
""blur"",""1"",""379910""
","""event"",""trial"",""time""
""focus"",""1"",""394531""
","""event"",""trial"",""time""
""fullscreenenter"",""1"",""395836""
","
","","","","","","557.8999999761581","images/bush7.png","","","memory_trial","1","definitely_old",""
"html-keyboard-response","99","683101","0.0-18.0-0.28","5669","approach_avoid_sv1","""event"",""trial"",""time""
""blur"",""1"",""379910""
""focus"",""1"",""394531""
""fullscreenenter"",""1"",""395836""
","""event"",""trial"",""time""
""blur"",""1"",""379910""
","""event"",""trial"",""time""
""focus"",""1"",""394531""
","""event"",""trial"",""time""
""fullscreenenter"",""1"",""395836""
","
","","","","","","null","<div style=""font-size:60px;"">+</div>","null","","fixation","","",""
"memory-trial","100","684910","0.0-18.0-1.28","5669","approach_avoid_sv1","""event"",""trial"",""time""
""blur"",""1"",""379910""
""focus"",""1"",""394531""
""fullscreenenter"",""1"",""395836""
","""event"",""trial"",""time""
""blur"",""1"",""379910""
","""event"",""trial"",""time""
""focus"",""1"",""394531""
","""event"",""trial"",""time""
""fullscreenenter"",""1"",""395836""
","
","","","","","","803.2000000476837","images/cat5.png","","","memory_trial","1","definitely_old",""
"html-keyboard-response","101","685413","0.0-18.0-0.29","5669","approach_avoid_sv1","""event"",""trial"",""time""
""blur"",""1"",""379910""
""focus"",""1"",""394531""
""fullscreenenter"",""1"",""395836""
","""event"",""trial"",""time""
""blur"",""1"",""379910""
","""event"",""trial"",""time""
""focus"",""1"",""394531""
","""event"",""trial"",""time""
""fullscreenenter"",""1"",""395836""
","
","","","","","","null","<div style=""font-size:60px;"">+</div>","null","","fixation","","",""
"memory-trial","102","687494","0.0-18.0-1.29","5669","approach_avoid_sv1","""event"",""trial"",""time""
""blur"",""1"",""379910""
""focus"",""1"",""394531""
""fullscreenenter"",""1"",""395836""
","""event"",""trial"",""time""
""blur"",""1"",""379910""
","""event"",""trial"",""time""
""focus"",""1"",""394531""
","""event"",""trial"",""time""
""fullscreenenter"",""1"",""395836""
","
","","","","","","1074.2000000476837","images/chair3.png","","","memory_trial","4","definitely_new",""
"html-keyboard-response","103","687996","0.0-18.0-0.30","5669","approach_avoid_sv1","""event"",""trial"",""time""
""blur"",""1"",""379910""
""focus"",""1"",""394531""
""fullscreenenter"",""1"",""395836""
","""event"",""trial"",""time""
""blur"",""1"",""379910""
","""event"",""trial"",""time""
""focus"",""1"",""394531""
","""event"",""trial"",""time""
""fullscreenenter"",""1"",""395836""
","
","","","","","","null","<div style=""font-size:60px;"">+</div>","null","","fixation","","",""
"memory-trial","104","689838","0.0-18.0-1.30","5669","approach_avoid_sv1","""event"",""trial"",""time""
""blur"",""1"",""379910""
""focus"",""1"",""394531""
""fullscreenenter"",""1"",""395836""
","""event"",""trial"",""time""
""blur"",""1"",""379910""
","""event"",""trial"",""time""
""focus"",""1"",""394531""
","""event"",""trial"",""time""
""fullscreenenter"",""1"",""395836""
","
","","","","","","836.5","images/rodent5.png","","","memory_trial","1","definitely_old",""
"html-keyboard-response","105","690342","0.0-18.0-0.31","5669","approach_avoid_sv1","""event"",""trial"",""time""
""blur"",""1"",""379910""
""focus"",""1"",""394531""
""fullscreenenter"",""1"",""395836""
","""event"",""trial"",""time""
""blur"",""1"",""379910""
","""event"",""trial"",""time""
""focus"",""1"",""394531""
","""event"",""trial"",""time""
""fullscreenenter"",""1"",""395836""
","
","","","","","","null","<div style=""font-size:60px;"">+</div>","null","","fixation","","",""
"memory-trial","106","693509","0.0-18.0-1.31","5669","approach_avoid_sv1","""event"",""trial"",""time""
""blur"",""1"",""379910""
""focus"",""1"",""394531""
""fullscreenenter"",""1"",""395836""
","""event"",""trial"",""time""
""blur"",""1"",""379910""
","""event"",""trial"",""time""
""focus"",""1"",""394531""
","""event"",""trial"",""time""
""fullscreenenter"",""1"",""395836""
","
","","","","","","2161.899999976158","images/horse8.png","","","memory_trial","4","definitely_new",""
"html-keyboard-response","107","694014","0.0-18.0-0.32","5669","approach_avoid_sv1","""event"",""trial"",""time""
""blur"",""1"",""379910""
""focus"",""1"",""394531""
""fullscreenenter"",""1"",""395836""
","""event"",""trial"",""time""
""blur"",""1"",""379910""
","""event"",""trial"",""time""
""focus"",""1"",""394531""
","""event"",""trial"",""time""
""fullscreenenter"",""1"",""395836""
","
","","","","","","null","<div style=""font-size:60px;"">+</div>","null","","fixation","","",""
"memory-trial","108","695757","0.0-18.0-1.32","5669","approach_avoid_sv1","""event"",""trial"",""time""
""blur"",""1"",""379910""
""focus"",""1"",""394531""
""fullscreenenter"",""1"",""395836""
","""event"",""trial"",""time""
""blur"",""1"",""379910""
","""event"",""trial"",""time""
""focus"",""1"",""394531""
","""event"",""trial"",""time""
""fullscreenenter"",""1"",""395836""
","
","","","","","","738.3000000715256","images/rabbit5.png","","","memory_trial","1","definitely_old",""
"html-keyboard-response","109","696273","0.0-18.0-0.33","5669","approach_avoid_sv1","""event"",""trial"",""time""
""blur"",""1"",""379910""
""focus"",""1"",""394531""
""fullscreenenter"",""1"",""395836""
","""event"",""trial"",""time""
""blur"",""1"",""379910""
","""event"",""trial"",""time""
""focus"",""1"",""394531""
","""event"",""trial"",""time""
""fullscreenenter"",""1"",""395836""
","
","","","","","","null","<div style=""font-size:60px;"">+</div>","null","","fixation","","",""
"memory-trial","110","698053","0.0-18.0-1.33","5669","approach_avoid_sv1","""event"",""trial"",""time""
""blur"",""1"",""379910""
""focus"",""1"",""394531""
""fullscreenenter"",""1"",""395836""
","""event"",""trial"",""time""
""blur"",""1"",""379910""
","""event"",""trial"",""time""
""focus"",""1"",""394531""
","""event"",""trial"",""time""
""fullscreenenter"",""1"",""395836""
","
","","","","","","772.6999999284744","images/plane3.png","","","memory_trial","4","definitely_new",""
"html-keyboard-response","111","698557","0.0-18.0-0.34","5669","approach_avoid_sv1","""event"",""trial"",""time""
""blur"",""1"",""379910""
""focus"",""1"",""394531""
""fullscreenenter"",""1"",""395836""
","""event"",""trial"",""time""
""blur"",""1"",""379910""
","""event"",""trial"",""time""
""focus"",""1"",""394531""
","""event"",""trial"",""time""
""fullscreenenter"",""1"",""395836""
","
","","","","","","null","<div style=""font-size:60px;"">+</div>","null","","fixation","","",""
"memory-trial","112","701541","0.0-18.0-1.34","5669","approach_avoid_sv1","""event"",""trial"",""time""
""blur"",""1"",""379910""
""focus"",""1"",""394531""
""fullscreenenter"",""1"",""395836""
","""event"",""trial"",""time""
""blur"",""1"",""379910""
","""event"",""trial"",""time""
""focus"",""1"",""394531""
","""event"",""trial"",""time""
""fullscreenenter"",""1"",""395836""
","
","","","","","","1978.0999999046326","images/sofa1.png","","","memory_trial","4","definitely_new",""
"html-keyboard-response","113","702045","0.0-18.0-0.35","5669","approach_avoid_sv1","""event"",""trial"",""time""
""blur"",""1"",""379910""
""focus"",""1"",""394531""
""fullscreenenter"",""1"",""395836""
","""event"",""trial"",""time""
""blur"",""1"",""379910""
","""event"",""trial"",""time""
""focus"",""1"",""394531""
","""event"",""trial"",""time""
""fullscreenenter"",""1"",""395836""
","
","","","","","","null","<div style=""font-size:60px;"">+</div>","null","","fixation","","",""
"memory-trial","114","703950","0.0-18.0-1.35","5669","approach_avoid_sv1","""event"",""trial"",""time""
""blur"",""1"",""379910""
""focus"",""1"",""394531""
""fullscreenenter"",""1"",""395836""
","""event"",""trial"",""time""
""blur"",""1"",""379910""
","""event"",""trial"",""time""
""focus"",""1"",""394531""
","""event"",""trial"",""time""
""fullscreenenter"",""1"",""395836""
","
","","","","","","899.7999999523163","images/sofa7.png","","","memory_trial","1","definitely_old",""
"html-keyboard-response","115","704454","0.0-18.0-0.36","5669","approach_avoid_sv1","""event"",""trial"",""time""
""blur"",""1"",""379910""
""focus"",""1"",""394531""
""fullscreenenter"",""1"",""395836""
","""event"",""trial"",""time""
""blur"",""1"",""379910""
","""event"",""trial"",""time""
""focus"",""1"",""394531""
","""event"",""trial"",""time""
""fullscreenenter"",""1"",""395836""
","
","","","","","","null","<div style=""font-size:60px;"">+</div>","null","","fixation","","",""
"memory-trial","116","706286","0.0-18.0-1.36","5669","approach_avoid_sv1","""event"",""trial"",""time""
""blur"",""1"",""379910""
""focus"",""1"",""394531""
""fullscreenenter"",""1"",""395836""
","""event"",""trial"",""time""
""blur"",""1"",""379910""
","""event"",""trial"",""time""
""focus"",""1"",""394531""
","""event"",""trial"",""time""
""fullscreenenter"",""1"",""395836""
","
","","","","","","826.3000000715256","images/orange2.png","","","memory_trial","4","definitely_new",""
"html-keyboard-response","117","706790","0.0-18.0-0.37","5669","approach_avoid_sv1","""event"",""trial"",""time""
""blur"",""1"",""379910""
""focus"",""1"",""394531""
""fullscreenenter"",""1"",""395836""
","""event"",""trial"",""time""
""blur"",""1"",""379910""
","""event"",""trial"",""time""
""focus"",""1"",""394531""
","""event"",""trial"",""time""
""fullscreenenter"",""1"",""395836""
","
","","","","","","null","<div style=""font-size:60px;"">+</div>","null","","fixation","","",""
"memory-trial","118","708670","0.0-18.0-1.37","5669","approach_avoid_sv1","""event"",""trial"",""time""
""blur"",""1"",""379910""
""focus"",""1"",""394531""
""fullscreenenter"",""1"",""395836""
","""event"",""trial"",""time""
""blur"",""1"",""379910""
","""event"",""trial"",""time""
""focus"",""1"",""394531""
","""event"",""trial"",""time""
""fullscreenenter"",""1"",""395836""
","
","","","","","","874.3999999761581","images/tree8.png","","","memory_trial","4","definitely_new",""
"html-keyboard-response","119","709186","0.0-18.0-0.38","5669","approach_avoid_sv1","""event"",""trial"",""time""
""blur"",""1"",""379910""
""focus"",""1"",""394531""
""fullscreenenter"",""1"",""395836""
","""event"",""trial"",""time""
""blur"",""1"",""379910""
","""event"",""trial"",""time""
""focus"",""1"",""394531""
","""event"",""trial"",""time""
""fullscreenenter"",""1"",""395836""
","
","","","","","","null","<div style=""font-size:60px;"">+</div>","null","","fixation","","",""
"memory-trial","120","711020","0.0-18.0-1.38","5669","approach_avoid_sv1","""event"",""trial"",""time""
""blur"",""1"",""379910""
""focus"",""1"",""394531""
""fullscreenenter"",""1"",""395836""
","""event"",""trial"",""time""
""blur"",""1"",""379910""
","""event"",""trial"",""time""
""focus"",""1"",""394531""
","""event"",""trial"",""time""
""fullscreenenter"",""1"",""395836""
","
","","","","","","829.6999999284744","images/apple3.png","","","memory_trial","4","definitely_new",""
"html-keyboard-response","121","711526","0.0-18.0-0.39","5669","approach_avoid_sv1","""event"",""trial"",""time""
""blur"",""1"",""379910""
""focus"",""1"",""394531""
""fullscreenenter"",""1"",""395836""
","""event"",""trial"",""time""
""blur"",""1"",""379910""
","""event"",""trial"",""time""
""focus"",""1"",""394531""
","""event"",""trial"",""time""
""fullscreenenter"",""1"",""395836""
","
","","","","","","null","<div style=""font-size:60px;"">+</div>","null","","fixation","","",""
"memory-trial","122","713453","0.0-18.0-1.39","5669","approach_avoid_sv1","""event"",""trial"",""time""
""blur"",""1"",""379910""
""focus"",""1"",""394531""
""fullscreenenter"",""1"",""395836""
","""event"",""trial"",""time""
""blur"",""1"",""379910""
","""event"",""trial"",""time""
""focus"",""1"",""394531""
","""event"",""trial"",""time""
""fullscreenenter"",""1"",""395836""
","
","","","","","","922.1000000238419","images/apple1.png","","","memory_trial","1","definitely_old",""
"html-keyboard-response","123","713959","0.0-18.0-0.40","5669","approach_avoid_sv1","""event"",""trial"",""time""
""blur"",""1"",""379910""
""focus"",""1"",""394531""
""fullscreenenter"",""1"",""395836""
","""event"",""trial"",""time""
""blur"",""1"",""379910""
","""event"",""trial"",""time""
""focus"",""1"",""394531""
","""event"",""trial"",""time""
""fullscreenenter"",""1"",""395836""
","
","","","","","","null","<div style=""font-size:60px;"">+</div>","null","","fixation","","",""
"memory-trial","124","715630","0.0-18.0-1.40","5669","approach_avoid_sv1","""event"",""trial"",""time""
""blur"",""1"",""379910""
""focus"",""1"",""394531""
""fullscreenenter"",""1"",""395836""
","""event"",""trial"",""time""
""blur"",""1"",""379910""
","""event"",""trial"",""time""
""focus"",""1"",""394531""
","""event"",""trial"",""time""
""fullscreenenter"",""1"",""395836""
","
","","","","","","662.1000000238419","images/cat7.png","","","memory_trial","1","definitely_old",""
"html-keyboard-response","125","716133","0.0-18.0-0.41","5669","approach_avoid_sv1","""event"",""trial"",""time""
""blur"",""1"",""379910""
""focus"",""1"",""394531""
""fullscreenenter"",""1"",""395836""
","""event"",""trial"",""time""
""blur"",""1"",""379910""
","""event"",""trial"",""time""
""focus"",""1"",""394531""
","""event"",""trial"",""time""
""fullscreenenter"",""1"",""395836""
","
","","","","","","null","<div style=""font-size:60px;"">+</div>","null","","fixation","","",""
"memory-trial","126","718188","0.0-18.0-1.41","5669","approach_avoid_sv1","""event"",""trial"",""time""
""blur"",""1"",""379910""
""focus"",""1"",""394531""
""fullscreenenter"",""1"",""395836""
","""event"",""trial"",""time""
""blur"",""1"",""379910""
","""event"",""trial"",""time""
""focus"",""1"",""394531""
","""event"",""trial"",""time""
""fullscreenenter"",""1"",""395836""
","
","","","","","","1043.5","images/sofa3.png","","","memory_trial","4","definitely_new",""
"html-button-response","127","720470","0.0-18.0-2.41-0.41","5669","approach_avoid_sv1","""event"",""trial"",""time""
""blur"",""1"",""379910""
""focus"",""1"",""394531""
""fullscreenenter"",""1"",""395836""
","""event"",""trial"",""time""
""blur"",""1"",""379910""
","""event"",""trial"",""time""
""focus"",""1"",""394531""
","""event"",""trial"",""time""
""fullscreenenter"",""1"",""395836""
","
","","","","","","2280.5","<p> Take a break! </p><p> Click the button to continue. </p>","0","","break","","",""
"html-keyboard-response","128","720974","0.0-18.0-0.42","5669","approach_avoid_sv1","""event"",""trial"",""time""
""blur"",""1"",""379910""
""focus"",""1"",""394531""
""fullscreenenter"",""1"",""395836""
","""event"",""trial"",""time""
""blur"",""1"",""379910""
","""event"",""trial"",""time""
""focus"",""1"",""394531""
","""event"",""trial"",""time""
""fullscreenenter"",""1"",""395836""
","
","","","","","","null","<div style=""font-size:60px;"">+</div>","null","","fixation","","",""
"memory-trial","129","723044","0.0-18.0-1.42","5669","approach_avoid_sv1","""event"",""trial"",""time""
""blur"",""1"",""379910""
""focus"",""1"",""394531""
""fullscreenenter"",""1"",""395836""
","""event"",""trial"",""time""
""blur"",""1"",""379910""
","""event"",""trial"",""time""
""focus"",""1"",""394531""
","""event"",""trial"",""time""
""fullscreenenter"",""1"",""395836""
","
","","","","","","1068.8000000715256","images/orange7.png","","","memory_trial","4","definitely_new",""
"html-keyboard-response","130","723549","0.0-18.0-0.43","5669","approach_avoid_sv1","""event"",""trial"",""time""
""blur"",""1"",""379910""
""focus"",""1"",""394531""
""fullscreenenter"",""1"",""395836""
","""event"",""trial"",""time""
""blur"",""1"",""379910""
","""event"",""trial"",""time""
""focus"",""1"",""394531""
","""event"",""trial"",""time""
""fullscreenenter"",""1"",""395836""
","
","","","","","","null","<div style=""font-size:60px;"">+</div>","null","","fixation","","",""
"memory-trial","131","726021","0.0-18.0-1.43","5669","approach_avoid_sv1","""event"",""trial"",""time""
""blur"",""1"",""379910""
""focus"",""1"",""394531""
""fullscreenenter"",""1"",""395836""
","""event"",""trial"",""time""
""blur"",""1"",""379910""
","""event"",""trial"",""time""
""focus"",""1"",""394531""
","""event"",""trial"",""time""
""fullscreenenter"",""1"",""395836""
","
","","","","","","1465.6000000238419","images/rodent8.png","","","memory_trial","1","definitely_old",""
"html-keyboard-response","132","726526","0.0-18.0-0.44","5669","approach_avoid_sv1","""event"",""trial"",""time""
""blur"",""1"",""379910""
""focus"",""1"",""394531""
""fullscreenenter"",""1"",""395836""
","""event"",""trial"",""time""
""blur"",""1"",""379910""
","""event"",""trial"",""time""
""focus"",""1"",""394531""
","""event"",""trial"",""time""
""fullscreenenter"",""1"",""395836""
","
","","","","","","null","<div style=""font-size:60px;"">+</div>","null","","fixation","","",""
"memory-trial","133","728053","0.0-18.0-1.44","5669","approach_avoid_sv1","""event"",""trial"",""time""
""blur"",""1"",""379910""
""focus"",""1"",""394531""
""fullscreenenter"",""1"",""395836""
","""event"",""trial"",""time""
""blur"",""1"",""379910""
","""event"",""trial"",""time""
""focus"",""1"",""394531""
","""event"",""trial"",""time""
""fullscreenenter"",""1"",""395836""
","
","","","","","","519.3999999761581","images/sheep4.png","","","memory_trial","1","definitely_old",""
"html-keyboard-response","134","728559","0.0-18.0-0.45","5669","approach_avoid_sv1","""event"",""trial"",""time""
""blur"",""1"",""379910""
""focus"",""1"",""394531""
""fullscreenenter"",""1"",""395836""
","""event"",""trial"",""time""
""blur"",""1"",""379910""
","""event"",""trial"",""time""
""focus"",""1"",""394531""
","""event"",""trial"",""time""
""fullscreenenter"",""1"",""395836""
","
","","","","","","null","<div style=""font-size:60px;"">+</div>","null","","fixation","","",""
"memory-trial","135","730358","0.0-18.0-1.45","5669","approach_avoid_sv1","""event"",""trial"",""time""
""blur"",""1"",""379910""
""focus"",""1"",""394531""
""fullscreenenter"",""1"",""395836""
","""event"",""trial"",""time""
""blur"",""1"",""379910""
","""event"",""trial"",""time""
""focus"",""1"",""394531""
","""event"",""trial"",""time""
""fullscreenenter"",""1"",""395836""
","
","","","","","","789.1999999284744","images/rodent6.png","","","memory_trial","4","definitely_new",""
"html-keyboard-response","136","730862","0.0-18.0-0.46","5669","approach_avoid_sv1","""event"",""trial"",""time""
""blur"",""1"",""379910""
""focus"",""1"",""394531""
""fullscreenenter"",""1"",""395836""
","""event"",""trial"",""time""
""blur"",""1"",""379910""
","""event"",""trial"",""time""
""focus"",""1"",""394531""
","""event"",""trial"",""time""
""fullscreenenter"",""1"",""395836""
","
","","","","","","null","<div style=""font-size:60px;"">+</div>","null","","fixation","","",""
"memory-trial","137","732612","0.0-18.0-1.46","5669","approach_avoid_sv1","""event"",""trial"",""time""
""blur"",""1"",""379910""
""focus"",""1"",""394531""
""fullscreenenter"",""1"",""395836""
","""event"",""trial"",""time""
""blur"",""1"",""379910""
","""event"",""trial"",""time""
""focus"",""1"",""394531""
","""event"",""trial"",""time""
""fullscreenenter"",""1"",""395836""
","
","","","","","","747.3999999761581","images/table2.png","","","memory_trial","4","definitely_new",""
"html-keyboard-response","138","733117","0.0-18.0-0.47","5669","approach_avoid_sv1","""event"",""trial"",""time""
""blur"",""1"",""379910""
""focus"",""1"",""394531""
""fullscreenenter"",""1"",""395836""
","""event"",""trial"",""time""
""blur"",""1"",""379910""
","""event"",""trial"",""time""
""focus"",""1"",""394531""
","""event"",""trial"",""time""
""fullscreenenter"",""1"",""395836""
","
","","","","","","null","<div style=""font-size:60px;"">+</div>","null","","fixation","","",""
"memory-trial","139","736005","0.0-18.0-1.47","5669","approach_avoid_sv1","""event"",""trial"",""time""
""blur"",""1"",""379910""
""focus"",""1"",""394531""
""fullscreenenter"",""1"",""395836""
","""event"",""trial"",""time""
""blur"",""1"",""379910""
","""event"",""trial"",""time""
""focus"",""1"",""394531""
","""event"",""trial"",""time""
""fullscreenenter"",""1"",""395836""
","
","","","","","","1878.1000000238419","images/train8.png","","","memory_trial","4","definitely_new",""
"html-keyboard-response","140","736510","0.0-18.0-0.48","5669","approach_avoid_sv1","""event"",""trial"",""time""
""blur"",""1"",""379910""
""focus"",""1"",""394531""
""fullscreenenter"",""1"",""395836""
","""event"",""trial"",""time""
""blur"",""1"",""379910""
","""event"",""trial"",""time""
""focus"",""1"",""394531""
","""event"",""trial"",""time""
""fullscreenenter"",""1"",""395836""
","
","","","","","","null","<div style=""font-size:60px;"">+</div>","null","","fixation","","",""
"memory-trial","141","738285","0.0-18.0-1.48","5669","approach_avoid_sv1","""event"",""trial"",""time""
""blur"",""1"",""379910""
""focus"",""1"",""394531""
""fullscreenenter"",""1"",""395836""
","""event"",""trial"",""time""
""blur"",""1"",""379910""
","""event"",""trial"",""time""
""focus"",""1"",""394531""
","""event"",""trial"",""time""
""fullscreenenter"",""1"",""395836""
","
","","","","","","767","images/dog1.png","","","memory_trial","4","definitely_new",""
"html-keyboard-response","142","738789","0.0-18.0-0.49","5669","approach_avoid_sv1","""event"",""trial"",""time""
""blur"",""1"",""379910""
""focus"",""1"",""394531""
""fullscreenenter"",""1"",""395836""
","""event"",""trial"",""time""
""blur"",""1"",""379910""
","""event"",""trial"",""time""
""focus"",""1"",""394531""
","""event"",""trial"",""time""
""fullscreenenter"",""1"",""395836""
","
","","","","","","null","<div style=""font-size:60px;"">+</div>","null","","fixation","","",""
"memory-trial","143","741710","0.0-18.0-1.49","5669","approach_avoid_sv1","""event"",""trial"",""time""
""blur"",""1"",""379910""
""focus"",""1"",""394531""
""fullscreenenter"",""1"",""395836""
","""event"",""trial"",""time""
""blur"",""1"",""379910""
","""event"",""trial"",""time""
""focus"",""1"",""394531""
","""event"",""trial"",""time""
""fullscreenenter"",""1"",""395836""
","
","","","","","","1914.3999999761581","images/cow7.png","","","memory_trial","3","maybe_new",""
"html-keyboard-response","144","742213","0.0-18.0-0.50","5669","approach_avoid_sv1","""event"",""trial"",""time""
""blur"",""1"",""379910""
""focus"",""1"",""394531""
""fullscreenenter"",""1"",""395836""
","""event"",""trial"",""time""
""blur"",""1"",""379910""
","""event"",""trial"",""time""
""focus"",""1"",""394531""
","""event"",""trial"",""time""
""fullscreenenter"",""1"",""395836""
","
","","","","","","null","<div style=""font-size:60px;"">+</div>","null","","fixation","","",""
"memory-trial","145","744374","0.0-18.0-1.50","5669","approach_avoid_sv1","""event"",""trial"",""time""
""blur"",""1"",""379910""
""focus"",""1"",""394531""
""fullscreenenter"",""1"",""395836""
","""event"",""trial"",""time""
""blur"",""1"",""379910""
","""event"",""trial"",""time""
""focus"",""1"",""394531""
","""event"",""trial"",""time""
""fullscreenenter"",""1"",""395836""
","
","","","","","","1153.5","images/bed6.png","","","memory_trial","4","definitely_new",""
"html-keyboard-response","146","744877","0.0-18.0-0.51","5669","approach_avoid_sv1","""event"",""trial"",""time""
""blur"",""1"",""379910""
""focus"",""1"",""394531""
""fullscreenenter"",""1"",""395836""
","""event"",""trial"",""time""
""blur"",""1"",""379910""
","""event"",""trial"",""time""
""focus"",""1"",""394531""
","""event"",""trial"",""time""
""fullscreenenter"",""1"",""395836""
","
","","","","","","null","<div style=""font-size:60px;"">+</div>","null","","fixation","","",""
"memory-trial","147","746742","0.0-18.0-1.51","5669","approach_avoid_sv1","""event"",""trial"",""time""
""blur"",""1"",""379910""
""focus"",""1"",""394531""
""fullscreenenter"",""1"",""395836""
","""event"",""trial"",""time""
""blur"",""1"",""379910""
","""event"",""trial"",""time""
""focus"",""1"",""394531""
","""event"",""trial"",""time""
""fullscreenenter"",""1"",""395836""
","
","","","","","","857.8999999761581","images/flower5.png","","","memory_trial","4","definitely_new",""
"html-keyboard-response","148","747246","0.0-18.0-0.52","5669","approach_avoid_sv1","""event"",""trial"",""time""
""blur"",""1"",""379910""
""focus"",""1"",""394531""
""fullscreenenter"",""1"",""395836""
","""event"",""trial"",""time""
""blur"",""1"",""379910""
","""event"",""trial"",""time""
""focus"",""1"",""394531""
","""event"",""trial"",""time""
""fullscreenenter"",""1"",""395836""
","
","","","","","","null","<div style=""font-size:60px;"">+</div>","null","","fixation","","",""
"memory-trial","149","749237","0.0-18.0-1.52","5669","approach_avoid_sv1","""event"",""trial"",""time""
""blur"",""1"",""379910""
""focus"",""1"",""394531""
""fullscreenenter"",""1"",""395836""
","""event"",""trial"",""time""
""blur"",""1"",""379910""
","""event"",""trial"",""time""
""focus"",""1"",""394531""
","""event"",""trial"",""time""
""fullscreenenter"",""1"",""395836""
","
","","","","","","983.7999999523163","images/truck6.png","","","memory_trial","4","definitely_new",""
"html-keyboard-response","150","749741","0.0-18.0-0.53","5669","approach_avoid_sv1","""event"",""trial"",""time""
""blur"",""1"",""379910""
""focus"",""1"",""394531""
""fullscreenenter"",""1"",""395836""
","""event"",""trial"",""time""
""blur"",""1"",""379910""
","""event"",""trial"",""time""
""focus"",""1"",""394531""
","""event"",""trial"",""time""
""fullscreenenter"",""1"",""395836""
","
","","","","","","null","<div style=""font-size:60px;"">+</div>","null","","fixation","","",""
"memory-trial","151","751693","0.0-18.0-1.53","5669","approach_avoid_sv1","""event"",""trial"",""time""
""blur"",""1"",""379910""
""focus"",""1"",""394531""
""fullscreenenter"",""1"",""395836""
","""event"",""trial"",""time""
""blur"",""1"",""379910""
","""event"",""trial"",""time""
""focus"",""1"",""394531""
","""event"",""trial"",""time""
""fullscreenenter"",""1"",""395836""
","
","","","","","","946.8000000715256","images/train4.png","","","memory_trial","1","definitely_old",""
"html-keyboard-response","152","752197","0.0-18.0-0.54","5669","approach_avoid_sv1","""event"",""trial"",""time""
""blur"",""1"",""379910""
""focus"",""1"",""394531""
""fullscreenenter"",""1"",""395836""
","""event"",""trial"",""time""
""blur"",""1"",""379910""
","""event"",""trial"",""time""
""focus"",""1"",""394531""
","""event"",""trial"",""time""
""fullscreenenter"",""1"",""395836""
","
","","","","","","null","<div style=""font-size:60px;"">+</div>","null","","fixation","","",""
"memory-trial","153","754324","0.0-18.0-1.54","5669","approach_avoid_sv1","""event"",""trial"",""time""
""blur"",""1"",""379910""
""focus"",""1"",""394531""
""fullscreenenter"",""1"",""395836""
","""event"",""trial"",""time""
""blur"",""1"",""379910""
","""event"",""trial"",""time""
""focus"",""1"",""394531""
","""event"",""trial"",""time""
""fullscreenenter"",""1"",""395836""
","
","","","","","","1121.7999999523163","images/apple4.png","","","memory_trial","1","definitely_old",""
"html-keyboard-response","154","754831","0.0-18.0-0.55","5669","approach_avoid_sv1","""event"",""trial"",""time""
""blur"",""1"",""379910""
""focus"",""1"",""394531""
""fullscreenenter"",""1"",""395836""
","""event"",""trial"",""time""
""blur"",""1"",""379910""
","""event"",""trial"",""time""
""focus"",""1"",""394531""
","""event"",""trial"",""time""
""fullscreenenter"",""1"",""395836""
","
","","","","","","null","<div style=""font-size:60px;"">+</div>","null","","fixation","","",""
"memory-trial","155","758341","0.0-18.0-1.55","5669","approach_avoid_sv1","""event"",""trial"",""time""
""blur"",""1"",""379910""
""focus"",""1"",""394531""
""fullscreenenter"",""1"",""395836""
","""event"",""trial"",""time""
""blur"",""1"",""379910""
","""event"",""trial"",""time""
""focus"",""1"",""394531""
","""event"",""trial"",""time""
""fullscreenenter"",""1"",""395836""
","
","","","","","","2500.6999999284744","images/orange6.png","","","memory_trial","3","maybe_new",""
"html-keyboard-response","156","758846","0.0-18.0-0.56","5669","approach_avoid_sv1","""event"",""trial"",""time""
""blur"",""1"",""379910""
""focus"",""1"",""394531""
""fullscreenenter"",""1"",""395836""
","""event"",""trial"",""time""
""blur"",""1"",""379910""
","""event"",""trial"",""time""
""focus"",""1"",""394531""
","""event"",""trial"",""time""
""fullscreenenter"",""1"",""395836""
","
","","","","","","null","<div style=""font-size:60px;"">+</div>","null","","fixation","","",""
"memory-trial","157","760991","0.0-18.0-1.56","5669","approach_avoid_sv1","""event"",""trial"",""time""
""blur"",""1"",""379910""
""focus"",""1"",""394531""
""fullscreenenter"",""1"",""395836""
","""event"",""trial"",""time""
""blur"",""1"",""379910""
","""event"",""trial"",""time""
""focus"",""1"",""394531""
","""event"",""trial"",""time""
""fullscreenenter"",""1"",""395836""
","
","","","","","","1141.3999999761581","images/goat5.png","","","memory_trial","4","definitely_new",""
"html-keyboard-response","158","761494","0.0-18.0-0.57","5669","approach_avoid_sv1","""event"",""trial"",""time""
""blur"",""1"",""379910""
""focus"",""1"",""394531""
""fullscreenenter"",""1"",""395836""
","""event"",""trial"",""time""
""blur"",""1"",""379910""
","""event"",""trial"",""time""
""focus"",""1"",""394531""
","""event"",""trial"",""time""
""fullscreenenter"",""1"",""395836""
","
","","","","","","null","<div style=""font-size:60px;"">+</div>","null","","fixation","","",""
"memory-trial","159","763222","0.0-18.0-1.57","5669","approach_avoid_sv1","""event"",""trial"",""time""
""blur"",""1"",""379910""
""focus"",""1"",""394531""
""fullscreenenter"",""1"",""395836""
","""event"",""trial"",""time""
""blur"",""1"",""379910""
","""event"",""trial"",""time""
""focus"",""1"",""394531""
","""event"",""trial"",""time""
""fullscreenenter"",""1"",""395836""
","
","","","","","","720.2000000476837","images/cat8.png","","","memory_trial","4","definitely_new",""
"html-keyboard-response","160","763725","0.0-18.0-0.58","5669","approach_avoid_sv1","""event"",""trial"",""time""
""blur"",""1"",""379910""
""focus"",""1"",""394531""
""fullscreenenter"",""1"",""395836""
","""event"",""trial"",""time""
""blur"",""1"",""379910""
","""event"",""trial"",""time""
""focus"",""1"",""394531""
","""event"",""trial"",""time""
""fullscreenenter"",""1"",""395836""
","
","","","","","","null","<div style=""font-size:60px;"">+</div>","null","","fixation","","",""
"memory-trial","161","766885","0.0-18.0-1.58","5669","approach_avoid_sv1","""event"",""trial"",""time""
""blur"",""1"",""379910""
""focus"",""1"",""394531""
""fullscreenenter"",""1"",""395836""
","""event"",""trial"",""time""
""blur"",""1"",""379910""
","""event"",""trial"",""time""
""focus"",""1"",""394531""
","""event"",""trial"",""time""
""fullscreenenter"",""1"",""395836""
","
","","","","","","2155.7999999523163","images/tree4.png","","","memory_trial","2","maybe_old",""
"html-keyboard-response","162","767389","0.0-18.0-0.59","5669","approach_avoid_sv1","""event"",""trial"",""time""
""blur"",""1"",""379910""
""focus"",""1"",""394531""
""fullscreenenter"",""1"",""395836""
","""event"",""trial"",""time""
""blur"",""1"",""379910""
","""event"",""trial"",""time""
""focus"",""1"",""394531""
","""event"",""trial"",""time""
""fullscreenenter"",""1"",""395836""
","
","","","","","","null","<div style=""font-size:60px;"">+</div>","null","","fixation","","",""
"memory-trial","163","769109","0.0-18.0-1.59","5669","approach_avoid_sv1","""event"",""trial"",""time""
""blur"",""1"",""379910""
""focus"",""1"",""394531""
""fullscreenenter"",""1"",""395836""
","""event"",""trial"",""time""
""blur"",""1"",""379910""
","""event"",""trial"",""time""
""focus"",""1"",""394531""
","""event"",""trial"",""time""
""fullscreenenter"",""1"",""395836""
","
","","","","","","716.7000000476837","images/horse7.png","","","memory_trial","4","definitely_new",""
"html-keyboard-response","164","769613","0.0-18.0-0.60","5669","approach_avoid_sv1","""event"",""trial"",""time""
""blur"",""1"",""379910""
""focus"",""1"",""394531""
""fullscreenenter"",""1"",""395836""
","""event"",""trial"",""time""
""blur"",""1"",""379910""
","""event"",""trial"",""time""
""focus"",""1"",""394531""
","""event"",""trial"",""time""
""fullscreenenter"",""1"",""395836""
","
","","","","","","null","<div style=""font-size:60px;"">+</div>","null","","fixation","","",""
"memory-trial","165","771254","0.0-18.0-1.60","5669","approach_avoid_sv1","""event"",""trial"",""time""
""blur"",""1"",""379910""
""focus"",""1"",""394531""
""fullscreenenter"",""1"",""395836""
","""event"",""trial"",""time""
""blur"",""1"",""379910""
","""event"",""trial"",""time""
""focus"",""1"",""394531""
","""event"",""trial"",""time""
""fullscreenenter"",""1"",""395836""
","
","","","","","","631.7999999523163","images/tree1.png","","","memory_trial","1","definitely_old",""
"html-keyboard-response","166","771757","0.0-18.0-0.61","5669","approach_avoid_sv1","""event"",""trial"",""time""
""blur"",""1"",""379910""
""focus"",""1"",""394531""
""fullscreenenter"",""1"",""395836""
","""event"",""trial"",""time""
""blur"",""1"",""379910""
","""event"",""trial"",""time""
""focus"",""1"",""394531""
","""event"",""trial"",""time""
""fullscreenenter"",""1"",""395836""
","
","","","","","","null","<div style=""font-size:60px;"">+</div>","null","","fixation","","",""
"memory-trial","167","773382","0.0-18.0-1.61","5669","approach_avoid_sv1","""event"",""trial"",""time""
""blur"",""1"",""379910""
""focus"",""1"",""394531""
""fullscreenenter"",""1"",""395836""
","""event"",""trial"",""time""
""blur"",""1"",""379910""
","""event"",""trial"",""time""
""focus"",""1"",""394531""
","""event"",""trial"",""time""
""fullscreenenter"",""1"",""395836""
","
","","","","","","617.2000000476837","images/truck5.png","","","memory_trial","4","definitely_new",""
"html-keyboard-response","168","773885","0.0-18.0-0.62","5669","approach_avoid_sv1","""event"",""trial"",""time""
""blur"",""1"",""379910""
""focus"",""1"",""394531""
""fullscreenenter"",""1"",""395836""
","""event"",""trial"",""time""
""blur"",""1"",""379910""
","""event"",""trial"",""time""
""focus"",""1"",""394531""
","""event"",""trial"",""time""
""fullscreenenter"",""1"",""395836""
","
","","","","","","null","<div style=""font-size:60px;"">+</div>","null","","fixation","","",""
"memory-trial","169","776085","0.0-18.0-1.62","5669","approach_avoid_sv1","""event"",""trial"",""time""
""blur"",""1"",""379910""
""focus"",""1"",""394531""
""fullscreenenter"",""1"",""395836""
","""event"",""trial"",""time""
""blur"",""1"",""379910""
","""event"",""trial"",""time""
""focus"",""1"",""394531""
","""event"",""trial"",""time""
""fullscreenenter"",""1"",""395836""
","
","","","","","","1192.2000000476837","images/cactus7.png","","","memory_trial","4","definitely_new",""
"html-keyboard-response","170","776589","0.0-18.0-0.63","5669","approach_avoid_sv1","""event"",""trial"",""time""
""blur"",""1"",""379910""
""focus"",""1"",""394531""
""fullscreenenter"",""1"",""395836""
","""event"",""trial"",""time""
""blur"",""1"",""379910""
","""event"",""trial"",""time""
""focus"",""1"",""394531""
","""event"",""trial"",""time""
""fullscreenenter"",""1"",""395836""
","
","","","","","","null","<div style=""font-size:60px;"">+</div>","null","","fixation","","",""
"memory-trial","171","778494","0.0-18.0-1.63","5669","approach_avoid_sv1","""event"",""trial"",""time""
""blur"",""1"",""379910""
""focus"",""1"",""394531""
""fullscreenenter"",""1"",""395836""
","""event"",""trial"",""time""
""blur"",""1"",""379910""
","""event"",""trial"",""time""
""focus"",""1"",""394531""
","""event"",""trial"",""time""
""fullscreenenter"",""1"",""395836""
","
","","","","","","895.2999999523163","images/banana7.png","","","memory_trial","4","definitely_new",""
"html-keyboard-response","172","778997","0.0-18.0-0.64","5669","approach_avoid_sv1","""event"",""trial"",""time""
""blur"",""1"",""379910""
""focus"",""1"",""394531""
""fullscreenenter"",""1"",""395836""
","""event"",""trial"",""time""
""blur"",""1"",""379910""
","""event"",""trial"",""time""
""focus"",""1"",""394531""
","""event"",""trial"",""time""
""fullscreenenter"",""1"",""395836""
","
","","","","","","null","<div style=""font-size:60px;"">+</div>","null","","fixation","","",""
"memory-trial","173","780871","0.0-18.0-1.64","5669","approach_avoid_sv1","""event"",""trial"",""time""
""blur"",""1"",""379910""
""focus"",""1"",""394531""
""fullscreenenter"",""1"",""395836""
","""event"",""trial"",""time""
""blur"",""1"",""379910""
","""event"",""trial"",""time""
""focus"",""1"",""394531""
","""event"",""trial"",""time""
""fullscreenenter"",""1"",""395836""
","
","","","","","","864","images/bush5.png","","","memory_trial","4","definitely_new",""
"html-keyboard-response","174","781373","0.0-18.0-0.65","5669","approach_avoid_sv1","""event"",""trial"",""time""
""blur"",""1"",""379910""
""focus"",""1"",""394531""
""fullscreenenter"",""1"",""395836""
","""event"",""trial"",""time""
""blur"",""1"",""379910""
","""event"",""trial"",""time""
""focus"",""1"",""394531""
","""event"",""trial"",""time""
""fullscreenenter"",""1"",""395836""
","
","","","","","","null","<div style=""font-size:60px;"">+</div>","null","","fixation","","",""
"memory-trial","175","783669","0.0-18.0-1.65","5669","approach_avoid_sv1","""event"",""trial"",""time""
""blur"",""1"",""379910""
""focus"",""1"",""394531""
""fullscreenenter"",""1"",""395836""
","""event"",""trial"",""time""
""blur"",""1"",""379910""
","""event"",""trial"",""time""
""focus"",""1"",""394531""
","""event"",""trial"",""time""
""fullscreenenter"",""1"",""395836""
","
","","","","","","1287.6000000238419","images/train2.png","","","memory_trial","1","definitely_old",""
"html-keyboard-response","176","784173","0.0-18.0-0.66","5669","approach_avoid_sv1","""event"",""trial"",""time""
""blur"",""1"",""379910""
""focus"",""1"",""394531""
""fullscreenenter"",""1"",""395836""
","""event"",""trial"",""time""
""blur"",""1"",""379910""
","""event"",""trial"",""time""
""focus"",""1"",""394531""
","""event"",""trial"",""time""
""fullscreenenter"",""1"",""395836""
","
","","","","","","null","<div style=""font-size:60px;"">+</div>","null","","fixation","","",""
"memory-trial","177","785765","0.0-18.0-1.66","5669","approach_avoid_sv1","""event"",""trial"",""time""
""blur"",""1"",""379910""
""focus"",""1"",""394531""
""fullscreenenter"",""1"",""395836""
","""event"",""trial"",""time""
""blur"",""1"",""379910""
","""event"",""trial"",""time""
""focus"",""1"",""394531""
","""event"",""trial"",""time""
""fullscreenenter"",""1"",""395836""
","
","","","","","","582.7999999523163","images/train7.png","","","memory_trial","4","definitely_new",""
"html-keyboard-response","178","786269","0.0-18.0-0.67","5669","approach_avoid_sv1","""event"",""trial"",""time""
""blur"",""1"",""379910""
""focus"",""1"",""394531""
""fullscreenenter"",""1"",""395836""
","""event"",""trial"",""time""
""blur"",""1"",""379910""
","""event"",""trial"",""time""
""focus"",""1"",""394531""
","""event"",""trial"",""time""
""fullscreenenter"",""1"",""395836""
","
","","","","","","null","<div style=""font-size:60px;"">+</div>","null","","fixation","","",""
"memory-trial","179","788117","0.0-18.0-1.67","5669","approach_avoid_sv1","""event"",""trial"",""time""
""blur"",""1"",""379910""
""focus"",""1"",""394531""
""fullscreenenter"",""1"",""395836""
","""event"",""trial"",""time""
""blur"",""1"",""379910""
","""event"",""trial"",""time""
""focus"",""1"",""394531""
","""event"",""trial"",""time""
""fullscreenenter"",""1"",""395836""
","
","","","","","","846.1000000238419","images/orange1.png","","","memory_trial","4","definitely_new",""
"html-keyboard-response","180","788621","0.0-18.0-0.68","5669","approach_avoid_sv1","""event"",""trial"",""time""
""blur"",""1"",""379910""
""focus"",""1"",""394531""
""fullscreenenter"",""1"",""395836""
","""event"",""trial"",""time""
""blur"",""1"",""379910""
","""event"",""trial"",""time""
""focus"",""1"",""394531""
","""event"",""trial"",""time""
""fullscreenenter"",""1"",""395836""
","
","","","","","","null","<div style=""font-size:60px;"">+</div>","null","","fixation","","",""
"memory-trial","181","790757","0.0-18.0-1.68","5669","approach_avoid_sv1","""event"",""trial"",""time""
""blur"",""1"",""379910""
""focus"",""1"",""394531""
""fullscreenenter"",""1"",""395836""
","""event"",""trial"",""time""
""blur"",""1"",""379910""
","""event"",""trial"",""time""
""focus"",""1"",""394531""
","""event"",""trial"",""time""
""fullscreenenter"",""1"",""395836""
","
","","","","","","1127.2000000476837","images/dog8.png","","","memory_trial","1","definitely_old",""
"html-keyboard-response","182","791261","0.0-18.0-0.69","5669","approach_avoid_sv1","""event"",""trial"",""time""
""blur"",""1"",""379910""
""focus"",""1"",""394531""
""fullscreenenter"",""1"",""395836""
","""event"",""trial"",""time""
""blur"",""1"",""379910""
","""event"",""trial"",""time""
""focus"",""1"",""394531""
","""event"",""trial"",""time""
""fullscreenenter"",""1"",""395836""
","
","","","","","","null","<div style=""font-size:60px;"">+</div>","null","","fixation","","",""
"memory-trial","183","793285","0.0-18.0-1.69","5669","approach_avoid_sv1","""event"",""trial"",""time""
""blur"",""1"",""379910""
""focus"",""1"",""394531""
""fullscreenenter"",""1"",""395836""
","""event"",""trial"",""time""
""blur"",""1"",""379910""
","""event"",""trial"",""time""
""focus"",""1"",""394531""
","""event"",""trial"",""time""
""fullscreenenter"",""1"",""395836""
","
","","","","","","1018","images/rabbit8.png","","","memory_trial","1","definitely_old",""
"html-keyboard-response","184","793790","0.0-18.0-0.70","5669","approach_avoid_sv1","""event"",""trial"",""time""
""blur"",""1"",""379910""
""focus"",""1"",""394531""
""fullscreenenter"",""1"",""395836""
","""event"",""trial"",""time""
""blur"",""1"",""379910""
","""event"",""trial"",""time""
""focus"",""1"",""394531""
","""event"",""trial"",""time""
""fullscreenenter"",""1"",""395836""
","
","","","","","","null","<div style=""font-size:60px;"">+</div>","null","","fixation","","",""
"memory-trial","185","795637","0.0-18.0-1.70","5669","approach_avoid_sv1","""event"",""trial"",""time""
""blur"",""1"",""379910""
""focus"",""1"",""394531""
""fullscreenenter"",""1"",""395836""
","""event"",""trial"",""time""
""blur"",""1"",""379910""
","""event"",""trial"",""time""
""focus"",""1"",""394531""
","""event"",""trial"",""time""
""fullscreenenter"",""1"",""395836""
","
","","","","","","842.7999999523163","images/tree2.png","","","memory_trial","1","definitely_old",""
"html-keyboard-response","186","796141","0.0-18.0-0.71","5669","approach_avoid_sv1","""event"",""trial"",""time""
""blur"",""1"",""379910""
""focus"",""1"",""394531""
""fullscreenenter"",""1"",""395836""
","""event"",""trial"",""time""
""blur"",""1"",""379910""
","""event"",""trial"",""time""
""focus"",""1"",""394531""
","""event"",""trial"",""time""
""fullscreenenter"",""1"",""395836""
","
","","","","","","null","<div style=""font-size:60px;"">+</div>","null","","fixation","","",""
"memory-trial","187","797974","0.0-18.0-1.71","5669","approach_avoid_sv1","""event"",""trial"",""time""
""blur"",""1"",""379910""
""focus"",""1"",""394531""
""fullscreenenter"",""1"",""395836""
","""event"",""trial"",""time""
""blur"",""1"",""379910""
","""event"",""trial"",""time""
""focus"",""1"",""394531""
","""event"",""trial"",""time""
""fullscreenenter"",""1"",""395836""
","
","","","","","","823.8999999761581","images/plane7.png","","","memory_trial","4","definitely_new",""
"html-keyboard-response","188","798477","0.0-18.0-0.72","5669","approach_avoid_sv1","""event"",""trial"",""time""
""blur"",""1"",""379910""
""focus"",""1"",""394531""
""fullscreenenter"",""1"",""395836""
","""event"",""trial"",""time""
""blur"",""1"",""379910""
","""event"",""trial"",""time""
""focus"",""1"",""394531""
","""event"",""trial"",""time""
""fullscreenenter"",""1"",""395836""
","
","","","","","","null","<div style=""font-size:60px;"">+</div>","null","","fixation","","",""
"memory-trial","189","800486","0.0-18.0-1.72","5669","approach_avoid_sv1","""event"",""trial"",""time""
""blur"",""1"",""379910""
""focus"",""1"",""394531""
""fullscreenenter"",""1"",""395836""
","""event"",""trial"",""time""
""blur"",""1"",""379910""
","""event"",""trial"",""time""
""focus"",""1"",""394531""
","""event"",""trial"",""time""
""fullscreenenter"",""1"",""395836""
","
","","","","","","1006.2000000476837","images/rodent1.png","","","memory_trial","4","definitely_new",""
"html-keyboard-response","190","800989","0.0-18.0-0.73","5669","approach_avoid_sv1","""event"",""trial"",""time""
""blur"",""1"",""379910""
""focus"",""1"",""394531""
""fullscreenenter"",""1"",""395836""
","""event"",""trial"",""time""
""blur"",""1"",""379910""
","""event"",""trial"",""time""
""focus"",""1"",""394531""
","""event"",""trial"",""time""
""fullscreenenter"",""1"",""395836""
","
","","","","","","null","<div style=""font-size:60px;"">+</div>","null","","fixation","","",""
"memory-trial","191","803486","0.0-18.0-1.73","5669","approach_avoid_sv1","""event"",""trial"",""time""
""blur"",""1"",""379910""
""focus"",""1"",""394531""
""fullscreenenter"",""1"",""395836""
","""event"",""trial"",""time""
""blur"",""1"",""379910""
","""event"",""trial"",""time""
""focus"",""1"",""394531""
","""event"",""trial"",""time""
""fullscreenenter"",""1"",""395836""
","
","","","","","","1487.3999999761581","images/boat8.png","","","memory_trial","3","maybe_new",""
"html-keyboard-response","192","803989","0.0-18.0-0.74","5669","approach_avoid_sv1","""event"",""trial"",""time""
""blur"",""1"",""379910""
""focus"",""1"",""394531""
""fullscreenenter"",""1"",""395836""
","""event"",""trial"",""time""
""blur"",""1"",""379910""
","""event"",""trial"",""time""
""focus"",""1"",""394531""
","""event"",""trial"",""time""
""fullscreenenter"",""1"",""395836""
","
","","","","","","null","<div style=""font-size:60px;"">+</div>","null","","fixation","","",""
"memory-trial","193","805709","0.0-18.0-1.74","5669","approach_avoid_sv1","""event"",""trial"",""time""
""blur"",""1"",""379910""
""focus"",""1"",""394531""
""fullscreenenter"",""1"",""395836""
","""event"",""trial"",""time""
""blur"",""1"",""379910""
","""event"",""trial"",""time""
""focus"",""1"",""394531""
","""event"",""trial"",""time""
""fullscreenenter"",""1"",""395836""
","
","","","","","","709.3000000715256","images/sofa5.png","","","memory_trial","1","definitely_old",""
"html-keyboard-response","194","806213","0.0-18.0-0.75","5669","approach_avoid_sv1","""event"",""trial"",""time""
""blur"",""1"",""379910""
""focus"",""1"",""394531""
""fullscreenenter"",""1"",""395836""
","""event"",""trial"",""time""
""blur"",""1"",""379910""
","""event"",""trial"",""time""
""focus"",""1"",""394531""
","""event"",""trial"",""time""
""fullscreenenter"",""1"",""395836""
","
","","","","","","null","<div style=""font-size:60px;"">+</div>","null","","fixation","","",""
"memory-trial","195","808037","0.0-18.0-1.75","5669","approach_avoid_sv1","""event"",""trial"",""time""
""blur"",""1"",""379910""
""focus"",""1"",""394531""
""fullscreenenter"",""1"",""395836""
","""event"",""trial"",""time""
""blur"",""1"",""379910""
","""event"",""trial"",""time""
""focus"",""1"",""394531""
","""event"",""trial"",""time""
""fullscreenenter"",""1"",""395836""
","
