"trial_type","trial_index","time_elapsed","internal_node_id","subject_id","task_version","interactions","blur_events","focus_events","fullscreenenter_events","fullscreenexit_events","success","timeout","failed_images","failed_audio","failed_video","rt","stimulus","response","button_pressed","task_part","key_press","answer","correct"
"pavlovia","0","3","0.0-0.0","4906","approach_avoid_sv1","""event"",""trial"",""time""
""fullscreenenter"",""1"",""4145""
","
","
","""event"",""trial"",""time""
""fullscreenenter"",""1"",""4145""
","
","","","","","","","","","","","","",""
"fullscreen","1","5125","0.0-1.0","4906","approach_avoid_sv1","""event"",""trial"",""time""
""fullscreenenter"",""1"",""4145""
","
","
","""event"",""trial"",""time""
""fullscreenenter"",""1"",""4145""
","
","true","","","","","","","","","","","",""
"preload","2","19679","0.0-2.0","4906","approach_avoid_sv1","""event"",""trial"",""time""
""fullscreenenter"",""1"",""4145""
","
","
","""event"",""trial"",""time""
""fullscreenenter"",""1"",""4145""
","
","true","false","[]","[]","[]","","","","","","","",""
"preload","3","42825","0.0-3.0","4906","approach_avoid_sv1","""event"",""trial"",""time""
""fullscreenenter"",""1"",""4145""
","
","
","""event"",""trial"",""time""
""fullscreenenter"",""1"",""4145""
","
","true","false","[]","[]","[]","","","","","","","",""
"preload","4","44116","0.0-4.0","4906","approach_avoid_sv1","""event"",""trial"",""time""
""fullscreenenter"",""1"",""4145""
","
","
","""event"",""trial"",""time""
""fullscreenenter"",""1"",""4145""
","
","true","false","[]","[]","[]","","","","","","","",""
"audio-keyboard-response","5","47585","0.0-5.0","4906","approach_avoid_sv1","""event"",""trial"",""time""
""fullscreenenter"",""1"",""4145""
","
","
","""event"",""trial"",""time""
""fullscreenenter"",""1"",""4145""
","
","","","","","","2760.000000000005","audio/beep_loop.wav"," ","","","","",""
"audio-button-response","6","49382","0.0-6.0","4906","approach_avoid_sv1","""event"",""trial"",""time""
""fullscreenenter"",""1"",""4145""
","
","
","""event"",""trial"",""time""
""fullscreenenter"",""1"",""4145""
","
","","","","","","1800","audio/turtle.wav","3","","","","",""
"audio-button-response","7","52089","0.0-7.0","4906","approach_avoid_sv1","""event"",""trial"",""time""
""fullscreenenter"",""1"",""4145""
","
","
","""event"",""trial"",""time""
""fullscreenenter"",""1"",""4145""
","
","","","","","","1699","audio/shark.wav","2","","","","",""
"preload","8","78158","0.0-8.0","4906","approach_avoid_sv1","""event"",""trial"",""time""
""fullscreenenter"",""1"",""4145""
","
","
","""event"",""trial"",""time""
""fullscreenenter"",""1"",""4145""
","
","true","false","[]","[]","[]","","","","","","","",""
"learning-instructions","9","84402","0.0-9.0-0.0","4906","approach_avoid_sv1","""event"",""trial"",""time""
""fullscreenenter"",""1"",""4145""
","
","
","""event"",""trial"",""time""
""fullscreenenter"",""1"",""4145""
","
","","","","","","1770.5","<p> Welcome back! </p><p> Last week, you had to make choices about lots of different items.  </p>","","0","instructions","","",""
"learning-instructions","10","89123","0.0-9.0-0.1","4906","approach_avoid_sv1","""event"",""trial"",""time""
""fullscreenenter"",""1"",""4145""
","
","
","""event"",""trial"",""time""
""fullscreenenter"",""1"",""4145""
","
","","","","","","602.4000000953674","<p> Today, we are going to ask you to try to remember all the items. </p>","","0","instructions","","",""
"learning-instructions","11","99762","0.0-9.0-0.2","4906","approach_avoid_sv1","""event"",""trial"",""time""
""fullscreenenter"",""1"",""4145""
","
","
","""event"",""trial"",""time""
""fullscreenenter"",""1"",""4145""
","
","","","","","","501.2000000476837","<p> On every trial, you will see an image. </p><p> The image may be an OLD image you saw during the games last week or it may be a NEW image that was not presented. </p>","","0","instructions","","",""
"learning-instructions","12","109117","0.0-9.0-0.3","4906","approach_avoid_sv1","""event"",""trial"",""time""
""fullscreenenter"",""1"",""4145""
","
","
","""event"",""trial"",""time""
""fullscreenenter"",""1"",""4145""
","
","","","","","","855.8999999761581","<p> You need to select whether the image is:  </p><p>  'Definitely old', 'Maybe old', 'Maybe new', or 'Definitely new.'  </p><div class=""mem-choice-instructions-grid""><div class=""choice-option"" id=""choice-option-1"" ><img src=""images/definitely_old_1.png"" id=""choice-option-img-1"" class=""choice-option-img"" stage=""1""></div><div class=""choice-option"" id=""choice-option-2"" ><img src=""images/maybe_old_1.png"" id=""choice-option-img-2"" class=""choice-option-img"" stage=""1""></div><div class=""choice-option"" id=""choice-option-3"" ><img src=""images/maybe_new_1.png"" id=""choice-option-img-3"" class=""choice-option-img"" stage=""1""></div><div class=""choice-option"" id=""choice-option-4"" > <img src=""images/definitely_new_1.png"" id=""choice-option-img-4"" class=""choice-option-img"" stage=""1""></div></div>","","0","instructions","","",""
"learning-instructions","13","116097","0.0-9.0-0.4","4906","approach_avoid_sv1","""event"",""trial"",""time""
""fullscreenenter"",""1"",""4145""
","
","
","""event"",""trial"",""time""
""fullscreenenter"",""1"",""4145""
","
","","","","","","465.39999997615814","<p> You should use the 1, 2, 3, and 4 keys to make your responses.  </p><div class=""mem-choice-instructions-grid""><div class=""choice-option"" id=""choice-option-1"" ><img src=""images/definitely_old.png"" id=""choice-option-img-1"" class=""choice-option-img"" stage=""1""></div><div class=""choice-option"" id=""choice-option-2"" ><img src=""images/maybe_old.png"" id=""choice-option-img-2"" class=""choice-option-img"" stage=""1""></div><div class=""choice-option"" id=""choice-option-3"" ><img src=""images/maybe_new.png"" id=""choice-option-img-3"" class=""choice-option-img"" stage=""1""></div><div class=""choice-option"" id=""choice-option-4"" > <img src=""images/definitely_new.png"" id=""choice-option-img-4"" class=""choice-option-img"" stage=""1""></div></div>","","0","instructions","","",""
"learning-instructions","14","122772","0.0-9.0-0.5","4906","approach_avoid_sv1","""event"",""trial"",""time""
""fullscreenenter"",""1"",""4145""
","
","
","""event"",""trial"",""time""
""fullscreenenter"",""1"",""4145""
","
","","","","","","341.5","<p> You will have 10 seconds to make each response.  </p><p>  Make sure to respond before time runs out! </p>","","0","instructions","","",""
"learning-instructions","15","130409","0.0-9.0-0.6","4906","approach_avoid_sv1","""event"",""trial"",""time""
""fullscreenenter"",""1"",""4145""
","
","
","""event"",""trial"",""time""
""fullscreenenter"",""1"",""4145""
","
","","","","","","557.6999999284744","<p> Today, you will see each image ONCE only.  </p><p>  That means none of the images will repeat. </p>","","0","instructions","","",""
"learning-instructions","16","143638","0.0-9.0-0.7","4906","approach_avoid_sv1","""event"",""trial"",""time""
""fullscreenenter"",""1"",""4145""
","
","
","""event"",""trial"",""time""
""fullscreenenter"",""1"",""4145""
","
","","","","","","547","<p> Before you play the real game, it is time to practice. </p><p>  Just like in the real game, some of the images in the practice will be ones you have seen before. </p><p>  Others will be entirely new. </p>","","0","instructions","","",""
"html-button-response","17","148893","0.0-10.0","4906","approach_avoid_sv1","""event"",""trial"",""time""
""fullscreenenter"",""1"",""4145""
","
","
","""event"",""trial"",""time""
""fullscreenenter"",""1"",""4145""
","
","","","","","","5145.399999976158","<p> Ready to practice? </p><p> Remember, use the 1, 2, 3, and 4 keys to make your responses. </p>","0","","instructions","","",""
"html-keyboard-response","18","149520","0.0-11.0-0.0","4906","approach_avoid_sv1","""event"",""trial"",""time""
""fullscreenenter"",""1"",""4145""
","
","
","""event"",""trial"",""time""
""fullscreenenter"",""1"",""4145""
","
","","","","","","null","<div style=""font-size:60px;"">+</div>","null","","fixation","","",""
"memory-trial","19","153015","0.0-11.0-1.0","4906","approach_avoid_sv1","""event"",""trial"",""time""
""fullscreenenter"",""1"",""4145""
","
","
","""event"",""trial"",""time""
""fullscreenenter"",""1"",""4145""
","
","","","","","","2483.5","images/ball5.png","","","practice","3","maybe_new",""
"html-keyboard-response","20","153529","0.0-11.0-0.1","4906","approach_avoid_sv1","""event"",""trial"",""time""
""fullscreenenter"",""1"",""4145""
","
","
","""event"",""trial"",""time""
""fullscreenenter"",""1"",""4145""
","
","","","","","","null","<div style=""font-size:60px;"">+</div>","null","","fixation","","",""
"memory-trial","21","157139","0.0-11.0-1.1","4906","approach_avoid_sv1","""event"",""trial"",""time""
""fullscreenenter"",""1"",""4145""
","
","
","""event"",""trial"",""time""
""fullscreenenter"",""1"",""4145""
","
","","","","","","2592.2000000476837","images/ball1.png","","","practice","1","definitely_old",""
"html-keyboard-response","22","157656","0.0-11.0-0.2","4906","approach_avoid_sv1","""event"",""trial"",""time""
""fullscreenenter"",""1"",""4145""
","
","
","""event"",""trial"",""time""
""fullscreenenter"",""1"",""4145""
","
","","","","","","null","<div style=""font-size:60px;"">+</div>","null","","fixation","","",""
"memory-trial","23","161571","0.0-11.0-1.2","4906","approach_avoid_sv1","""event"",""trial"",""time""
""fullscreenenter"",""1"",""4145""
","
","
","""event"",""trial"",""time""
""fullscreenenter"",""1"",""4145""
","
","","","","","","2904.399999976158","images/racket5.png","","","practice","3","maybe_new",""
"html-keyboard-response","24","162085","0.0-11.0-0.3","4906","approach_avoid_sv1","""event"",""trial"",""time""
""fullscreenenter"",""1"",""4145""
","
","
","""event"",""trial"",""time""
""fullscreenenter"",""1"",""4145""
","
","","","","","","null","<div style=""font-size:60px;"">+</div>","null","","fixation","","",""
"memory-trial","25","165244","0.0-11.0-1.3","4906","approach_avoid_sv1","""event"",""trial"",""time""
""fullscreenenter"",""1"",""4145""
","
","
","""event"",""trial"",""time""
""fullscreenenter"",""1"",""4145""
","
","","","","","","2140.399999976158","images/ball3.png","","","practice","1","definitely_old",""
"html-keyboard-response","26","165745","0.0-11.0-0.4","4906","approach_avoid_sv1","""event"",""trial"",""time""
""fullscreenenter"",""1"",""4145""
","
","
","""event"",""trial"",""time""
""fullscreenenter"",""1"",""4145""
","
","","","","","","null","<div style=""font-size:60px;"">+</div>","null","","fixation","","",""
"memory-trial","27","168287","0.0-11.0-1.4","4906","approach_avoid_sv1","""event"",""trial"",""time""
""fullscreenenter"",""1"",""4145""
","
","
","""event"",""trial"",""time""
""fullscreenenter"",""1"",""4145""
","
","","","","","","1530.6000000238419","images/ball2.png","","","practice","1","definitely_old",""
"html-keyboard-response","28","168806","0.0-11.0-0.5","4906","approach_avoid_sv1","""event"",""trial"",""time""
""fullscreenenter"",""1"",""4145""
","
","
","""event"",""trial"",""time""
""fullscreenenter"",""1"",""4145""
","
","","","","","","null","<div style=""font-size:60px;"">+</div>","null","","fixation","","",""
"memory-trial","29","171322","0.0-11.0-1.5","4906","approach_avoid_sv1","""event"",""trial"",""time""
""fullscreenenter"",""1"",""4145""
","
","
","""event"",""trial"",""time""
""fullscreenenter"",""1"",""4145""
","
","","","","","","1504.8000000715256","images/racket2.png","","","practice","2","maybe_old",""
"html-keyboard-response","30","171840","0.0-11.0-0.6","4906","approach_avoid_sv1","""event"",""trial"",""time""
""fullscreenenter"",""1"",""4145""
","
","
","""event"",""trial"",""time""
""fullscreenenter"",""1"",""4145""
","
","","","","","","null","<div style=""font-size:60px;"">+</div>","null","","fixation","","",""
"memory-trial","31","174069","0.0-11.0-1.6","4906","approach_avoid_sv1","""event"",""trial"",""time""
""fullscreenenter"",""1"",""4145""
","
","
","""event"",""trial"",""time""
""fullscreenenter"",""1"",""4145""
","
","","","","","","1207.6999999284744","images/racket1.png","","","practice","2","maybe_old",""
"html-keyboard-response","32","174577","0.0-11.0-0.7","4906","approach_avoid_sv1","""event"",""trial"",""time""
""fullscreenenter"",""1"",""4145""
","
","
","""event"",""trial"",""time""
""fullscreenenter"",""1"",""4145""
","
","","","","","","null","<div style=""font-size:60px;"">+</div>","null","","fixation","","",""
"memory-trial","33","177298","0.0-11.0-1.7","4906","approach_avoid_sv1","""event"",""trial"",""time""
""fullscreenenter"",""1"",""4145""
","
","
","""event"",""trial"",""time""
""fullscreenenter"",""1"",""4145""
","
","","","","","","1715.4000000953674","images/racket3.png","","","practice","1","definitely_old",""
"learning-instructions","34","186576","0.0-12.0-0.0","4906","approach_avoid_sv1","""event"",""trial"",""time""
""fullscreenenter"",""1"",""4145""
","
","
","""event"",""trial"",""time""
""fullscreenenter"",""1"",""4145""
","
","","","","","","1980.6999999284744","<p> Great! You have completed the practice. </p><p> Before you start, we're going to ask you a few questions about how the game works.  </p>","","0","instructions","","",""
"preload","35","201529","0.0-13.0","4906","approach_avoid_sv1","""event"",""trial"",""time""
""fullscreenenter"",""1"",""4145""
","
","
","""event"",""trial"",""time""
""fullscreenenter"",""1"",""4145""
","
","true","false","[]","[]","[]","","","","","","","",""
"comp-q","36","208995","0.0-14.0-0.0","4906","approach_avoid_sv1","""event"",""trial"",""time""
""fullscreenenter"",""1"",""4145""
","
","
","""event"",""trial"",""time""
""fullscreenenter"",""1"",""4145""
","
","","","","","","1639","<p> <b> True or False? </b> </p><p> In this game, you will only see each image once. </p>","","0","comp_question","","","true"
"comp-q","37","216601","0.0-14.0-1.0","4906","approach_avoid_sv1","""event"",""trial"",""time""
""fullscreenenter"",""1"",""4145""
","
","
","""event"",""trial"",""time""
""fullscreenenter"",""1"",""4145""
","
","","","","","","1255.5","<p> <b> That's right! </b> You will see many different images <i> one time each </i> in this game. </p>","","0","comp_answer","","",""
"comp-q","38","222197","0.0-15.0-0.0","4906","approach_avoid_sv1","""event"",""trial"",""time""
""fullscreenenter"",""1"",""4145""
","
","
","""event"",""trial"",""time""
""fullscreenenter"",""1"",""4145""
","
","","","","","","571.6000000238419","<p> <b> True or False? </b> </p><p> You should use the mouse and click to make your response. </p>","","1","comp_question","","","true"
"comp-q","39","230464","0.0-15.0-1.0","4906","approach_avoid_sv1","""event"",""trial"",""time""
""fullscreenenter"",""1"",""4145""
","
","
","""event"",""trial"",""time""
""fullscreenenter"",""1"",""4145""
","
","","","","","","1768.8999999761581","<p><b> That's right! </b> You should use the '1', '2', '3', and '4' keys to make your response. </p>","","0","comp_answer","","",""
"comp-q","40","236700","0.0-16.0-0.0","4906","approach_avoid_sv1","""event"",""trial"",""time""
""fullscreenenter"",""1"",""4145""
","
","
","""event"",""trial"",""time""
""fullscreenenter"",""1"",""4145""
","
","","","","","","554.5999999046326","<p> <b> True or False? </b> </p><p> You will have as much time as you want to make each choice. </p>","","1","comp_question","","","true"
"comp-q","41","242428","0.0-16.0-1.0","4906","approach_avoid_sv1","""event"",""trial"",""time""
""fullscreenenter"",""1"",""4145""
","
","
","""event"",""trial"",""time""
""fullscreenenter"",""1"",""4145""
","
","","","","","","1021.8999999761581","<p> <b> That's right! </b> You will only have 10 seconds to make each choice. </p>","","0","comp_answer","","",""
"learning-instructions","42","253221","0.0-17.0","4906","approach_avoid_sv1","""event"",""trial"",""time""
""fullscreenenter"",""1"",""4145""
","
","
","""event"",""trial"",""time""
""fullscreenenter"",""1"",""4145""
","
","","","","","","2125.899999976158","<p> Great! You are now ready to begin the game. </p><p> Remember, use the 1, 2, 3, and 4 keys to make your responses. </p>","","0","instructions","","",""
"html-keyboard-response","43","253834","0.0-18.0-0.0","4906","approach_avoid_sv1","""event"",""trial"",""time""
""fullscreenenter"",""1"",""4145""
","
","
","""event"",""trial"",""time""
""fullscreenenter"",""1"",""4145""
","
","","","","","","null","<div style=""font-size:60px;"">+</div>","null","","fixation","","",""
"memory-trial","44","256407","0.0-18.0-1.0","4906","approach_avoid_sv1","""event"",""trial"",""time""
""fullscreenenter"",""1"",""4145""
","
","
","""event"",""trial"",""time""
""fullscreenenter"",""1"",""4145""
","
","","","","","","1554.8999999761581","images/orange5.png","","","memory_trial","1","definitely_old",""
"html-keyboard-response","45","256910","0.0-18.0-0.1","4906","approach_avoid_sv1","""event"",""trial"",""time""
""fullscreenenter"",""1"",""4145""
","
","
","""event"",""trial"",""time""
""fullscreenenter"",""1"",""4145""
","
","","","","","","null","<div style=""font-size:60px;"">+</div>","null","","fixation","","",""
"memory-trial","46","258997","0.0-18.0-1.1","4906","approach_avoid_sv1","""event"",""trial"",""time""
""fullscreenenter"",""1"",""4145""
","
","
","""event"",""trial"",""time""
""fullscreenenter"",""1"",""4145""
","
","","","","","","1075.2999999523163","images/sofa3.png","","","memory_trial","1","definitely_old",""
"html-keyboard-response","47","259514","0.0-18.0-0.2","4906","approach_avoid_sv1","""event"",""trial"",""time""
""fullscreenenter"",""1"",""4145""
","
","
","""event"",""trial"",""time""
""fullscreenenter"",""1"",""4145""
","
","","","","","","null","<div style=""font-size:60px;"">+</div>","null","","fixation","","",""
"memory-trial","48","261505","0.0-18.0-1.2","4906","approach_avoid_sv1","""event"",""trial"",""time""
""fullscreenenter"",""1"",""4145""
","
","
","""event"",""trial"",""time""
""fullscreenenter"",""1"",""4145""
","
","","","","","","974.4000000953674","images/truck1.png","","","memory_trial","1","definitely_old",""
"html-keyboard-response","49","262023","0.0-18.0-0.3","4906","approach_avoid_sv1","""event"",""trial"",""time""
""fullscreenenter"",""1"",""4145""
","
","
","""event"",""trial"",""time""
""fullscreenenter"",""1"",""4145""
","
","","","","","","null","<div style=""font-size:60px;"">+</div>","null","","fixation","","",""
"memory-trial","50","264997","0.0-18.0-1.3","4906","approach_avoid_sv1","""event"",""trial"",""time""
""fullscreenenter"",""1"",""4145""
","
","
","""event"",""trial"",""time""
""fullscreenenter"",""1"",""4145""
","
","","","","","","1954.5","images/cat6.png","","","memory_trial","4","definitely_new",""
"html-keyboard-response","51","265509","0.0-18.0-0.4","4906","approach_avoid_sv1","""event"",""trial"",""time""
""fullscreenenter"",""1"",""4145""
","
","
","""event"",""trial"",""time""
""fullscreenenter"",""1"",""4145""
","
","","","","","","null","<div style=""font-size:60px;"">+</div>","null","","fixation","","",""
"memory-trial","52","268044","0.0-18.0-1.4","4906","approach_avoid_sv1","""event"",""trial"",""time""
""fullscreenenter"",""1"",""4145""
","
","
","""event"",""trial"",""time""
""fullscreenenter"",""1"",""4145""
","
","","","","","","1528.7000000476837","images/bush6.png","","","memory_trial","1","definitely_old",""
"html-keyboard-response","53","268546","0.0-18.0-0.5","4906","approach_avoid_sv1","""event"",""trial"",""time""
""fullscreenenter"",""1"",""4145""
","
","
","""event"",""trial"",""time""
""fullscreenenter"",""1"",""4145""
","
","","","","","","null","<div style=""font-size:60px;"">+</div>","null","","fixation","","",""
"memory-trial","54","271067","0.0-18.0-1.5","4906","approach_avoid_sv1","""event"",""trial"",""time""
""fullscreenenter"",""1"",""4145""
","
","
","""event"",""trial"",""time""
""fullscreenenter"",""1"",""4145""
","
","","","","","","1507.2999999523163","images/boat5.png","","","memory_trial","2","maybe_old",""
"html-keyboard-response","55","271584","0.0-18.0-0.6","4906","approach_avoid_sv1","""event"",""trial"",""time""
""fullscreenenter"",""1"",""4145""
","
","
","""event"",""trial"",""time""
""fullscreenenter"",""1"",""4145""
","
","","","","","","null","<div style=""font-size:60px;"">+</div>","null","","fixation","","",""
"memory-trial","56","274099","0.0-18.0-1.6","4906","approach_avoid_sv1","""event"",""trial"",""time""
""fullscreenenter"",""1"",""4145""
","
","
","""event"",""trial"",""time""
""fullscreenenter"",""1"",""4145""
","
","","","","","","1499.2000000476837","images/tree5.png","","","memory_trial","1","definitely_old",""
"html-keyboard-response","57","274604","0.0-18.0-0.7","4906","approach_avoid_sv1","""event"",""trial"",""time""
""fullscreenenter"",""1"",""4145""
","
","
","""event"",""trial"",""time""
""fullscreenenter"",""1"",""4145""
","
","","","","","","null","<div style=""font-size:60px;"">+</div>","null","","fixation","","",""
"memory-trial","58","277468","0.0-18.0-1.7","4906","approach_avoid_sv1","""event"",""trial"",""time""
""fullscreenenter"",""1"",""4145""
","
","
","""event"",""trial"",""time""
""fullscreenenter"",""1"",""4145""
","
","","","","","","1844.3999999761581","images/orange3.png","","","memory_trial","4","definitely_new",""
"html-keyboard-response","59","277970","0.0-18.0-0.8","4906","approach_avoid_sv1","""event"",""trial"",""time""
""fullscreenenter"",""1"",""4145""
","
","
","""event"",""trial"",""time""
""fullscreenenter"",""1"",""4145""
","
","","","","","","null","<div style=""font-size:60px;"">+</div>","null","","fixation","","",""
"memory-trial","60","280114","0.0-18.0-1.8","4906","approach_avoid_sv1","""event"",""trial"",""time""
""fullscreenenter"",""1"",""4145""
","
","
","""event"",""trial"",""time""
""fullscreenenter"",""1"",""4145""
","
","","","","","","1134","images/straw4.png","","","memory_trial","4","definitely_new",""
"html-keyboard-response","61","280631","0.0-18.0-0.9","4906","approach_avoid_sv1","""event"",""trial"",""time""
""fullscreenenter"",""1"",""4145""
","
","
","""event"",""trial"",""time""
""fullscreenenter"",""1"",""4145""
","
","","","","","","null","<div style=""font-size:60px;"">+</div>","null","","fixation","","",""
"memory-trial","62","282802","0.0-18.0-1.9","4906","approach_avoid_sv1","""event"",""trial"",""time""
""fullscreenenter"",""1"",""4145""
","
","
","""event"",""trial"",""time""
""fullscreenenter"",""1"",""4145""
","
","","","","","","1165","images/goat4.png","","","memory_trial","4","definitely_new",""
"html-keyboard-response","63","283316","0.0-18.0-0.10","4906","approach_avoid_sv1","""event"",""trial"",""time""
""fullscreenenter"",""1"",""4145""
","
","
","""event"",""trial"",""time""
""fullscreenenter"",""1"",""4145""
","
","","","","","","null","<div style=""font-size:60px;"">+</div>","null","","fixation","","",""
"memory-trial","64","285818","0.0-18.0-1.10","4906","approach_avoid_sv1","""event"",""trial"",""time""
""fullscreenenter"",""1"",""4145""
","
","
","""event"",""trial"",""time""
""fullscreenenter"",""1"",""4145""
","
","","","","","","1498.1999999284744","images/rabbit7.png","","","memory_trial","1","definitely_old",""
"html-keyboard-response","65","286333","0.0-18.0-0.11","4906","approach_avoid_sv1","""event"",""trial"",""time""
""fullscreenenter"",""1"",""4145""
","
","
","""event"",""trial"",""time""
""fullscreenenter"",""1"",""4145""
","
","","","","","","null","<div style=""font-size:60px;"">+</div>","null","","fixation","","",""
"memory-trial","66","288387","0.0-18.0-1.11","4906","approach_avoid_sv1","""event"",""trial"",""time""
""fullscreenenter"",""1"",""4145""
","
","
","""event"",""trial"",""time""
""fullscreenenter"",""1"",""4145""
","
","","","","","","1044.5","images/rabbit8.png","","","memory_trial","1","definitely_old",""
"html-keyboard-response","67","288890","0.0-18.0-0.12","4906","approach_avoid_sv1","""event"",""trial"",""time""
""fullscreenenter"",""1"",""4145""
","
","
","""event"",""trial"",""time""
""fullscreenenter"",""1"",""4145""
","
","","","","","","null","<div style=""font-size:60px;"">+</div>","null","","fixation","","",""
"memory-trial","68","291946","0.0-18.0-1.12","4906","approach_avoid_sv1","""event"",""trial"",""time""
""fullscreenenter"",""1"",""4145""
","
","
","""event"",""trial"",""time""
""fullscreenenter"",""1"",""4145""
","
","","","","","","2048.7000000476837","images/straw6.png","","","memory_trial","3","maybe_new",""
"html-keyboard-response","69","292456","0.0-18.0-0.13","4906","approach_avoid_sv1","""event"",""trial"",""time""
""fullscreenenter"",""1"",""4145""
","
","
","""event"",""trial"",""time""
""fullscreenenter"",""1"",""4145""
","
","","","","","","null","<div style=""font-size:60px;"">+</div>","null","","fixation","","",""
"memory-trial","70","295043","0.0-18.0-1.13","4906","approach_avoid_sv1","""event"",""trial"",""time""
""fullscreenenter"",""1"",""4145""
","
","
","""event"",""trial"",""time""
""fullscreenenter"",""1"",""4145""
","
","","","","","","1578.5","images/tree3.png","","","memory_trial","1","definitely_old",""
"html-keyboard-response","71","295561","0.0-18.0-0.14","4906","approach_avoid_sv1","""event"",""trial"",""time""
""fullscreenenter"",""1"",""4145""
","
","
","""event"",""trial"",""time""
""fullscreenenter"",""1"",""4145""
","
","","","","","","null","<div style=""font-size:60px;"">+</div>","null","","fixation","","",""
"memory-trial","72","297754","0.0-18.0-1.14","4906","approach_avoid_sv1","""event"",""trial"",""time""
""fullscreenenter"",""1"",""4145""
","
","
","""event"",""trial"",""time""
""fullscreenenter"",""1"",""4145""
","
","","","","","","1188.0999999046326","images/goat2.png","","","memory_trial","1","definitely_old",""
"html-keyboard-response","73","298258","0.0-18.0-0.15","4906","approach_avoid_sv1","""event"",""trial"",""time""
""fullscreenenter"",""1"",""4145""
","
","
","""event"",""trial"",""time""
""fullscreenenter"",""1"",""4145""
","
","","","","","","null","<div style=""font-size:60px;"">+</div>","null","","fixation","","",""
"memory-trial","74","300779","0.0-18.0-1.15","4906","approach_avoid_sv1","""event"",""trial"",""time""
""fullscreenenter"",""1"",""4145""
","
","
","""event"",""trial"",""time""
""fullscreenenter"",""1"",""4145""
","
","","","","","","1517.3999999761581","images/boat7.png","","","memory_trial","3","maybe_new",""
"html-keyboard-response","75","301282","0.0-18.0-0.16","4906","approach_avoid_sv1","""event"",""trial"",""time""
""fullscreenenter"",""1"",""4145""
","
","
","""event"",""trial"",""time""
""fullscreenenter"",""1"",""4145""
","
","","","","","","null","<div style=""font-size:60px;"">+</div>","null","","fixation","","",""
"memory-trial","76","303898","0.0-18.0-1.16","4906","approach_avoid_sv1","""event"",""trial"",""time""
""fullscreenenter"",""1"",""4145""
","
","
","""event"",""trial"",""time""
""fullscreenenter"",""1"",""4145""
","
","","","","","","1608.6000000238419","images/sheep6.png","","","memory_trial","4","definitely_new",""
"html-keyboard-response","77","304405","0.0-18.0-0.17","4906","approach_avoid_sv1","""event"",""trial"",""time""
""fullscreenenter"",""1"",""4145""
","
","
","""event"",""trial"",""time""
""fullscreenenter"",""1"",""4145""
","
","","","","","","null","<div style=""font-size:60px;"">+</div>","null","","fixation","","",""
"memory-trial","78","307179","0.0-18.0-1.17","4906","approach_avoid_sv1","""event"",""trial"",""time""
""fullscreenenter"",""1"",""4145""
","
","
","""event"",""trial"",""time""
""fullscreenenter"",""1"",""4145""
","
","","","","","","1764.3999999761581","images/bed2.png","","","memory_trial","3","maybe_new",""
"html-keyboard-response","79","307693","0.0-18.0-0.18","4906","approach_avoid_sv1","""event"",""trial"",""time""
""fullscreenenter"",""1"",""4145""
","
","
","""event"",""trial"",""time""
""fullscreenenter"",""1"",""4145""
","
","","","","","","null","<div style=""font-size:60px;"">+</div>","null","","fixation","","",""
"memory-trial","80","309546","0.0-18.0-1.18","4906","approach_avoid_sv1","""event"",""trial"",""time""
""fullscreenenter"",""1"",""4145""
","
","
","""event"",""trial"",""time""
""fullscreenenter"",""1"",""4145""
","
","","","","","","847.6000000238419","images/sofa1.png","","","memory_trial","3","maybe_new",""
"html-keyboard-response","81","310050","0.0-18.0-0.19","4906","approach_avoid_sv1","""event"",""trial"",""time""
""fullscreenenter"",""1"",""4145""
","
","
","""event"",""trial"",""time""
""fullscreenenter"",""1"",""4145""
","
","","","","","","null","<div style=""font-size:60px;"">+</div>","null","","fixation","","",""
"memory-trial","82","313738","0.0-18.0-1.19","4906","approach_avoid_sv1","""event"",""trial"",""time""
""fullscreenenter"",""1"",""4145""
","
","
","""event"",""trial"",""time""
""fullscreenenter"",""1"",""4145""
","
","","","","","","2683","images/chair1.png","","","memory_trial","2","maybe_old",""
"html-keyboard-response","83","314242","0.0-18.0-0.20","4906","approach_avoid_sv1","""event"",""trial"",""time""
""fullscreenenter"",""1"",""4145""
","
","
","""event"",""trial"",""time""
""fullscreenenter"",""1"",""4145""
","
","","","","","","null","<div style=""font-size:60px;"">+</div>","null","","fixation","","",""
"memory-trial","84","316418","0.0-18.0-1.20","4906","approach_avoid_sv1","""event"",""trial"",""time""
""fullscreenenter"",""1"",""4145""
","
","
","""event"",""trial"",""time""
""fullscreenenter"",""1"",""4145""
","
","","","","","","1166.1000000238419","images/apple7.png","","","memory_trial","1","definitely_old",""
"html-keyboard-response","85","316922","0.0-18.0-0.21","4906","approach_avoid_sv1","""event"",""trial"",""time""
""fullscreenenter"",""1"",""4145""
","
","
","""event"",""trial"",""time""
""fullscreenenter"",""1"",""4145""
","
","","","","","","null","<div style=""font-size:60px;"">+</div>","null","","fixation","","",""
"memory-trial","86","319321","0.0-18.0-1.21","4906","approach_avoid_sv1","""event"",""trial"",""time""
""fullscreenenter"",""1"",""4145""
","
","
","""event"",""trial"",""time""
""fullscreenenter"",""1"",""4145""
","
","","","","","","1389.2000000476837","images/tree8.png","","","memory_trial","3","maybe_new",""
"html-keyboard-response","87","319826","0.0-18.0-0.22","4906","approach_avoid_sv1","""event"",""trial"",""time""
""fullscreenenter"",""1"",""4145""
","
","
","""event"",""trial"",""time""
""fullscreenenter"",""1"",""4145""
","
","","","","","","null","<div style=""font-size:60px;"">+</div>","null","","fixation","","",""
"memory-trial","88","322455","0.0-18.0-1.22","4906","approach_avoid_sv1","""event"",""trial"",""time""
""fullscreenenter"",""1"",""4145""
","
","
","""event"",""trial"",""time""
""fullscreenenter"",""1"",""4145""
","
","","","","","","1607.7999999523163","images/dog2.png","","","memory_trial","2","maybe_old",""
"html-keyboard-response","89","322963","0.0-18.0-0.23","4906","approach_avoid_sv1","""event"",""trial"",""time""
""fullscreenenter"",""1"",""4145""
","
","
","""event"",""trial"",""time""
""fullscreenenter"",""1"",""4145""
","
","","","","","","null","<div style=""font-size:60px;"">+</div>","null","","fixation","","",""
"memory-trial","90","325306","0.0-18.0-1.23","4906","approach_avoid_sv1","""event"",""trial"",""time""
""fullscreenenter"",""1"",""4145""
","
","
","""event"",""trial"",""time""
""fullscreenenter"",""1"",""4145""
","
","","","","","","1325.0999999046326","images/cow3.png","","","memory_trial","2","maybe_old",""
"html-keyboard-response","91","325810","0.0-18.0-0.24","4906","approach_avoid_sv1","""event"",""trial"",""time""
""fullscreenenter"",""1"",""4145""
","
","
","""event"",""trial"",""time""
""fullscreenenter"",""1"",""4145""
","
","","","","","","null","<div style=""font-size:60px;"">+</div>","null","","fixation","","",""
"memory-trial","92","328290","0.0-18.0-1.24","4906","approach_avoid_sv1","""event"",""trial"",""time""
""fullscreenenter"",""1"",""4145""
","
","
","""event"",""trial"",""time""
""fullscreenenter"",""1"",""4145""
","
","","","","","","1475.2000000476837","images/rodent5.png","","","memory_trial","1","definitely_old",""
"html-keyboard-response","93","328795","0.0-18.0-0.25","4906","approach_avoid_sv1","""event"",""trial"",""time""
""fullscreenenter"",""1"",""4145""
","
","
","""event"",""trial"",""time""
""fullscreenenter"",""1"",""4145""
","
","","","","","","null","<div style=""font-size:60px;"">+</div>","null","","fixation","","",""
"memory-trial","94","331467","0.0-18.0-1.25","4906","approach_avoid_sv1","""event"",""trial"",""time""
""fullscreenenter"",""1"",""4145""
","
","
","""event"",""trial"",""time""
""fullscreenenter"",""1"",""4145""
","
","","","","","","1665.5","images/table8.png","","","memory_trial","4","definitely_new",""
"html-keyboard-response","95","331970","0.0-18.0-0.26","4906","approach_avoid_sv1","""event"",""trial"",""time""
""fullscreenenter"",""1"",""4145""
","
","
","""event"",""trial"",""time""
""fullscreenenter"",""1"",""4145""
","
","","","","","","null","<div style=""font-size:60px;"">+</div>","null","","fixation","","",""
"memory-trial","96","334490","0.0-18.0-1.26","4906","approach_avoid_sv1","""event"",""trial"",""time""
""fullscreenenter"",""1"",""4145""
","
","
","""event"",""trial"",""time""
""fullscreenenter"",""1"",""4145""
","
","","","","","","1516.5","images/straw3.png","","","memory_trial","1","definitely_old",""
"html-keyboard-response","97","334994","0.0-18.0-0.27","4906","approach_avoid_sv1","""event"",""trial"",""time""
""fullscreenenter"",""1"",""4145""
","
","
","""event"",""trial"",""time""
""fullscreenenter"",""1"",""4145""
","
","","","","","","null","<div style=""font-size:60px;"">+</div>","null","","fixation","","",""
"memory-trial","98","337546","0.0-18.0-1.27","4906","approach_avoid_sv1","""event"",""trial"",""time""
""fullscreenenter"",""1"",""4145""
","
","
","""event"",""trial"",""time""
""fullscreenenter"",""1"",""4145""
","
","","","","","","1546.7999999523163","images/rabbit5.png","","","memory_trial","4","definitely_new",""
"html-keyboard-response","99","338063","0.0-18.0-0.28","4906","approach_avoid_sv1","""event"",""trial"",""time""
""fullscreenenter"",""1"",""4145""
","
","
","""event"",""trial"",""time""
""fullscreenenter"",""1"",""4145""
","
","","","","","","null","<div style=""font-size:60px;"">+</div>","null","","fixation","","",""
"memory-trial","100","340563","0.0-18.0-1.28","4906","approach_avoid_sv1","""event"",""trial"",""time""
""fullscreenenter"",""1"",""4145""
","
","
","""event"",""trial"",""time""
""fullscreenenter"",""1"",""4145""
","
","","","","","","1492.7000000476837","images/straw1.png","","","memory_trial","1","definitely_old",""
"html-keyboard-response","101","341066","0.0-18.0-0.29","4906","approach_avoid_sv1","""event"",""trial"",""time""
""fullscreenenter"",""1"",""4145""
","
","
","""event"",""trial"",""time""
""fullscreenenter"",""1"",""4145""
","
","","","","","","null","<div style=""font-size:60px;"">+</div>","null","","fixation","","",""
"memory-trial","102","344643","0.0-18.0-1.29","4906","approach_avoid_sv1","""event"",""trial"",""time""
""fullscreenenter"",""1"",""4145""
","
","
","""event"",""trial"",""time""
""fullscreenenter"",""1"",""4145""
","
","","","","","","2572.600000023842","images/apple5.png","","","memory_trial","4","definitely_new",""
"html-keyboard-response","103","345148","0.0-18.0-0.30","4906","approach_avoid_sv1","""event"",""trial"",""time""
""fullscreenenter"",""1"",""4145""
","
","
","""event"",""trial"",""time""
""fullscreenenter"",""1"",""4145""
","
","","","","","","null","<div style=""font-size:60px;"">+</div>","null","","fixation","","",""
"memory-trial","104","349258","0.0-18.0-1.30","4906","approach_avoid_sv1","""event"",""trial"",""time""
""fullscreenenter"",""1"",""4145""
","
","
","""event"",""trial"",""time""
""fullscreenenter"",""1"",""4145""
","
","","","","","","3101.7000000476837","images/cactus5.png","","","memory_trial","1","definitely_old",""
"html-keyboard-response","105","349768","0.0-18.0-0.31","4906","approach_avoid_sv1","""event"",""trial"",""time""
""fullscreenenter"",""1"",""4145""
","
","
","""event"",""trial"",""time""
""fullscreenenter"",""1"",""4145""
","
","","","","","","null","<div style=""font-size:60px;"">+</div>","null","","fixation","","",""
"memory-trial","106","353027","0.0-18.0-1.31","4906","approach_avoid_sv1","""event"",""trial"",""time""
""fullscreenenter"",""1"",""4145""
","
","
","""event"",""trial"",""time""
""fullscreenenter"",""1"",""4145""
","
","","","","","","2246.6999999284744","images/cactus1.png","","","memory_trial","4","definitely_new",""
"html-keyboard-response","107","353542","0.0-18.0-0.32","4906","approach_avoid_sv1","""event"",""trial"",""time""
""fullscreenenter"",""1"",""4145""
","
","
","""event"",""trial"",""time""
""fullscreenenter"",""1"",""4145""
","
","","","","","","null","<div style=""font-size:60px;"">+</div>","null","","fixation","","",""
"memory-trial","108","355645","0.0-18.0-1.32","4906","approach_avoid_sv1","""event"",""trial"",""time""
""fullscreenenter"",""1"",""4145""
","
","
","""event"",""trial"",""time""
""fullscreenenter"",""1"",""4145""
","
","","","","","","1085.7999999523163","images/cat2.png","","","memory_trial","4","definitely_new",""
"html-keyboard-response","109","356154","0.0-18.0-0.33","4906","approach_avoid_sv1","""event"",""trial"",""time""
""fullscreenenter"",""1"",""4145""
","
","
","""event"",""trial"",""time""
""fullscreenenter"",""1"",""4145""
","
","","","","","","null","<div style=""font-size:60px;"">+</div>","null","","fixation","","",""
"memory-trial","110","358418","0.0-18.0-1.33","4906","approach_avoid_sv1","""event"",""trial"",""time""
""fullscreenenter"",""1"",""4145""
","
","
","""event"",""trial"",""time""
""fullscreenenter"",""1"",""4145""
","
","","","","","","1255.8999999761581","images/chair2.png","","","memory_trial","1","definitely_old",""
"html-keyboard-response","111","358922","0.0-18.0-0.34","4906","approach_avoid_sv1","""event"",""trial"",""time""
""fullscreenenter"",""1"",""4145""
","
","
","""event"",""trial"",""time""
""fullscreenenter"",""1"",""4145""
","
","","","","","","null","<div style=""font-size:60px;"">+</div>","null","","fixation","","",""
"memory-trial","112","362874","0.0-18.0-1.34","4906","approach_avoid_sv1","""event"",""trial"",""time""
""fullscreenenter"",""1"",""4145""
","
","
","""event"",""trial"",""time""
""fullscreenenter"",""1"",""4145""
","
","","","","","","2942.7999999523163","images/banana1.png","","","memory_trial","4","definitely_new",""
"html-keyboard-response","113","363378","0.0-18.0-0.35","4906","approach_avoid_sv1","""event"",""trial"",""time""
""fullscreenenter"",""1"",""4145""
","
","
","""event"",""trial"",""time""
""fullscreenenter"",""1"",""4145""
","
","","","","","","null","<div style=""font-size:60px;"">+</div>","null","","fixation","","",""
"memory-trial","114","365738","0.0-18.0-1.35","4906","approach_avoid_sv1","""event"",""trial"",""time""
""fullscreenenter"",""1"",""4145""
","
","
","""event"",""trial"",""time""
""fullscreenenter"",""1"",""4145""
","
","","","","","","1353.2999999523163","images/boat6.png","","","memory_trial","3","maybe_new",""
"html-keyboard-response","115","366242","0.0-18.0-0.36","4906","approach_avoid_sv1","""event"",""trial"",""time""
""fullscreenenter"",""1"",""4145""
","
","
","""event"",""trial"",""time""
""fullscreenenter"",""1"",""4145""
","
","","","","","","null","<div style=""font-size:60px;"">+</div>","null","","fixation","","",""
"memory-trial","116","368435","0.0-18.0-1.36","4906","approach_avoid_sv1","""event"",""trial"",""time""
""fullscreenenter"",""1"",""4145""
","
","
","""event"",""trial"",""time""
""fullscreenenter"",""1"",""4145""
","
","","","","","","1183.3000000715256","images/banana7.png","","","memory_trial","3","maybe_new",""
"html-keyboard-response","117","368940","0.0-18.0-0.37","4906","approach_avoid_sv1","""event"",""trial"",""time""
""fullscreenenter"",""1"",""4145""
","
","
","""event"",""trial"",""time""
""fullscreenenter"",""1"",""4145""
","
","","","","","","null","<div style=""font-size:60px;"">+</div>","null","","fixation","","",""
"memory-trial","118","370965","0.0-18.0-1.37","4906","approach_avoid_sv1","""event"",""trial"",""time""
""fullscreenenter"",""1"",""4145""
","
","
","""event"",""trial"",""time""
""fullscreenenter"",""1"",""4145""
","
","","","","","","1016.8999999761581","images/bush3.png","","","memory_trial","3","maybe_new",""
"html-keyboard-response","119","371466","0.0-18.0-0.38","4906","approach_avoid_sv1","""event"",""trial"",""time""
""fullscreenenter"",""1"",""4145""
","
","
","""event"",""trial"",""time""
""fullscreenenter"",""1"",""4145""
","
","","","","","","null","<div style=""font-size:60px;"">+</div>","null","","fixation","","",""
"memory-trial","120","373698","0.0-18.0-1.38","4906","approach_avoid_sv1","""event"",""trial"",""time""
""fullscreenenter"",""1"",""4145""
","
","
","""event"",""trial"",""time""
""fullscreenenter"",""1"",""4145""
","
","","","","","","1227.7000000476837","images/orange8.png","","","memory_trial","4","definitely_new",""
"html-keyboard-response","121","374202","0.0-18.0-0.39","4906","approach_avoid_sv1","""event"",""trial"",""time""
""fullscreenenter"",""1"",""4145""
","
","
","""event"",""trial"",""time""
""fullscreenenter"",""1"",""4145""
","
","","","","","","null","<div style=""font-size:60px;"">+</div>","null","","fixation","","",""
"memory-trial","122","376642","0.0-18.0-1.39","4906","approach_avoid_sv1","""event"",""trial"",""time""
""fullscreenenter"",""1"",""4145""
","
","
","""event"",""trial"",""time""
""fullscreenenter"",""1"",""4145""
","
","","","","","","1423.2000000476837","images/truck3.png","","","memory_trial","1","definitely_old",""
"html-keyboard-response","123","377145","0.0-18.0-0.40","4906","approach_avoid_sv1","""event"",""trial"",""time""
""fullscreenenter"",""1"",""4145""
","
","
","""event"",""trial"",""time""
""fullscreenenter"",""1"",""4145""
","
","","","","","","null","<div style=""font-size:60px;"">+</div>","null","","fixation","","",""
"memory-trial","124","380026","0.0-18.0-1.40","4906","approach_avoid_sv1","""event"",""trial"",""time""
""fullscreenenter"",""1"",""4145""
","
","
","""event"",""trial"",""time""
""fullscreenenter"",""1"",""4145""
","
","","","","","","1873.4000000953674","images/bed8.png","","","memory_trial","1","definitely_old",""
"html-keyboard-response","125","380538","0.0-18.0-0.41","4906","approach_avoid_sv1","""event"",""trial"",""time""
""fullscreenenter"",""1"",""4145""
","
","
","""event"",""trial"",""time""
""fullscreenenter"",""1"",""4145""
","
","","","","","","null","<div style=""font-size:60px;"">+</div>","null","","fixation","","",""
"memory-trial","126","382526","0.0-18.0-1.41","4906","approach_avoid_sv1","""event"",""trial"",""time""
""fullscreenenter"",""1"",""4145""
","
","
","""event"",""trial"",""time""
""fullscreenenter"",""1"",""4145""
","
","","","","","","967.5","images/boat3.png","","","memory_trial","4","definitely_new",""
"html-button-response","127","387620","0.0-18.0-2.41-0.41","4906","approach_avoid_sv1","""event"",""trial"",""time""
""fullscreenenter"",""1"",""4145""
","
","
","""event"",""trial"",""time""
""fullscreenenter"",""1"",""4145""
","
","","","","","","5092.899999976158","<p> Take a break! </p><p> Click the button to continue. </p>","0","","break","","",""
"html-keyboard-response","128","388123","0.0-18.0-0.42","4906","approach_avoid_sv1","""event"",""trial"",""time""
""fullscreenenter"",""1"",""4145""
","
","
","""event"",""trial"",""time""
""fullscreenenter"",""1"",""4145""
","
","","","","","","null","<div style=""font-size:60px;"">+</div>","null","","fixation","","",""
"memory-trial","129","391158","0.0-18.0-1.42","4906","approach_avoid_sv1","""event"",""trial"",""time""
""fullscreenenter"",""1"",""4145""
","
","
","""event"",""trial"",""time""
""fullscreenenter"",""1"",""4145""
","
","","","","","","2024.3000000715256","images/goat7.png","","","memory_trial","3","maybe_new",""
"html-keyboard-response","130","391674","0.0-18.0-0.43","4906","approach_avoid_sv1","""event"",""trial"",""time""
""fullscreenenter"",""1"",""4145""
","
","
","""event"",""trial"",""time""
""fullscreenenter"",""1"",""4145""
","
","","","","","","null","<div style=""font-size:60px;"">+</div>","null","","fixation","","",""
"memory-trial","131","393911","0.0-18.0-1.43","4906","approach_avoid_sv1","""event"",""trial"",""time""
""fullscreenenter"",""1"",""4145""
","
","
","""event"",""trial"",""time""
""fullscreenenter"",""1"",""4145""
","
","","","","","","1222.8000000715256","images/table1.png","","","memory_trial","4","definitely_new",""
"html-keyboard-response","132","394425","0.0-18.0-0.44","4906","approach_avoid_sv1","""event"",""trial"",""time""
""fullscreenenter"",""1"",""4145""
","
","
","""event"",""trial"",""time""
""fullscreenenter"",""1"",""4145""
","
","","","","","","null","<div style=""font-size:60px;"">+</div>","null","","fixation","","",""
"memory-trial","133","396979","0.0-18.0-1.44","4906","approach_avoid_sv1","""event"",""trial"",""time""
""fullscreenenter"",""1"",""4145""
","
","
","""event"",""trial"",""time""
""fullscreenenter"",""1"",""4145""
","
","","","","","","1546.1999999284744","images/train7.png","","","memory_trial","1","definitely_old",""
"html-keyboard-response","134","397482","0.0-18.0-0.45","4906","approach_avoid_sv1","""event"",""trial"",""time""
""fullscreenenter"",""1"",""4145""
","
","
","""event"",""trial"",""time""
""fullscreenenter"",""1"",""4145""
","
","","","","","","null","<div style=""font-size:60px;"">+</div>","null","","fixation","","",""
"memory-trial","135","399802","0.0-18.0-1.45","4906","approach_avoid_sv1","""event"",""trial"",""time""
""fullscreenenter"",""1"",""4145""
","
","
","""event"",""trial"",""time""
""fullscreenenter"",""1"",""4145""
","
","","","","","","1309.8999999761581","images/plane2.png","","","memory_trial","4","definitely_new",""
"html-keyboard-response","136","400306","0.0-18.0-0.46","4906","approach_avoid_sv1","""event"",""trial"",""time""
""fullscreenenter"",""1"",""4145""
","
","
","""event"",""trial"",""time""
""fullscreenenter"",""1"",""4145""
","
","","","","","","null","<div style=""font-size:60px;"">+</div>","null","","fixation","","",""
"memory-trial","137","402478","0.0-18.0-1.46","4906","approach_avoid_sv1","""event"",""trial"",""time""
""fullscreenenter"",""1"",""4145""
","
","
","""event"",""trial"",""time""
""fullscreenenter"",""1"",""4145""
","
","","","","","","1154.7000000476837","images/train8.png","","","memory_trial","1","definitely_old",""
"html-keyboard-response","138","402996","0.0-18.0-0.47","4906","approach_avoid_sv1","""event"",""trial"",""time""
""fullscreenenter"",""1"",""4145""
","
","
","""event"",""trial"",""time""
""fullscreenenter"",""1"",""4145""
","
","","","","","","null","<div style=""font-size:60px;"">+</div>","null","","fixation","","",""
"memory-trial","139","405674","0.0-18.0-1.47","4906","approach_avoid_sv1","""event"",""trial"",""time""
""fullscreenenter"",""1"",""4145""
","
","
","""event"",""trial"",""time""
""fullscreenenter"",""1"",""4145""
","
","","","","","","1670","images/rodent4.png","","","memory_trial","1","definitely_old",""
"html-keyboard-response","140","406180","0.0-18.0-0.48","4906","approach_avoid_sv1","""event"",""trial"",""time""
""fullscreenenter"",""1"",""4145""
","
","
","""event"",""trial"",""time""
""fullscreenenter"",""1"",""4145""
","
","","","","","","null","<div style=""font-size:60px;"">+</div>","null","","fixation","","",""
"memory-trial","141","408314","0.0-18.0-1.48","4906","approach_avoid_sv1","""event"",""trial"",""time""
""fullscreenenter"",""1"",""4145""
","
","
","""event"",""trial"",""time""
""fullscreenenter"",""1"",""4145""
","
","","","","","","1126.8999999761581","images/train6.png","","","memory_trial","4","definitely_new",""
"html-keyboard-response","142","408818","0.0-18.0-0.49","4906","approach_avoid_sv1","""event"",""trial"",""time""
""fullscreenenter"",""1"",""4145""
","
","
","""event"",""trial"",""time""
""fullscreenenter"",""1"",""4145""
","
","","","","","","null","<div style=""font-size:60px;"">+</div>","null","","fixation","","",""
"memory-trial","143","410771","0.0-18.0-1.49","4906","approach_avoid_sv1","""event"",""trial"",""time""
""fullscreenenter"",""1"",""4145""
","
","
","""event"",""trial"",""time""
""fullscreenenter"",""1"",""4145""
","
","","","","","","943.7999999523163","images/sheep5.png","","","memory_trial","4","definitely_new",""
"html-keyboard-response","144","411274","0.0-18.0-0.50","4906","approach_avoid_sv1","""event"",""trial"",""time""
""fullscreenenter"",""1"",""4145""
","
","
","""event"",""trial"",""time""
""fullscreenenter"",""1"",""4145""
","
","","","","","","null","<div style=""font-size:60px;"">+</div>","null","","fixation","","",""
"memory-trial","145","413354","0.0-18.0-1.50","4906","approach_avoid_sv1","""event"",""trial"",""time""
""fullscreenenter"",""1"",""4145""
","
","
","""event"",""trial"",""time""
""fullscreenenter"",""1"",""4145""
","
","","","","","","1077.5","images/dog3.png","","","memory_trial","3","maybe_new",""
"html-keyboard-response","146","413858","0.0-18.0-0.51","4906","approach_avoid_sv1","""event"",""trial"",""time""
""fullscreenenter"",""1"",""4145""
","
","
","""event"",""trial"",""time""
""fullscreenenter"",""1"",""4145""
","
","","","","","","null","<div style=""font-size:60px;"">+</div>","null","","fixation","","",""
"memory-trial","147","416658","0.0-18.0-1.51","4906","approach_avoid_sv1","""event"",""trial"",""time""
""fullscreenenter"",""1"",""4145""
","
","
","""event"",""trial"",""time""
""fullscreenenter"",""1"",""4145""
","
","","","","","","1792.8000000715256","images/cow4.png","","","memory_trial","1","definitely_old",""
"html-keyboard-response","148","417162","0.0-18.0-0.52","4906","approach_avoid_sv1","""event"",""trial"",""time""
""fullscreenenter"",""1"",""4145""
","
","
","""event"",""trial"",""time""
""fullscreenenter"",""1"",""4145""
","
","","","","","","null","<div style=""font-size:60px;"">+</div>","null","","fixation","","",""
"memory-trial","149","420450","0.0-18.0-1.52","4906","approach_avoid_sv1","""event"",""trial"",""time""
""fullscreenenter"",""1"",""4145""
","
","
","""event"",""trial"",""time""
""fullscreenenter"",""1"",""4145""
","
","","","","","","2278.3000000715256","images/cow8.png","","","memory_trial","4","definitely_new",""
"html-keyboard-response","150","420954","0.0-18.0-0.53","4906","approach_avoid_sv1","""event"",""trial"",""time""
""fullscreenenter"",""1"",""4145""
","
","
","""event"",""trial"",""time""
""fullscreenenter"",""1"",""4145""
","
","","","","","","null","<div style=""font-size:60px;"">+</div>","null","","fixation","","",""
"memory-trial","151","423569","0.0-18.0-1.53","4906","approach_avoid_sv1","""event"",""trial"",""time""
""fullscreenenter"",""1"",""4145""
","
","
","""event"",""trial"",""time""
""fullscreenenter"",""1"",""4145""
","
","","","","","","1609.1000000238419","images/bed6.png","","","memory_trial","3","maybe_new",""
"html-keyboard-response","152","424075","0.0-18.0-0.54","4906","approach_avoid_sv1","""event"",""trial"",""time""
""fullscreenenter"",""1"",""4145""
","
","
","""event"",""trial"",""time""
""fullscreenenter"",""1"",""4145""
","
","","","","","","null","<div style=""font-size:60px;"">+</div>","null","","fixation","","",""
"memory-trial","153","426450","0.0-18.0-1.54","4906","approach_avoid_sv1","""event"",""trial"",""time""
""fullscreenenter"",""1"",""4145""
","
","
","""event"",""trial"",""time""
""fullscreenenter"",""1"",""4145""
","
","","","","","","1371.1000000238419","images/horse3.png","","","memory_trial","4","definitely_new",""
"html-keyboard-response","154","426954","0.0-18.0-0.55","4906","approach_avoid_sv1","""event"",""trial"",""time""
""fullscreenenter"",""1"",""4145""
","
","
","""event"",""trial"",""time""
""fullscreenenter"",""1"",""4145""
","
","","","","","","null","<div style=""font-size:60px;"">+</div>","null","","fixation","","",""
"memory-trial","155","429228","0.0-18.0-1.55","4906","approach_avoid_sv1","""event"",""trial"",""time""
""fullscreenenter"",""1"",""4145""
","
","
","""event"",""trial"",""time""
""fullscreenenter"",""1"",""4145""
","
","","","","","","1259.3999999761581","images/goat8.png","","","memory_trial","1","definitely_old",""
"html-keyboard-response","156","429738","0.0-18.0-0.56","4906","approach_avoid_sv1","""event"",""trial"",""time""
""fullscreenenter"",""1"",""4145""
","
","
","""event"",""trial"",""time""
""fullscreenenter"",""1"",""4145""
","
","","","","","","null","<div style=""font-size:60px;"">+</div>","null","","fixation","","",""
"memory-trial","157","432258","0.0-18.0-1.56","4906","approach_avoid_sv1","""event"",""trial"",""time""
""fullscreenenter"",""1"",""4145""
","
","
","""event"",""trial"",""time""
""fullscreenenter"",""1"",""4145""
","
","","","","","","1512.1000000238419","images/straw5.png","","","memory_trial","3","maybe_new",""
"html-keyboard-response","158","432762","0.0-18.0-0.57","4906","approach_avoid_sv1","""event"",""trial"",""time""
""fullscreenenter"",""1"",""4145""
","
","
","""event"",""trial"",""time""
""fullscreenenter"",""1"",""4145""
","
","","","","","","null","<div style=""font-size:60px;"">+</div>","null","","fixation","","",""
"memory-trial","159","435178","0.0-18.0-1.57","4906","approach_avoid_sv1","""event"",""trial"",""time""
""fullscreenenter"",""1"",""4145""
","
","
","""event"",""trial"",""time""
""fullscreenenter"",""1"",""4145""
","
","","","","","","1405.5","images/chair3.png","","","memory_trial","1","definitely_old",""
"html-keyboard-response","160","435679","0.0-18.0-0.58","4906","approach_avoid_sv1","""event"",""trial"",""time""
""fullscreenenter"",""1"",""4145""
","
","
","""event"",""trial"",""time""
""fullscreenenter"",""1"",""4145""
","
","","","","","","null","<div style=""font-size:60px;"">+</div>","null","","fixation","","",""
"memory-trial","161","437823","0.0-18.0-1.58","4906","approach_avoid_sv1","""event"",""trial"",""time""
""fullscreenenter"",""1"",""4145""
","
","
","""event"",""trial"",""time""
""fullscreenenter"",""1"",""4145""
","
","","","","","","1134.2999999523163","images/plane6.png","","","memory_trial","3","maybe_new",""
"html-keyboard-response","162","438336","0.0-18.0-0.59","4906","approach_avoid_sv1","""event"",""trial"",""time""
""fullscreenenter"",""1"",""4145""
","
","
","""event"",""trial"",""time""
""fullscreenenter"",""1"",""4145""
","
","","","","","","null","<div style=""font-size:60px;"">+</div>","null","","fixation","","",""
"memory-trial","163","440866","0.0-18.0-1.59","4906","approach_avoid_sv1","""event"",""trial"",""time""
""fullscreenenter"",""1"",""4145""
","
","
","""event"",""trial"",""time""
""fullscreenenter"",""1"",""4145""
","
","","","","","","1526.2000000476837","images/chair8.png","","","memory_trial","4","definitely_new",""
"html-keyboard-response","164","441370","0.0-18.0-0.60","4906","approach_avoid_sv1","""event"",""trial"",""time""
""fullscreenenter"",""1"",""4145""
","
","
","""event"",""trial"",""time""
""fullscreenenter"",""1"",""4145""
","
","","","","","","null","<div style=""font-size:60px;"">+</div>","null","","fixation","","",""
"memory-trial","165","444405","0.0-18.0-1.60","4906","approach_avoid_sv1","""event"",""trial"",""time""
""fullscreenenter"",""1"",""4145""
","
","
","""event"",""trial"",""time""
""fullscreenenter"",""1"",""4145""
","
","","","","","","2019.6000000238419","images/cat1.png","","","memory_trial","4","definitely_new",""
"html-keyboard-response","166","444914","0.0-18.0-0.61","4906","approach_avoid_sv1","""event"",""trial"",""time""
""fullscreenenter"",""1"",""4145""
","
","
","""event"",""trial"",""time""
""fullscreenenter"",""1"",""4145""
","
","","","","","","null","<div style=""font-size:60px;"">+</div>","null","","fixation","","",""
"memory-trial","167","447538","0.0-18.0-1.61","4906","approach_avoid_sv1","""event"",""trial"",""time""
""fullscreenenter"",""1"",""4145""
","
","
","""event"",""trial"",""time""
""fullscreenenter"",""1"",""4145""
","
","","","","","","1615.2999999523163","images/cow5.png","","","memory_trial","2","maybe_old",""
"html-keyboard-response","168","448042","0.0-18.0-0.62","4906","approach_avoid_sv1","""event"",""trial"",""time""
""fullscreenenter"",""1"",""4145""
","
","
","""event"",""trial"",""time""
""fullscreenenter"",""1"",""4145""
","
","","","","","","null","<div style=""font-size:60px;"">+</div>","null","","fixation","","",""
"memory-trial","169","450466","0.0-18.0-1.62","4906","approach_avoid_sv1","""event"",""trial"",""time""
""fullscreenenter"",""1"",""4145""
","
","
","""event"",""trial"",""time""
""fullscreenenter"",""1"",""4145""
","
","","","","","","1415.5","images/dog4.png","","","memory_trial","1","definitely_old",""
"html-keyboard-response","170","450970","0.0-18.0-0.63","4906","approach_avoid_sv1","""event"",""trial"",""time""
""fullscreenenter"",""1"",""4145""
","
","
","""event"",""trial"",""time""
""fullscreenenter"",""1"",""4145""
","
","","","","","","null","<div style=""font-size:60px;"">+</div>","null","","fixation","","",""
"memory-trial","171","453235","0.0-18.0-1.63","4906","approach_avoid_sv1","""event"",""trial"",""time""
""fullscreenenter"",""1"",""4145""
","
","
","""event"",""trial"",""time""
""fullscreenenter"",""1"",""4145""
","
","","","","","","1256.8000000715256","images/rabbit1.png","","","memory_trial","1","definitely_old",""
"html-keyboard-response","172","453738","0.0-18.0-0.64","4906","approach_avoid_sv1","""event"",""trial"",""time""
""fullscreenenter"",""1"",""4145""
","
","
","""event"",""trial"",""time""
""fullscreenenter"",""1"",""4145""
","
","","","","","","null","<div style=""font-size:60px;"">+</div>","null","","fixation","","",""
"memory-trial","173","455538","0.0-18.0-1.64","4906","approach_avoid_sv1","""event"",""trial"",""time""
""fullscreenenter"",""1"",""4145""
","
","
","""event"",""trial"",""time""
""fullscreenenter"",""1"",""4145""
","
","","","","","","793.7999999523163","images/bed7.png","","","memory_trial","4","definitely_new",""
"html-keyboard-response","174","456045","0.0-18.0-0.65","4906","approach_avoid_sv1","""event"",""trial"",""time""
""fullscreenenter"",""1"",""4145""
","
","
","""event"",""trial"",""time""
""fullscreenenter"",""1"",""4145""
","
","","","","","","null","<div style=""font-size:60px;"">+</div>","null","","fixation","","",""
"memory-trial","175","458146","0.0-18.0-1.65","4906","approach_avoid_sv1","""event"",""trial"",""time""
""fullscreenenter"",""1"",""4145""
","
","
","""event"",""trial"",""time""
""fullscreenenter"",""1"",""4145""
","
","","","","","","1094.5","images/banana6.png","","","memory_trial","4","definitely_new",""
"html-keyboard-response","176","458650","0.0-18.0-0.66","4906","approach_avoid_sv1","""event"",""trial"",""time""
""fullscreenenter"",""1"",""4145""
","
","
","""event"",""trial"",""time""
""fullscreenenter"",""1"",""4145""
","
","","","","","","null","<div style=""font-size:60px;"">+</div>","null","","fixation","","",""
"memory-trial","177","460794","0.0-18.0-1.66","4906","approach_avoid_sv1","""event"",""trial"",""time""
""fullscreenenter"",""1"",""4145""
","
","
","""event"",""trial"",""time""
""fullscreenenter"",""1"",""4145""
","
","","","","","","1140.1000000238419","images/goat1.png","","","memory_trial","3","maybe_new",""
"html-keyboard-response","178","461297","0.0-18.0-0.67","4906","approach_avoid_sv1","""event"",""trial"",""time""
""fullscreenenter"",""1"",""4145""
","
","
","""event"",""trial"",""time""
""fullscreenenter"",""1"",""4145""
","
","","","","","","null","<div style=""font-size:60px;"">+</div>","null","","fixation","","",""
"memory-trial","179","465017","0.0-18.0-1.67","4906","approach_avoid_sv1","""event"",""trial"",""time""
""fullscreenenter"",""1"",""4145""
","
","
","""event"",""trial"",""time""
""fullscreenenter"",""1"",""4145""
","
","","","","","","2710.600000023842","images/train2.png","","","memory_trial","1","definitely_old",""
"html-keyboard-response","180","465529","0.0-18.0-0.68","4906","approach_avoid_sv1","""event"",""trial"",""time""
""fullscreenenter"",""1"",""4145""
","
","
","""event"",""trial"",""time""
""fullscreenenter"",""1"",""4145""
","
","","","","","","null","<div style=""font-size:60px;"">+</div>","null","","fixation","","",""
"memory-trial","181","467650","0.0-18.0-1.68","4906","approach_avoid_sv1","""event"",""trial"",""time""
""fullscreenenter"",""1"",""4145""
","
","
","""event"",""trial"",""time""
""fullscreenenter"",""1"",""4145""
","
","","","","","","1114.5","images/cactus7.png","","","memory_trial","4","definitely_new",""
"html-keyboard-response","182","468154","0.0-18.0-0.69","4906","approach_avoid_sv1","""event"",""trial"",""time""
""fullscreenenter"",""1"",""4145""
","
","
","""event"",""trial"",""time""
""fullscreenenter"",""1"",""4145""
","
","","","","","","null","<div style=""font-size:60px;"">+</div>","null","","fixation","","",""
"memory-trial","183","470690","0.0-18.0-1.69","4906","approach_avoid_sv1","""event"",""trial"",""time""
""fullscreenenter"",""1"",""4145""
","
","
","""event"",""trial"",""time""
""fullscreenenter"",""1"",""4145""
","
","","","","","","1530.5","images/boat4.png","","","memory_trial","4","definitely_new",""
"html-keyboard-response","184","471208","0.0-18.0-0.70","4906","approach_avoid_sv1","""event"",""trial"",""time""
""fullscreenenter"",""1"",""4145""
","
","
","""event"",""trial"",""time""
""fullscreenenter"",""1"",""4145""
","
","","","","","","null","<div style=""font-size:60px;"">+</div>","null","","fixation","","",""
"memory-trial","185","474945","0.0-18.0-1.70","4906","approach_avoid_sv1","""event"",""trial"",""time""
""fullscreenenter"",""1"",""4145""
","
","
","""event"",""trial"",""time""
""fullscreenenter"",""1"",""4145""
","
","","","","","","2734.5","images/apple3.png","","","memory_trial","2","maybe_old",""
"html-keyboard-response","186","475452","0.0-18.0-0.71","4906","approach_avoid_sv1","""event"",""trial"",""time""
""fullscreenenter"",""1"",""4145""
","
","
","""event"",""trial"",""time""
""fullscreenenter"",""1"",""4145""
","
","","","","","","null","<div style=""font-size:60px;"">+</div>","null","","fixation","","",""
"memory-trial","187","477784","0.0-18.0-1.71","4906","approach_avoid_sv1","""event"",""trial"",""time""
""fullscreenenter"",""1"",""4145""
","
","
","""event"",""trial"",""time""
""fullscreenenter"",""1"",""4145""
","
","","","","","","1322.7000000476837","images/sheep3.png","","","memory_trial","2","maybe_old",""
"html-keyboard-response","188","478290","0.0-18.0-0.72","4906","approach_avoid_sv1","""event"",""trial"",""time""
""fullscreenenter"",""1"",""4145""
","
","
","""event"",""trial"",""time""
""fullscreenenter"",""1"",""4145""
","
","","","","","","null","<div style=""font-size:60px;"">+</div>","null","","fixation","","",""
"memory-trial","189","481650","0.0-18.0-1.72","4906","approach_avoid_sv1","""event"",""trial"",""time""
""fullscreenenter"",""1"",""4145""
","
","
","""event"",""trial"",""time""
""fullscreenenter"",""1"",""4145""
","
","","","","","","2351.100000023842","images/train5.png","","","memory_trial","1","definitely_old",""
"html-keyboard-response","190","482154","0.0-18.0-0.73","4906","approach_avoid_sv1","""event"",""trial"",""time""
""fullscreenenter"",""1"",""4145""
","
","
","""event"",""trial"",""time""
""fullscreenenter"",""1"",""4145""
","
","","","","","","null","<div style=""font-size:60px;"">+</div>","null","","fixation","","",""
"memory-trial","191","485274","0.0-18.0-1.73","4906","approach_avoid_sv1","""event"",""trial"",""time""
""fullscreenenter"",""1"",""4145""
","
","
","""event"",""trial"",""time""
""fullscreenenter"",""1"",""4145""
","
","","","","","","2110.899999976158","images/goat5.png","","","memory_trial","2","maybe_old",""
"html-keyboard-response","192","485778","0.0-18.0-0.74","4906","approach_avoid_sv1","""event"",""trial"",""time""
""fullscreenenter"",""1"",""4145""
","
","
","""event"",""trial"",""time""
""fullscreenenter"",""1"",""4145""
","
","","","","","","null","<div style=""font-size:60px;"">+</div>","null","","fixation","","",""
"memory-trial","193","487914","0.0-18.0-1.74","4906","approach_avoid_sv1","""event"",""trial"",""time""
""fullscreenenter"",""1"",""4145""
","
","
","""event"",""trial"",""time""
""fullscreenenter"",""1"",""4145""
","
","","","","","","1125.5","images/truck4.png","","","memory_trial","4","definitely_new",""
"html-keyboard-response","194","488419","0.0-18.0-0.75","4906","approach_avoid_sv1","""event"",""trial"",""time""
""fullscreenenter"",""1"",""4145""
","
","
","""event"",""trial"",""time""
""fullscreenenter"",""1"",""4145""
","
","","","","","","null","<div style=""font-size:60px;"">+</div>","null","","fixation","","",""
"memory-trial","195","491291","0.0-18.0-1.75","4906","approach_avoid_sv1","""event"",""trial"",""time""
""fullscreenenter"",""1"",""4145""
","
","
","""event"",""trial"",""time""
""fullscreenenter"",""1"",""4145""
","
","","","","","","1866.2999999523163","images/orange6.png","","","memory_trial","3","maybe_new",""
"html-keyboard-response","196","491794","0.0-18.0-0.76","4906","approach_avoid_sv1","""event"",""trial"",""time""
""fullscreenenter"",""1"",""4145""
","
","
","""event"",""trial"",""time""
""fullscreenenter"",""1"",""4145""
","
","","","","","","null","<div style=""font-size:60px;"">+</div>","null","","fixation","","",""
"memory-trial","197","493844","0.0-18.0-1.76","4906","approach_avoid_sv1","""event"",""trial"",""time""
""fullscreenenter"",""1"",""4145""
","
","
","""event"",""trial"",""time""
""fullscreenenter"",""1"",""4145""
","
","","","","","","1038.9000000953674","images/truck6.png","","","memory_trial","1","definitely_old",""
"html-keyboard-response","198","494362","0.0-18.0-0.77","4906","approach_avoid_sv1","""event"",""trial"",""time""
""fullscreenenter"",""1"",""4145""
","
","
","""event"",""trial"",""time""
""fullscreenenter"",""1"",""4145""
","
","","","","","","null","<div style=""font-size:60px;"">+</div>","null","","fixation","","",""
"memory-trial","199","496466","0.0-18.0-1.77","4906","approach_avoid_sv1","""event"",""trial"",""time""
""fullscreenenter"",""1"",""4145""
","
","
","""event"",""trial"",""time""
""fullscreenenter"",""1"",""4145""
","
","","","","","","1098.3000000715256","images/tree1.png","","","memory_trial","1","definitely_old",""
"html-keyboard-response","200","496970","0.0-18.0-0.78","4906","approach_avoid_sv1","""event"",""trial"",""time""
""fullscreenenter"",""1"",""4145""
","
","
","""event"",""trial"",""time""
""fullscreenenter"",""1"",""4145""
","
","","","","","","null","<div style=""font-size:60px;"">+</div>","null","","fixation","","",""
"memory-trial","201","499119","0.0-18.0-1.78","4906","approach_avoid_sv1","""event"",""trial"",""time""
""fullscreenenter"",""1"",""4145""
","
","
","""event"",""trial"",""time""
""fullscreenenter"",""1"",""4145""
","
","","","","","","1127.8999999761581","images/bed4.png","","","memory_trial","4","definitely_new",""
"html-keyboard-response","202","499625","0.0-18.0-0.79","4906","approach_avoid_sv1","""event"",""trial"",""time""
""fullscreenenter"",""1"",""4145""
","
","
","""event"",""trial"",""time""
""fullscreenenter"",""1"",""4145""
","
","","","","","","null","<div style=""font-size:60px;"">+</div>","null","","fixation","","",""
"memory-trial","203","501410","0.0-18.0-1.79","4906","approach_avoid_sv1","""event"",""trial"",""time""
""fullscreenenter"",""1"",""4145""
","
","
","""event"",""trial"",""time""
""fullscreenenter"",""1"",""4145""
","
","","","","","","779.5","images/tree2.png","","","memory_trial","4","definitely_new",""
"html-keyboard-response","204","501919","0.0-18.0-0.80","4906","approach_avoid_sv1","""event"",""trial"",""time""
""fullscreenenter"",""1"",""4145""
","
","
","""event"",""trial"",""time""
""fullscreenenter"",""1"",""4145""
","
","","","","","","null","<div style=""font-size:60px;"">+</div>","null","","fixation","","",""
"memory-trial","205","504065","0.0-18.0-1.80","4906","approach_avoid_sv1","""event"",""trial"",""time""
""fullscreenenter"",""1"",""4145""
","
","
","""event"",""trial"",""time""
""fullscreenenter"",""1"",""4145""
","
","","","","","","1138","images/sofa5.png","","","memory_trial","4","definitely_new",""
"html-keyboard-response","206","504570","0.0-18.0-0.81","4906","approach_avoid_sv1","""event"",""trial"",""time""
""fullscreenenter"",""1"",""4145""
","
","
","""event"",""trial"",""time""
""fullscreenenter"",""1"",""4145""
","
","","","","","","null","<div style=""font-size:60px;"">+</div>","null","","fixation","","",""
"memory-trial","207","506823","0.0-18.0-1.81","4906","approach_avoid_sv1","""event"",""trial"",""time""
""fullscreenenter"",""1"",""4145""
","
","
","""event"",""trial"",""time""
""fullscreenenter"",""1"",""4145""
","
","","","","","","1232.6999999284744","images/cat3.png","","","memory_trial","4","definitely_new",""
"html-keyboard-response","208","507330","0.0-18.0-0.82","4906","approach_avoid_sv1","""event"",""trial"",""time""
""fullscreenenter"",""1"",""4145""
","
","
","""event"",""trial"",""time""
""fullscreenenter"",""1"",""4145""
","
","","","","","","null","<div style=""font-size:60px;"">+</div>","null","","fixation","","",""
"memory-trial","209","509146","0.0-18.0-1.82","4906","approach_avoid_sv1","""event"",""trial"",""time""
""fullscreenenter"",""1"",""4145""
","
","
","""event"",""trial"",""time""
""fullscreenenter"",""1"",""4145""
","
","","","","","","806.2999999523163","images/table5.png","","","memory_trial","3","maybe_new",""
"html-keyboard-response","210","509650","0.0-18.0-0.83","4906","approach_avoid_sv1","""event"",""trial"",""time""
""fullscreenenter"",""1"",""4145""
","
","
","""event"",""trial"",""time""
""fullscreenenter"",""1"",""4145""
","
","","","","","","null","<div style=""font-size:60px;"">+</div>","null","","fixation","","",""
"memory-trial","211","512266","0.0-18.0-1.83","4906","approach_avoid_sv1","""event"",""trial"",""time""
""fullscreenenter"",""1"",""4145""
","
","
","""event"",""trial"",""time""
""fullscreenenter"",""1"",""4145""
","
","","","","","","1614","images/cactus6.png","","","memory_trial","4","definitely_new",""
"html-keyboard-response","212","512770","0.0-18.0-0.84","4906","approach_avoid_sv1","""event"",""trial"",""time""
""fullscreenenter"",""1"",""4145""
","
","
","""event"",""trial"",""time""
""fullscreenenter"",""1"",""4145""
","
","","","","","","null","<div style=""font-size:60px;"">+</div>","null","","fixation","","",""
"memory-trial","213","515330","0.0-18.0-1.84","4906","approach_avoid_sv1","""event"",""trial"",""time""
""fullscreenenter"",""1"",""4145""
","
","
","""event"",""trial"",""time""
""fullscreenenter"",""1"",""4145""
","
","","","","","","1552.2999999523163","images/table7.png","","","memory_trial","4","definitely_new",""
"html-keyboard-response","214","515835","0.0-18.0-0.85","4906","approach_avoid_sv1","""event"",""trial"",""time""
""fullscreenenter"",""1"",""4145""
","
","
","""event"",""trial"",""time""
""fullscreenenter"",""1"",""4145""
","
","","","","","","null","<div style=""font-size:60px;"">+</div>","null","","fixation","","",""
"memory-trial","215","518365","0.0-18.0-1.85","4906","approach_avoid_sv1","""event"",""trial"",""time""
""fullscreenenter"",""1"",""4145""
","
","
","""event"",""trial"",""time""
""fullscreenenter"",""1"",""4145""
","
","","","","","","1514.2000000476837","images/goat6.png","","","memory_trial","4","definitely_new",""
"html-keyboard-response","216","518874","0.0-18.0-0.86","4906","approach_avoid_sv1","""event"",""trial"",""time""
""fullscreenenter"",""1"",""4145""
","
","
","""event"",""trial"",""time""
""fullscreenenter"",""1"",""4145""
","
","","","","","","null","<div style=""font-size:60px;"">+</div>","null","","fixation","","",""
"memory-trial","217","521019","0.0-18.0-1.86","4906","approach_avoid_sv1","""event"",""trial"",""time""
""fullscreenenter"",""1"",""4145""
","
","
","""event"",""trial"",""time""
""fullscreenenter"",""1"",""4145""
","
","","","","","","1139.4000000953674","images/table6.png","","","memory_trial","4","definitely_new",""
"html-keyboard-response","218","521521","0.0-18.0-0.87","4906","approach_avoid_sv1","""event"",""trial"",""time""
""fullscreenenter"",""1"",""4145""
","
","
","""event"",""trial"",""time""
""fullscreenenter"",""1"",""4145""
","
","","","","","","null","<div style=""font-size:60px;"">+</div>","null","","fixation","","",""
"memory-trial","219","524282","0.0-18.0-1.87","4906","approach_avoid_sv1","""event"",""trial"",""time""
""fullscreenenter"",""1"",""4145""
","
","
","""event"",""trial"",""time""
""fullscreenenter"",""1"",""4145""
","
","","","","","","1752.6000000238419","images/flower2.png","","","memory_trial","2","maybe_old",""
"html-keyboard-response","220","524786","0.0-18.0-0.88","4906","approach_avoid_sv1","""event"",""trial"",""time""
""fullscreenenter"",""1"",""4145""
","
","
","""event"",""trial"",""time""
""fullscreenenter"",""1"",""4145""
","
","","","","","","null","<div style=""font-size:60px;"">+</div>","null","","fixation","","",""
"memory-trial","221","526978","0.0-18.0-1.88","4906","approach_avoid_sv1","""event"",""trial"",""time""
""fullscreenenter"",""1"",""4145""
","
","
","""event"",""trial"",""time""
""fullscreenenter"",""1"",""4145""
","
","","","","","","1185.8000000715256","images/rodent3.png","","","memory_trial","2","maybe_old",""
"html-keyboard-response","222","527482","0.0-18.0-0.89","4906","approach_avoid_sv1","""event"",""trial"",""time""
""fullscreenenter"",""1"",""4145""
","
","
","""event"",""trial"",""time""
""fullscreenenter"",""1"",""4145""
","
","","","","","","null","<div style=""font-size:60px;"">+</div>","null","","fixation","","",""
"memory-trial","223","529634","0.0-18.0-1.89","4906","approach_avoid_sv1","""event"",""trial"",""time""
""fullscreenenter"",""1"",""4145""
","
","
","""event"",""trial"",""time""
""fullscreenenter"",""1"",""4145""
","
","","","","","","1148.2000000476837","images/dog5.png","","","memory_trial","1","definitely_old",""
"html-keyboard-response","224","530153","0.0-18.0-0.90","4906","approach_avoid_sv1","""event"",""trial"",""time""
""fullscreenenter"",""1"",""4145""
","
","
","""event"",""trial"",""time""
""fullscreenenter"",""1"",""4145""
","
","","","","","","null","<div style=""font-size:60px;"">+</div>","null","","fixation","","",""
"memory-trial","225","533498","0.0-18.0-1.90","4906","approach_avoid_sv1","""event"",""trial"",""time""
""fullscreenenter"",""1"",""4145""
","
","
","""event"",""trial"",""time""
""fullscreenenter"",""1"",""4145""
","
","","","","","","2337.2000000476837","images/bush7.png","","","memory_trial","3","maybe_new",""
"html-keyboard-response","226","534002","0.0-18.0-0.91","4906","approach_avoid_sv1","""event"",""trial"",""time""
""fullscreenenter"",""1"",""4145""
","
","
","""event"",""trial"",""time""
""fullscreenenter"",""1"",""4145""
","
","","","","","","null","<div style=""font-size:60px;"">+</div>","null","","fixation","","",""
"memory-trial","227","536218","0.0-18.0-1.91","4906","approach_avoid_sv1","""event"",""trial"",""time""
""fullscreenenter"",""1"",""4145""
","
","
","""event"",""trial"",""time""
""fullscreenenter"",""1"",""4145""
","
","","","","","","1206.0999999046326","images/dog1.png","","","memory_trial","1","definitely_old",""
"html-button-response","228","539900","0.0-18.0-2.91-0.91","4906","approach_avoid_sv1","""event"",""trial"",""time""
""fullscreenenter"",""1"",""4145""
","
","
","""event"",""trial"",""time""
""fullscreenenter"",""1"",""4145""
","
","","","","","","3680.3000000715256","<p> Take a break! </p><p> Click the button to continue. </p>","0","","break","","",""
"html-keyboard-response","229","540402","0.0-18.0-0.92","4906","approach_avoid_sv1","""event"",""trial"",""time""
""fullscreenenter"",""1"",""4145""
","
","
","""event"",""trial"",""time""
""fullscreenenter"",""1"",""4145""
","
","","","","","","null","<div style=""font-size:60px;"">+</div>","null","","fixation","","",""
"memory-trial","230","543704","0.0-18.0-1.92","4906","approach_avoid_sv1","""event"",""trial"",""time""
""fullscreenenter"",""1"",""4145""
","
","
","""event"",""trial"",""time""
""fullscreenenter"",""1"",""4145""
","
","","","","","","2289.899999976158","images/horse8.png","","","memory_trial","4","definitely_new",""
"html-keyboard-response","231","544217","0.0-18.0-0.93","4906","approach_avoid_sv1","""event"",""trial"",""time""
""fullscreenenter"",""1"",""4145""
","
","
","""event"",""trial"",""time""
""fullscreenenter"",""1"",""4145""
","
","","","","","","null","<div style=""font-size:60px;"">+</div>","null","","fixation","","",""
"memory-trial","232","547178","0.0-18.0-1.93","4906","approach_avoid_sv1","""event"",""trial"",""time""
""fullscreenenter"",""1"",""4145""
","
","
","""event"",""trial"",""time""
""fullscreenenter"",""1"",""4145""
","
","","","","","","1954.2000000476837","images/train4.png","","","memory_trial","1","definitely_old",""
"html-keyboard-response","233","547687","0.0-18.0-0.94","4906","approach_avoid_sv1","""event"",""trial"",""time""
""fullscreenenter"",""1"",""4145""
","
","
","""event"",""trial"",""time""
""fullscreenenter"",""1"",""4145""
","
","","","","","","null","<div style=""font-size:60px;"">+</div>","null","","fixation","","",""
"memory-trial","234","549739","0.0-18.0-1.94","4906","approach_avoid_sv1","""event"",""trial"",""time""
""fullscreenenter"",""1"",""4145""
","
","
","""event"",""trial"",""time""
""fullscreenenter"",""1"",""4145""
","
","","","","","","1043.6000000238419","images/sheep2.png","","","memory_trial","4","definitely_new",""
"html-keyboard-response","235","550241","0.0-18.0-0.95","4906","approach_avoid_sv1","""event"",""trial"",""time""
""fullscreenenter"",""1"",""4145""
","
","
","""event"",""trial"",""time""
""fullscreenenter"",""1"",""4145""
","
","","","","","","null","<div style=""font-size:60px;"">+</div>","null","","fixation","","",""
"memory-trial","236","552314","0.0-18.0-1.95","4906","approach_avoid_sv1","""event"",""trial"",""time""
""fullscreenenter"",""1"",""4145""
","
","
","""event"",""trial"",""time""
""fullscreenenter"",""1"",""4145""
","
","","","","","","1064.1000000238419","images/cactus3.png","","","memory_trial","3","maybe_new",""
"html-keyboard-response","237","552818","0.0-18.0-0.96","4906","approach_avoid_sv1","""event"",""trial"",""time""
""fullscreenenter"",""1"",""4145""
","
","
","""event"",""trial"",""time""
""fullscreenenter"",""1"",""4145""
","
","","","","","","null","<div style=""font-size:60px;"">+</div>","null","","fixation","","",""
"memory-trial","238","554626","0.0-18.0-1.96","4906","approach_avoid_sv1","""event"",""trial"",""time""
""fullscreenenter"",""1"",""4145""
","
","
","""event"",""trial"",""time""
""fullscreenenter"",""1"",""4145""
","
","","","","","","802.6999999284744","images/table4.png","","","memory_trial","3","maybe_new",""
"html-keyboard-response","239","555134","0.0-18.0-0.97","4906","approach_avoid_sv1","""event"",""trial"",""time""
""fullscreenenter"",""1"",""4145""
","
","
","""event"",""trial"",""time""
""fullscreenenter"",""1"",""4145""
","
","","","","","","null","<div style=""font-size:60px;"">+</div>","null","","fixation","","",""
"memory-trial","240","558378","0.0-18.0-1.97","4906","approach_avoid_sv1","""event"",""trial"",""time""
""fullscreenenter"",""1"",""4145""
","
","
","""event"",""trial"",""time""
""fullscreenenter"",""1"",""4145""
","
","","","","","","2235.2999999523163","images/straw8.png","","","memory_trial","2","maybe_old",""
"html-keyboard-response","241","558882","0.0-18.0-0.98","4906","approach_avoid_sv1","""event"",""trial"",""time""
""fullscreenenter"",""1"",""4145""
","
","
","""event"",""trial"",""time""
""fullscreenenter"",""1"",""4145""
","
","","","","","","null","<div style=""font-size:60px;"">+</div>","null","","fixation","","",""
"memory-trial","242","561042","0.0-18.0-1.98","4906","approach_avoid_sv1","""event"",""trial"",""time""
""fullscreenenter"",""1"",""4145""
","
","
","""event"",""trial"",""time""
""fullscreenenter"",""1"",""4145""
","
","","","","","","1152.0999999046326","images/plane1.png","","","memory_trial","4","definitely_new",""
"html-keyboard-response","243","561556","0.0-18.0-0.99","4906","approach_avoid_sv1","""event"",""trial"",""time""
""fullscreenenter"",""1"",""4145""
","
","
","""event"",""trial"",""time""
""fullscreenenter"",""1"",""4145""
","
","","","","","","null","<div style=""font-size:60px;"">+</div>","null","","fixation","","",""
"memory-trial","244","563474","0.0-18.0-1.99","4906","approach_avoid_sv1","""event"",""trial"",""time""
""fullscreenenter"",""1"",""4145""
","
","
","""event"",""trial"",""time""
""fullscreenenter"",""1"",""4145""
","
","","","","","","907.5","images/dog7.png","","","memory_trial","1","definitely_old",""
"html-keyboard-response","245","563978","0.0-18.0-0.100","4906","approach_avoid_sv1","""event"",""trial"",""time""
""fullscreenenter"",""1"",""4145""
","
","
","""event"",""trial"",""time""
""fullscreenenter"",""1"",""4145""
","
","","","","","","null","<div style=""font-size:60px;"">+</div>","null","","fixation","","",""
"memory-trial","246","566067","0.0-18.0-1.100","4906","approach_avoid_sv1","""event"",""trial"",""time""
""fullscreenenter"",""1"",""4145""
","
","
","""event"",""trial"",""time""
""fullscreenenter"",""1"",""4145""
","
","","","","","","1080.6999999284744","images/rabbit4.png","","","memory_trial","4","definitely_new",""
"html-keyboard-response","247","566570","0.0-18.0-0.101","4906","approach_avoid_sv1","""event"",""trial"",""time""
""fullscreenenter"",""1"",""4145""
","
","
","""event"",""trial"",""time""
""fullscreenenter"",""1"",""4145""
","
","","","","","","null","<div style=""font-size:60px;"">+</div>","null","","fixation","","",""
"memory-trial","248","568337","0.0-18.0-1.101","4906","approach_avoid_sv1","""event"",""trial"",""time""
""fullscreenenter"",""1"",""4145""
","
","
","""event"",""trial"",""time""
""fullscreenenter"",""1"",""4145""
","
","","","","","","765.1000000238419","images/chair7.png","","","memory_trial","2","maybe_old",""
"html-keyboard-response","249","568843","0.0-18.0-0.102","4906","approach_avoid_sv1","""event"",""trial"",""time""
""fullscreenenter"",""1"",""4145""
","
","
","""event"",""trial"",""time""
""fullscreenenter"",""1"",""4145""
","
","","","","","","null","<div style=""font-size:60px;"">+</div>","null","","fixation","","",""
"memory-trial","250","570859","0.0-18.0-1.102","4906","approach_avoid_sv1","""event"",""trial"",""time""
""fullscreenenter"",""1"",""4145""
","
","
","""event"",""trial"",""time""
""fullscreenenter"",""1"",""4145""
","
","","","","","","1004.8999999761581","images/sheep8.png","","","memory_trial","4","definitely_new",""
"html-keyboard-response","251","571364","0.0-18.0-0.103","4906","approach_avoid_sv1","""event"",""trial"",""time""
""fullscreenenter"",""1"",""4145""
","
","
","""event"",""trial"",""time""
""fullscreenenter"",""1"",""4145""
","
","","","","","","null","<div style=""font-size:60px;"">+</div>","null","","fixation","","",""
"memory-trial","252","573163","0.0-18.0-1.103","4906","approach_avoid_sv1","""event"",""trial"",""time""
""fullscreenenter"",""1"",""4145""
","
","
","""event"",""trial"",""time""
""fullscreenenter"",""1"",""4145""
","
","","","","","","786.2999999523163","images/cactus8.png","","","memory_trial","4","definitely_new",""
"html-keyboard-response","253","573665","0.0-18.0-0.104","4906","approach_avoid_sv1","""event"",""trial"",""time""
""fullscreenenter"",""1"",""4145""
","
","
","""event"",""trial"",""time""
""fullscreenenter"",""1"",""4145""
","
","","","","","","null","<div style=""font-size:60px;"">+</div>","null","","fixation","","",""
"memory-trial","254","575610","0.0-18.0-1.104","4906","approach_avoid_sv1","""event"",""trial"",""time""
""fullscreenenter"",""1"",""4145""
","
","
","""event"",""trial"",""time""
""fullscreenenter"",""1"",""4145""
","
","","","","","","934.1000000238419","images/cactus4.png","","","memory_trial","4","definitely_new",""
"html-keyboard-response","255","576114","0.0-18.0-0.105","4906","approach_avoid_sv1","""event"",""trial"",""time""
""fullscreenenter"",""1"",""4145""
","
","
","""event"",""trial"",""time""
""fullscreenenter"",""1"",""4145""
","
","","","","","","null","<div style=""font-size:60px;"">+</div>","null","","fixation","","",""
"memory-trial","256","578506","0.0-18.0-1.105","4906","approach_avoid_sv1","""event"",""trial"",""time""
""fullscreenenter"",""1"",""4145""
","
","
","""event"",""trial"",""time""
""fullscreenenter"",""1"",""4145""
","
","","","","","","1381.1999999284744","images/flower4.png","","","memory_trial","2","maybe_old",""
"html-keyboard-response","257","579010","0.0-18.0-0.106","4906","approach_avoid_sv1","""event"",""trial"",""time""
""fullscreenenter"",""1"",""4145""
","
","
","""event"",""trial"",""time""
""fullscreenenter"",""1"",""4145""
","
","","","","","","null","<div style=""font-size:60px;"">+</div>","null","","fixation","","",""
"memory-trial","258","581242","0.0-18.0-1.106","4906","approach_avoid_sv1","""event"",""trial"",""time""
""fullscreenenter"",""1"",""4145""
","
","
","""event"",""trial"",""time""
""fullscreenenter"",""1"",""4145""
","
","","","","","","1223.7000000476837","images/cat4.png","","","memory_trial","4","definitely_new",""
"html-keyboard-response","259","581754","0.0-18.0-0.107","4906","approach_avoid_sv1","""event"",""trial"",""time""
""fullscreenenter"",""1"",""4145""
","
","
","""event"",""trial"",""time""
""fullscreenenter"",""1"",""4145""
","
","","","","","","null","<div style=""font-size:60px;"">+</div>","null","","fixation","","",""
"memory-trial","260","583882","0.0-18.0-1.107","4906","approach_avoid_sv1","""event"",""trial"",""time""
""fullscreenenter"",""1"",""4145""
","
","
","""event"",""trial"",""time""
""fullscreenenter"",""1"",""4145""
","
","","","","","","1119.3000000715256","images/flower7.png","","","memory_trial","1","definitely_old",""
"html-keyboard-response","261","584386","0.0-18.0-0.108","4906","approach_avoid_sv1","""event"",""trial"",""time""
""fullscreenenter"",""1"",""4145""
","
","
","""event"",""trial"",""time""
""fullscreenenter"",""1"",""4145""
","
","","","","","","null","<div style=""font-size:60px;"">+</div>","null","","fixation","","",""
"memory-trial","262","586306","0.0-18.0-1.108","4906","approach_avoid_sv1","""event"",""trial"",""time""
""fullscreenenter"",""1"",""4145""
","
","
","""event"",""trial"",""time""
""fullscreenenter"",""1"",""4145""
","
","","","","","","911","images/straw2.png","","","memory_trial","1","definitely_old",""
"html-keyboard-response","263","586819","0.0-18.0-0.109","4906","approach_avoid_sv1","""event"",""trial"",""time""
""fullscreenenter"",""1"",""4145""
","
","
","""event"",""trial"",""time""
""fullscreenenter"",""1"",""4145""
","
","","","","","","null","<div style=""font-size:60px;"">+</div>","null","","fixation","","",""
"memory-trial","264","588960","0.0-18.0-1.109","4906","approach_avoid_sv1","""event"",""trial"",""time""
""fullscreenenter"",""1"",""4145""
","
","
","""event"",""trial"",""time""
""fullscreenenter"",""1"",""4145""
","
","","","","","","1123.3000000715256","images/bush2.png","","","memory_trial","1","definitely_old",""
"html-keyboard-response","265","589466","0.0-18.0-0.110","4906","approach_avoid_sv1","""event"",""trial"",""time""
""fullscreenenter"",""1"",""4145""
","
","
","""event"",""trial"",""time""
""fullscreenenter"",""1"",""4145""
","
","","","","","","null","<div style=""font-size:60px;"">+</div>","null","","fixation","","",""
"memory-trial","266","592538","0.0-18.0-1.110","4906","approach_avoid_sv1","""event"",""trial"",""time""
""fullscreenenter"",""1"",""4145""
","
","
","""event"",""trial"",""time""
""fullscreenenter"",""1"",""4145""
","
","","","","","","2066.5","images/rodent1.png","","","memory_trial","2","maybe_old",""
"html-keyboard-response","267","593056","0.0-18.0-0.111","4906","approach_avoid_sv1","""event"",""trial"",""time""
""fullscreenenter"",""1"",""4145""
","
","
","""event"",""trial"",""time""
""fullscreenenter"",""1"",""4145""
","
","","","","","","null","<div style=""font-size:60px;"">+</div>","null","","fixation","","",""
"memory-trial","268","595122","0.0-18.0-1.111","4906","approach_avoid_sv1","""event"",""trial"",""time""
""fullscreenenter"",""1"",""4145""
","
","
","""event"",""trial"",""time""
""fullscreenenter"",""1"",""4145""
","
","","","","","","1052.0999999046326","images/rodent2.png","","","memory_trial","1","definitely_old",""
"html-keyboard-response","269","595640","0.0-18.0-0.112","4906","approach_avoid_sv1","""event"",""trial"",""time""
""fullscreenenter"",""1"",""4145""
","
","
","""event"",""trial"",""time""
""fullscreenenter"",""1"",""4145""
","
","","","","","","null","<div style=""font-size:60px;"">+</div>","null","","fixation","","",""
"memory-trial","270","598249","0.0-18.0-1.112","4906","approach_avoid_sv1","""event"",""trial"",""time""
""fullscreenenter"",""1"",""4145""
","
","
","""event"",""trial"",""time""
""fullscreenenter"",""1"",""4145""
","
","","","","","","1601.2999999523163","images/rodent8.png","","","memory_trial","4","definitely_new",""
"html-keyboard-response","271","598754","0.0-18.0-0.113","4906","approach_avoid_sv1","""event"",""trial"",""time""
""fullscreenenter"",""1"",""4145""
","
","
","""event"",""trial"",""time""
""fullscreenenter"",""1"",""4145""
","
","","","","","","null","<div style=""font-size:60px;"">+</div>","null","","fixation","","",""
"memory-trial","272","601689","0.0-18.0-1.113","4906","approach_avoid_sv1","""event"",""trial"",""time""
""fullscreenenter"",""1"",""4145""
","
","
","""event"",""trial"",""time""
""fullscreenenter"",""1"",""4145""
","
","","","","","","1925.3999999761581","images/truck2.png","","","memory_trial","2","maybe_old",""
"html-keyboard-response","273","602193","0.0-18.0-0.114","4906","approach_avoid_sv1","""event"",""trial"",""time""
""fullscreenenter"",""1"",""4145""
","
","
","""event"",""trial"",""time""
""fullscreenenter"",""1"",""4145""
","
","","","","","","null","<div style=""font-size:60px;"">+</div>","null","","fixation","","",""
"memory-trial","274","604499","0.0-18.0-1.114","4906","approach_avoid_sv1","""event"",""trial"",""time""
""fullscreenenter"",""1"",""4145""
","
","
","""event"",""trial"",""time""
""fullscreenenter"",""1"",""4145""
","
","","","","","","1296.6999999284744","images/rabbit2.png","","","memory_trial","2","maybe_old",""
"html-keyboard-response","275","605001","0.0-18.0-0.115","4906","approach_avoid_sv1","""event"",""trial"",""time""
""fullscreenenter"",""1"",""4145""
","
","
","""event"",""trial"",""time""
""fullscreenenter"",""1"",""4145""
","
","","","","","","null","<div style=""font-size:60px;"">+</div>","null","","fixation","","",""
"memory-trial","276","607614","0.0-18.0-1.115","4906","approach_avoid_sv1","""event"",""trial"",""time""
""fullscreenenter"",""1"",""4145""
","
","
","""event"",""trial"",""time""
""fullscreenenter"",""1"",""4145""
","
","","","","","","1603.6000000238419","images/sheep7.png","","","memory_trial","4","definitely_new",""
"html-keyboard-response","277","608130","0.0-18.0-0.116","4906","approach_avoid_sv1","""event"",""trial"",""time""
""fullscreenenter"",""1"",""4145""
","
","
","""event"",""trial"",""time""
""fullscreenenter"",""1"",""4145""
","
","","","","","","null","<div style=""font-size:60px;"">+</div>","null","","fixation","","",""
"memory-trial","278","609914","0.0-18.0-1.116","4906","approach_avoid_sv1","""event"",""trial"",""time""
""fullscreenenter"",""1"",""4145""
","
","
","""event"",""trial"",""time""
""fullscreenenter"",""1"",""4145""
","
","","","","","","775.5","images/plane3.png","","","memory_trial","4","definitely_new",""
"html-keyboard-response","279","610432","0.0-18.0-0.117","4906","approach_avoid_sv1","""event"",""trial"",""time""
""fullscreenenter"",""1"",""4145""
","
","
","""event"",""trial"",""time""
""fullscreenenter"",""1"",""4145""
","
","","","","","","null","<div style=""font-size:60px;"">+</div>","null","","fixation","","",""
"memory-trial","280","613026","0.0-18.0-1.117","4906","approach_avoid_sv1","""event"",""trial"",""time""
""fullscreenenter"",""1"",""4145""
","
","
","""event"",""trial"",""time""
""fullscreenenter"",""1"",""4145""
","
","","","","","","1588.8000000715256","images/tree6.png","","","memory_trial","4","definitely_new",""
"html-keyboard-response","281","613530","0.0-18.0-0.118","4906","approach_avoid_sv1","""event"",""trial"",""time""
""fullscreenenter"",""1"",""4145""
","
","
","""event"",""trial"",""time""
""fullscreenenter"",""1"",""4145""
","
","","","","","","null","<div style=""font-size:60px;"">+</div>","null","","fixation","","",""
"memory-trial","282","617098","0.0-18.0-1.118","4906","approach_avoid_sv1","""event"",""trial"",""time""
""fullscreenenter"",""1"",""4145""
","
","
","""event"",""trial"",""time""
""fullscreenenter"",""1"",""4145""
","
","","","","","","2561","images/sofa8.png","","","memory_trial","3","maybe_new",""
"html-keyboard-response","283","617614","0.0-18.0-0.119","4906","approach_avoid_sv1","""event"",""trial"",""time""
""fullscreenenter"",""1"",""4145""
","
","
","""event"",""trial"",""time""
""fullscreenenter"",""1"",""4145""
","
","","","","","","null","<div style=""font-size:60px;"">+</div>","null","","fixation","","",""
"memory-trial","284","619330","0.0-18.0-1.119","4906","approach_avoid_sv1","""event"",""trial"",""time""
""fullscreenenter"",""1"",""4145""
","
","
","""event"",""trial"",""time""
""fullscreenenter"",""1"",""4145""
","
","","","","","","710.8999999761581","images/cow6.png","","","memory_trial","4","definitely_new",""
"html-keyboard-response","285","619834","0.0-18.0-0.120","4906","approach_avoid_sv1","""event"",""trial"",""time""
""fullscreenenter"",""1"",""4145""
","
","
","""event"",""trial"",""time""
""fullscreenenter"",""1"",""4145""
","
","","","","","","null","<div style=""font-size:60px;"">+</div>","null","","fixation","","",""
"memory-trial","286","621762","0.0-18.0-1.120","4906","approach_avoid_sv1","""event"",""trial"",""time""
""fullscreenenter"",""1"",""4145""
","
","
","""event"",""trial"",""time""
""fullscreenenter"",""1"",""4145""
","
","","","","","","922.7999999523163","images/chair4.png","","","memory_trial","4","definitely_new",""
"html-keyboard-response","287","622266","0.0-18.0-0.121","4906","approach_avoid_sv1","""event"",""trial"",""time""
""fullscreenenter"",""1"",""4145""
","
","
","""event"",""trial"",""time""
""fullscreenenter"",""1"",""4145""
","
","","","","","","null","<div style=""font-size:60px;"">+</div>","null","","fixation","","",""
"memory-trial","288","624410","0.0-18.0-1.121","4906","approach_avoid_sv1","""event"",""trial"",""time""
""fullscreenenter"",""1"",""4145""
","
","
","""event"",""trial"",""time""
""fullscreenenter"",""1"",""4145""
","
","","","","","","1134.8999999761581","images/train3.png","","","memory_trial","4","definitely_new",""
"html-keyboard-response","289","624914","0.0-18.0-0.122","4906","approach_avoid_sv1","""event"",""trial"",""time""
""fullscreenenter"",""1"",""4145""
","
","
","""event"",""trial"",""time""
""fullscreenenter"",""1"",""4145""
","
","","","","","","null","<div style=""font-size:60px;"">+</div>","null","","fixation","","",""
"memory-trial","290","627882","0.0-18.0-1.122","4906","approach_avoid_sv1","""event"",""trial"",""time""
""fullscreenenter"",""1"",""4145""
","
","
","""event"",""trial"",""time""
""fullscreenenter"",""1"",""4145""
","
","","","","","","1962.7000000476837","images/flower3.png","","","memory_trial","3","maybe_new",""
"html-keyboard-response","291","628385","0.0-18.0-0.123","4906","approach_avoid_sv1","""event"",""trial"",""time""
""fullscreenenter"",""1"",""4145""
","
","
","""event"",""trial"",""time""
""fullscreenenter"",""1"",""4145""
","
","","","","","","null","<div style=""font-size:60px;"">+</div>","null","","fixation","","",""
"memory-trial","292","630274","0.0-18.0-1.123","4906","approach_avoid_sv1","""event"",""trial"",""time""
""fullscreenenter"",""1"",""4145""
","
","
","""event"",""trial"",""time""
""fullscreenenter"",""1"",""4145""
","
","","","","","","877.9000000953674","images/horse7.png","","","memory_trial","4","definitely_new",""
"html-keyboard-response","293","630778","0.0-18.0-0.124","4906","approach_avoid_sv1","""event"",""trial"",""time""
""fullscreenenter"",""1"",""4145""
","
","
","""event"",""trial"",""time""
""fullscreenenter"",""1"",""4145""
","
","","","","","","null","<div style=""font-size:60px;"">+</div>","null","","fixation","","",""
"memory-trial","294","633011","0.0-18.0-1.124","4906","approach_avoid_sv1","""event"",""trial"",""time""
""fullscreenenter"",""1"",""4145""
","
","
","""event"",""trial"",""time""
""fullscreenenter"",""1"",""4145""
","
","","","","","","1227.3000000715256","images/bed3.png","","","memory_trial","1","definitely_old",""
"html-keyboard-response","295","633515","0.0-18.0-0.125","4906","approach_avoid_sv1","""event"",""trial"",""time""
""fullscreenenter"",""1"",""4145""
","
","
","""event"",""trial"",""time""
""fullscreenenter"",""1"",""4145""
","
","","","","","","null","<div style=""font-size:60px;"">+</div>","null","","fixation","","",""
"memory-trial","296","635995","0.0-18.0-1.125","4906","approach_avoid_sv1","""event"",""trial"",""time""
""fullscreenenter"",""1"",""4145""
","
","
","""event"",""trial"",""time""
""fullscreenenter"",""1"",""4145""
","
","","","","","","1461.7999999523163","images/train1.png","","","memory_trial","4","definitely_new",""
"html-keyboard-response","297","636498","0.0-18.0-0.126","4906","approach_avoid_sv1","""event"",""trial"",""time""
""fullscreenenter"",""1"",""4145""
