"trial_type","trial_index","time_elapsed","internal_node_id","subject_id","task_version","interactions","blur_events","focus_events","fullscreenenter_events","fullscreenexit_events","success","timeout","failed_images","failed_audio","failed_video","rt","stimulus","response","button_pressed","task_part","key_press","answer","correct"
"pavlovia","0","17","0.0-0.0","3978","approach_avoid_sv1","""event"",""trial"",""time""
""focus"",""0"",""1""
""fullscreenenter"",""1"",""1395""
","
","""event"",""trial"",""time""
""focus"",""0"",""1""
","""event"",""trial"",""time""
""fullscreenenter"",""1"",""1395""
","
","","","","","","","","","","","","",""
"fullscreen","1","2378","0.0-1.0","3978","approach_avoid_sv1","""event"",""trial"",""time""
""focus"",""0"",""1""
""fullscreenenter"",""1"",""1395""
","
","""event"",""trial"",""time""
""focus"",""0"",""1""
","""event"",""trial"",""time""
""fullscreenenter"",""1"",""1395""
","
","true","","","","","","","","","","","",""
"preload","2","14331","0.0-2.0","3978","approach_avoid_sv1","""event"",""trial"",""time""
""focus"",""0"",""1""
""fullscreenenter"",""1"",""1395""
","
","""event"",""trial"",""time""
""focus"",""0"",""1""
","""event"",""trial"",""time""
""fullscreenenter"",""1"",""1395""
","
","true","false","[]","[]","[]","","","","","","","",""
"preload","3","25649","0.0-3.0","3978","approach_avoid_sv1","""event"",""trial"",""time""
""focus"",""0"",""1""
""fullscreenenter"",""1"",""1395""
","
","""event"",""trial"",""time""
""focus"",""0"",""1""
","""event"",""trial"",""time""
""fullscreenenter"",""1"",""1395""
","
","true","false","[]","[]","[]","","","","","","","",""
"preload","4","26626","0.0-4.0","3978","approach_avoid_sv1","""event"",""trial"",""time""
""focus"",""0"",""1""
""fullscreenenter"",""1"",""1395""
","
","""event"",""trial"",""time""
""focus"",""0"",""1""
","""event"",""trial"",""time""
""fullscreenenter"",""1"",""1395""
","
","true","false","[]","[]","[]","","","","","","","",""
"audio-keyboard-response","5","30244","0.0-5.0","3978","approach_avoid_sv1","""event"",""trial"",""time""
""focus"",""0"",""1""
""fullscreenenter"",""1"",""1395""
","
","""event"",""trial"",""time""
""focus"",""0"",""1""
","""event"",""trial"",""time""
""fullscreenenter"",""1"",""1395""
","
","","","","","","3621.333333333334","audio/beep_loop.wav"," ","","","","",""
"audio-button-response","6","31685","0.0-6.0","3978","approach_avoid_sv1","""event"",""trial"",""time""
""focus"",""0"",""1""
""fullscreenenter"",""1"",""1395""
","
","""event"",""trial"",""time""
""focus"",""0"",""1""
","""event"",""trial"",""time""
""fullscreenenter"",""1"",""1395""
","
","","","","","","1440","audio/turtle.wav","3","","","","",""
"audio-button-response","7","33542","0.0-7.0","3978","approach_avoid_sv1","""event"",""trial"",""time""
""focus"",""0"",""1""
""fullscreenenter"",""1"",""1395""
","
","""event"",""trial"",""time""
""focus"",""0"",""1""
","""event"",""trial"",""time""
""fullscreenenter"",""1"",""1395""
","
","","","","","","851","audio/shark.wav","2","","","","",""
"preload","8","47723","0.0-8.0","3978","approach_avoid_sv1","""event"",""trial"",""time""
""focus"",""0"",""1""
""fullscreenenter"",""1"",""1395""
","
","""event"",""trial"",""time""
""focus"",""0"",""1""
","""event"",""trial"",""time""
""fullscreenenter"",""1"",""1395""
","
","true","false","[]","[]","[]","","","","","","","",""
"learning-instructions","9","53733","0.0-9.0-0.0","3978","approach_avoid_sv1","""event"",""trial"",""time""
""focus"",""0"",""1""
""fullscreenenter"",""1"",""1395""
","
","""event"",""trial"",""time""
""focus"",""0"",""1""
","""event"",""trial"",""time""
""fullscreenenter"",""1"",""1395""
","
","","","","","","1518","<p> Welcome back! </p><p> Last week, you had to make choices about lots of different items.  </p>","","0","instructions","","",""
"learning-instructions","10","58053","0.0-9.0-0.1","3978","approach_avoid_sv1","""event"",""trial"",""time""
""focus"",""0"",""1""
""fullscreenenter"",""1"",""1395""
","
","""event"",""trial"",""time""
""focus"",""0"",""1""
","""event"",""trial"",""time""
""fullscreenenter"",""1"",""1395""
","
","","","","","","198","<p> Today, we are going to ask you to try to remember all the items. </p>","","0","instructions","","",""
"learning-instructions","11","69868","0.0-9.0-0.2","3978","approach_avoid_sv1","""event"",""trial"",""time""
""focus"",""0"",""1""
""fullscreenenter"",""1"",""1395""
","
","""event"",""trial"",""time""
""focus"",""0"",""1""
","""event"",""trial"",""time""
""fullscreenenter"",""1"",""1395""
","
","","","","","","1673","<p> On every trial, you will see an image. </p><p> The image may be an OLD image you saw during the games last week or it may be a NEW image that was not presented. </p>","","0","instructions","","",""
"learning-instructions","12","78493","0.0-9.0-0.3","3978","approach_avoid_sv1","""event"",""trial"",""time""
""focus"",""0"",""1""
""fullscreenenter"",""1"",""1395""
","
","""event"",""trial"",""time""
""focus"",""0"",""1""
","""event"",""trial"",""time""
""fullscreenenter"",""1"",""1395""
","
","","","","","","118","<p> You need to select whether the image is:  </p><p>  'Definitely old', 'Maybe old', 'Maybe new', or 'Definitely new.'  </p><div class=""mem-choice-instructions-grid""><div class=""choice-option"" id=""choice-option-1"" ><img src=""images/definitely_old_1.png"" id=""choice-option-img-1"" class=""choice-option-img"" stage=""1""></div><div class=""choice-option"" id=""choice-option-2"" ><img src=""images/maybe_old_1.png"" id=""choice-option-img-2"" class=""choice-option-img"" stage=""1""></div><div class=""choice-option"" id=""choice-option-3"" ><img src=""images/maybe_new_1.png"" id=""choice-option-img-3"" class=""choice-option-img"" stage=""1""></div><div class=""choice-option"" id=""choice-option-4"" > <img src=""images/definitely_new_1.png"" id=""choice-option-img-4"" class=""choice-option-img"" stage=""1""></div></div>","","0","instructions","","",""
"learning-instructions","13","85356","0.0-9.0-0.4","3978","approach_avoid_sv1","""event"",""trial"",""time""
""focus"",""0"",""1""
""fullscreenenter"",""1"",""1395""
","
","""event"",""trial"",""time""
""focus"",""0"",""1""
","""event"",""trial"",""time""
""fullscreenenter"",""1"",""1395""
","
","","","","","","340","<p> You should use the 1, 2, 3, and 4 keys to make your responses.  </p><div class=""mem-choice-instructions-grid""><div class=""choice-option"" id=""choice-option-1"" ><img src=""images/definitely_old.png"" id=""choice-option-img-1"" class=""choice-option-img"" stage=""1""></div><div class=""choice-option"" id=""choice-option-2"" ><img src=""images/maybe_old.png"" id=""choice-option-img-2"" class=""choice-option-img"" stage=""1""></div><div class=""choice-option"" id=""choice-option-3"" ><img src=""images/maybe_new.png"" id=""choice-option-img-3"" class=""choice-option-img"" stage=""1""></div><div class=""choice-option"" id=""choice-option-4"" > <img src=""images/definitely_new.png"" id=""choice-option-img-4"" class=""choice-option-img"" stage=""1""></div></div>","","0","instructions","","",""
"learning-instructions","14","92460","0.0-9.0-0.5","3978","approach_avoid_sv1","""event"",""trial"",""time""
""focus"",""0"",""1""
""fullscreenenter"",""1"",""1395""
","
","""event"",""trial"",""time""
""focus"",""0"",""1""
","""event"",""trial"",""time""
""fullscreenenter"",""1"",""1395""
","
","","","","","","765","<p> You will have 10 seconds to make each response.  </p><p>  Make sure to respond before time runs out! </p>","","0","instructions","","",""
"learning-instructions","15","99996","0.0-9.0-0.6","3978","approach_avoid_sv1","""event"",""trial"",""time""
""focus"",""0"",""1""
""fullscreenenter"",""1"",""1395""
","
","""event"",""trial"",""time""
""focus"",""0"",""1""
","""event"",""trial"",""time""
""fullscreenenter"",""1"",""1395""
","
","","","","","","451","<p> Today, you will see each image ONCE only.  </p><p>  That means none of the images will repeat. </p>","","0","instructions","","",""
"learning-instructions","16","113436","0.0-9.0-0.7","3978","approach_avoid_sv1","""event"",""trial"",""time""
""focus"",""0"",""1""
""fullscreenenter"",""1"",""1395""
","
","""event"",""trial"",""time""
""focus"",""0"",""1""
","""event"",""trial"",""time""
""fullscreenenter"",""1"",""1395""
","
","","","","","","762","<p> Before you play the real game, it is time to practice. </p><p>  Just like in the real game, some of the images in the practice will be ones you have seen before. </p><p>  Others will be entirely new. </p>","","0","instructions","","",""
"html-button-response","17","115268","0.0-10.0","3978","approach_avoid_sv1","""event"",""trial"",""time""
""focus"",""0"",""1""
""fullscreenenter"",""1"",""1395""
","
","""event"",""trial"",""time""
""focus"",""0"",""1""
","""event"",""trial"",""time""
""fullscreenenter"",""1"",""1395""
","
","","","","","","1731","<p> Ready to practice? </p><p> Remember, use the 1, 2, 3, and 4 keys to make your responses. </p>","0","","instructions","","",""
"html-keyboard-response","18","115871","0.0-11.0-0.0","3978","approach_avoid_sv1","""event"",""trial"",""time""
""focus"",""0"",""1""
""fullscreenenter"",""1"",""1395""
","
","""event"",""trial"",""time""
""focus"",""0"",""1""
","""event"",""trial"",""time""
""fullscreenenter"",""1"",""1395""
","
","","","","","","null","<div style=""font-size:60px;"">+</div>","null","","fixation","","",""
"memory-trial","19","119618","0.0-11.0-1.0","3978","approach_avoid_sv1","""event"",""trial"",""time""
""focus"",""0"",""1""
""fullscreenenter"",""1"",""1395""
","
","""event"",""trial"",""time""
""focus"",""0"",""1""
","""event"",""trial"",""time""
""fullscreenenter"",""1"",""1395""
","
","","","","","","2745","images/ball5.png","","","practice","4","definitely_new",""
"html-keyboard-response","20","120121","0.0-11.0-0.1","3978","approach_avoid_sv1","""event"",""trial"",""time""
""focus"",""0"",""1""
""fullscreenenter"",""1"",""1395""
","
","""event"",""trial"",""time""
""focus"",""0"",""1""
","""event"",""trial"",""time""
""fullscreenenter"",""1"",""1395""
","
","","","","","","null","<div style=""font-size:60px;"">+</div>","null","","fixation","","",""
"memory-trial","21","122803","0.0-11.0-1.1","3978","approach_avoid_sv1","""event"",""trial"",""time""
""focus"",""0"",""1""
""fullscreenenter"",""1"",""1395""
","
","""event"",""trial"",""time""
""focus"",""0"",""1""
","""event"",""trial"",""time""
""fullscreenenter"",""1"",""1395""
","
","","","","","","1679","images/ball1.png","","","practice","4","definitely_new",""
"html-keyboard-response","22","123305","0.0-11.0-0.2","3978","approach_avoid_sv1","""event"",""trial"",""time""
""focus"",""0"",""1""
""fullscreenenter"",""1"",""1395""
","
","""event"",""trial"",""time""
""focus"",""0"",""1""
","""event"",""trial"",""time""
""fullscreenenter"",""1"",""1395""
","
","","","","","","null","<div style=""font-size:60px;"">+</div>","null","","fixation","","",""
"memory-trial","23","125226","0.0-11.0-1.2","3978","approach_avoid_sv1","""event"",""trial"",""time""
""focus"",""0"",""1""
""fullscreenenter"",""1"",""1395""
","
","""event"",""trial"",""time""
""focus"",""0"",""1""
","""event"",""trial"",""time""
""fullscreenenter"",""1"",""1395""
","
","","","","","","917","images/racket1.png","","","practice","4","definitely_new",""
"html-keyboard-response","24","125728","0.0-11.0-0.3","3978","approach_avoid_sv1","""event"",""trial"",""time""
""focus"",""0"",""1""
""fullscreenenter"",""1"",""1395""
","
","""event"",""trial"",""time""
""focus"",""0"",""1""
","""event"",""trial"",""time""
""fullscreenenter"",""1"",""1395""
","
","","","","","","null","<div style=""font-size:60px;"">+</div>","null","","fixation","","",""
"memory-trial","25","127243","0.0-11.0-1.3","3978","approach_avoid_sv1","""event"",""trial"",""time""
""focus"",""0"",""1""
""fullscreenenter"",""1"",""1395""
","
","""event"",""trial"",""time""
""focus"",""0"",""1""
","""event"",""trial"",""time""
""fullscreenenter"",""1"",""1395""
","
","","","","","","512","images/ball3.png","","","practice","4","definitely_new",""
"html-keyboard-response","26","127746","0.0-11.0-0.4","3978","approach_avoid_sv1","""event"",""trial"",""time""
""focus"",""0"",""1""
""fullscreenenter"",""1"",""1395""
","
","""event"",""trial"",""time""
""focus"",""0"",""1""
","""event"",""trial"",""time""
""fullscreenenter"",""1"",""1395""
","
","","","","","","null","<div style=""font-size:60px;"">+</div>","null","","fixation","","",""
"memory-trial","27","129514","0.0-11.0-1.4","3978","approach_avoid_sv1","""event"",""trial"",""time""
""focus"",""0"",""1""
""fullscreenenter"",""1"",""1395""
","
","""event"",""trial"",""time""
""focus"",""0"",""1""
","""event"",""trial"",""time""
""fullscreenenter"",""1"",""1395""
","
","","","","","","766","images/racket3.png","","","practice","4","definitely_new",""
"html-keyboard-response","28","130017","0.0-11.0-0.5","3978","approach_avoid_sv1","""event"",""trial"",""time""
""focus"",""0"",""1""
""fullscreenenter"",""1"",""1395""
","
","""event"",""trial"",""time""
""focus"",""0"",""1""
","""event"",""trial"",""time""
""fullscreenenter"",""1"",""1395""
","
","","","","","","null","<div style=""font-size:60px;"">+</div>","null","","fixation","","",""
"memory-trial","29","132739","0.0-11.0-1.5","3978","approach_avoid_sv1","""event"",""trial"",""time""
""focus"",""0"",""1""
""fullscreenenter"",""1"",""1395""
","
","""event"",""trial"",""time""
""focus"",""0"",""1""
","""event"",""trial"",""time""
""fullscreenenter"",""1"",""1395""
","
","","","","","","1720","images/ball2.png","","","practice","2","maybe_old",""
"html-keyboard-response","30","133241","0.0-11.0-0.6","3978","approach_avoid_sv1","""event"",""trial"",""time""
""focus"",""0"",""1""
""fullscreenenter"",""1"",""1395""
","
","""event"",""trial"",""time""
""focus"",""0"",""1""
","""event"",""trial"",""time""
""fullscreenenter"",""1"",""1395""
","
","","","","","","null","<div style=""font-size:60px;"">+</div>","null","","fixation","","",""
"memory-trial","31","135260","0.0-11.0-1.6","3978","approach_avoid_sv1","""event"",""trial"",""time""
""focus"",""0"",""1""
""fullscreenenter"",""1"",""1395""
","
","""event"",""trial"",""time""
""focus"",""0"",""1""
","""event"",""trial"",""time""
""fullscreenenter"",""1"",""1395""
","
","","","","","","1014","images/racket5.png","","","practice","4","definitely_new",""
"html-keyboard-response","32","135764","0.0-11.0-0.7","3978","approach_avoid_sv1","""event"",""trial"",""time""
""focus"",""0"",""1""
""fullscreenenter"",""1"",""1395""
","
","""event"",""trial"",""time""
""focus"",""0"",""1""
","""event"",""trial"",""time""
""fullscreenenter"",""1"",""1395""
","
","","","","","","null","<div style=""font-size:60px;"">+</div>","null","","fixation","","",""
"memory-trial","33","137409","0.0-11.0-1.7","3978","approach_avoid_sv1","""event"",""trial"",""time""
""focus"",""0"",""1""
""fullscreenenter"",""1"",""1395""
","
","""event"",""trial"",""time""
""focus"",""0"",""1""
","""event"",""trial"",""time""
""fullscreenenter"",""1"",""1395""
","
","","","","","","642","images/racket2.png","","","practice","4","definitely_new",""
"learning-instructions","34","146378","0.0-12.0-0.0","3978","approach_avoid_sv1","""event"",""trial"",""time""
""focus"",""0"",""1""
""fullscreenenter"",""1"",""1395""
","
","""event"",""trial"",""time""
""focus"",""0"",""1""
","""event"",""trial"",""time""
""fullscreenenter"",""1"",""1395""
","
","","","","","","1655","<p> Great! You have completed the practice. </p><p> Before you start, we're going to ask you a few questions about how the game works.  </p>","","0","instructions","","",""
"preload","35","152994","0.0-13.0","3978","approach_avoid_sv1","""event"",""trial"",""time""
""focus"",""0"",""1""
""fullscreenenter"",""1"",""1395""
","
","""event"",""trial"",""time""
""focus"",""0"",""1""
","""event"",""trial"",""time""
""fullscreenenter"",""1"",""1395""
","
","true","false","[]","[]","[]","","","","","","","",""
"comp-q","36","159787","0.0-14.0-0.0","3978","approach_avoid_sv1","""event"",""trial"",""time""
""focus"",""0"",""1""
""fullscreenenter"",""1"",""1395""
","
","""event"",""trial"",""time""
""focus"",""0"",""1""
","""event"",""trial"",""time""
""fullscreenenter"",""1"",""1395""
","
","","","","","","955","<p> <b> True or False? </b> </p><p> In this game, you will only see each image once. </p>","","1","comp_question","","","false"
"comp-q","37","168090","0.0-14.0-1.0","3978","approach_avoid_sv1","""event"",""trial"",""time""
""focus"",""0"",""1""
""fullscreenenter"",""1"",""1395""
","
","""event"",""trial"",""time""
""focus"",""0"",""1""
","""event"",""trial"",""time""
""fullscreenenter"",""1"",""1395""
","
","","","","","","1768","<p> <b>Incorrect.</b> You will see many different images <i> one time each </i> in this game. </p>","","0","comp_answer","","",""
"comp-q","38","174258","0.0-14.1-0.1","3978","approach_avoid_sv1","""event"",""trial"",""time""
""focus"",""0"",""1""
""fullscreenenter"",""1"",""1395""
","
","""event"",""trial"",""time""
""focus"",""0"",""1""
","""event"",""trial"",""time""
""fullscreenenter"",""1"",""1395""
","
","","","","","","225","<p> <b> True or False? </b> </p><p> In this game, you will only see each image once. </p>","","0","comp_question","","","true"
"comp-q","39","181306","0.0-14.1-1.1","3978","approach_avoid_sv1","""event"",""trial"",""time""
""focus"",""0"",""1""
""fullscreenenter"",""1"",""1395""
","
","""event"",""trial"",""time""
""focus"",""0"",""1""
","""event"",""trial"",""time""
""fullscreenenter"",""1"",""1395""
","
","","","","","","714","<p> <b> That's right! </b> You will see many different images <i> one time each </i> in this game. </p>","","0","comp_answer","","",""
"comp-q","40","186826","0.0-15.0-0.0","3978","approach_avoid_sv1","""event"",""trial"",""time""
""focus"",""0"",""1""
""fullscreenenter"",""1"",""1395""
","
","""event"",""trial"",""time""
""focus"",""0"",""1""
","""event"",""trial"",""time""
""fullscreenenter"",""1"",""1395""
","
","","","","","","514","<p> <b> True or False? </b> </p><p> You should use the mouse and click to make your response. </p>","","1","comp_question","","","true"
"comp-q","41","194226","0.0-15.0-1.0","3978","approach_avoid_sv1","""event"",""trial"",""time""
""focus"",""0"",""1""
""fullscreenenter"",""1"",""1395""
","
","""event"",""trial"",""time""
""focus"",""0"",""1""
","""event"",""trial"",""time""
""fullscreenenter"",""1"",""1395""
","
","","","","","","893","<p><b> That's right! </b> You should use the '1', '2', '3', and '4' keys to make your response. </p>","","0","comp_answer","","",""
"comp-q","42","200091","0.0-16.0-0.0","3978","approach_avoid_sv1","""event"",""trial"",""time""
""focus"",""0"",""1""
""fullscreenenter"",""1"",""1395""
","
","""event"",""trial"",""time""
""focus"",""0"",""1""
","""event"",""trial"",""time""
""fullscreenenter"",""1"",""1395""
","
","","","","","","188","<p> <b> True or False? </b> </p><p> You will have as much time as you want to make each choice. </p>","","1","comp_question","","","true"
"comp-q","43","205505","0.0-16.0-1.0","3978","approach_avoid_sv1","""event"",""trial"",""time""
""focus"",""0"",""1""
""fullscreenenter"",""1"",""1395""
","
","""event"",""trial"",""time""
""focus"",""0"",""1""
","""event"",""trial"",""time""
""fullscreenenter"",""1"",""1395""
","
","","","","","","714","<p> <b> That's right! </b> You will only have 10 seconds to make each choice. </p>","","0","comp_answer","","",""
"learning-instructions","44","215249","0.0-17.0","3978","approach_avoid_sv1","""event"",""trial"",""time""
""focus"",""0"",""1""
""fullscreenenter"",""1"",""1395""
","
","""event"",""trial"",""time""
""focus"",""0"",""1""
","""event"",""trial"",""time""
""fullscreenenter"",""1"",""1395""
","
","","","","","","1068","<p> Great! You are now ready to begin the game. </p><p> Remember, use the 1, 2, 3, and 4 keys to make your responses. </p>","","0","instructions","","",""
"html-keyboard-response","45","215854","0.0-18.0-0.0","3978","approach_avoid_sv1","""event"",""trial"",""time""
""focus"",""0"",""1""
""fullscreenenter"",""1"",""1395""
","
","""event"",""trial"",""time""
""focus"",""0"",""1""
","""event"",""trial"",""time""
""fullscreenenter"",""1"",""1395""
","
","","","","","","null","<div style=""font-size:60px;"">+</div>","null","","fixation","","",""
"memory-trial","46","218735","0.0-18.0-1.0","3978","approach_avoid_sv1","""event"",""trial"",""time""
""focus"",""0"",""1""
""fullscreenenter"",""1"",""1395""
","
","""event"",""trial"",""time""
""focus"",""0"",""1""
","""event"",""trial"",""time""
""fullscreenenter"",""1"",""1395""
","
","","","","","","1880","images/dog1.png","","","memory_trial","4","definitely_new",""
"html-keyboard-response","47","219238","0.0-18.0-0.1","3978","approach_avoid_sv1","""event"",""trial"",""time""
""focus"",""0"",""1""
""fullscreenenter"",""1"",""1395""
","
","""event"",""trial"",""time""
""focus"",""0"",""1""
","""event"",""trial"",""time""
""fullscreenenter"",""1"",""1395""
","
","","","","","","null","<div style=""font-size:60px;"">+</div>","null","","fixation","","",""
"memory-trial","48","222096","0.0-18.0-1.1","3978","approach_avoid_sv1","""event"",""trial"",""time""
""focus"",""0"",""1""
""fullscreenenter"",""1"",""1395""
","
","""event"",""trial"",""time""
""focus"",""0"",""1""
","""event"",""trial"",""time""
""fullscreenenter"",""1"",""1395""
","
","","","","","","1855","images/chair8.png","","","memory_trial","1","definitely_old",""
"html-keyboard-response","49","222598","0.0-18.0-0.2","3978","approach_avoid_sv1","""event"",""trial"",""time""
""focus"",""0"",""1""
""fullscreenenter"",""1"",""1395""
","
","""event"",""trial"",""time""
""focus"",""0"",""1""
","""event"",""trial"",""time""
""fullscreenenter"",""1"",""1395""
","
","","","","","","null","<div style=""font-size:60px;"">+</div>","null","","fixation","","",""
"memory-trial","50","224656","0.0-18.0-1.2","3978","approach_avoid_sv1","""event"",""trial"",""time""
""focus"",""0"",""1""
""fullscreenenter"",""1"",""1395""
","
","""event"",""trial"",""time""
""focus"",""0"",""1""
","""event"",""trial"",""time""
""fullscreenenter"",""1"",""1395""
","
","","","","","","1055","images/tree4.png","","","memory_trial","4","definitely_new",""
"html-keyboard-response","51","225158","0.0-18.0-0.3","3978","approach_avoid_sv1","""event"",""trial"",""time""
""focus"",""0"",""1""
""fullscreenenter"",""1"",""1395""
","
","""event"",""trial"",""time""
""focus"",""0"",""1""
","""event"",""trial"",""time""
""fullscreenenter"",""1"",""1395""
","
","","","","","","null","<div style=""font-size:60px;"">+</div>","null","","fixation","","",""
"memory-trial","52","227463","0.0-18.0-1.3","3978","approach_avoid_sv1","""event"",""trial"",""time""
""focus"",""0"",""1""
""fullscreenenter"",""1"",""1395""
","
","""event"",""trial"",""time""
""focus"",""0"",""1""
","""event"",""trial"",""time""
""fullscreenenter"",""1"",""1395""
","
","","","","","","1303","images/sofa8.png","","","memory_trial","1","definitely_old",""
"html-keyboard-response","53","227966","0.0-18.0-0.4","3978","approach_avoid_sv1","""event"",""trial"",""time""
""focus"",""0"",""1""
""fullscreenenter"",""1"",""1395""
","
","""event"",""trial"",""time""
""focus"",""0"",""1""
","""event"",""trial"",""time""
""fullscreenenter"",""1"",""1395""
","
","","","","","","null","<div style=""font-size:60px;"">+</div>","null","","fixation","","",""
"memory-trial","54","229553","0.0-18.0-1.4","3978","approach_avoid_sv1","""event"",""trial"",""time""
""focus"",""0"",""1""
""fullscreenenter"",""1"",""1395""
","
","""event"",""trial"",""time""
""focus"",""0"",""1""
","""event"",""trial"",""time""
""fullscreenenter"",""1"",""1395""
","
","","","","","","585","images/flower1.png","","","memory_trial","4","definitely_new",""
"html-keyboard-response","55","230055","0.0-18.0-0.5","3978","approach_avoid_sv1","""event"",""trial"",""time""
""focus"",""0"",""1""
""fullscreenenter"",""1"",""1395""
","
","""event"",""trial"",""time""
""focus"",""0"",""1""
","""event"",""trial"",""time""
""fullscreenenter"",""1"",""1395""
","
","","","","","","null","<div style=""font-size:60px;"">+</div>","null","","fixation","","",""
"memory-trial","56","231648","0.0-18.0-1.5","3978","approach_avoid_sv1","""event"",""trial"",""time""
""focus"",""0"",""1""
""fullscreenenter"",""1"",""1395""
","
","""event"",""trial"",""time""
""focus"",""0"",""1""
","""event"",""trial"",""time""
""fullscreenenter"",""1"",""1395""
","
","","","","","","590","images/chair6.png","","","memory_trial","1","definitely_old",""
"html-keyboard-response","57","232151","0.0-18.0-0.6","3978","approach_avoid_sv1","""event"",""trial"",""time""
""focus"",""0"",""1""
""fullscreenenter"",""1"",""1395""
","
","""event"",""trial"",""time""
""focus"",""0"",""1""
","""event"",""trial"",""time""
""fullscreenenter"",""1"",""1395""
","
","","","","","","null","<div style=""font-size:60px;"">+</div>","null","","fixation","","",""
"memory-trial","58","233753","0.0-18.0-1.6","3978","approach_avoid_sv1","""event"",""trial"",""time""
""focus"",""0"",""1""
""fullscreenenter"",""1"",""1395""
","
","""event"",""trial"",""time""
""focus"",""0"",""1""
","""event"",""trial"",""time""
""fullscreenenter"",""1"",""1395""
","
","","","","","","599","images/goat2.png","","","memory_trial","4","definitely_new",""
"html-keyboard-response","59","234255","0.0-18.0-0.7","3978","approach_avoid_sv1","""event"",""trial"",""time""
""focus"",""0"",""1""
""fullscreenenter"",""1"",""1395""
","
","""event"",""trial"",""time""
""focus"",""0"",""1""
","""event"",""trial"",""time""
""fullscreenenter"",""1"",""1395""
","
","","","","","","null","<div style=""font-size:60px;"">+</div>","null","","fixation","","",""
"memory-trial","60","235735","0.0-18.0-1.7","3978","approach_avoid_sv1","""event"",""trial"",""time""
""focus"",""0"",""1""
""fullscreenenter"",""1"",""1395""
","
","""event"",""trial"",""time""
""focus"",""0"",""1""
","""event"",""trial"",""time""
""fullscreenenter"",""1"",""1395""
","
","","","","","","477","images/sofa6.png","","","memory_trial","1","definitely_old",""
"html-keyboard-response","61","236236","0.0-18.0-0.8","3978","approach_avoid_sv1","""event"",""trial"",""time""
""focus"",""0"",""1""
""fullscreenenter"",""1"",""1395""
","
","""event"",""trial"",""time""
""focus"",""0"",""1""
","""event"",""trial"",""time""
""fullscreenenter"",""1"",""1395""
","
","","","","","","null","<div style=""font-size:60px;"">+</div>","null","","fixation","","",""
"memory-trial","62","238944","0.0-18.0-1.8","3978","approach_avoid_sv1","""event"",""trial"",""time""
""focus"",""0"",""1""
""fullscreenenter"",""1"",""1395""
","
","""event"",""trial"",""time""
""focus"",""0"",""1""
","""event"",""trial"",""time""
""fullscreenenter"",""1"",""1395""
","
","","","","","","1705","images/horse1.png","","","memory_trial","1","definitely_old",""
"html-keyboard-response","63","239444","0.0-18.0-0.9","3978","approach_avoid_sv1","""event"",""trial"",""time""
""focus"",""0"",""1""
""fullscreenenter"",""1"",""1395""
","
","""event"",""trial"",""time""
""focus"",""0"",""1""
","""event"",""trial"",""time""
""fullscreenenter"",""1"",""1395""
","
","","","","","","null","<div style=""font-size:60px;"">+</div>","null","","fixation","","",""
"memory-trial","64","241543","0.0-18.0-1.9","3978","approach_avoid_sv1","""event"",""trial"",""time""
""focus"",""0"",""1""
""fullscreenenter"",""1"",""1395""
","
","""event"",""trial"",""time""
""focus"",""0"",""1""
","""event"",""trial"",""time""
""fullscreenenter"",""1"",""1395""
","
","","","","","","1097","images/boat3.png","","","memory_trial","1","definitely_old",""
"html-keyboard-response","65","242044","0.0-18.0-0.10","3978","approach_avoid_sv1","""event"",""trial"",""time""
""focus"",""0"",""1""
""fullscreenenter"",""1"",""1395""
","
","""event"",""trial"",""time""
""focus"",""0"",""1""
","""event"",""trial"",""time""
""fullscreenenter"",""1"",""1395""
","
","","","","","","null","<div style=""font-size:60px;"">+</div>","null","","fixation","","",""
"memory-trial","66","244096","0.0-18.0-1.10","3978","approach_avoid_sv1","""event"",""trial"",""time""
""focus"",""0"",""1""
""fullscreenenter"",""1"",""1395""
","
","""event"",""trial"",""time""
""focus"",""0"",""1""
","""event"",""trial"",""time""
""fullscreenenter"",""1"",""1395""
","
","","","","","","1049","images/sofa1.png","","","memory_trial","1","definitely_old",""
"html-keyboard-response","67","244597","0.0-18.0-0.11","3978","approach_avoid_sv1","""event"",""trial"",""time""
""focus"",""0"",""1""
""fullscreenenter"",""1"",""1395""
","
","""event"",""trial"",""time""
""focus"",""0"",""1""
","""event"",""trial"",""time""
""fullscreenenter"",""1"",""1395""
","
","","","","","","null","<div style=""font-size:60px;"">+</div>","null","","fixation","","",""
"memory-trial","68","246432","0.0-18.0-1.11","3978","approach_avoid_sv1","""event"",""trial"",""time""
""focus"",""0"",""1""
""fullscreenenter"",""1"",""1395""
","
","""event"",""trial"",""time""
""focus"",""0"",""1""
","""event"",""trial"",""time""
""fullscreenenter"",""1"",""1395""
","
","","","","","","832","images/plane5.png","","","memory_trial","1","definitely_old",""
"html-keyboard-response","69","246932","0.0-18.0-0.12","3978","approach_avoid_sv1","""event"",""trial"",""time""
""focus"",""0"",""1""
""fullscreenenter"",""1"",""1395""
","
","""event"",""trial"",""time""
""focus"",""0"",""1""
","""event"",""trial"",""time""
""fullscreenenter"",""1"",""1395""
","
","","","","","","null","<div style=""font-size:60px;"">+</div>","null","","fixation","","",""
"memory-trial","70","248615","0.0-18.0-1.12","3978","approach_avoid_sv1","""event"",""trial"",""time""
""focus"",""0"",""1""
""fullscreenenter"",""1"",""1395""
","
","""event"",""trial"",""time""
""focus"",""0"",""1""
","""event"",""trial"",""time""
""fullscreenenter"",""1"",""1395""
","
","","","","","","680","images/flower7.png","","","memory_trial","4","definitely_new",""
"html-keyboard-response","71","249115","0.0-18.0-0.13","3978","approach_avoid_sv1","""event"",""trial"",""time""
""focus"",""0"",""1""
""fullscreenenter"",""1"",""1395""
","
","""event"",""trial"",""time""
""focus"",""0"",""1""
","""event"",""trial"",""time""
""fullscreenenter"",""1"",""1395""
","
","","","","","","null","<div style=""font-size:60px;"">+</div>","null","","fixation","","",""
"memory-trial","72","250934","0.0-18.0-1.13","3978","approach_avoid_sv1","""event"",""trial"",""time""
""focus"",""0"",""1""
""fullscreenenter"",""1"",""1395""
","
","""event"",""trial"",""time""
""focus"",""0"",""1""
","""event"",""trial"",""time""
""fullscreenenter"",""1"",""1395""
","
","","","","","","817","images/orange4.png","","","memory_trial","4","definitely_new",""
"html-keyboard-response","73","251435","0.0-18.0-0.14","3978","approach_avoid_sv1","""event"",""trial"",""time""
""focus"",""0"",""1""
""fullscreenenter"",""1"",""1395""
","
","""event"",""trial"",""time""
""focus"",""0"",""1""
","""event"",""trial"",""time""
""fullscreenenter"",""1"",""1395""
","
","","","","","","null","<div style=""font-size:60px;"">+</div>","null","","fixation","","",""
"memory-trial","74","253095","0.0-18.0-1.14","3978","approach_avoid_sv1","""event"",""trial"",""time""
""focus"",""0"",""1""
""fullscreenenter"",""1"",""1395""
","
","""event"",""trial"",""time""
""focus"",""0"",""1""
","""event"",""trial"",""time""
""fullscreenenter"",""1"",""1395""
","
","","","","","","658","images/sheep2.png","","","memory_trial","4","definitely_new",""
"html-keyboard-response","75","253596","0.0-18.0-0.15","3978","approach_avoid_sv1","""event"",""trial"",""time""
""focus"",""0"",""1""
""fullscreenenter"",""1"",""1395""
","
","""event"",""trial"",""time""
""focus"",""0"",""1""
","""event"",""trial"",""time""
""fullscreenenter"",""1"",""1395""
","
","","","","","","null","<div style=""font-size:60px;"">+</div>","null","","fixation","","",""
"memory-trial","76","255671","0.0-18.0-1.15","3978","approach_avoid_sv1","""event"",""trial"",""time""
""focus"",""0"",""1""
""fullscreenenter"",""1"",""1395""
","
","""event"",""trial"",""time""
""focus"",""0"",""1""
","""event"",""trial"",""time""
""fullscreenenter"",""1"",""1395""
","
","","","","","","1074","images/goat1.png","","","memory_trial","4","definitely_new",""
"html-keyboard-response","77","256174","0.0-18.0-0.16","3978","approach_avoid_sv1","""event"",""trial"",""time""
""focus"",""0"",""1""
""fullscreenenter"",""1"",""1395""
","
","""event"",""trial"",""time""
""focus"",""0"",""1""
","""event"",""trial"",""time""
""fullscreenenter"",""1"",""1395""
","
","","","","","","null","<div style=""font-size:60px;"">+</div>","null","","fixation","","",""
"memory-trial","78","258463","0.0-18.0-1.16","3978","approach_avoid_sv1","""event"",""trial"",""time""
""focus"",""0"",""1""
""fullscreenenter"",""1"",""1395""
","
","""event"",""trial"",""time""
""focus"",""0"",""1""
","""event"",""trial"",""time""
""fullscreenenter"",""1"",""1395""
","
","","","","","","1287","images/horse6.png","","","memory_trial","2","maybe_old",""
"html-keyboard-response","79","258966","0.0-18.0-0.17","3978","approach_avoid_sv1","""event"",""trial"",""time""
""focus"",""0"",""1""
""fullscreenenter"",""1"",""1395""
","
","""event"",""trial"",""time""
""focus"",""0"",""1""
","""event"",""trial"",""time""
""fullscreenenter"",""1"",""1395""
","
","","","","","","null","<div style=""font-size:60px;"">+</div>","null","","fixation","","",""
"memory-trial","80","261056","0.0-18.0-1.17","3978","approach_avoid_sv1","""event"",""trial"",""time""
""focus"",""0"",""1""
""fullscreenenter"",""1"",""1395""
","
","""event"",""trial"",""time""
""focus"",""0"",""1""
","""event"",""trial"",""time""
""fullscreenenter"",""1"",""1395""
","
","","","","","","1087","images/train3.png","","","memory_trial","4","definitely_new",""
"html-keyboard-response","81","261558","0.0-18.0-0.18","3978","approach_avoid_sv1","""event"",""trial"",""time""
""focus"",""0"",""1""
""fullscreenenter"",""1"",""1395""
","
","""event"",""trial"",""time""
""focus"",""0"",""1""
","""event"",""trial"",""time""
""fullscreenenter"",""1"",""1395""
","
","","","","","","null","<div style=""font-size:60px;"">+</div>","null","","fixation","","",""
"memory-trial","82","263518","0.0-18.0-1.18","3978","approach_avoid_sv1","""event"",""trial"",""time""
""focus"",""0"",""1""
""fullscreenenter"",""1"",""1395""
","
","""event"",""trial"",""time""
""focus"",""0"",""1""
","""event"",""trial"",""time""
""fullscreenenter"",""1"",""1395""
","
","","","","","","959","images/bed6.png","","","memory_trial","1","definitely_old",""
"html-keyboard-response","83","264021","0.0-18.0-0.19","3978","approach_avoid_sv1","""event"",""trial"",""time""
""focus"",""0"",""1""
""fullscreenenter"",""1"",""1395""
","
","""event"",""trial"",""time""
""focus"",""0"",""1""
","""event"",""trial"",""time""
""fullscreenenter"",""1"",""1395""
","
","","","","","","null","<div style=""font-size:60px;"">+</div>","null","","fixation","","",""
"memory-trial","84","266055","0.0-18.0-1.19","3978","approach_avoid_sv1","""event"",""trial"",""time""
""focus"",""0"",""1""
""fullscreenenter"",""1"",""1395""
","
","""event"",""trial"",""time""
""focus"",""0"",""1""
","""event"",""trial"",""time""
""fullscreenenter"",""1"",""1395""
","
","","","","","","1032","images/sheep7.png","","","memory_trial","4","definitely_new",""
"html-keyboard-response","85","266558","0.0-18.0-0.20","3978","approach_avoid_sv1","""event"",""trial"",""time""
""focus"",""0"",""1""
""fullscreenenter"",""1"",""1395""
","
","""event"",""trial"",""time""
""focus"",""0"",""1""
","""event"",""trial"",""time""
""fullscreenenter"",""1"",""1395""
","
","","","","","","null","<div style=""font-size:60px;"">+</div>","null","","fixation","","",""
"memory-trial","86","268424","0.0-18.0-1.20","3978","approach_avoid_sv1","""event"",""trial"",""time""
""focus"",""0"",""1""
""fullscreenenter"",""1"",""1395""
","
","""event"",""trial"",""time""
""focus"",""0"",""1""
","""event"",""trial"",""time""
""fullscreenenter"",""1"",""1395""
","
","","","","","","863","images/banana7.png","","","memory_trial","4","definitely_new",""
"html-keyboard-response","87","268923","0.0-18.0-0.21","3978","approach_avoid_sv1","""event"",""trial"",""time""
""focus"",""0"",""1""
""fullscreenenter"",""1"",""1395""
","
","""event"",""trial"",""time""
""focus"",""0"",""1""
","""event"",""trial"",""time""
""fullscreenenter"",""1"",""1395""
","
","","","","","","null","<div style=""font-size:60px;"">+</div>","null","","fixation","","",""
"memory-trial","88","270992","0.0-18.0-1.21","3978","approach_avoid_sv1","""event"",""trial"",""time""
""focus"",""0"",""1""
""fullscreenenter"",""1"",""1395""
","
","""event"",""trial"",""time""
""focus"",""0"",""1""
","""event"",""trial"",""time""
""fullscreenenter"",""1"",""1395""
","
","","","","","","1066","images/plane3.png","","","memory_trial","1","definitely_old",""
"html-keyboard-response","89","271495","0.0-18.0-0.22","3978","approach_avoid_sv1","""event"",""trial"",""time""
""focus"",""0"",""1""
""fullscreenenter"",""1"",""1395""
","
","""event"",""trial"",""time""
""focus"",""0"",""1""
","""event"",""trial"",""time""
""fullscreenenter"",""1"",""1395""
","
","","","","","","null","<div style=""font-size:60px;"">+</div>","null","","fixation","","",""
"memory-trial","90","273047","0.0-18.0-1.22","3978","approach_avoid_sv1","""event"",""trial"",""time""
""focus"",""0"",""1""
""fullscreenenter"",""1"",""1395""
","
","""event"",""trial"",""time""
""focus"",""0"",""1""
","""event"",""trial"",""time""
""fullscreenenter"",""1"",""1395""
","
","","","","","","549","images/goat3.png","","","memory_trial","4","definitely_new",""
"html-keyboard-response","91","273550","0.0-18.0-0.23","3978","approach_avoid_sv1","""event"",""trial"",""time""
""focus"",""0"",""1""
""fullscreenenter"",""1"",""1395""
","
","""event"",""trial"",""time""
""focus"",""0"",""1""
","""event"",""trial"",""time""
""fullscreenenter"",""1"",""1395""
","
","","","","","","null","<div style=""font-size:60px;"">+</div>","null","","fixation","","",""
"memory-trial","92","275472","0.0-18.0-1.23","3978","approach_avoid_sv1","""event"",""trial"",""time""
""focus"",""0"",""1""
""fullscreenenter"",""1"",""1395""
","
","""event"",""trial"",""time""
""focus"",""0"",""1""
","""event"",""trial"",""time""
""fullscreenenter"",""1"",""1395""
","
","","","","","","918","images/rabbit1.png","","","memory_trial","4","definitely_new",""
"html-keyboard-response","93","275974","0.0-18.0-0.24","3978","approach_avoid_sv1","""event"",""trial"",""time""
""focus"",""0"",""1""
""fullscreenenter"",""1"",""1395""
","
","""event"",""trial"",""time""
""focus"",""0"",""1""
","""event"",""trial"",""time""
""fullscreenenter"",""1"",""1395""
","
","","","","","","null","<div style=""font-size:60px;"">+</div>","null","","fixation","","",""
"memory-trial","94","277607","0.0-18.0-1.24","3978","approach_avoid_sv1","""event"",""trial"",""time""
""focus"",""0"",""1""
""fullscreenenter"",""1"",""1395""
","
","""event"",""trial"",""time""
""focus"",""0"",""1""
","""event"",""trial"",""time""
""fullscreenenter"",""1"",""1395""
","
","","","","","","630","images/cow4.png","","","memory_trial","4","definitely_new",""
"html-keyboard-response","95","278110","0.0-18.0-0.25","3978","approach_avoid_sv1","""event"",""trial"",""time""
""focus"",""0"",""1""
""fullscreenenter"",""1"",""1395""
","
","""event"",""trial"",""time""
""focus"",""0"",""1""
","""event"",""trial"",""time""
""fullscreenenter"",""1"",""1395""
","
","","","","","","null","<div style=""font-size:60px;"">+</div>","null","","fixation","","",""
"memory-trial","96","279847","0.0-18.0-1.25","3978","approach_avoid_sv1","""event"",""trial"",""time""
""focus"",""0"",""1""
""fullscreenenter"",""1"",""1395""
","
","""event"",""trial"",""time""
""focus"",""0"",""1""
","""event"",""trial"",""time""
""fullscreenenter"",""1"",""1395""
","
","","","","","","735","images/bush2.png","","","memory_trial","4","definitely_new",""
"html-keyboard-response","97","280350","0.0-18.0-0.26","3978","approach_avoid_sv1","""event"",""trial"",""time""
""focus"",""0"",""1""
""fullscreenenter"",""1"",""1395""
","
","""event"",""trial"",""time""
""focus"",""0"",""1""
","""event"",""trial"",""time""
""fullscreenenter"",""1"",""1395""
","
","","","","","","null","<div style=""font-size:60px;"">+</div>","null","","fixation","","",""
"memory-trial","98","282782","0.0-18.0-1.26","3978","approach_avoid_sv1","""event"",""trial"",""time""
""focus"",""0"",""1""
""fullscreenenter"",""1"",""1395""
","
","""event"",""trial"",""time""
""focus"",""0"",""1""
","""event"",""trial"",""time""
""fullscreenenter"",""1"",""1395""
","
","","","","","","1431","images/cat2.png","","","memory_trial","4","definitely_new",""
"html-keyboard-response","99","283284","0.0-18.0-0.27","3978","approach_avoid_sv1","""event"",""trial"",""time""
""focus"",""0"",""1""
""fullscreenenter"",""1"",""1395""
","
","""event"",""trial"",""time""
""focus"",""0"",""1""
","""event"",""trial"",""time""
""fullscreenenter"",""1"",""1395""
","
","","","","","","null","<div style=""font-size:60px;"">+</div>","null","","fixation","","",""
"memory-trial","100","285392","0.0-18.0-1.27","3978","approach_avoid_sv1","""event"",""trial"",""time""
""focus"",""0"",""1""
""fullscreenenter"",""1"",""1395""
","
","""event"",""trial"",""time""
""focus"",""0"",""1""
","""event"",""trial"",""time""
""fullscreenenter"",""1"",""1395""
","
","","","","","","1104","images/rodent2.png","","","memory_trial","1","definitely_old",""
"html-keyboard-response","101","285895","0.0-18.0-0.28","3978","approach_avoid_sv1","""event"",""trial"",""time""
""focus"",""0"",""1""
""fullscreenenter"",""1"",""1395""
","
","""event"",""trial"",""time""
""focus"",""0"",""1""
","""event"",""trial"",""time""
""fullscreenenter"",""1"",""1395""
","
","","","","","","null","<div style=""font-size:60px;"">+</div>","null","","fixation","","",""
"memory-trial","102","287968","0.0-18.0-1.28","3978","approach_avoid_sv1","""event"",""trial"",""time""
""focus"",""0"",""1""
""fullscreenenter"",""1"",""1395""
","
","""event"",""trial"",""time""
""focus"",""0"",""1""
","""event"",""trial"",""time""
""fullscreenenter"",""1"",""1395""
","
","","","","","","1070","images/rodent1.png","","","memory_trial","1","definitely_old",""
"html-keyboard-response","103","288470","0.0-18.0-0.29","3978","approach_avoid_sv1","""event"",""trial"",""time""
""focus"",""0"",""1""
""fullscreenenter"",""1"",""1395""
","
","""event"",""trial"",""time""
""focus"",""0"",""1""
","""event"",""trial"",""time""
""fullscreenenter"",""1"",""1395""
","
","","","","","","null","<div style=""font-size:60px;"">+</div>","null","","fixation","","",""
"memory-trial","104","290072","0.0-18.0-1.29","3978","approach_avoid_sv1","""event"",""trial"",""time""
""focus"",""0"",""1""
""fullscreenenter"",""1"",""1395""
","
","""event"",""trial"",""time""
""focus"",""0"",""1""
","""event"",""trial"",""time""
""fullscreenenter"",""1"",""1395""
","
","","","","","","598","images/rabbit3.png","","","memory_trial","4","definitely_new",""
"html-keyboard-response","105","290575","0.0-18.0-0.30","3978","approach_avoid_sv1","""event"",""trial"",""time""
""focus"",""0"",""1""
""fullscreenenter"",""1"",""1395""
","
","""event"",""trial"",""time""
""focus"",""0"",""1""
","""event"",""trial"",""time""
""fullscreenenter"",""1"",""1395""
","
","","","","","","null","<div style=""font-size:60px;"">+</div>","null","","fixation","","",""
"memory-trial","106","292869","0.0-18.0-1.30","3978","approach_avoid_sv1","""event"",""trial"",""time""
""focus"",""0"",""1""
""fullscreenenter"",""1"",""1395""
","
","""event"",""trial"",""time""
""focus"",""0"",""1""
","""event"",""trial"",""time""
""fullscreenenter"",""1"",""1395""
","
","","","","","","1294","images/rodent3.png","","","memory_trial","4","definitely_new",""
"html-keyboard-response","107","293372","0.0-18.0-0.31","3978","approach_avoid_sv1","""event"",""trial"",""time""
""focus"",""0"",""1""
""fullscreenenter"",""1"",""1395""
","
","""event"",""trial"",""time""
""focus"",""0"",""1""
","""event"",""trial"",""time""
""fullscreenenter"",""1"",""1395""
","
","","","","","","null","<div style=""font-size:60px;"">+</div>","null","","fixation","","",""
"memory-trial","108","295512","0.0-18.0-1.31","3978","approach_avoid_sv1","""event"",""trial"",""time""
""focus"",""0"",""1""
""fullscreenenter"",""1"",""1395""
","
","""event"",""trial"",""time""
""focus"",""0"",""1""
","""event"",""trial"",""time""
""fullscreenenter"",""1"",""1395""
","
","","","","","","1137","images/plane4.png","","","memory_trial","2","maybe_old",""
"html-keyboard-response","109","296014","0.0-18.0-0.32","3978","approach_avoid_sv1","""event"",""trial"",""time""
""focus"",""0"",""1""
""fullscreenenter"",""1"",""1395""
","
","""event"",""trial"",""time""
""focus"",""0"",""1""
","""event"",""trial"",""time""
""fullscreenenter"",""1"",""1395""
","
","","","","","","null","<div style=""font-size:60px;"">+</div>","null","","fixation","","",""
"memory-trial","110","298190","0.0-18.0-1.32","3978","approach_avoid_sv1","""event"",""trial"",""time""
""focus"",""0"",""1""
""fullscreenenter"",""1"",""1395""
","
","""event"",""trial"",""time""
""focus"",""0"",""1""
","""event"",""trial"",""time""
""fullscreenenter"",""1"",""1395""
","
","","","","","","1174","images/horse2.png","","","memory_trial","2","maybe_old",""
"html-keyboard-response","111","298692","0.0-18.0-0.33","3978","approach_avoid_sv1","""event"",""trial"",""time""
""focus"",""0"",""1""
""fullscreenenter"",""1"",""1395""
","
","""event"",""trial"",""time""
""focus"",""0"",""1""
","""event"",""trial"",""time""
""fullscreenenter"",""1"",""1395""
","
","","","","","","null","<div style=""font-size:60px;"">+</div>","null","","fixation","","",""
"memory-trial","112","301095","0.0-18.0-1.33","3978","approach_avoid_sv1","""event"",""trial"",""time""
""focus"",""0"",""1""
""fullscreenenter"",""1"",""1395""
","
","""event"",""trial"",""time""
""focus"",""0"",""1""
","""event"",""trial"",""time""
""fullscreenenter"",""1"",""1395""
","
","","","","","","1400","images/dog5.png","","","memory_trial","4","definitely_new",""
"html-keyboard-response","113","301597","0.0-18.0-0.34","3978","approach_avoid_sv1","""event"",""trial"",""time""
""focus"",""0"",""1""
""fullscreenenter"",""1"",""1395""
","
","""event"",""trial"",""time""
""focus"",""0"",""1""
","""event"",""trial"",""time""
""fullscreenenter"",""1"",""1395""
","
","","","","","","null","<div style=""font-size:60px;"">+</div>","null","","fixation","","",""
"memory-trial","114","303462","0.0-18.0-1.34","3978","approach_avoid_sv1","""event"",""trial"",""time""
""focus"",""0"",""1""
""fullscreenenter"",""1"",""1395""
","
","""event"",""trial"",""time""
""focus"",""0"",""1""
","""event"",""trial"",""time""
""fullscreenenter"",""1"",""1395""
","
","","","","","","862","images/straw7.png","","","memory_trial","4","definitely_new",""
"html-keyboard-response","115","303964","0.0-18.0-0.35","3978","approach_avoid_sv1","""event"",""trial"",""time""
""focus"",""0"",""1""
""fullscreenenter"",""1"",""1395""
","
","""event"",""trial"",""time""
""focus"",""0"",""1""
","""event"",""trial"",""time""
""fullscreenenter"",""1"",""1395""
","
","","","","","","null","<div style=""font-size:60px;"">+</div>","null","","fixation","","",""
"memory-trial","116","305655","0.0-18.0-1.35","3978","approach_avoid_sv1","""event"",""trial"",""time""
""focus"",""0"",""1""
""fullscreenenter"",""1"",""1395""
","
","""event"",""trial"",""time""
""focus"",""0"",""1""
","""event"",""trial"",""time""
""fullscreenenter"",""1"",""1395""
","
","","","","","","688","images/flower3.png","","","memory_trial","4","definitely_new",""
"html-keyboard-response","117","306157","0.0-18.0-0.36","3978","approach_avoid_sv1","""event"",""trial"",""time""
""focus"",""0"",""1""
""fullscreenenter"",""1"",""1395""
","
","""event"",""trial"",""time""
""focus"",""0"",""1""
","""event"",""trial"",""time""
""fullscreenenter"",""1"",""1395""
","
","","","","","","null","<div style=""font-size:60px;"">+</div>","null","","fixation","","",""
"memory-trial","118","307814","0.0-18.0-1.36","3978","approach_avoid_sv1","""event"",""trial"",""time""
""focus"",""0"",""1""
""fullscreenenter"",""1"",""1395""
","
","""event"",""trial"",""time""
""focus"",""0"",""1""
","""event"",""trial"",""time""
""fullscreenenter"",""1"",""1395""
","
","","","","","","655","images/orange7.png","","","memory_trial","4","definitely_new",""
"html-keyboard-response","119","308317","0.0-18.0-0.37","3978","approach_avoid_sv1","""event"",""trial"",""time""
""focus"",""0"",""1""
""fullscreenenter"",""1"",""1395""
","
","""event"",""trial"",""time""
""focus"",""0"",""1""
","""event"",""trial"",""time""
""fullscreenenter"",""1"",""1395""
","
","","","","","","null","<div style=""font-size:60px;"">+</div>","null","","fixation","","",""
"memory-trial","120","309982","0.0-18.0-1.37","3978","approach_avoid_sv1","""event"",""trial"",""time""
""focus"",""0"",""1""
""fullscreenenter"",""1"",""1395""
","
","""event"",""trial"",""time""
""focus"",""0"",""1""
","""event"",""trial"",""time""
""fullscreenenter"",""1"",""1395""
","
","","","","","","663","images/banana1.png","","","memory_trial","4","definitely_new",""
"html-keyboard-response","121","310484","0.0-18.0-0.38","3978","approach_avoid_sv1","""event"",""trial"",""time""
""focus"",""0"",""1""
""fullscreenenter"",""1"",""1395""
","
","""event"",""trial"",""time""
""focus"",""0"",""1""
","""event"",""trial"",""time""
""fullscreenenter"",""1"",""1395""
","
","","","","","","null","<div style=""font-size:60px;"">+</div>","null","","fixation","","",""
"memory-trial","122","312614","0.0-18.0-1.38","3978","approach_avoid_sv1","""event"",""trial"",""time""
""focus"",""0"",""1""
""fullscreenenter"",""1"",""1395""
","
","""event"",""trial"",""time""
""focus"",""0"",""1""
","""event"",""trial"",""time""
""fullscreenenter"",""1"",""1395""
","
","","","","","","1127","images/table8.png","","","memory_trial","2","maybe_old",""
"html-keyboard-response","123","313117","0.0-18.0-0.39","3978","approach_avoid_sv1","""event"",""trial"",""time""
""focus"",""0"",""1""
""fullscreenenter"",""1"",""1395""
","
","""event"",""trial"",""time""
""focus"",""0"",""1""
","""event"",""trial"",""time""
""fullscreenenter"",""1"",""1395""
","
","","","","","","null","<div style=""font-size:60px;"">+</div>","null","","fixation","","",""
"memory-trial","124","315927","0.0-18.0-1.39","3978","approach_avoid_sv1","""event"",""trial"",""time""
""focus"",""0"",""1""
""fullscreenenter"",""1"",""1395""
","
","""event"",""trial"",""time""
""focus"",""0"",""1""
","""event"",""trial"",""time""
""fullscreenenter"",""1"",""1395""
","
","","","","","","1807","images/plane1.png","","","memory_trial","4","definitely_new",""
"html-keyboard-response","125","316429","0.0-18.0-0.40","3978","approach_avoid_sv1","""event"",""trial"",""time""
""focus"",""0"",""1""
""fullscreenenter"",""1"",""1395""
","
","""event"",""trial"",""time""
""focus"",""0"",""1""
","""event"",""trial"",""time""
""fullscreenenter"",""1"",""1395""
","
","","","","","","null","<div style=""font-size:60px;"">+</div>","null","","fixation","","",""
"memory-trial","126","318157","0.0-18.0-1.40","3978","approach_avoid_sv1","""event"",""trial"",""time""
""focus"",""0"",""1""
""fullscreenenter"",""1"",""1395""
","
","""event"",""trial"",""time""
""focus"",""0"",""1""
","""event"",""trial"",""time""
""fullscreenenter"",""1"",""1395""
","
","","","","","","726","images/cat6.png","","","memory_trial","4","definitely_new",""
"html-keyboard-response","127","318659","0.0-18.0-0.41","3978","approach_avoid_sv1","""event"",""trial"",""time""
""focus"",""0"",""1""
""fullscreenenter"",""1"",""1395""
","
","""event"",""trial"",""time""
""focus"",""0"",""1""
","""event"",""trial"",""time""
""fullscreenenter"",""1"",""1395""
","
","","","","","","null","<div style=""font-size:60px;"">+</div>","null","","fixation","","",""
"memory-trial","128","320615","0.0-18.0-1.41","3978","approach_avoid_sv1","""event"",""trial"",""time""
""focus"",""0"",""1""
""fullscreenenter"",""1"",""1395""
","
","""event"",""trial"",""time""
""focus"",""0"",""1""
","""event"",""trial"",""time""
""fullscreenenter"",""1"",""1395""
","
","","","","","","952","images/sheep6.png","","","memory_trial","4","definitely_new",""
"html-button-response","129","322695","0.0-18.0-2.41-0.41","3978","approach_avoid_sv1","""event"",""trial"",""time""
""focus"",""0"",""1""
""fullscreenenter"",""1"",""1395""
","
","""event"",""trial"",""time""
""focus"",""0"",""1""
","""event"",""trial"",""time""
""fullscreenenter"",""1"",""1395""
","
","","","","","","2080","<p> Take a break! </p><p> Click the button to continue. </p>","0","","break","","",""
"html-keyboard-response","130","323197","0.0-18.0-0.42","3978","approach_avoid_sv1","""event"",""trial"",""time""
""focus"",""0"",""1""
""fullscreenenter"",""1"",""1395""
","
","""event"",""trial"",""time""
""focus"",""0"",""1""
","""event"",""trial"",""time""
""fullscreenenter"",""1"",""1395""
","
","","","","","","null","<div style=""font-size:60px;"">+</div>","null","","fixation","","",""
"memory-trial","131","324957","0.0-18.0-1.42","3978","approach_avoid_sv1","""event"",""trial"",""time""
""focus"",""0"",""1""
""fullscreenenter"",""1"",""1395""
","
","""event"",""trial"",""time""
""focus"",""0"",""1""
","""event"",""trial"",""time""
""fullscreenenter"",""1"",""1395""
","
","","","","","","759","images/banana8.png","","","memory_trial","4","definitely_new",""
"html-keyboard-response","132","325459","0.0-18.0-0.43","3978","approach_avoid_sv1","""event"",""trial"",""time""
""focus"",""0"",""1""
""fullscreenenter"",""1"",""1395""
","
","""event"",""trial"",""time""
""focus"",""0"",""1""
","""event"",""trial"",""time""
""fullscreenenter"",""1"",""1395""
","
","","","","","","null","<div style=""font-size:60px;"">+</div>","null","","fixation","","",""
"memory-trial","133","327670","0.0-18.0-1.43","3978","approach_avoid_sv1","""event"",""trial"",""time""
""focus"",""0"",""1""
""fullscreenenter"",""1"",""1395""
","
","""event"",""trial"",""time""
""focus"",""0"",""1""
","""event"",""trial"",""time""
""fullscreenenter"",""1"",""1395""
","
","","","","","","1208","images/table1.png","","","memory_trial","1","definitely_old",""
"html-keyboard-response","134","328172","0.0-18.0-0.44","3978","approach_avoid_sv1","""event"",""trial"",""time""
""focus"",""0"",""1""
""fullscreenenter"",""1"",""1395""
","
","""event"",""trial"",""time""
""focus"",""0"",""1""
","""event"",""trial"",""time""
""fullscreenenter"",""1"",""1395""
","
","","","","","","null","<div style=""font-size:60px;"">+</div>","null","","fixation","","",""
"memory-trial","135","329902","0.0-18.0-1.44","3978","approach_avoid_sv1","""event"",""trial"",""time""
""focus"",""0"",""1""
""fullscreenenter"",""1"",""1395""
","
","""event"",""trial"",""time""
""focus"",""0"",""1""
","""event"",""trial"",""time""
""fullscreenenter"",""1"",""1395""
","
","","","","","","728","images/horse4.png","","","memory_trial","4","definitely_new",""
"html-keyboard-response","136","330404","0.0-18.0-0.45","3978","approach_avoid_sv1","""event"",""trial"",""time""
""focus"",""0"",""1""
""fullscreenenter"",""1"",""1395""
","
","""event"",""trial"",""time""
""focus"",""0"",""1""
","""event"",""trial"",""time""
""fullscreenenter"",""1"",""1395""
","
","","","","","","null","<div style=""font-size:60px;"">+</div>","null","","fixation","","",""
"memory-trial","137","331917","0.0-18.0-1.45","3978","approach_avoid_sv1","""event"",""trial"",""time""
""focus"",""0"",""1""
""fullscreenenter"",""1"",""1395""
","
","""event"",""trial"",""time""
""focus"",""0"",""1""
","""event"",""trial"",""time""
""fullscreenenter"",""1"",""1395""
","
","","","","","","511","images/cow8.png","","","memory_trial","4","definitely_new",""
"html-keyboard-response","138","332419","0.0-18.0-0.46","3978","approach_avoid_sv1","""event"",""trial"",""time""
""focus"",""0"",""1""
""fullscreenenter"",""1"",""1395""
","
","""event"",""trial"",""time""
""focus"",""0"",""1""
","""event"",""trial"",""time""
""fullscreenenter"",""1"",""1395""
","
","","","","","","null","<div style=""font-size:60px;"">+</div>","null","","fixation","","",""
"memory-trial","139","333974","0.0-18.0-1.46","3978","approach_avoid_sv1","""event"",""trial"",""time""
""focus"",""0"",""1""
""fullscreenenter"",""1"",""1395""
","
","""event"",""trial"",""time""
""focus"",""0"",""1""
","""event"",""trial"",""time""
""fullscreenenter"",""1"",""1395""
","
","","","","","","553","images/banana3.png","","","memory_trial","4","definitely_new",""
"html-keyboard-response","140","334476","0.0-18.0-0.47","3978","approach_avoid_sv1","""event"",""trial"",""time""
""focus"",""0"",""1""
""fullscreenenter"",""1"",""1395""
","
","""event"",""trial"",""time""
""focus"",""0"",""1""
","""event"",""trial"",""time""
""fullscreenenter"",""1"",""1395""
","
","","","","","","null","<div style=""font-size:60px;"">+</div>","null","","fixation","","",""
"memory-trial","141","336750","0.0-18.0-1.47","3978","approach_avoid_sv1","""event"",""trial"",""time""
""focus"",""0"",""1""
""fullscreenenter"",""1"",""1395""
","
","""event"",""trial"",""time""
""focus"",""0"",""1""
","""event"",""trial"",""time""
""fullscreenenter"",""1"",""1395""
","
","","","","","","1270","images/bed3.png","","","memory_trial","3","maybe_new",""
"html-keyboard-response","142","337252","0.0-18.0-0.48","3978","approach_avoid_sv1","""event"",""trial"",""time""
""focus"",""0"",""1""
""fullscreenenter"",""1"",""1395""
","
","""event"",""trial"",""time""
""focus"",""0"",""1""
","""event"",""trial"",""time""
""fullscreenenter"",""1"",""1395""
","
","","","","","","null","<div style=""font-size:60px;"">+</div>","null","","fixation","","",""
"memory-trial","143","339102","0.0-18.0-1.48","3978","approach_avoid_sv1","""event"",""trial"",""time""
""focus"",""0"",""1""
""fullscreenenter"",""1"",""1395""
","
","""event"",""trial"",""time""
""focus"",""0"",""1""
","""event"",""trial"",""time""
""fullscreenenter"",""1"",""1395""
","
","","","","","","847","images/rodent8.png","","","memory_trial","4","definitely_new",""
"html-keyboard-response","144","339605","0.0-18.0-0.49","3978","approach_avoid_sv1","""event"",""trial"",""time""
""focus"",""0"",""1""
""fullscreenenter"",""1"",""1395""
","
","""event"",""trial"",""time""
""focus"",""0"",""1""
","""event"",""trial"",""time""
""fullscreenenter"",""1"",""1395""
","
","","","","","","null","<div style=""font-size:60px;"">+</div>","null","","fixation","","",""
"memory-trial","145","342582","0.0-18.0-1.49","3978","approach_avoid_sv1","""event"",""trial"",""time""
""focus"",""0"",""1""
""fullscreenenter"",""1"",""1395""
","
","""event"",""trial"",""time""
""focus"",""0"",""1""
","""event"",""trial"",""time""
""fullscreenenter"",""1"",""1395""
","
","","","","","","1975","images/boat6.png","","","memory_trial","2","maybe_old",""
"html-keyboard-response","146","343084","0.0-18.0-0.50","3978","approach_avoid_sv1","""event"",""trial"",""time""
""focus"",""0"",""1""
""fullscreenenter"",""1"",""1395""
","
","""event"",""trial"",""time""
""focus"",""0"",""1""
","""event"",""trial"",""time""
""fullscreenenter"",""1"",""1395""
","
","","","","","","null","<div style=""font-size:60px;"">+</div>","null","","fixation","","",""
"memory-trial","147","344894","0.0-18.0-1.50","3978","approach_avoid_sv1","""event"",""trial"",""time""
""focus"",""0"",""1""
""fullscreenenter"",""1"",""1395""
","
","""event"",""trial"",""time""
""focus"",""0"",""1""
","""event"",""trial"",""time""
""fullscreenenter"",""1"",""1395""
","
","","","","","","807","images/bush7.png","","","memory_trial","4","definitely_new",""
"html-keyboard-response","148","345396","0.0-18.0-0.51","3978","approach_avoid_sv1","""event"",""trial"",""time""
""focus"",""0"",""1""
""fullscreenenter"",""1"",""1395""
","
","""event"",""trial"",""time""
""focus"",""0"",""1""
","""event"",""trial"",""time""
""fullscreenenter"",""1"",""1395""
","
","","","","","","null","<div style=""font-size:60px;"">+</div>","null","","fixation","","",""
"memory-trial","149","348365","0.0-18.0-1.51","3978","approach_avoid_sv1","""event"",""trial"",""time""
""focus"",""0"",""1""
""fullscreenenter"",""1"",""1395""
","
","""event"",""trial"",""time""
""focus"",""0"",""1""
","""event"",""trial"",""time""
""fullscreenenter"",""1"",""1395""
","
","","","","","","1967","images/table2.png","","","memory_trial","2","maybe_old",""
"html-keyboard-response","150","348867","0.0-18.0-0.52","3978","approach_avoid_sv1","""event"",""trial"",""time""
""focus"",""0"",""1""
""fullscreenenter"",""1"",""1395""
","
","""event"",""trial"",""time""
""focus"",""0"",""1""
","""event"",""trial"",""time""
""fullscreenenter"",""1"",""1395""
","
","","","","","","null","<div style=""font-size:60px;"">+</div>","null","","fixation","","",""
"memory-trial","151","350941","0.0-18.0-1.52","3978","approach_avoid_sv1","""event"",""trial"",""time""
""focus"",""0"",""1""
""fullscreenenter"",""1"",""1395""
","
","""event"",""trial"",""time""
""focus"",""0"",""1""
","""event"",""trial"",""time""
""fullscreenenter"",""1"",""1395""
","
","","","","","","1071","images/bed7.png","","","memory_trial","2","maybe_old",""
"html-keyboard-response","152","351444","0.0-18.0-0.53","3978","approach_avoid_sv1","""event"",""trial"",""time""
""focus"",""0"",""1""
""fullscreenenter"",""1"",""1395""
","
","""event"",""trial"",""time""
""focus"",""0"",""1""
","""event"",""trial"",""time""
""fullscreenenter"",""1"",""1395""
","
","","","","","","null","<div style=""font-size:60px;"">+</div>","null","","fixation","","",""
"memory-trial","153","353604","0.0-18.0-1.53","3978","approach_avoid_sv1","""event"",""trial"",""time""
""focus"",""0"",""1""
""fullscreenenter"",""1"",""1395""
","
","""event"",""trial"",""time""
""focus"",""0"",""1""
","""event"",""trial"",""time""
""fullscreenenter"",""1"",""1395""
","
","","","","","","1159","images/cactus6.png","","","memory_trial","4","definitely_new",""
"html-keyboard-response","154","354107","0.0-18.0-0.54","3978","approach_avoid_sv1","""event"",""trial"",""time""
""focus"",""0"",""1""
""fullscreenenter"",""1"",""1395""
","
","""event"",""trial"",""time""
""focus"",""0"",""1""
","""event"",""trial"",""time""
""fullscreenenter"",""1"",""1395""
","
","","","","","","null","<div style=""font-size:60px;"">+</div>","null","","fixation","","",""
"memory-trial","155","356684","0.0-18.0-1.54","3978","approach_avoid_sv1","""event"",""trial"",""time""
""focus"",""0"",""1""
""fullscreenenter"",""1"",""1395""
","
","""event"",""trial"",""time""
""focus"",""0"",""1""
","""event"",""trial"",""time""
""fullscreenenter"",""1"",""1395""
","
","","","","","","1575","images/cactus4.png","","","memory_trial","2","maybe_old",""
"html-keyboard-response","156","357186","0.0-18.0-0.55","3978","approach_avoid_sv1","""event"",""trial"",""time""
""focus"",""0"",""1""
""fullscreenenter"",""1"",""1395""
","
","""event"",""trial"",""time""
""focus"",""0"",""1""
","""event"",""trial"",""time""
""fullscreenenter"",""1"",""1395""
","
","","","","","","null","<div style=""font-size:60px;"">+</div>","null","","fixation","","",""
"memory-trial","157","359382","0.0-18.0-1.55","3978","approach_avoid_sv1","""event"",""trial"",""time""
""focus"",""0"",""1""
""fullscreenenter"",""1"",""1395""
","
","""event"",""trial"",""time""
""focus"",""0"",""1""
","""event"",""trial"",""time""
""fullscreenenter"",""1"",""1395""
","
","","","","","","1193","images/cactus8.png","","","memory_trial","4","definitely_new",""
"html-keyboard-response","158","359884","0.0-18.0-0.56","3978","approach_avoid_sv1","""event"",""trial"",""time""
""focus"",""0"",""1""
""fullscreenenter"",""1"",""1395""
","
","""event"",""trial"",""time""
""focus"",""0"",""1""
","""event"",""trial"",""time""
""fullscreenenter"",""1"",""1395""
","
","","","","","","null","<div style=""font-size:60px;"">+</div>","null","","fixation","","",""
"memory-trial","159","361909","0.0-18.0-1.56","3978","approach_avoid_sv1","""event"",""trial"",""time""
""focus"",""0"",""1""
""fullscreenenter"",""1"",""1395""
","
","""event"",""trial"",""time""
""focus"",""0"",""1""
","""event"",""trial"",""time""
""fullscreenenter"",""1"",""1395""
","
","","","","","","1023","images/goat7.png","","","memory_trial","4","definitely_new",""
"html-keyboard-response","160","362411","0.0-18.0-0.57","3978","approach_avoid_sv1","""event"",""trial"",""time""
""focus"",""0"",""1""
""fullscreenenter"",""1"",""1395""
","
","""event"",""trial"",""time""
""focus"",""0"",""1""
","""event"",""trial"",""time""
""fullscreenenter"",""1"",""1395""
","
","","","","","","null","<div style=""font-size:60px;"">+</div>","null","","fixation","","",""
"memory-trial","161","364588","0.0-18.0-1.57","3978","approach_avoid_sv1","""event"",""trial"",""time""
""focus"",""0"",""1""
""fullscreenenter"",""1"",""1395""
","
","""event"",""trial"",""time""
""focus"",""0"",""1""
","""event"",""trial"",""time""
""fullscreenenter"",""1"",""1395""
","
","","","","","","1175","images/sheep1.png","","","memory_trial","4","definitely_new",""
"html-keyboard-response","162","365091","0.0-18.0-0.58","3978","approach_avoid_sv1","""event"",""trial"",""time""
""focus"",""0"",""1""
""fullscreenenter"",""1"",""1395""
","
","""event"",""trial"",""time""
""focus"",""0"",""1""
","""event"",""trial"",""time""
""fullscreenenter"",""1"",""1395""
","
","","","","","","null","<div style=""font-size:60px;"">+</div>","null","","fixation","","",""
"memory-trial","163","367036","0.0-18.0-1.58","3978","approach_avoid_sv1","""event"",""trial"",""time""
""focus"",""0"",""1""
""fullscreenenter"",""1"",""1395""
","
","""event"",""trial"",""time""
""focus"",""0"",""1""
","""event"",""trial"",""time""
""fullscreenenter"",""1"",""1395""
","
","","","","","","944","images/bush8.png","","","memory_trial","4","definitely_new",""
"html-keyboard-response","164","367538","0.0-18.0-0.59","3978","approach_avoid_sv1","""event"",""trial"",""time""
""focus"",""0"",""1""
""fullscreenenter"",""1"",""1395""
","
","""event"",""trial"",""time""
""focus"",""0"",""1""
","""event"",""trial"",""time""
""fullscreenenter"",""1"",""1395""
","
","","","","","","null","<div style=""font-size:60px;"">+</div>","null","","fixation","","",""
"memory-trial","165","370014","0.0-18.0-1.59","3978","approach_avoid_sv1","""event"",""trial"",""time""
""focus"",""0"",""1""
""fullscreenenter"",""1"",""1395""
","
","""event"",""trial"",""time""
""focus"",""0"",""1""
","""event"",""trial"",""time""
""fullscreenenter"",""1"",""1395""
","
","","","","","","1472","images/bed4.png","","","memory_trial","2","maybe_old",""
"html-keyboard-response","166","370516","0.0-18.0-0.60","3978","approach_avoid_sv1","""event"",""trial"",""time""
""focus"",""0"",""1""
""fullscreenenter"",""1"",""1395""
","
","""event"",""trial"",""time""
""focus"",""0"",""1""
","""event"",""trial"",""time""
""fullscreenenter"",""1"",""1395""
","
","","","","","","null","<div style=""font-size:60px;"">+</div>","null","","fixation","","",""
"memory-trial","167","372382","0.0-18.0-1.60","3978","approach_avoid_sv1","""event"",""trial"",""time""
""focus"",""0"",""1""
""fullscreenenter"",""1"",""1395""
","
","""event"",""trial"",""time""
""focus"",""0"",""1""
","""event"",""trial"",""time""
""fullscreenenter"",""1"",""1395""
","
","","","","","","863","images/bush6.png","","","memory_trial","4","definitely_new",""
"html-keyboard-response","168","372883","0.0-18.0-0.61","3978","approach_avoid_sv1","""event"",""trial"",""time""
""focus"",""0"",""1""
""fullscreenenter"",""1"",""1395""
","
","""event"",""trial"",""time""
""focus"",""0"",""1""
","""event"",""trial"",""time""
""fullscreenenter"",""1"",""1395""
","
","","","","","","null","<div style=""font-size:60px;"">+</div>","null","","fixation","","",""
"memory-trial","169","375574","0.0-18.0-1.61","3978","approach_avoid_sv1","""event"",""trial"",""time""
""focus"",""0"",""1""
""fullscreenenter"",""1"",""1395""
","
","""event"",""trial"",""time""
""focus"",""0"",""1""
","""event"",""trial"",""time""
""fullscreenenter"",""1"",""1395""
","
","","","","","","1688","images/plane8.png","","","memory_trial","2","maybe_old",""
"html-keyboard-response","170","376076","0.0-18.0-0.62","3978","approach_avoid_sv1","""event"",""trial"",""time""
""focus"",""0"",""1""
""fullscreenenter"",""1"",""1395""
","
","""event"",""trial"",""time""
""focus"",""0"",""1""
","""event"",""trial"",""time""
""fullscreenenter"",""1"",""1395""
","
","","","","","","null","<div style=""font-size:60px;"">+</div>","null","","fixation","","",""
"memory-trial","171","377596","0.0-18.0-1.62","3978","approach_avoid_sv1","""event"",""trial"",""time""
""focus"",""0"",""1""
""fullscreenenter"",""1"",""1395""
","
","""event"",""trial"",""time""
""focus"",""0"",""1""
","""event"",""trial"",""time""
""fullscreenenter"",""1"",""1395""
","
","","","","","","517","images/orange6.png","","","memory_trial","4","definitely_new",""
"html-keyboard-response","172","378099","0.0-18.0-0.63","3978","approach_avoid_sv1","""event"",""trial"",""time""
""focus"",""0"",""1""
""fullscreenenter"",""1"",""1395""
","
","""event"",""trial"",""time""
""focus"",""0"",""1""
","""event"",""trial"",""time""
""fullscreenenter"",""1"",""1395""
","
","","","","","","null","<div style=""font-size:60px;"">+</div>","null","","fixation","","",""
"memory-trial","173","380533","0.0-18.0-1.63","3978","approach_avoid_sv1","""event"",""trial"",""time""
""focus"",""0"",""1""
""fullscreenenter"",""1"",""1395""
","
","""event"",""trial"",""time""
""focus"",""0"",""1""
","""event"",""trial"",""time""
""fullscreenenter"",""1"",""1395""
","
","","","","","","1431","images/chair4.png","","","memory_trial","1","definitely_old",""
"html-keyboard-response","174","381036","0.0-18.0-0.64","3978","approach_avoid_sv1","""event"",""trial"",""time""
""focus"",""0"",""1""
""fullscreenenter"",""1"",""1395""
","
","""event"",""trial"",""time""
""focus"",""0"",""1""
","""event"",""trial"",""time""
""fullscreenenter"",""1"",""1395""
","
","","","","","","null","<div style=""font-size:60px;"">+</div>","null","","fixation","","",""
"memory-trial","175","382694","0.0-18.0-1.64","3978","approach_avoid_sv1","""event"",""trial"",""time""
""focus"",""0"",""1""
""fullscreenenter"",""1"",""1395""
","
","""event"",""trial"",""time""
""focus"",""0"",""1""
","""event"",""trial"",""time""
""fullscreenenter"",""1"",""1395""
","
","","","","","","654","images/orange2.png","","","memory_trial","4","definitely_new",""
"html-keyboard-response","176","383196","0.0-18.0-0.65","3978","approach_avoid_sv1","""event"",""trial"",""time""
""focus"",""0"",""1""
""fullscreenenter"",""1"",""1395""
","
","""event"",""trial"",""time""
""focus"",""0"",""1""
","""event"",""trial"",""time""
""fullscreenenter"",""1"",""1395""
","
","","","","","","null","<div style=""font-size:60px;"">+</div>","null","","fixation","","",""
"memory-trial","177","385261","0.0-18.0-1.65","3978","approach_avoid_sv1","""event"",""trial"",""time""
""focus"",""0"",""1""
""fullscreenenter"",""1"",""1395""
","
","""event"",""trial"",""time""
""focus"",""0"",""1""
","""event"",""trial"",""time""
""fullscreenenter"",""1"",""1395""
","
","","","","","","1061","images/chair3.png","","","memory_trial","2","maybe_old",""
"html-keyboard-response","178","385763","0.0-18.0-0.66","3978","approach_avoid_sv1","""event"",""trial"",""time""
""focus"",""0"",""1""
""fullscreenenter"",""1"",""1395""
","
","""event"",""trial"",""time""
""focus"",""0"",""1""
","""event"",""trial"",""time""
""fullscreenenter"",""1"",""1395""
","
","","","","","","null","<div style=""font-size:60px;"">+</div>","null","","fixation","","",""
"memory-trial","179","387683","0.0-18.0-1.66","3978","approach_avoid_sv1","""event"",""trial"",""time""
""focus"",""0"",""1""
""fullscreenenter"",""1"",""1395""
","
","""event"",""trial"",""time""
""focus"",""0"",""1""
","""event"",""trial"",""time""
""fullscreenenter"",""1"",""1395""
","
","","","","","","919","images/train5.png","","","memory_trial","4","definitely_new",""
"html-keyboard-response","180","388186","0.0-18.0-0.67","3978","approach_avoid_sv1","""event"",""trial"",""time""
""focus"",""0"",""1""
""fullscreenenter"",""1"",""1395""
","
","""event"",""trial"",""time""
""focus"",""0"",""1""
","""event"",""trial"",""time""
""fullscreenenter"",""1"",""1395""
","
","","","","","","null","<div style=""font-size:60px;"">+</div>","null","","fixation","","",""
"memory-trial","181","389876","0.0-18.0-1.67","3978","approach_avoid_sv1","""event"",""trial"",""time""
""focus"",""0"",""1""
""fullscreenenter"",""1"",""1395""
","
","""event"",""trial"",""time""
""focus"",""0"",""1""
","""event"",""trial"",""time""
""fullscreenenter"",""1"",""1395""
","
","","","","","","687","images/dog8.png","","","memory_trial","4","definitely_new",""
"html-keyboard-response","182","390378","0.0-18.0-0.68","3978","approach_avoid_sv1","""event"",""trial"",""time""
""focus"",""0"",""1""
""fullscreenenter"",""1"",""1395""
","
","""event"",""trial"",""time""
""focus"",""0"",""1""
","""event"",""trial"",""time""
""fullscreenenter"",""1"",""1395""
","
","","","","","","null","<div style=""font-size:60px;"">+</div>","null","","fixation","","",""
"memory-trial","183","392036","0.0-18.0-1.68","3978","approach_avoid_sv1","""event"",""trial"",""time""
""focus"",""0"",""1""
""fullscreenenter"",""1"",""1395""
","
","""event"",""trial"",""time""
""focus"",""0"",""1""
","""event"",""trial"",""time""
""fullscreenenter"",""1"",""1395""
","
","","","","","","655","images/banana6.png","","","memory_trial","4","definitely_new",""
"html-keyboard-response","184","392539","0.0-18.0-0.69","3978","approach_avoid_sv1","""event"",""trial"",""time""
""focus"",""0"",""1""
""fullscreenenter"",""1"",""1395""
","
","""event"",""trial"",""time""
""focus"",""0"",""1""
","""event"",""trial"",""time""
""fullscreenenter"",""1"",""1395""
","
","","","","","","null","<div style=""font-size:60px;"">+</div>","null","","fixation","","",""
"memory-trial","185","394508","0.0-18.0-1.69","3978","approach_avoid_sv1","""event"",""trial"",""time""
""focus"",""0"",""1""
""fullscreenenter"",""1"",""1395""
","
","""event"",""trial"",""time""
""focus"",""0"",""1""
","""event"",""trial"",""time""
""fullscreenenter"",""1"",""1395""
","
","","","","","","969","images/rabbit7.png","","","memory_trial","4","definitely_new",""
"html-keyboard-response","186","395011","0.0-18.0-0.70","3978","approach_avoid_sv1","""event"",""trial"",""time""
""focus"",""0"",""1""
""fullscreenenter"",""1"",""1395""
","
","""event"",""trial"",""time""
""focus"",""0"",""1""
","""event"",""trial"",""time""
""fullscreenenter"",""1"",""1395""
","
","","","","","","null","<div style=""font-size:60px;"">+</div>","null","","fixation","","",""
"memory-trial","187","396564","0.0-18.0-1.70","3978","approach_avoid_sv1","""event"",""trial"",""time""
""focus"",""0"",""1""
""fullscreenenter"",""1"",""1395""
","
","""event"",""trial"",""time""
""focus"",""0"",""1""
","""event"",""trial"",""time""
""fullscreenenter"",""1"",""1395""
","
","","","","","","551","images/bush1.png","","","memory_trial","4","definitely_new",""
"html-keyboard-response","188","397066","0.0-18.0-0.71","3978","approach_avoid_sv1","""event"",""trial"",""time""
""focus"",""0"",""1""
""fullscreenenter"",""1"",""1395""
","
","""event"",""trial"",""time""
""focus"",""0"",""1""
","""event"",""trial"",""time""
""fullscreenenter"",""1"",""1395""
","
","","","","","","null","<div style=""font-size:60px;"">+</div>","null","","fixation","","",""
"memory-trial","189","398581","0.0-18.0-1.71","3978","approach_avoid_sv1","""event"",""trial"",""time""
""focus"",""0"",""1""
""fullscreenenter"",""1"",""1395""
","
","""event"",""trial"",""time""
""focus"",""0"",""1""
","""event"",""trial"",""time""
""fullscreenenter"",""1"",""1395""
","
","","","","","","511","images/cat5.png","","","memory_trial","4","definitely_new",""
"html-keyboard-response","190","399083","0.0-18.0-0.72","3978","approach_avoid_sv1","""event"",""trial"",""time""
""focus"",""0"",""1""
""fullscreenenter"",""1"",""1395""
","
","""event"",""trial"",""time""
""focus"",""0"",""1""
","""event"",""trial"",""time""
""fullscreenenter"",""1"",""1395""
","
","","","","","","null","<div style=""font-size:60px;"">+</div>","null","","fixation","","",""
"memory-trial","191","400596","0.0-18.0-1.72","3978","approach_avoid_sv1","""event"",""trial"",""time""
""focus"",""0"",""1""
""fullscreenenter"",""1"",""1395""
","
","""event"",""trial"",""time""
""focus"",""0"",""1""
","""event"",""trial"",""time""
""fullscreenenter"",""1"",""1395""
","
","","","","","","510","images/cat3.png","","","memory_trial","4","definitely_new",""
"html-keyboard-response","192","401098","0.0-18.0-0.73","3978","approach_avoid_sv1","""event"",""trial"",""time""
""focus"",""0"",""1""
""fullscreenenter"",""1"",""1395""
","
","""event"",""trial"",""time""
""focus"",""0"",""1""
","""event"",""trial"",""time""
""fullscreenenter"",""1"",""1395""
","
","","","","","","null","<div style=""font-size:60px;"">+</div>","null","","fixation","","",""
"memory-trial","193","402596","0.0-18.0-1.73","3978","approach_avoid_sv1","""event"",""trial"",""time""
""focus"",""0"",""1""
""fullscreenenter"",""1"",""1395""
","
","""event"",""trial"",""time""
""focus"",""0"",""1""
","""event"",""trial"",""time""
""fullscreenenter"",""1"",""1395""
","
","","","","","","495","images/goat6.png","","","memory_trial","4","definitely_new",""
"html-keyboard-response","194","403098","0.0-18.0-0.74","3978","approach_avoid_sv1","""event"",""trial"",""time""
""focus"",""0"",""1""
""fullscreenenter"",""1"",""1395""
","
","""event"",""trial"",""time""
""focus"",""0"",""1""
","""event"",""trial"",""time""
""fullscreenenter"",""1"",""1395""
","
","","","","","","null","<div style=""font-size:60px;"">+</div>","null","","fixation","","",""
"memory-trial","195","405596","0.0-18.0-1.74","3978","approach_avoid_sv1","""event"",""trial"",""time""
""focus"",""0"",""1""
""fullscreenenter"",""1"",""1395""
","
","""event"",""trial"",""time""
""focus"",""0"",""1""
","""event"",""trial"",""time""
""fullscreenenter"",""1"",""1395""
","
","","","","","","1496","images/table3.png","","","memory_trial","2","maybe_old",""
"html-keyboard-response","196","406098","0.0-18.0-0.75","3978","approach_avoid_sv1","""event"",""trial"",""time""
""focus"",""0"",""1""
""fullscreenenter"",""1"",""1395""
","
","""event"",""trial"",""time""
""focus"",""0"",""1""
","""event"",""trial"",""time""
""fullscreenenter"",""1"",""1395""
","
","","","","","","null","<div style=""font-size:60px;"">+</div>","null","","fixation","","",""
"memory-trial","197","407693","0.0-18.0-1.75","3978","approach_avoid_sv1","""event"",""trial"",""time""
""focus"",""0"",""1""
""fullscreenenter"",""1"",""1395""
","
","""event"",""trial"",""time""
""focus"",""0"",""1""
","""event"",""trial"",""time""
""fullscreenenter"",""1"",""1395""
","
","","","","","","592","images/orange3.png","","","memory_trial","4","definitely_new",""
"html-keyboard-response","198","408195","0.0-18.0-0.76","3978","approach_avoid_sv1","""event"",""trial"",""time""
""focus"",""0"",""1""
""fullscreenenter"",""1"",""1395""
","
","""event"",""trial"",""time""
""focus"",""0"",""1""
","""event"",""trial"",""time""
""fullscreenenter"",""1"",""1395""
","
","","","","","","null","<div style=""font-size:60px;"">+</div>","null","","fixation","","",""
"memory-trial","199","409723","0.0-18.0-1.76","3978","approach_avoid_sv1","""event"",""trial"",""time""
""focus"",""0"",""1""
""fullscreenenter"",""1"",""1395""
","
","""event"",""trial"",""time""
""focus"",""0"",""1""
","""event"",""trial"",""time""
""fullscreenenter"",""1"",""1395""
","
","","","","","","525","images/orange1.png","","","memory_trial","4","definitely_new",""
"html-keyboard-response","200","410226","0.0-18.0-0.77","3978","approach_avoid_sv1","""event"",""trial"",""time""
""focus"",""0"",""1""
""fullscreenenter"",""1"",""1395""
","
","""event"",""trial"",""time""
""focus"",""0"",""1""
","""event"",""trial"",""time""
""fullscreenenter"",""1"",""1395""
","
","","","","","","null","<div style=""font-size:60px;"">+</div>","null","","fixation","","",""
"memory-trial","201","411821","0.0-18.0-1.77","3978","approach_avoid_sv1","""event"",""trial"",""time""
""focus"",""0"",""1""
""fullscreenenter"",""1"",""1395""
","
","""event"",""trial"",""time""
""focus"",""0"",""1""
","""event"",""trial"",""time""
""fullscreenenter"",""1"",""1395""
","
","","","","","","591","images/straw6.png","","","memory_trial","4","definitely_new",""
"html-keyboard-response","202","412330","0.0-18.0-0.78","3978","approach_avoid_sv1","""event"",""trial"",""time""
""focus"",""0"",""1""
""fullscreenenter"",""1"",""1395""
","
","""event"",""trial"",""time""
""focus"",""0"",""1""
","""event"",""trial"",""time""
""fullscreenenter"",""1"",""1395""
","
","","","","","","null","<div style=""font-size:60px;"">+</div>","null","","fixation","","",""
"memory-trial","203","414021","0.0-18.0-1.78","3978","approach_avoid_sv1","""event"",""trial"",""time""
""focus"",""0"",""1""
""fullscreenenter"",""1"",""1395""
","
","""event"",""trial"",""time""
""focus"",""0"",""1""
","""event"",""trial"",""time""
""fullscreenenter"",""1"",""1395""
","
","","","","","","687","images/flower8.png","","","memory_trial","4","definitely_new",""
"html-keyboard-response","204","414530","0.0-18.0-0.79","3978","approach_avoid_sv1","""event"",""trial"",""time""
""focus"",""0"",""1""
""fullscreenenter"",""1"",""1395""
","
","""event"",""trial"",""time""
""focus"",""0"",""1""
","""event"",""trial"",""time""
""fullscreenenter"",""1"",""1395""
","
","","","","","","null","<div style=""font-size:60px;"">+</div>","null","","fixation","","",""
"memory-trial","205","416003","0.0-18.0-1.79","3978","approach_avoid_sv1","""event"",""trial"",""time""
""focus"",""0"",""1""
""fullscreenenter"",""1"",""1395""
","
","""event"",""trial"",""time""
""focus"",""0"",""1""
","""event"",""trial"",""time""
""fullscreenenter"",""1"",""1395""
","
","","","","","","471","images/banana4.png","","","memory_trial","4","definitely_new",""
"html-keyboard-response","206","416505","0.0-18.0-0.80","3978","approach_avoid_sv1","""event"",""trial"",""time""
""focus"",""0"",""1""
""fullscreenenter"",""1"",""1395""
","
","""event"",""trial"",""time""
""focus"",""0"",""1""
","""event"",""trial"",""time""
""fullscreenenter"",""1"",""1395""
","
","","","","","","null","<div style=""font-size:60px;"">+</div>","null","","fixation","","",""
"memory-trial","207","418028","0.0-18.0-1.80","3978","approach_avoid_sv1","""event"",""trial"",""time""
""focus"",""0"",""1""
""fullscreenenter"",""1"",""1395""
","
","""event"",""trial"",""time""
""focus"",""0"",""1""
","""event"",""trial"",""time""
""fullscreenenter"",""1"",""1395""
","
","","","","","","520","images/dog4.png","","","memory_trial","4","definitely_new",""
"html-keyboard-response","208","418531","0.0-18.0-0.81","3978","approach_avoid_sv1","""event"",""trial"",""time""
""focus"",""0"",""1""
""fullscreenenter"",""1"",""1395""
","
","""event"",""trial"",""time""
""focus"",""0"",""1""
","""event"",""trial"",""time""
""fullscreenenter"",""1"",""1395""
","
","","","","","","null","<div style=""font-size:60px;"">+</div>","null","","fixation","","",""
"memory-trial","209","420603","0.0-18.0-1.81","3978","approach_avoid_sv1","""event"",""trial"",""time""
""focus"",""0"",""1""
""fullscreenenter"",""1"",""1395""
","
","""event"",""trial"",""time""
""focus"",""0"",""1""
","""event"",""trial"",""time""
""fullscreenenter"",""1"",""1395""
","
","","","","","","1070","images/chair5.png","","","memory_trial","1","definitely_old",""
"html-keyboard-response","210","421105","0.0-18.0-0.82","3978","approach_avoid_sv1","""event"",""trial"",""time""
""focus"",""0"",""1""
""fullscreenenter"",""1"",""1395""
","
","""event"",""trial"",""time""
""focus"",""0"",""1""
","""event"",""trial"",""time""
""fullscreenenter"",""1"",""1395""
","
","","","","","","null","<div style=""font-size:60px;"">+</div>","null","","fixation","","",""
"memory-trial","211","422803","0.0-18.0-1.82","3978","approach_avoid_sv1","""event"",""trial"",""time""
""focus"",""0"",""1""
""fullscreenenter"",""1"",""1395""
","
","""event"",""trial"",""time""
""focus"",""0"",""1""
","""event"",""trial"",""time""
""fullscreenenter"",""1"",""1395""
","
","","","","","","695","images/boat1.png","","","memory_trial","1","definitely_old",""
"html-keyboard-response","212","423305","0.0-18.0-0.83","3978","approach_avoid_sv1","""event"",""trial"",""time""
""focus"",""0"",""1""
""fullscreenenter"",""1"",""1395""
","
","""event"",""trial"",""time""
""focus"",""0"",""1""
","""event"",""trial"",""time""
""fullscreenenter"",""1"",""1395""
","
","","","","","","null","<div style=""font-size:60px;"">+</div>","null","","fixation","","",""
"memory-trial","213","424891","0.0-18.0-1.83","3978","approach_avoid_sv1","""event"",""trial"",""time""
""focus"",""0"",""1""
""fullscreenenter"",""1"",""1395""
","
","""event"",""trial"",""time""
""focus"",""0"",""1""
","""event"",""trial"",""time""
""fullscreenenter"",""1"",""1395""
","
","","","","","","582","images/apple7.png","","","memory_trial","4","definitely_new",""
"html-keyboard-response","214","425393","0.0-18.0-0.84","3978","approach_avoid_sv1","""event"",""trial"",""time""
""focus"",""0"",""1""
""fullscreenenter"",""1"",""1395""
","
","""event"",""trial"",""time""
""focus"",""0"",""1""
","""event"",""trial"",""time""
""fullscreenenter"",""1"",""1395""
","
","","","","","","null","<div style=""font-size:60px;"">+</div>","null","","fixation","","",""
"memory-trial","215","427123","0.0-18.0-1.84","3978","approach_avoid_sv1","""event"",""trial"",""time""
""focus"",""0"",""1""
""fullscreenenter"",""1"",""1395""
","
","""event"",""trial"",""time""
""focus"",""0"",""1""
","""event"",""trial"",""time""
""fullscreenenter"",""1"",""1395""
","
","","","","","","728","images/train6.png","","","memory_trial","4","definitely_new",""
"html-keyboard-response","216","427626","0.0-18.0-0.85","3978","approach_avoid_sv1","""event"",""trial"",""time""
""focus"",""0"",""1""
""fullscreenenter"",""1"",""1395""
","
","""event"",""trial"",""time""
""focus"",""0"",""1""
","""event"",""trial"",""time""
""fullscreenenter"",""1"",""1395""
","
","","","","","","null","<div style=""font-size:60px;"">+</div>","null","","fixation","","",""
"memory-trial","217","429651","0.0-18.0-1.85","3978","approach_avoid_sv1","""event"",""trial"",""time""
""focus"",""0"",""1""
""fullscreenenter"",""1"",""1395""
","
","""event"",""trial"",""time""
""focus"",""0"",""1""
","""event"",""trial"",""time""
""fullscreenenter"",""1"",""1395""
","
","","","","","","1023","images/cactus7.png","","","memory_trial","4","definitely_new",""
"html-keyboard-response","218","430153","0.0-18.0-0.86","3978","approach_avoid_sv1","""event"",""trial"",""time""
""focus"",""0"",""1""
""fullscreenenter"",""1"",""1395""
","
","""event"",""trial"",""time""
""focus"",""0"",""1""
","""event"",""trial"",""time""
""fullscreenenter"",""1"",""1395""
","
","","","","","","null","<div style=""font-size:60px;"">+</div>","null","","fixation","","",""
"memory-trial","219","432788","0.0-18.0-1.86","3978","approach_avoid_sv1","""event"",""trial"",""time""
""focus"",""0"",""1""
""fullscreenenter"",""1"",""1395""
","
","""event"",""trial"",""time""
""focus"",""0"",""1""
","""event"",""trial"",""time""
""fullscreenenter"",""1"",""1395""
","
","","","","","","1625","images/chair2.png","","","memory_trial","3","maybe_new",""
"html-keyboard-response","220","433298","0.0-18.0-0.87","3978","approach_avoid_sv1","""event"",""trial"",""time""
""focus"",""0"",""1""
""fullscreenenter"",""1"",""1395""
","
","""event"",""trial"",""time""
""focus"",""0"",""1""
","""event"",""trial"",""time""
""fullscreenenter"",""1"",""1395""
","
","","","","","","null","<div style=""font-size:60px;"">+</div>","null","","fixation","","",""
"memory-trial","221","435308","0.0-18.0-1.87","3978","approach_avoid_sv1","""event"",""trial"",""time""
""focus"",""0"",""1""
""fullscreenenter"",""1"",""1395""
","
","""event"",""trial"",""time""
""focus"",""0"",""1""
","""event"",""trial"",""time""
""fullscreenenter"",""1"",""1395""
","
","","","","","","998","images/table4.png","","","memory_trial","1","definitely_old",""
"html-keyboard-response","222","435810","0.0-18.0-0.88","3978","approach_avoid_sv1","""event"",""trial"",""time""
""focus"",""0"",""1""
""fullscreenenter"",""1"",""1395""
","
","""event"",""trial"",""time""
""focus"",""0"",""1""
","""event"",""trial"",""time""
""fullscreenenter"",""1"",""1395""
","
","","","","","","null","<div style=""font-size:60px;"">+</div>","null","","fixation","","",""
"memory-trial","223","437308","0.0-18.0-1.88","3978","approach_avoid_sv1","""event"",""trial"",""time""
""focus"",""0"",""1""
""fullscreenenter"",""1"",""1395""
","
","""event"",""trial"",""time""
""focus"",""0"",""1""
","""event"",""trial"",""time""
""fullscreenenter"",""1"",""1395""
","
","","","","","","495","images/bush5.png","","","memory_trial","4","definitely_new",""
"html-keyboard-response","224","437810","0.0-18.0-0.89","3978","approach_avoid_sv1","""event"",""trial"",""time""
""focus"",""0"",""1""
""fullscreenenter"",""1"",""1395""
","
","""event"",""trial"",""time""
""focus"",""0"",""1""
","""event"",""trial"",""time""
""fullscreenenter"",""1"",""1395""
","
","","","","","","null","<div style=""font-size:60px;"">+</div>","null","","fixation","","",""
"memory-trial","225","439715","0.0-18.0-1.89","3978","approach_avoid_sv1","""event"",""trial"",""time""
""focus"",""0"",""1""
""fullscreenenter"",""1"",""1395""
","
","""event"",""trial"",""time""
""focus"",""0"",""1""
","""event"",""trial"",""time""
""fullscreenenter"",""1"",""1395""
","
","","","","","","902","images/truck2.png","","","memory_trial","4","definitely_new",""
"html-keyboard-response","226","440218","0.0-18.0-0.90","3978","approach_avoid_sv1","""event"",""trial"",""time""
""focus"",""0"",""1""
""fullscreenenter"",""1"",""1395""
","
","""event"",""trial"",""time""
""focus"",""0"",""1""
","""event"",""trial"",""time""
""fullscreenenter"",""1"",""1395""
","
","","","","","","null","<div style=""font-size:60px;"">+</div>","null","","fixation","","",""
"memory-trial","227","441883","0.0-18.0-1.90","3978","approach_avoid_sv1","""event"",""trial"",""time""
""focus"",""0"",""1""
""fullscreenenter"",""1"",""1395""
","
","""event"",""trial"",""time""
""focus"",""0"",""1""
","""event"",""trial"",""time""
""fullscreenenter"",""1"",""1395""
","
","","","","","","664","images/flower2.png","","","memory_trial","4","definitely_new",""
"html-keyboard-response","228","442386","0.0-18.0-0.91","3978","approach_avoid_sv1","""event"",""trial"",""time""
""focus"",""0"",""1""
""fullscreenenter"",""1"",""1395""
","
","""event"",""trial"",""time""
""focus"",""0"",""1""
","""event"",""trial"",""time""
""fullscreenenter"",""1"",""1395""
","
","","","","","","null","<div style=""font-size:60px;"">+</div>","null","","fixation","","",""
"memory-trial","229","443981","0.0-18.0-1.91","3978","approach_avoid_sv1","""event"",""trial"",""time""
""focus"",""0"",""1""
""fullscreenenter"",""1"",""1395""
","
","""event"",""trial"",""time""
""focus"",""0"",""1""
","""event"",""trial"",""time""
""fullscreenenter"",""1"",""1395""
","
","","","","","","590","images/banana2.png","","","memory_trial","4","definitely_new",""
"html-button-response","230","445780","0.0-18.0-2.91-0.91","3978","approach_avoid_sv1","""event"",""trial"",""time""
""focus"",""0"",""1""
""fullscreenenter"",""1"",""1395""
","
","""event"",""trial"",""time""
""focus"",""0"",""1""
","""event"",""trial"",""time""
""fullscreenenter"",""1"",""1395""
","
","","","","","","1798","<p> Take a break! </p><p> Click the button to continue. </p>","0","","break","","",""
"html-keyboard-response","231","446282","0.0-18.0-0.92","3978","approach_avoid_sv1","""event"",""trial"",""time""
""focus"",""0"",""1""
""fullscreenenter"",""1"",""1395""
","
","""event"",""trial"",""time""
""focus"",""0"",""1""
","""event"",""trial"",""time""
""fullscreenenter"",""1"",""1395""
","
","","","","","","null","<div style=""font-size:60px;"">+</div>","null","","fixation","","",""
"memory-trial","232","448588","0.0-18.0-1.92","3978","approach_avoid_sv1","""event"",""trial"",""time""
""focus"",""0"",""1""
""fullscreenenter"",""1"",""1395""
","
","""event"",""trial"",""time""
""focus"",""0"",""1""
","""event"",""trial"",""time""
""fullscreenenter"",""1"",""1395""
","
","","","","","","1303","images/boat4.png","","","memory_trial","1","definitely_old",""
"html-keyboard-response","233","449090","0.0-18.0-0.93","3978","approach_avoid_sv1","""event"",""trial"",""time""
""focus"",""0"",""1""
""fullscreenenter"",""1"",""1395""
","
","""event"",""trial"",""time""
""focus"",""0"",""1""
","""event"",""trial"",""time""
""fullscreenenter"",""1"",""1395""
","
","","","","","","null","<div style=""font-size:60px;"">+</div>","null","","fixation","","",""
"memory-trial","234","450915","0.0-18.0-1.93","3978","approach_avoid_sv1","""event"",""trial"",""time""
""focus"",""0"",""1""
""fullscreenenter"",""1"",""1395""
","
","""event"",""trial"",""time""
""focus"",""0"",""1""
","""event"",""trial"",""time""
""fullscreenenter"",""1"",""1395""
","
","","","","","","822","images/cactus2.png","","","memory_trial","4","definitely_new",""
"html-keyboard-response","235","451417","0.0-18.0-0.94","3978","approach_avoid_sv1","""event"",""trial"",""time""
""focus"",""0"",""1""
""fullscreenenter"",""1"",""1395""
","
","""event"",""trial"",""time""
""focus"",""0"",""1""
","""event"",""trial"",""time""
""fullscreenenter"",""1"",""1395""
","
","","","","","","null","<div style=""font-size:60px;"">+</div>","null","","fixation","","",""
"memory-trial","236","453122","0.0-18.0-1.94","3978","approach_avoid_sv1","""event"",""trial"",""time""
""focus"",""0"",""1""
""fullscreenenter"",""1"",""1395""
","
","""event"",""trial"",""time""
""focus"",""0"",""1""
","""event"",""trial"",""time""
""fullscreenenter"",""1"",""1395""
","
","","","","","","703","images/horse3.png","","","memory_trial","4","definitely_new",""
"html-keyboard-response","237","453625","0.0-18.0-0.95","3978","approach_avoid_sv1","""event"",""trial"",""time""
""focus"",""0"",""1""
""fullscreenenter"",""1"",""1395""
","
","""event"",""trial"",""time""
""focus"",""0"",""1""
","""event"",""trial"",""time""
""fullscreenenter"",""1"",""1395""
","
","","","","","","null","<div style=""font-size:60px;"">+</div>","null","","fixation","","",""
"memory-trial","238","455450","0.0-18.0-1.95","3978","approach_avoid_sv1","""event"",""trial"",""time""
""focus"",""0"",""1""
""fullscreenenter"",""1"",""1395""
","
","""event"",""trial"",""time""
""focus"",""0"",""1""
","""event"",""trial"",""time""
""fullscreenenter"",""1"",""1395""
","
","","","","","","823","images/rodent6.png","","","memory_trial","4","definitely_new",""
"html-keyboard-response","239","455953","0.0-18.0-0.96","3978","approach_avoid_sv1","""event"",""trial"",""time""
""focus"",""0"",""1""
""fullscreenenter"",""1"",""1395""
","
","""event"",""trial"",""time""
""focus"",""0"",""1""
","""event"",""trial"",""time""
""fullscreenenter"",""1"",""1395""
","
","","","","","","null","<div style=""font-size:60px;"">+</div>","null","","fixation","","",""
"memory-trial","240","457530","0.0-18.0-1.96","3978","approach_avoid_sv1","""event"",""trial"",""time""
""focus"",""0"",""1""
""fullscreenenter"",""1"",""1395""
","
","""event"",""trial"",""time""
""focus"",""0"",""1""
","""event"",""trial"",""time""
""fullscreenenter"",""1"",""1395""
","
","","","","","","576","images/cat7.png","","","memory_trial","4","definitely_new",""
"html-keyboard-response","241","458032","0.0-18.0-0.97","3978","approach_avoid_sv1","""event"",""trial"",""time""
""focus"",""0"",""1""
""fullscreenenter"",""1"",""1395""
","
","""event"",""trial"",""time""
""focus"",""0"",""1""
","""event"",""trial"",""time""
""fullscreenenter"",""1"",""1395""
","
","","","","","","null","<div style=""font-size:60px;"">+</div>","null","","fixation","","",""
"memory-trial","242","459490","0.0-18.0-1.97","3978","approach_avoid_sv1","""event"",""trial"",""time""
""focus"",""0"",""1""
""fullscreenenter"",""1"",""1395""
","
","""event"",""trial"",""time""
""focus"",""0"",""1""
","""event"",""trial"",""time""
""fullscreenenter"",""1"",""1395""
","
","","","","","","456","images/straw4.png","","","memory_trial","4","definitely_new",""
"html-keyboard-response","243","459992","0.0-18.0-0.98","3978","approach_avoid_sv1","""event"",""trial"",""time""
""focus"",""0"",""1""
""fullscreenenter"",""1"",""1395""
","
","""event"",""trial"",""time""
""focus"",""0"",""1""
","""event"",""trial"",""time""
""fullscreenenter"",""1"",""1395""
","
","","","","","","null","<div style=""font-size:60px;"">+</div>","null","","fixation","","",""
"memory-trial","244","461482","0.0-18.0-1.98","3978","approach_avoid_sv1","""event"",""trial"",""time""
""focus"",""0"",""1""
""fullscreenenter"",""1"",""1395""
","
","""event"",""trial"",""time""
""focus"",""0"",""1""
","""event"",""trial"",""time""
""fullscreenenter"",""1"",""1395""
","
","","","","","","488","images/bush4.png","","","memory_trial","4","definitely_new",""
"html-keyboard-response","245","461984","0.0-18.0-0.99","3978","approach_avoid_sv1","""event"",""trial"",""time""
""focus"",""0"",""1""
""fullscreenenter"",""1"",""1395""
","
","""event"",""trial"",""time""
""focus"",""0"",""1""
","""event"",""trial"",""time""
""fullscreenenter"",""1"",""1395""
","
