"trial_type","trial_index","time_elapsed","internal_node_id","subject_id","task_version","interactions","blur_events","focus_events","fullscreenenter_events","fullscreenexit_events","success","timeout","failed_images","failed_audio","failed_video","rt","stimulus","response","button_pressed","task_part","key_press","answer","correct"
"pavlovia","0","2","0.0-0.0","5169","approach_avoid_sv1","""event"",""trial"",""time""
""fullscreenenter"",""1"",""1370""
","
","
","""event"",""trial"",""time""
""fullscreenenter"",""1"",""1370""
","
","","","","","","","","","","","","",""
"fullscreen","1","2349","0.0-1.0","5169","approach_avoid_sv1","""event"",""trial"",""time""
""fullscreenenter"",""1"",""1370""
""fullscreenexit"",""2"",""2505""
","
","
","""event"",""trial"",""time""
""fullscreenenter"",""1"",""1370""
","""event"",""trial"",""time""
""fullscreenexit"",""2"",""2505""
","true","","","","","","","","","","","",""
"preload","2","3732","0.0-2.0","5169","approach_avoid_sv1","""event"",""trial"",""time""
""fullscreenenter"",""1"",""1370""
""fullscreenexit"",""2"",""2505""
","
","
","""event"",""trial"",""time""
""fullscreenenter"",""1"",""1370""
","""event"",""trial"",""time""
""fullscreenexit"",""2"",""2505""
","true","false","[]","[]","[]","","","","","","","",""
"preload","3","4414","0.0-3.0","5169","approach_avoid_sv1","""event"",""trial"",""time""
""fullscreenenter"",""1"",""1370""
""fullscreenexit"",""2"",""2505""
","
","
","""event"",""trial"",""time""
""fullscreenenter"",""1"",""1370""
","""event"",""trial"",""time""
""fullscreenexit"",""2"",""2505""
","true","false","[]","[]","[]","","","","","","","",""
"preload","4","4596","0.0-4.0","5169","approach_avoid_sv1","""event"",""trial"",""time""
""fullscreenenter"",""1"",""1370""
""fullscreenexit"",""2"",""2505""
","
","
","""event"",""trial"",""time""
""fullscreenenter"",""1"",""1370""
","""event"",""trial"",""time""
""fullscreenexit"",""2"",""2505""
","true","false","[]","[]","[]","","","","","","","",""
"audio-keyboard-response","5","7703","0.0-5.0","5169","approach_avoid_sv1","""event"",""trial"",""time""
""fullscreenenter"",""1"",""1370""
""fullscreenexit"",""2"",""2505""
","
","
","""event"",""trial"",""time""
""fullscreenenter"",""1"",""1370""
","""event"",""trial"",""time""
""fullscreenexit"",""2"",""2505""
","","","","","","3109.3333333333335","audio/beep_loop.wav"," ","","","","",""
"audio-button-response","6","9194","0.0-6.0","5169","approach_avoid_sv1","""event"",""trial"",""time""
""fullscreenenter"",""1"",""1370""
""fullscreenexit"",""2"",""2505""
","
","
","""event"",""trial"",""time""
""fullscreenenter"",""1"",""1370""
","""event"",""trial"",""time""
""fullscreenexit"",""2"",""2505""
","","","","","","1491","audio/turtle.wav","3","","","","",""
"audio-button-response","7","11346","0.0-7.0","5169","approach_avoid_sv1","""event"",""trial"",""time""
""fullscreenenter"",""1"",""1370""
""fullscreenexit"",""2"",""2505""
","
","
","""event"",""trial"",""time""
""fullscreenenter"",""1"",""1370""
","""event"",""trial"",""time""
""fullscreenexit"",""2"",""2505""
","","","","","","1139","audio/shark.wav","2","","","","",""
"preload","8","13987","0.0-8.0","5169","approach_avoid_sv1","""event"",""trial"",""time""
""fullscreenenter"",""1"",""1370""
""fullscreenexit"",""2"",""2505""
","
","
","""event"",""trial"",""time""
""fullscreenenter"",""1"",""1370""
","""event"",""trial"",""time""
""fullscreenexit"",""2"",""2505""
","true","false","[]","[]","[]","","","","","","","",""
"learning-instructions","9","21874","0.0-9.0-0.0","5169","approach_avoid_sv1","""event"",""trial"",""time""
""fullscreenenter"",""1"",""1370""
""fullscreenexit"",""2"",""2505""
","
","
","""event"",""trial"",""time""
""fullscreenenter"",""1"",""1370""
","""event"",""trial"",""time""
""fullscreenexit"",""2"",""2505""
","","","","","","3414.0999999046326","<p> Welcome back! </p><p> Last week, you had to make choices about lots of different items.  </p>","","0","instructions","","",""
"learning-instructions","10","27842","0.0-9.0-0.1","5169","approach_avoid_sv1","""event"",""trial"",""time""
""fullscreenenter"",""1"",""1370""
""fullscreenexit"",""2"",""2505""
","
","
","""event"",""trial"",""time""
""fullscreenenter"",""1"",""1370""
","""event"",""trial"",""time""
""fullscreenexit"",""2"",""2505""
","","","","","","1842.1999998092651","<p> Today, we are going to ask you to try to remember all the items. </p>","","0","instructions","","",""
"learning-instructions","11","41345","0.0-9.0-0.2","5169","approach_avoid_sv1","""event"",""trial"",""time""
""fullscreenenter"",""1"",""1370""
""fullscreenexit"",""2"",""2505""
","
","
","""event"",""trial"",""time""
""fullscreenenter"",""1"",""1370""
","""event"",""trial"",""time""
""fullscreenexit"",""2"",""2505""
","","","","","","3355.7999997138977","<p> On every trial, you will see an image. </p><p> The image may be an OLD image you saw during the games last week or it may be a NEW image that was not presented. </p>","","0","instructions","","",""
"learning-instructions","12","55179","0.0-9.0-0.3","5169","approach_avoid_sv1","""event"",""trial"",""time""
""fullscreenenter"",""1"",""1370""
""fullscreenexit"",""2"",""2505""
","
","
","""event"",""trial"",""time""
""fullscreenenter"",""1"",""1370""
","""event"",""trial"",""time""
""fullscreenexit"",""2"",""2505""
","","","","","","5328.800000190735","<p> You need to select whether the image is:  </p><p>  'Definitely old', 'Maybe old', 'Maybe new', or 'Definitely new.'  </p><div class=""mem-choice-instructions-grid""><div class=""choice-option"" id=""choice-option-1"" ><img src=""images/definitely_old_1.png"" id=""choice-option-img-1"" class=""choice-option-img"" stage=""1""></div><div class=""choice-option"" id=""choice-option-2"" ><img src=""images/maybe_old_1.png"" id=""choice-option-img-2"" class=""choice-option-img"" stage=""1""></div><div class=""choice-option"" id=""choice-option-3"" ><img src=""images/maybe_new_1.png"" id=""choice-option-img-3"" class=""choice-option-img"" stage=""1""></div><div class=""choice-option"" id=""choice-option-4"" > <img src=""images/definitely_new_1.png"" id=""choice-option-img-4"" class=""choice-option-img"" stage=""1""></div></div>","","0","instructions","","",""
"learning-instructions","13","63297","0.0-9.0-0.4","5169","approach_avoid_sv1","""event"",""trial"",""time""
""fullscreenenter"",""1"",""1370""
""fullscreenexit"",""2"",""2505""
","
","
","""event"",""trial"",""time""
""fullscreenenter"",""1"",""1370""
","""event"",""trial"",""time""
""fullscreenexit"",""2"",""2505""
","","","","","","1588","<p> You should use the 1, 2, 3, and 4 keys to make your responses.  </p><div class=""mem-choice-instructions-grid""><div class=""choice-option"" id=""choice-option-1"" ><img src=""images/definitely_old.png"" id=""choice-option-img-1"" class=""choice-option-img"" stage=""1""></div><div class=""choice-option"" id=""choice-option-2"" ><img src=""images/maybe_old.png"" id=""choice-option-img-2"" class=""choice-option-img"" stage=""1""></div><div class=""choice-option"" id=""choice-option-3"" ><img src=""images/maybe_new.png"" id=""choice-option-img-3"" class=""choice-option-img"" stage=""1""></div><div class=""choice-option"" id=""choice-option-4"" > <img src=""images/definitely_new.png"" id=""choice-option-img-4"" class=""choice-option-img"" stage=""1""></div></div>","","0","instructions","","",""
"learning-instructions","14","71185","0.0-9.0-0.5","5169","approach_avoid_sv1","""event"",""trial"",""time""
""fullscreenenter"",""1"",""1370""
""fullscreenexit"",""2"",""2505""
","
","
","""event"",""trial"",""time""
""fullscreenenter"",""1"",""1370""
","""event"",""trial"",""time""
""fullscreenexit"",""2"",""2505""
","","","","","","1546.1999998092651","<p> You will have 10 seconds to make each response.  </p><p>  Make sure to respond before time runs out! </p>","","0","instructions","","",""
"learning-instructions","15","80009","0.0-9.0-0.6","5169","approach_avoid_sv1","""event"",""trial"",""time""
""fullscreenenter"",""1"",""1370""
""fullscreenexit"",""2"",""2505""
","
","
","""event"",""trial"",""time""
""fullscreenenter"",""1"",""1370""
","""event"",""trial"",""time""
""fullscreenexit"",""2"",""2505""
","","","","","","1739.9000000953674","<p> Today, you will see each image ONCE only.  </p><p>  That means none of the images will repeat. </p>","","0","instructions","","",""
"learning-instructions","16","96698","0.0-9.0-0.7","5169","approach_avoid_sv1","""event"",""trial"",""time""
""fullscreenenter"",""1"",""1370""
""fullscreenexit"",""2"",""2505""
","
","
","""event"",""trial"",""time""
""fullscreenenter"",""1"",""1370""
","""event"",""trial"",""time""
""fullscreenexit"",""2"",""2505""
","","","","","","4008.5999999046326","<p> Before you play the real game, it is time to practice. </p><p>  Just like in the real game, some of the images in the practice will be ones you have seen before. </p><p>  Others will be entirely new. </p>","","0","instructions","","",""
"html-button-response","17","99905","0.0-10.0","5169","approach_avoid_sv1","""event"",""trial"",""time""
""fullscreenenter"",""1"",""1370""
""fullscreenexit"",""2"",""2505""
","
","
","""event"",""trial"",""time""
""fullscreenenter"",""1"",""1370""
","""event"",""trial"",""time""
""fullscreenexit"",""2"",""2505""
","","","","","","3105.5","<p> Ready to practice? </p><p> Remember, use the 1, 2, 3, and 4 keys to make your responses. </p>","0","","instructions","","",""
"html-keyboard-response","18","100528","0.0-11.0-0.0","5169","approach_avoid_sv1","""event"",""trial"",""time""
""fullscreenenter"",""1"",""1370""
""fullscreenexit"",""2"",""2505""
","
","
","""event"",""trial"",""time""
""fullscreenenter"",""1"",""1370""
","""event"",""trial"",""time""
""fullscreenexit"",""2"",""2505""
","","","","","","null","<div style=""font-size:60px;"">+</div>","null","","fixation","","",""
"memory-trial","19","106937","0.0-11.0-1.0","5169","approach_avoid_sv1","""event"",""trial"",""time""
""fullscreenenter"",""1"",""1370""
""fullscreenexit"",""2"",""2505""
","
","
","""event"",""trial"",""time""
""fullscreenenter"",""1"",""1370""
","""event"",""trial"",""time""
""fullscreenexit"",""2"",""2505""
","","","","","","5393.700000286102","images/racket3.png","","","practice","4","definitely_new",""
"html-keyboard-response","20","107458","0.0-11.0-0.1","5169","approach_avoid_sv1","""event"",""trial"",""time""
""fullscreenenter"",""1"",""1370""
""fullscreenexit"",""2"",""2505""
","
","
","""event"",""trial"",""time""
""fullscreenenter"",""1"",""1370""
","""event"",""trial"",""time""
""fullscreenexit"",""2"",""2505""
","","","","","","null","<div style=""font-size:60px;"">+</div>","null","","fixation","","",""
"memory-trial","21","111448","0.0-11.0-1.1","5169","approach_avoid_sv1","""event"",""trial"",""time""
""fullscreenenter"",""1"",""1370""
""fullscreenexit"",""2"",""2505""
","
","
","""event"",""trial"",""time""
""fullscreenenter"",""1"",""1370""
","""event"",""trial"",""time""
""fullscreenexit"",""2"",""2505""
","","","","","","2980.0999999046326","images/ball1.png","","","practice","2","maybe_old",""
"html-keyboard-response","22","111968","0.0-11.0-0.2","5169","approach_avoid_sv1","""event"",""trial"",""time""
""fullscreenenter"",""1"",""1370""
""fullscreenexit"",""2"",""2505""
","
","
","""event"",""trial"",""time""
""fullscreenenter"",""1"",""1370""
","""event"",""trial"",""time""
""fullscreenexit"",""2"",""2505""
","","","","","","null","<div style=""font-size:60px;"">+</div>","null","","fixation","","",""
"memory-trial","23","114778","0.0-11.0-1.2","5169","approach_avoid_sv1","""event"",""trial"",""time""
""fullscreenenter"",""1"",""1370""
""fullscreenexit"",""2"",""2505""
","
","
","""event"",""trial"",""time""
""fullscreenenter"",""1"",""1370""
","""event"",""trial"",""time""
""fullscreenexit"",""2"",""2505""
","","","","","","1804.4000000953674","images/racket2.png","","","practice","3","maybe_new",""
"html-keyboard-response","24","115298","0.0-11.0-0.3","5169","approach_avoid_sv1","""event"",""trial"",""time""
""fullscreenenter"",""1"",""1370""
""fullscreenexit"",""2"",""2505""
","
","
","""event"",""trial"",""time""
""fullscreenenter"",""1"",""1370""
","""event"",""trial"",""time""
""fullscreenexit"",""2"",""2505""
","","","","","","null","<div style=""font-size:60px;"">+</div>","null","","fixation","","",""
"memory-trial","25","117558","0.0-11.0-1.3","5169","approach_avoid_sv1","""event"",""trial"",""time""
""fullscreenenter"",""1"",""1370""
""fullscreenexit"",""2"",""2505""
","
","
","""event"",""trial"",""time""
""fullscreenenter"",""1"",""1370""
","""event"",""trial"",""time""
""fullscreenexit"",""2"",""2505""
","","","","","","1250.9000000953674","images/ball2.png","","","practice","2","maybe_old",""
"html-keyboard-response","26","118078","0.0-11.0-0.4","5169","approach_avoid_sv1","""event"",""trial"",""time""
""fullscreenenter"",""1"",""1370""
""fullscreenexit"",""2"",""2505""
","
","
","""event"",""trial"",""time""
""fullscreenenter"",""1"",""1370""
","""event"",""trial"",""time""
""fullscreenexit"",""2"",""2505""
","","","","","","null","<div style=""font-size:60px;"">+</div>","null","","fixation","","",""
"memory-trial","27","119687","0.0-11.0-1.4","5169","approach_avoid_sv1","""event"",""trial"",""time""
""fullscreenenter"",""1"",""1370""
""fullscreenexit"",""2"",""2505""
","
","
","""event"",""trial"",""time""
""fullscreenenter"",""1"",""1370""
","""event"",""trial"",""time""
""fullscreenexit"",""2"",""2505""
","","","","","","599.2000002861023","images/racket5.png","","","practice","1","definitely_old",""
"html-keyboard-response","28","120208","0.0-11.0-0.5","5169","approach_avoid_sv1","""event"",""trial"",""time""
""fullscreenenter"",""1"",""1370""
""fullscreenexit"",""2"",""2505""
","
","
","""event"",""trial"",""time""
""fullscreenenter"",""1"",""1370""
","""event"",""trial"",""time""
""fullscreenexit"",""2"",""2505""
","","","","","","null","<div style=""font-size:60px;"">+</div>","null","","fixation","","",""
"memory-trial","29","121928","0.0-11.0-1.5","5169","approach_avoid_sv1","""event"",""trial"",""time""
""fullscreenenter"",""1"",""1370""
""fullscreenexit"",""2"",""2505""
","
","
","""event"",""trial"",""time""
""fullscreenenter"",""1"",""1370""
","""event"",""trial"",""time""
""fullscreenexit"",""2"",""2505""
","","","","","","709.4000000953674","images/racket1.png","","","practice","4","definitely_new",""
"html-keyboard-response","30","122448","0.0-11.0-0.6","5169","approach_avoid_sv1","""event"",""trial"",""time""
""fullscreenenter"",""1"",""1370""
""fullscreenexit"",""2"",""2505""
","
","
","""event"",""trial"",""time""
""fullscreenenter"",""1"",""1370""
","""event"",""trial"",""time""
""fullscreenexit"",""2"",""2505""
","","","","","","null","<div style=""font-size:60px;"">+</div>","null","","fixation","","",""
"memory-trial","31","123951","0.0-11.0-1.6","5169","approach_avoid_sv1","""event"",""trial"",""time""
""fullscreenenter"",""1"",""1370""
""fullscreenexit"",""2"",""2505""
","
","
","""event"",""trial"",""time""
""fullscreenenter"",""1"",""1370""
","""event"",""trial"",""time""
""fullscreenexit"",""2"",""2505""
","","","","","","501.40000009536743","images/ball5.png","","","practice","1","definitely_old",""
"html-keyboard-response","32","124456","0.0-11.0-0.7","5169","approach_avoid_sv1","""event"",""trial"",""time""
""fullscreenenter"",""1"",""1370""
""fullscreenexit"",""2"",""2505""
","
","
","""event"",""trial"",""time""
""fullscreenenter"",""1"",""1370""
","""event"",""trial"",""time""
""fullscreenexit"",""2"",""2505""
","","","","","","null","<div style=""font-size:60px;"">+</div>","null","","fixation","","",""
"memory-trial","33","126344","0.0-11.0-1.7","5169","approach_avoid_sv1","""event"",""trial"",""time""
""fullscreenenter"",""1"",""1370""
""fullscreenexit"",""2"",""2505""
","
","
","""event"",""trial"",""time""
""fullscreenenter"",""1"",""1370""
","""event"",""trial"",""time""
""fullscreenexit"",""2"",""2505""
","","","","","","885.5999999046326","images/ball3.png","","","practice","3","maybe_new",""
"learning-instructions","34","136154","0.0-12.0-0.0","5169","approach_avoid_sv1","""event"",""trial"",""time""
""fullscreenenter"",""1"",""1370""
""fullscreenexit"",""2"",""2505""
","
","
","""event"",""trial"",""time""
""fullscreenenter"",""1"",""1370""
","""event"",""trial"",""time""
""fullscreenexit"",""2"",""2505""
","","","","","","2506.4000000953674","<p> Great! You have completed the practice. </p><p> Before you start, we're going to ask you a few questions about how the game works.  </p>","","0","instructions","","",""
"preload","35","137504","0.0-13.0","5169","approach_avoid_sv1","""event"",""trial"",""time""
""fullscreenenter"",""1"",""1370""
""fullscreenexit"",""2"",""2505""
","
","
","""event"",""trial"",""time""
""fullscreenenter"",""1"",""1370""
","""event"",""trial"",""time""
""fullscreenexit"",""2"",""2505""
","true","false","[]","[]","[]","","","","","","","",""
"comp-q","36","144538","0.0-14.0-0.0","5169","approach_avoid_sv1","""event"",""trial"",""time""
""fullscreenenter"",""1"",""1370""
""fullscreenexit"",""2"",""2505""
","
","
","""event"",""trial"",""time""
""fullscreenenter"",""1"",""1370""
","""event"",""trial"",""time""
""fullscreenexit"",""2"",""2505""
","","","","","","1210.3000001907349","<p> <b> True or False? </b> </p><p> In this game, you will only see each image once. </p>","","0","comp_question","","","true"
"comp-q","37","157090","0.0-14.0-1.0","5169","approach_avoid_sv1","""event"",""trial"",""time""
""fullscreenenter"",""1"",""1370""
""fullscreenexit"",""2"",""2505""
","
","
","""event"",""trial"",""time""
""fullscreenenter"",""1"",""1370""
","""event"",""trial"",""time""
""fullscreenexit"",""2"",""2505""
","","","","","","6213","<p> <b> That's right! </b> You will see many different images <i> one time each </i> in this game. </p>","","0","comp_answer","","",""
"comp-q","38","163866","0.0-15.0-0.0","5169","approach_avoid_sv1","""event"",""trial"",""time""
""fullscreenenter"",""1"",""1370""
""fullscreenexit"",""2"",""2505""
","
","
","""event"",""trial"",""time""
""fullscreenenter"",""1"",""1370""
","""event"",""trial"",""time""
""fullscreenexit"",""2"",""2505""
","","","","","","1759.4000000953674","<p> <b> True or False? </b> </p><p> You should use the mouse and click to make your response. </p>","","1","comp_question","","","true"
"comp-q","39","171346","0.0-15.0-1.0","5169","approach_avoid_sv1","""event"",""trial"",""time""
""fullscreenenter"",""1"",""1370""
""fullscreenexit"",""2"",""2505""
","
","
","""event"",""trial"",""time""
""fullscreenenter"",""1"",""1370""
","""event"",""trial"",""time""
""fullscreenexit"",""2"",""2505""
","","","","","","968.6000003814697","<p><b> That's right! </b> You should use the '1', '2', '3', and '4' keys to make your response. </p>","","0","comp_answer","","",""
"comp-q","40","178514","0.0-16.0-0.0","5169","approach_avoid_sv1","""event"",""trial"",""time""
""fullscreenenter"",""1"",""1370""
""fullscreenexit"",""2"",""2505""
","
","
","""event"",""trial"",""time""
""fullscreenenter"",""1"",""1370""
","""event"",""trial"",""time""
""fullscreenexit"",""2"",""2505""
","","","","","","1477.0999999046326","<p> <b> True or False? </b> </p><p> You will have as much time as you want to make each choice. </p>","","1","comp_question","","","true"
"comp-q","41","184098","0.0-16.0-1.0","5169","approach_avoid_sv1","""event"",""trial"",""time""
""fullscreenenter"",""1"",""1370""
""fullscreenexit"",""2"",""2505""
","
","
","""event"",""trial"",""time""
""fullscreenenter"",""1"",""1370""
","""event"",""trial"",""time""
""fullscreenexit"",""2"",""2505""
","","","","","","870.1999998092651","<p> <b> That's right! </b> You will only have 10 seconds to make each choice. </p>","","0","comp_answer","","",""
"learning-instructions","42","194162","0.0-17.0","5169","approach_avoid_sv1","""event"",""trial"",""time""
""fullscreenenter"",""1"",""1370""
""fullscreenexit"",""2"",""2505""
","
","
","""event"",""trial"",""time""
""fullscreenenter"",""1"",""1370""
","""event"",""trial"",""time""
""fullscreenexit"",""2"",""2505""
","","","","","","1374.7999997138977","<p> Great! You are now ready to begin the game. </p><p> Remember, use the 1, 2, 3, and 4 keys to make your responses. </p>","","0","instructions","","",""
"html-keyboard-response","43","194796","0.0-18.0-0.0","5169","approach_avoid_sv1","""event"",""trial"",""time""
""fullscreenenter"",""1"",""1370""
""fullscreenexit"",""2"",""2505""
","
","
","""event"",""trial"",""time""
""fullscreenenter"",""1"",""1370""
","""event"",""trial"",""time""
""fullscreenexit"",""2"",""2505""
","","","","","","null","<div style=""font-size:60px;"">+</div>","null","","fixation","","",""
"memory-trial","44","198176","0.0-18.0-1.0","5169","approach_avoid_sv1","""event"",""trial"",""time""
""fullscreenenter"",""1"",""1370""
""fullscreenexit"",""2"",""2505""
","
","
","""event"",""trial"",""time""
""fullscreenenter"",""1"",""1370""
","""event"",""trial"",""time""
""fullscreenexit"",""2"",""2505""
","","","","","","2357.0999999046326","images/tree8.png","","","memory_trial","4","definitely_new",""
"html-keyboard-response","45","198681","0.0-18.0-0.1","5169","approach_avoid_sv1","""event"",""trial"",""time""
""fullscreenenter"",""1"",""1370""
""fullscreenexit"",""2"",""2505""
","
","
","""event"",""trial"",""time""
""fullscreenenter"",""1"",""1370""
","""event"",""trial"",""time""
""fullscreenexit"",""2"",""2505""
","","","","","","null","<div style=""font-size:60px;"">+</div>","null","","fixation","","",""
"memory-trial","46","200776","0.0-18.0-1.1","5169","approach_avoid_sv1","""event"",""trial"",""time""
""fullscreenenter"",""1"",""1370""
""fullscreenexit"",""2"",""2505""
","
","
","""event"",""trial"",""time""
""fullscreenenter"",""1"",""1370""
","""event"",""trial"",""time""
""fullscreenexit"",""2"",""2505""
","","","","","","1072.3000001907349","images/dog2.png","","","memory_trial","2","maybe_old",""
"html-keyboard-response","47","201296","0.0-18.0-0.2","5169","approach_avoid_sv1","""event"",""trial"",""time""
""fullscreenenter"",""1"",""1370""
""fullscreenexit"",""2"",""2505""
","
","
","""event"",""trial"",""time""
""fullscreenenter"",""1"",""1370""
","""event"",""trial"",""time""
""fullscreenexit"",""2"",""2505""
","","","","","","null","<div style=""font-size:60px;"">+</div>","null","","fixation","","",""
"memory-trial","48","204266","0.0-18.0-1.2","5169","approach_avoid_sv1","""event"",""trial"",""time""
""fullscreenenter"",""1"",""1370""
""fullscreenexit"",""2"",""2505""
","
","
","""event"",""trial"",""time""
""fullscreenenter"",""1"",""1370""
","""event"",""trial"",""time""
""fullscreenexit"",""2"",""2505""
","","","","","","1953.5999999046326","images/flower6.png","","","memory_trial","4","definitely_new",""
"html-keyboard-response","49","204786","0.0-18.0-0.3","5169","approach_avoid_sv1","""event"",""trial"",""time""
""fullscreenenter"",""1"",""1370""
""fullscreenexit"",""2"",""2505""
","
","
","""event"",""trial"",""time""
""fullscreenenter"",""1"",""1370""
","""event"",""trial"",""time""
""fullscreenexit"",""2"",""2505""
","","","","","","null","<div style=""font-size:60px;"">+</div>","null","","fixation","","",""
"memory-trial","50","209916","0.0-18.0-1.3","5169","approach_avoid_sv1","""event"",""trial"",""time""
""fullscreenenter"",""1"",""1370""
""fullscreenexit"",""2"",""2505""
","
","
","""event"",""trial"",""time""
""fullscreenenter"",""1"",""1370""
","""event"",""trial"",""time""
""fullscreenexit"",""2"",""2505""
","","","","","","4112.799999713898","images/rabbit5.png","","","memory_trial","3","maybe_new",""
"html-keyboard-response","51","210436","0.0-18.0-0.4","5169","approach_avoid_sv1","""event"",""trial"",""time""
""fullscreenenter"",""1"",""1370""
""fullscreenexit"",""2"",""2505""
","
","
","""event"",""trial"",""time""
""fullscreenenter"",""1"",""1370""
","""event"",""trial"",""time""
""fullscreenexit"",""2"",""2505""
","","","","","","null","<div style=""font-size:60px;"">+</div>","null","","fixation","","",""
"memory-trial","52","213540","0.0-18.0-1.4","5169","approach_avoid_sv1","""event"",""trial"",""time""
""fullscreenenter"",""1"",""1370""
""fullscreenexit"",""2"",""2505""
","
","
","""event"",""trial"",""time""
""fullscreenenter"",""1"",""1370""
","""event"",""trial"",""time""
""fullscreenexit"",""2"",""2505""
","","","","","","2085.9000000953674","images/chair6.png","","","memory_trial","4","definitely_new",""
"html-keyboard-response","53","214066","0.0-18.0-0.5","5169","approach_avoid_sv1","""event"",""trial"",""time""
""fullscreenenter"",""1"",""1370""
""fullscreenexit"",""2"",""2505""
","
","
","""event"",""trial"",""time""
""fullscreenenter"",""1"",""1370""
","""event"",""trial"",""time""
""fullscreenexit"",""2"",""2505""
","","","","","","null","<div style=""font-size:60px;"">+</div>","null","","fixation","","",""
"memory-trial","54","217996","0.0-18.0-1.5","5169","approach_avoid_sv1","""event"",""trial"",""time""
""fullscreenenter"",""1"",""1370""
""fullscreenexit"",""2"",""2505""
","
","
","""event"",""trial"",""time""
""fullscreenenter"",""1"",""1370""
","""event"",""trial"",""time""
""fullscreenexit"",""2"",""2505""
","","","","","","2905","images/rabbit8.png","","","memory_trial","4","definitely_new",""
"html-keyboard-response","55","218516","0.0-18.0-0.6","5169","approach_avoid_sv1","""event"",""trial"",""time""
""fullscreenenter"",""1"",""1370""
""fullscreenexit"",""2"",""2505""
","
","
","""event"",""trial"",""time""
""fullscreenenter"",""1"",""1370""
","""event"",""trial"",""time""
""fullscreenexit"",""2"",""2505""
","","","","","","null","<div style=""font-size:60px;"">+</div>","null","","fixation","","",""
"memory-trial","56","221256","0.0-18.0-1.6","5169","approach_avoid_sv1","""event"",""trial"",""time""
""fullscreenenter"",""1"",""1370""
""fullscreenexit"",""2"",""2505""
","
","
","""event"",""trial"",""time""
""fullscreenenter"",""1"",""1370""
","""event"",""trial"",""time""
""fullscreenexit"",""2"",""2505""
","","","","","","1719.5","images/orange7.png","","","memory_trial","4","definitely_new",""
"html-keyboard-response","57","221777","0.0-18.0-0.7","5169","approach_avoid_sv1","""event"",""trial"",""time""
""fullscreenenter"",""1"",""1370""
""fullscreenexit"",""2"",""2505""
","
","
","""event"",""trial"",""time""
""fullscreenenter"",""1"",""1370""
","""event"",""trial"",""time""
""fullscreenexit"",""2"",""2505""
","","","","","","null","<div style=""font-size:60px;"">+</div>","null","","fixation","","",""
"memory-trial","58","223823","0.0-18.0-1.7","5169","approach_avoid_sv1","""event"",""trial"",""time""
""fullscreenenter"",""1"",""1370""
""fullscreenexit"",""2"",""2505""
","
","
","""event"",""trial"",""time""
""fullscreenenter"",""1"",""1370""
","""event"",""trial"",""time""
""fullscreenexit"",""2"",""2505""
","","","","","","1042.4000000953674","images/orange3.png","","","memory_trial","4","definitely_new",""
"html-keyboard-response","59","224328","0.0-18.0-0.8","5169","approach_avoid_sv1","""event"",""trial"",""time""
""fullscreenenter"",""1"",""1370""
""fullscreenexit"",""2"",""2505""
","
","
","""event"",""trial"",""time""
""fullscreenenter"",""1"",""1370""
","""event"",""trial"",""time""
""fullscreenexit"",""2"",""2505""
","","","","","","null","<div style=""font-size:60px;"">+</div>","null","","fixation","","",""
"memory-trial","60","226201","0.0-18.0-1.8","5169","approach_avoid_sv1","""event"",""trial"",""time""
""fullscreenenter"",""1"",""1370""
""fullscreenexit"",""2"",""2505""
","
","
","""event"",""trial"",""time""
""fullscreenenter"",""1"",""1370""
","""event"",""trial"",""time""
""fullscreenexit"",""2"",""2505""
","","","","","","860","images/bush3.png","","","memory_trial","2","maybe_old",""
"html-keyboard-response","61","226703","0.0-18.0-0.9","5169","approach_avoid_sv1","""event"",""trial"",""time""
""fullscreenenter"",""1"",""1370""
""fullscreenexit"",""2"",""2505""
","
","
","""event"",""trial"",""time""
""fullscreenenter"",""1"",""1370""
","""event"",""trial"",""time""
""fullscreenexit"",""2"",""2505""
","","","","","","null","<div style=""font-size:60px;"">+</div>","null","","fixation","","",""
"memory-trial","62","228377","0.0-18.0-1.9","5169","approach_avoid_sv1","""event"",""trial"",""time""
""fullscreenenter"",""1"",""1370""
""fullscreenexit"",""2"",""2505""
","
","
","""event"",""trial"",""time""
""fullscreenenter"",""1"",""1370""
","""event"",""trial"",""time""
""fullscreenexit"",""2"",""2505""
","","","","","","669.5999999046326","images/cow3.png","","","memory_trial","1","definitely_old",""
"html-keyboard-response","63","228890","0.0-18.0-0.10","5169","approach_avoid_sv1","""event"",""trial"",""time""
""fullscreenenter"",""1"",""1370""
""fullscreenexit"",""2"",""2505""
","
","
","""event"",""trial"",""time""
""fullscreenenter"",""1"",""1370""
","""event"",""trial"",""time""
""fullscreenexit"",""2"",""2505""
","","","","","","null","<div style=""font-size:60px;"">+</div>","null","","fixation","","",""
"memory-trial","64","230656","0.0-18.0-1.10","5169","approach_avoid_sv1","""event"",""trial"",""time""
""fullscreenenter"",""1"",""1370""
""fullscreenexit"",""2"",""2505""
","
","
","""event"",""trial"",""time""
""fullscreenenter"",""1"",""1370""
","""event"",""trial"",""time""
""fullscreenexit"",""2"",""2505""
","","","","","","756.4000000953674","images/table4.png","","","memory_trial","3","maybe_new",""
"html-keyboard-response","65","231160","0.0-18.0-0.11","5169","approach_avoid_sv1","""event"",""trial"",""time""
""fullscreenenter"",""1"",""1370""
""fullscreenexit"",""2"",""2505""
","
","
","""event"",""trial"",""time""
""fullscreenenter"",""1"",""1370""
","""event"",""trial"",""time""
""fullscreenexit"",""2"",""2505""
","","","","","","null","<div style=""font-size:60px;"">+</div>","null","","fixation","","",""
"memory-trial","66","232888","0.0-18.0-1.11","5169","approach_avoid_sv1","""event"",""trial"",""time""
""fullscreenenter"",""1"",""1370""
""fullscreenexit"",""2"",""2505""
","
","
","""event"",""trial"",""time""
""fullscreenenter"",""1"",""1370""
","""event"",""trial"",""time""
""fullscreenexit"",""2"",""2505""
","","","","","","725.3000001907349","images/cow6.png","","","memory_trial","3","maybe_new",""
"html-keyboard-response","67","233394","0.0-18.0-0.12","5169","approach_avoid_sv1","""event"",""trial"",""time""
""fullscreenenter"",""1"",""1370""
""fullscreenexit"",""2"",""2505""
","
","
","""event"",""trial"",""time""
""fullscreenenter"",""1"",""1370""
","""event"",""trial"",""time""
""fullscreenexit"",""2"",""2505""
","","","","","","null","<div style=""font-size:60px;"">+</div>","null","","fixation","","",""
"memory-trial","68","235368","0.0-18.0-1.12","5169","approach_avoid_sv1","""event"",""trial"",""time""
""fullscreenenter"",""1"",""1370""
""fullscreenexit"",""2"",""2505""
","
","
","""event"",""trial"",""time""
""fullscreenenter"",""1"",""1370""
","""event"",""trial"",""time""
""fullscreenexit"",""2"",""2505""
","","","","","","972.6999998092651","images/sheep2.png","","","memory_trial","1","definitely_old",""
"html-keyboard-response","69","235872","0.0-18.0-0.13","5169","approach_avoid_sv1","""event"",""trial"",""time""
""fullscreenenter"",""1"",""1370""
""fullscreenexit"",""2"",""2505""
","
","
","""event"",""trial"",""time""
""fullscreenenter"",""1"",""1370""
","""event"",""trial"",""time""
""fullscreenexit"",""2"",""2505""
","","","","","","null","<div style=""font-size:60px;"">+</div>","null","","fixation","","",""
"memory-trial","70","238336","0.0-18.0-1.13","5169","approach_avoid_sv1","""event"",""trial"",""time""
""fullscreenenter"",""1"",""1370""
""fullscreenexit"",""2"",""2505""
","
","
","""event"",""trial"",""time""
""fullscreenenter"",""1"",""1370""
","""event"",""trial"",""time""
""fullscreenexit"",""2"",""2505""
","","","","","","1455","images/chair4.png","","","memory_trial","1","definitely_old",""
"html-keyboard-response","71","238841","0.0-18.0-0.14","5169","approach_avoid_sv1","""event"",""trial"",""time""
""fullscreenenter"",""1"",""1370""
""fullscreenexit"",""2"",""2505""
","
","
","""event"",""trial"",""time""
""fullscreenenter"",""1"",""1370""
","""event"",""trial"",""time""
""fullscreenexit"",""2"",""2505""
","","","","","","null","<div style=""font-size:60px;"">+</div>","null","","fixation","","",""
"memory-trial","72","240689","0.0-18.0-1.14","5169","approach_avoid_sv1","""event"",""trial"",""time""
""fullscreenenter"",""1"",""1370""
""fullscreenexit"",""2"",""2505""
","
","
","""event"",""trial"",""time""
""fullscreenenter"",""1"",""1370""
","""event"",""trial"",""time""
""fullscreenexit"",""2"",""2505""
","","","","","","845.5999999046326","images/sofa3.png","","","memory_trial","4","definitely_new",""
"html-keyboard-response","73","241192","0.0-18.0-0.15","5169","approach_avoid_sv1","""event"",""trial"",""time""
""fullscreenenter"",""1"",""1370""
""fullscreenexit"",""2"",""2505""
","
","
","""event"",""trial"",""time""
""fullscreenenter"",""1"",""1370""
","""event"",""trial"",""time""
""fullscreenexit"",""2"",""2505""
","","","","","","null","<div style=""font-size:60px;"">+</div>","null","","fixation","","",""
"memory-trial","74","242847","0.0-18.0-1.15","5169","approach_avoid_sv1","""event"",""trial"",""time""
""fullscreenenter"",""1"",""1370""
""fullscreenexit"",""2"",""2505""
","
","
","""event"",""trial"",""time""
""fullscreenenter"",""1"",""1370""
","""event"",""trial"",""time""
""fullscreenexit"",""2"",""2505""
","","","","","","645.3000001907349","images/bush7.png","","","memory_trial","4","definitely_new",""
"html-keyboard-response","75","243353","0.0-18.0-0.16","5169","approach_avoid_sv1","""event"",""trial"",""time""
""fullscreenenter"",""1"",""1370""
""fullscreenexit"",""2"",""2505""
","
","
","""event"",""trial"",""time""
""fullscreenenter"",""1"",""1370""
","""event"",""trial"",""time""
""fullscreenexit"",""2"",""2505""
","","","","","","null","<div style=""font-size:60px;"">+</div>","null","","fixation","","",""
"memory-trial","76","244705","0.0-18.0-1.16","5169","approach_avoid_sv1","""event"",""trial"",""time""
""fullscreenenter"",""1"",""1370""
""fullscreenexit"",""2"",""2505""
","
","
","""event"",""trial"",""time""
""fullscreenenter"",""1"",""1370""
","""event"",""trial"",""time""
""fullscreenexit"",""2"",""2505""
","","","","","","343.09999990463257","images/bush5.png","","","memory_trial","4","definitely_new",""
"html-keyboard-response","77","245208","0.0-18.0-0.17","5169","approach_avoid_sv1","""event"",""trial"",""time""
""fullscreenenter"",""1"",""1370""
""fullscreenexit"",""2"",""2505""
","
","
","""event"",""trial"",""time""
""fullscreenenter"",""1"",""1370""
","""event"",""trial"",""time""
""fullscreenexit"",""2"",""2505""
","","","","","","null","<div style=""font-size:60px;"">+</div>","null","","fixation","","",""
"memory-trial","78","247920","0.0-18.0-1.17","5169","approach_avoid_sv1","""event"",""trial"",""time""
""fullscreenenter"",""1"",""1370""
""fullscreenexit"",""2"",""2505""
","
","
","""event"",""trial"",""time""
""fullscreenenter"",""1"",""1370""
","""event"",""trial"",""time""
""fullscreenexit"",""2"",""2505""
","","","","","","1703.1999998092651","images/cat8.png","","","memory_trial","1","definitely_old",""
"html-keyboard-response","79","248424","0.0-18.0-0.18","5169","approach_avoid_sv1","""event"",""trial"",""time""
""fullscreenenter"",""1"",""1370""
""fullscreenexit"",""2"",""2505""
","
","
","""event"",""trial"",""time""
""fullscreenenter"",""1"",""1370""
","""event"",""trial"",""time""
""fullscreenexit"",""2"",""2505""
","","","","","","null","<div style=""font-size:60px;"">+</div>","null","","fixation","","",""
"memory-trial","80","250455","0.0-18.0-1.18","5169","approach_avoid_sv1","""event"",""trial"",""time""
""fullscreenenter"",""1"",""1370""
""fullscreenexit"",""2"",""2505""
","
","
","""event"",""trial"",""time""
""fullscreenenter"",""1"",""1370""
","""event"",""trial"",""time""
""fullscreenexit"",""2"",""2505""
","","","","","","1016.5","images/truck3.png","","","memory_trial","4","definitely_new",""
"html-keyboard-response","81","250960","0.0-18.0-0.19","5169","approach_avoid_sv1","""event"",""trial"",""time""
""fullscreenenter"",""1"",""1370""
""fullscreenexit"",""2"",""2505""
","
","
","""event"",""trial"",""time""
""fullscreenenter"",""1"",""1370""
","""event"",""trial"",""time""
""fullscreenexit"",""2"",""2505""
","","","","","","null","<div style=""font-size:60px;"">+</div>","null","","fixation","","",""
"memory-trial","82","253065","0.0-18.0-1.19","5169","approach_avoid_sv1","""event"",""trial"",""time""
""fullscreenenter"",""1"",""1370""
""fullscreenexit"",""2"",""2505""
","
","
","""event"",""trial"",""time""
""fullscreenenter"",""1"",""1370""
","""event"",""trial"",""time""
""fullscreenexit"",""2"",""2505""
","","","","","","1096.5","images/orange8.png","","","memory_trial","4","definitely_new",""
"html-keyboard-response","83","253568","0.0-18.0-0.20","5169","approach_avoid_sv1","""event"",""trial"",""time""
""fullscreenenter"",""1"",""1370""
""fullscreenexit"",""2"",""2505""
","
","
","""event"",""trial"",""time""
""fullscreenenter"",""1"",""1370""
","""event"",""trial"",""time""
""fullscreenexit"",""2"",""2505""
","","","","","","null","<div style=""font-size:60px;"">+</div>","null","","fixation","","",""
"memory-trial","84","255441","0.0-18.0-1.20","5169","approach_avoid_sv1","""event"",""trial"",""time""
""fullscreenenter"",""1"",""1370""
""fullscreenexit"",""2"",""2505""
","
","
","""event"",""trial"",""time""
""fullscreenenter"",""1"",""1370""
","""event"",""trial"",""time""
""fullscreenexit"",""2"",""2505""
","","","","","","856.5","images/rodent3.png","","","memory_trial","1","definitely_old",""
"html-keyboard-response","85","255944","0.0-18.0-0.21","5169","approach_avoid_sv1","""event"",""trial"",""time""
""fullscreenenter"",""1"",""1370""
""fullscreenexit"",""2"",""2505""
","
","
","""event"",""trial"",""time""
""fullscreenenter"",""1"",""1370""
","""event"",""trial"",""time""
""fullscreenexit"",""2"",""2505""
","","","","","","null","<div style=""font-size:60px;"">+</div>","null","","fixation","","",""
"memory-trial","86","258872","0.0-18.0-1.21","5169","approach_avoid_sv1","""event"",""trial"",""time""
""fullscreenenter"",""1"",""1370""
""fullscreenexit"",""2"",""2505""
","
","
","""event"",""trial"",""time""
""fullscreenenter"",""1"",""1370""
","""event"",""trial"",""time""
""fullscreenexit"",""2"",""2505""
","","","","","","1921.0999999046326","images/cow1.png","","","memory_trial","2","maybe_old",""
"html-keyboard-response","87","259375","0.0-18.0-0.22","5169","approach_avoid_sv1","""event"",""trial"",""time""
""fullscreenenter"",""1"",""1370""
""fullscreenexit"",""2"",""2505""
","
","
","""event"",""trial"",""time""
""fullscreenenter"",""1"",""1370""
","""event"",""trial"",""time""
""fullscreenexit"",""2"",""2505""
","","","","","","null","<div style=""font-size:60px;"">+</div>","null","","fixation","","",""
"memory-trial","88","261792","0.0-18.0-1.22","5169","approach_avoid_sv1","""event"",""trial"",""time""
""fullscreenenter"",""1"",""1370""
""fullscreenexit"",""2"",""2505""
","
","
","""event"",""trial"",""time""
""fullscreenenter"",""1"",""1370""
","""event"",""trial"",""time""
""fullscreenexit"",""2"",""2505""
","","","","","","1411.1999998092651","images/flower1.png","","","memory_trial","4","definitely_new",""
"html-keyboard-response","89","262297","0.0-18.0-0.23","5169","approach_avoid_sv1","""event"",""trial"",""time""
""fullscreenenter"",""1"",""1370""
""fullscreenexit"",""2"",""2505""
","
","
","""event"",""trial"",""time""
""fullscreenenter"",""1"",""1370""
","""event"",""trial"",""time""
""fullscreenexit"",""2"",""2505""
","","","","","","null","<div style=""font-size:60px;"">+</div>","null","","fixation","","",""
"memory-trial","90","264664","0.0-18.0-1.23","5169","approach_avoid_sv1","""event"",""trial"",""time""
""fullscreenenter"",""1"",""1370""
""fullscreenexit"",""2"",""2505""
","
","
","""event"",""trial"",""time""
""fullscreenenter"",""1"",""1370""
","""event"",""trial"",""time""
""fullscreenexit"",""2"",""2505""
","","","","","","1360.4000000953674","images/goat1.png","","","memory_trial","1","definitely_old",""
"html-keyboard-response","91","265169","0.0-18.0-0.24","5169","approach_avoid_sv1","""event"",""trial"",""time""
""fullscreenenter"",""1"",""1370""
""fullscreenexit"",""2"",""2505""
","
","
","""event"",""trial"",""time""
""fullscreenenter"",""1"",""1370""
","""event"",""trial"",""time""
""fullscreenexit"",""2"",""2505""
","","","","","","null","<div style=""font-size:60px;"">+</div>","null","","fixation","","",""
"memory-trial","92","267416","0.0-18.0-1.24","5169","approach_avoid_sv1","""event"",""trial"",""time""
""fullscreenenter"",""1"",""1370""
""fullscreenexit"",""2"",""2505""
","
","
","""event"",""trial"",""time""
""fullscreenenter"",""1"",""1370""
","""event"",""trial"",""time""
""fullscreenexit"",""2"",""2505""
","","","","","","1242.2000002861023","images/plane2.png","","","memory_trial","4","definitely_new",""
"html-keyboard-response","93","267921","0.0-18.0-0.25","5169","approach_avoid_sv1","""event"",""trial"",""time""
""fullscreenenter"",""1"",""1370""
""fullscreenexit"",""2"",""2505""
","
","
","""event"",""trial"",""time""
""fullscreenenter"",""1"",""1370""
","""event"",""trial"",""time""
""fullscreenexit"",""2"",""2505""
","","","","","","null","<div style=""font-size:60px;"">+</div>","null","","fixation","","",""
"memory-trial","94","269896","0.0-18.0-1.25","5169","approach_avoid_sv1","""event"",""trial"",""time""
""fullscreenenter"",""1"",""1370""
""fullscreenexit"",""2"",""2505""
","
","
","""event"",""trial"",""time""
""fullscreenenter"",""1"",""1370""
","""event"",""trial"",""time""
""fullscreenexit"",""2"",""2505""
","","","","","","969.9000000953674","images/straw2.png","","","memory_trial","2","maybe_old",""
"html-keyboard-response","95","270400","0.0-18.0-0.26","5169","approach_avoid_sv1","""event"",""trial"",""time""
""fullscreenenter"",""1"",""1370""
""fullscreenexit"",""2"",""2505""
","
","
","""event"",""trial"",""time""
""fullscreenenter"",""1"",""1370""
","""event"",""trial"",""time""
""fullscreenexit"",""2"",""2505""
","","","","","","null","<div style=""font-size:60px;"">+</div>","null","","fixation","","",""
"memory-trial","96","272152","0.0-18.0-1.26","5169","approach_avoid_sv1","""event"",""trial"",""time""
""fullscreenenter"",""1"",""1370""
""fullscreenexit"",""2"",""2505""
","
","
","""event"",""trial"",""time""
""fullscreenenter"",""1"",""1370""
","""event"",""trial"",""time""
""fullscreenexit"",""2"",""2505""
","","","","","","746.7000002861023","images/plane8.png","","","memory_trial","3","maybe_new",""
"html-keyboard-response","97","272656","0.0-18.0-0.27","5169","approach_avoid_sv1","""event"",""trial"",""time""
""fullscreenenter"",""1"",""1370""
""fullscreenexit"",""2"",""2505""
","
","
","""event"",""trial"",""time""
""fullscreenenter"",""1"",""1370""
","""event"",""trial"",""time""
""fullscreenexit"",""2"",""2505""
","","","","","","null","<div style=""font-size:60px;"">+</div>","null","","fixation","","",""
"memory-trial","98","274575","0.0-18.0-1.27","5169","approach_avoid_sv1","""event"",""trial"",""time""
""fullscreenenter"",""1"",""1370""
""fullscreenexit"",""2"",""2505""
","
","
","""event"",""trial"",""time""
""fullscreenenter"",""1"",""1370""
","""event"",""trial"",""time""
""fullscreenexit"",""2"",""2505""
","","","","","","916.5","images/horse4.png","","","memory_trial","1","definitely_old",""
"html-keyboard-response","99","275080","0.0-18.0-0.28","5169","approach_avoid_sv1","""event"",""trial"",""time""
""fullscreenenter"",""1"",""1370""
""fullscreenexit"",""2"",""2505""
","
","
","""event"",""trial"",""time""
""fullscreenenter"",""1"",""1370""
","""event"",""trial"",""time""
""fullscreenexit"",""2"",""2505""
","","","","","","null","<div style=""font-size:60px;"">+</div>","null","","fixation","","",""
"memory-trial","100","276808","0.0-18.0-1.28","5169","approach_avoid_sv1","""event"",""trial"",""time""
""fullscreenenter"",""1"",""1370""
""fullscreenexit"",""2"",""2505""
","
","
","""event"",""trial"",""time""
""fullscreenenter"",""1"",""1370""
","""event"",""trial"",""time""
""fullscreenexit"",""2"",""2505""
","","","","","","723.7999997138977","images/straw5.png","","","memory_trial","3","maybe_new",""
"html-keyboard-response","101","277317","0.0-18.0-0.29","5169","approach_avoid_sv1","""event"",""trial"",""time""
""fullscreenenter"",""1"",""1370""
""fullscreenexit"",""2"",""2505""
","
","
","""event"",""trial"",""time""
""fullscreenenter"",""1"",""1370""
","""event"",""trial"",""time""
""fullscreenexit"",""2"",""2505""
","","","","","","null","<div style=""font-size:60px;"">+</div>","null","","fixation","","",""
"memory-trial","102","279498","0.0-18.0-1.29","5169","approach_avoid_sv1","""event"",""trial"",""time""
""fullscreenenter"",""1"",""1370""
""fullscreenexit"",""2"",""2505""
","
","
","""event"",""trial"",""time""
""fullscreenenter"",""1"",""1370""
","""event"",""trial"",""time""
""fullscreenexit"",""2"",""2505""
","","","","","","1175","images/cow2.png","","","memory_trial","1","definitely_old",""
"html-keyboard-response","103","280000","0.0-18.0-0.30","5169","approach_avoid_sv1","""event"",""trial"",""time""
""fullscreenenter"",""1"",""1370""
""fullscreenexit"",""2"",""2505""
","
","
","""event"",""trial"",""time""
""fullscreenenter"",""1"",""1370""
","""event"",""trial"",""time""
""fullscreenexit"",""2"",""2505""
","","","","","","null","<div style=""font-size:60px;"">+</div>","null","","fixation","","",""
"memory-trial","104","281880","0.0-18.0-1.30","5169","approach_avoid_sv1","""event"",""trial"",""time""
""fullscreenenter"",""1"",""1370""
""fullscreenexit"",""2"",""2505""
","
","
","""event"",""trial"",""time""
""fullscreenenter"",""1"",""1370""
","""event"",""trial"",""time""
""fullscreenexit"",""2"",""2505""
","","","","","","877.1999998092651","images/truck6.png","","","memory_trial","1","definitely_old",""
"html-keyboard-response","105","282395","0.0-18.0-0.31","5169","approach_avoid_sv1","""event"",""trial"",""time""
""fullscreenenter"",""1"",""1370""
""fullscreenexit"",""2"",""2505""
","
","
","""event"",""trial"",""time""
""fullscreenenter"",""1"",""1370""
","""event"",""trial"",""time""
""fullscreenexit"",""2"",""2505""
","","","","","","null","<div style=""font-size:60px;"">+</div>","null","","fixation","","",""
"memory-trial","106","284296","0.0-18.0-1.31","5169","approach_avoid_sv1","""event"",""trial"",""time""
""fullscreenenter"",""1"",""1370""
""fullscreenexit"",""2"",""2505""
","
","
","""event"",""trial"",""time""
""fullscreenenter"",""1"",""1370""
","""event"",""trial"",""time""
""fullscreenexit"",""2"",""2505""
","","","","","","899","images/orange2.png","","","memory_trial","4","definitely_new",""
"html-keyboard-response","107","284800","0.0-18.0-0.32","5169","approach_avoid_sv1","""event"",""trial"",""time""
""fullscreenenter"",""1"",""1370""
""fullscreenexit"",""2"",""2505""
","
","
","""event"",""trial"",""time""
""fullscreenenter"",""1"",""1370""
","""event"",""trial"",""time""
""fullscreenexit"",""2"",""2505""
","","","","","","null","<div style=""font-size:60px;"">+</div>","null","","fixation","","",""
"memory-trial","108","286680","0.0-18.0-1.32","5169","approach_avoid_sv1","""event"",""trial"",""time""
""fullscreenenter"",""1"",""1370""
""fullscreenexit"",""2"",""2505""
","
","
","""event"",""trial"",""time""
""fullscreenenter"",""1"",""1370""
","""event"",""trial"",""time""
""fullscreenexit"",""2"",""2505""
","","","","","","876.7000002861023","images/tree2.png","","","memory_trial","1","definitely_old",""
"html-keyboard-response","109","287186","0.0-18.0-0.33","5169","approach_avoid_sv1","""event"",""trial"",""time""
""fullscreenenter"",""1"",""1370""
""fullscreenexit"",""2"",""2505""
","
","
","""event"",""trial"",""time""
""fullscreenenter"",""1"",""1370""
","""event"",""trial"",""time""
""fullscreenexit"",""2"",""2505""
","","","","","","null","<div style=""font-size:60px;"">+</div>","null","","fixation","","",""
"memory-trial","110","288873","0.0-18.0-1.33","5169","approach_avoid_sv1","""event"",""trial"",""time""
""fullscreenenter"",""1"",""1370""
""fullscreenexit"",""2"",""2505""
","
","
","""event"",""trial"",""time""
""fullscreenenter"",""1"",""1370""
","""event"",""trial"",""time""
""fullscreenexit"",""2"",""2505""
","","","","","","675.7000002861023","images/tree3.png","","","memory_trial","1","definitely_old",""
"html-keyboard-response","111","289377","0.0-18.0-0.34","5169","approach_avoid_sv1","""event"",""trial"",""time""
""fullscreenenter"",""1"",""1370""
""fullscreenexit"",""2"",""2505""
","
","
","""event"",""trial"",""time""
""fullscreenenter"",""1"",""1370""
","""event"",""trial"",""time""
""fullscreenexit"",""2"",""2505""
","","","","","","null","<div style=""font-size:60px;"">+</div>","null","","fixation","","",""
"memory-trial","112","291064","0.0-18.0-1.34","5169","approach_avoid_sv1","""event"",""trial"",""time""
""fullscreenenter"",""1"",""1370""
""fullscreenexit"",""2"",""2505""
","
","
","""event"",""trial"",""time""
""fullscreenenter"",""1"",""1370""
","""event"",""trial"",""time""
""fullscreenexit"",""2"",""2505""
","","","","","","677.4000000953674","images/rodent5.png","","","memory_trial","1","definitely_old",""
"html-keyboard-response","113","291568","0.0-18.0-0.35","5169","approach_avoid_sv1","""event"",""trial"",""time""
""fullscreenenter"",""1"",""1370""
""fullscreenexit"",""2"",""2505""
","
","
","""event"",""trial"",""time""
""fullscreenenter"",""1"",""1370""
","""event"",""trial"",""time""
""fullscreenexit"",""2"",""2505""
","","","","","","null","<div style=""font-size:60px;"">+</div>","null","","fixation","","",""
"memory-trial","114","293361","0.0-18.0-1.35","5169","approach_avoid_sv1","""event"",""trial"",""time""
""fullscreenenter"",""1"",""1370""
""fullscreenexit"",""2"",""2505""
","
","
","""event"",""trial"",""time""
""fullscreenenter"",""1"",""1370""
","""event"",""trial"",""time""
""fullscreenexit"",""2"",""2505""
","","","","","","782.4000000953674","images/sofa4.png","","","memory_trial","1","definitely_old",""
"html-keyboard-response","115","293864","0.0-18.0-0.36","5169","approach_avoid_sv1","""event"",""trial"",""time""
""fullscreenenter"",""1"",""1370""
""fullscreenexit"",""2"",""2505""
","
","
","""event"",""trial"",""time""
""fullscreenenter"",""1"",""1370""
","""event"",""trial"",""time""
""fullscreenexit"",""2"",""2505""
","","","","","","null","<div style=""font-size:60px;"">+</div>","null","","fixation","","",""
"memory-trial","116","295489","0.0-18.0-1.36","5169","approach_avoid_sv1","""event"",""trial"",""time""
""fullscreenenter"",""1"",""1370""
""fullscreenexit"",""2"",""2505""
","
","
","""event"",""trial"",""time""
""fullscreenenter"",""1"",""1370""
","""event"",""trial"",""time""
""fullscreenexit"",""2"",""2505""
","","","","","","615","images/rodent4.png","","","memory_trial","1","definitely_old",""
"html-keyboard-response","117","295993","0.0-18.0-0.37","5169","approach_avoid_sv1","""event"",""trial"",""time""
""fullscreenenter"",""1"",""1370""
""fullscreenexit"",""2"",""2505""
","
","
","""event"",""trial"",""time""
""fullscreenenter"",""1"",""1370""
","""event"",""trial"",""time""
""fullscreenexit"",""2"",""2505""
","","","","","","null","<div style=""font-size:60px;"">+</div>","null","","fixation","","",""
"memory-trial","118","297649","0.0-18.0-1.37","5169","approach_avoid_sv1","""event"",""trial"",""time""
""fullscreenenter"",""1"",""1370""
""fullscreenexit"",""2"",""2505""
","
","
","""event"",""trial"",""time""
""fullscreenenter"",""1"",""1370""
","""event"",""trial"",""time""
""fullscreenexit"",""2"",""2505""
","","","","","","638.3000001907349","images/cat5.png","","","memory_trial","1","definitely_old",""
"html-keyboard-response","119","298167","0.0-18.0-0.38","5169","approach_avoid_sv1","""event"",""trial"",""time""
""fullscreenenter"",""1"",""1370""
""fullscreenexit"",""2"",""2505""
","
","
","""event"",""trial"",""time""
""fullscreenenter"",""1"",""1370""
","""event"",""trial"",""time""
""fullscreenexit"",""2"",""2505""
","","","","","","null","<div style=""font-size:60px;"">+</div>","null","","fixation","","",""
"memory-trial","120","299800","0.0-18.0-1.38","5169","approach_avoid_sv1","""event"",""trial"",""time""
""fullscreenenter"",""1"",""1370""
""fullscreenexit"",""2"",""2505""
","
","
","""event"",""trial"",""time""
""fullscreenenter"",""1"",""1370""
","""event"",""trial"",""time""
""fullscreenexit"",""2"",""2505""
","","","","","","624","images/cow5.png","","","memory_trial","1","definitely_old",""
"html-keyboard-response","121","300313","0.0-18.0-0.39","5169","approach_avoid_sv1","""event"",""trial"",""time""
""fullscreenenter"",""1"",""1370""
""fullscreenexit"",""2"",""2505""
","
","
","""event"",""trial"",""time""
""fullscreenenter"",""1"",""1370""
","""event"",""trial"",""time""
""fullscreenexit"",""2"",""2505""
","","","","","","null","<div style=""font-size:60px;"">+</div>","null","","fixation","","",""
"memory-trial","122","301968","0.0-18.0-1.39","5169","approach_avoid_sv1","""event"",""trial"",""time""
""fullscreenenter"",""1"",""1370""
""fullscreenexit"",""2"",""2505""
","
","
","""event"",""trial"",""time""
""fullscreenenter"",""1"",""1370""
","""event"",""trial"",""time""
""fullscreenexit"",""2"",""2505""
","","","","","","646.3000001907349","images/banana4.png","","","memory_trial","4","definitely_new",""
"html-keyboard-response","123","302473","0.0-18.0-0.40","5169","approach_avoid_sv1","""event"",""trial"",""time""
""fullscreenenter"",""1"",""1370""
""fullscreenexit"",""2"",""2505""
","
","
","""event"",""trial"",""time""
""fullscreenenter"",""1"",""1370""
","""event"",""trial"",""time""
""fullscreenexit"",""2"",""2505""
","","","","","","null","<div style=""font-size:60px;"">+</div>","null","","fixation","","",""
"memory-trial","124","304337","0.0-18.0-1.40","5169","approach_avoid_sv1","""event"",""trial"",""time""
""fullscreenenter"",""1"",""1370""
""fullscreenexit"",""2"",""2505""
","
","
","""event"",""trial"",""time""
""fullscreenenter"",""1"",""1370""
","""event"",""trial"",""time""
""fullscreenexit"",""2"",""2505""
","","","","","","854.1999998092651","images/goat3.png","","","memory_trial","1","definitely_old",""
"html-keyboard-response","125","304840","0.0-18.0-0.41","5169","approach_avoid_sv1","""event"",""trial"",""time""
""fullscreenenter"",""1"",""1370""
""fullscreenexit"",""2"",""2505""
","
","
","""event"",""trial"",""time""
""fullscreenenter"",""1"",""1370""
","""event"",""trial"",""time""
""fullscreenexit"",""2"",""2505""
","","","","","","null","<div style=""font-size:60px;"">+</div>","null","","fixation","","",""
"memory-trial","126","306656","0.0-18.0-1.41","5169","approach_avoid_sv1","""event"",""trial"",""time""
""fullscreenenter"",""1"",""1370""
""fullscreenexit"",""2"",""2505""
","
","
","""event"",""trial"",""time""
""fullscreenenter"",""1"",""1370""
","""event"",""trial"",""time""
""fullscreenexit"",""2"",""2505""
","","","","","","808","images/bed5.png","","","memory_trial","4","definitely_new",""
"html-button-response","127","308410","0.0-18.0-2.41-0.41","5169","approach_avoid_sv1","""event"",""trial"",""time""
""fullscreenenter"",""1"",""1370""
""fullscreenexit"",""2"",""2505""
","
","
","""event"",""trial"",""time""
""fullscreenenter"",""1"",""1370""
","""event"",""trial"",""time""
""fullscreenexit"",""2"",""2505""
","","","","","","1753.4000000953674","<p> Take a break! </p><p> Click the button to continue. </p>","0","","break","","",""
"html-keyboard-response","128","308912","0.0-18.0-0.42","5169","approach_avoid_sv1","""event"",""trial"",""time""
""fullscreenenter"",""1"",""1370""
""fullscreenexit"",""2"",""2505""
","
","
","""event"",""trial"",""time""
""fullscreenenter"",""1"",""1370""
","""event"",""trial"",""time""
""fullscreenexit"",""2"",""2505""
","","","","","","null","<div style=""font-size:60px;"">+</div>","null","","fixation","","",""
"memory-trial","129","311884","0.0-18.0-1.42","5169","approach_avoid_sv1","""event"",""trial"",""time""
""fullscreenenter"",""1"",""1370""
""fullscreenexit"",""2"",""2505""
","
","
","""event"",""trial"",""time""
""fullscreenenter"",""1"",""1370""
","""event"",""trial"",""time""
""fullscreenexit"",""2"",""2505""
","","","","","","1960.7999997138977","images/sofa7.png","","","memory_trial","4","definitely_new",""
"html-keyboard-response","130","312392","0.0-18.0-0.43","5169","approach_avoid_sv1","""event"",""trial"",""time""
""fullscreenenter"",""1"",""1370""
""fullscreenexit"",""2"",""2505""
","
","
","""event"",""trial"",""time""
""fullscreenenter"",""1"",""1370""
","""event"",""trial"",""time""
""fullscreenexit"",""2"",""2505""
","","","","","","null","<div style=""font-size:60px;"">+</div>","null","","fixation","","",""
"memory-trial","131","314440","0.0-18.0-1.43","5169","approach_avoid_sv1","""event"",""trial"",""time""
""fullscreenenter"",""1"",""1370""
""fullscreenexit"",""2"",""2505""
","
","
","""event"",""trial"",""time""
""fullscreenenter"",""1"",""1370""
","""event"",""trial"",""time""
""fullscreenexit"",""2"",""2505""
","","","","","","1040","images/truck2.png","","","memory_trial","1","definitely_old",""
"html-keyboard-response","132","314945","0.0-18.0-0.44","5169","approach_avoid_sv1","""event"",""trial"",""time""
""fullscreenenter"",""1"",""1370""
""fullscreenexit"",""2"",""2505""
","
","
","""event"",""trial"",""time""
""fullscreenenter"",""1"",""1370""
","""event"",""trial"",""time""
""fullscreenexit"",""2"",""2505""
","","","","","","null","<div style=""font-size:60px;"">+</div>","null","","fixation","","",""
"memory-trial","133","318104","0.0-18.0-1.44","5169","approach_avoid_sv1","""event"",""trial"",""time""
""fullscreenenter"",""1"",""1370""
""fullscreenexit"",""2"",""2505""
","
","
","""event"",""trial"",""time""
""fullscreenenter"",""1"",""1370""
","""event"",""trial"",""time""
""fullscreenexit"",""2"",""2505""
","","","","","","2153.199999809265","images/apple7.png","","","memory_trial","3","maybe_new",""
"html-keyboard-response","134","318608","0.0-18.0-0.45","5169","approach_avoid_sv1","""event"",""trial"",""time""
""fullscreenenter"",""1"",""1370""
""fullscreenexit"",""2"",""2505""
","
","
","""event"",""trial"",""time""
""fullscreenenter"",""1"",""1370""
","""event"",""trial"",""time""
""fullscreenexit"",""2"",""2505""
","","","","","","null","<div style=""font-size:60px;"">+</div>","null","","fixation","","",""
"memory-trial","135","321208","0.0-18.0-1.45","5169","approach_avoid_sv1","""event"",""trial"",""time""
""fullscreenenter"",""1"",""1370""
""fullscreenexit"",""2"",""2505""
","
","
","""event"",""trial"",""time""
""fullscreenenter"",""1"",""1370""
","""event"",""trial"",""time""
""fullscreenexit"",""2"",""2505""
","","","","","","1593.0999999046326","images/truck4.png","","","memory_trial","4","definitely_new",""
"html-keyboard-response","136","321712","0.0-18.0-0.46","5169","approach_avoid_sv1","""event"",""trial"",""time""
""fullscreenenter"",""1"",""1370""
""fullscreenexit"",""2"",""2505""
","
","
","""event"",""trial"",""time""
""fullscreenenter"",""1"",""1370""
","""event"",""trial"",""time""
""fullscreenexit"",""2"",""2505""
","","","","","","null","<div style=""font-size:60px;"">+</div>","null","","fixation","","",""
"memory-trial","137","324033","0.0-18.0-1.46","5169","approach_avoid_sv1","""event"",""trial"",""time""
""fullscreenenter"",""1"",""1370""
""fullscreenexit"",""2"",""2505""
","
","
","""event"",""trial"",""time""
""fullscreenenter"",""1"",""1370""
","""event"",""trial"",""time""
""fullscreenexit"",""2"",""2505""
","","","","","","1314.1999998092651","images/flower4.png","","","memory_trial","4","definitely_new",""
"html-keyboard-response","138","324538","0.0-18.0-0.47","5169","approach_avoid_sv1","""event"",""trial"",""time""
""fullscreenenter"",""1"",""1370""
""fullscreenexit"",""2"",""2505""
","
","
","""event"",""trial"",""time""
""fullscreenenter"",""1"",""1370""
","""event"",""trial"",""time""
""fullscreenexit"",""2"",""2505""
","","","","","","null","<div style=""font-size:60px;"">+</div>","null","","fixation","","",""
"memory-trial","139","326296","0.0-18.0-1.47","5169","approach_avoid_sv1","""event"",""trial"",""time""
""fullscreenenter"",""1"",""1370""
""fullscreenexit"",""2"",""2505""
","
","
","""event"",""trial"",""time""
""fullscreenenter"",""1"",""1370""
","""event"",""trial"",""time""
""fullscreenexit"",""2"",""2505""
","","","","","","755","images/plane5.png","","","memory_trial","4","definitely_new",""
"html-keyboard-response","140","326800","0.0-18.0-0.48","5169","approach_avoid_sv1","""event"",""trial"",""time""
""fullscreenenter"",""1"",""1370""
""fullscreenexit"",""2"",""2505""
","
","
","""event"",""trial"",""time""
""fullscreenenter"",""1"",""1370""
","""event"",""trial"",""time""
""fullscreenexit"",""2"",""2505""
","","","","","","null","<div style=""font-size:60px;"">+</div>","null","","fixation","","",""
"memory-trial","141","328931","0.0-18.0-1.48","5169","approach_avoid_sv1","""event"",""trial"",""time""
""fullscreenenter"",""1"",""1370""
""fullscreenexit"",""2"",""2505""
","
","
","""event"",""trial"",""time""
""fullscreenenter"",""1"",""1370""
","""event"",""trial"",""time""
""fullscreenexit"",""2"",""2505""
","","","","","","1114.3000001907349","images/sofa5.png","","","memory_trial","1","definitely_old",""
"html-keyboard-response","142","329432","0.0-18.0-0.49","5169","approach_avoid_sv1","""event"",""trial"",""time""
""fullscreenenter"",""1"",""1370""
""fullscreenexit"",""2"",""2505""
","
","
","""event"",""trial"",""time""
""fullscreenenter"",""1"",""1370""
","""event"",""trial"",""time""
""fullscreenexit"",""2"",""2505""
","","","","","","null","<div style=""font-size:60px;"">+</div>","null","","fixation","","",""
"memory-trial","143","331408","0.0-18.0-1.49","5169","approach_avoid_sv1","""event"",""trial"",""time""
""fullscreenenter"",""1"",""1370""
""fullscreenexit"",""2"",""2505""
","
","
","""event"",""trial"",""time""
""fullscreenenter"",""1"",""1370""
","""event"",""trial"",""time""
""fullscreenexit"",""2"",""2505""
","","","","","","971.0999999046326","images/tree1.png","","","memory_trial","1","definitely_old",""
"html-keyboard-response","144","331912","0.0-18.0-0.50","5169","approach_avoid_sv1","""event"",""trial"",""time""
""fullscreenenter"",""1"",""1370""
""fullscreenexit"",""2"",""2505""
","
","
","""event"",""trial"",""time""
""fullscreenenter"",""1"",""1370""
","""event"",""trial"",""time""
""fullscreenexit"",""2"",""2505""
","","","","","","null","<div style=""font-size:60px;"">+</div>","null","","fixation","","",""
"memory-trial","145","334080","0.0-18.0-1.50","5169","approach_avoid_sv1","""event"",""trial"",""time""
""fullscreenenter"",""1"",""1370""
""fullscreenexit"",""2"",""2505""
","
","
","""event"",""trial"",""time""
""fullscreenenter"",""1"",""1370""
","""event"",""trial"",""time""
""fullscreenexit"",""2"",""2505""
","","","","","","1164.5999999046326","images/cat2.png","","","memory_trial","4","definitely_new",""
"html-keyboard-response","146","334585","0.0-18.0-0.51","5169","approach_avoid_sv1","""event"",""trial"",""time""
""fullscreenenter"",""1"",""1370""
""fullscreenexit"",""2"",""2505""
","
","
","""event"",""trial"",""time""
""fullscreenenter"",""1"",""1370""
","""event"",""trial"",""time""
""fullscreenexit"",""2"",""2505""
","","","","","","null","<div style=""font-size:60px;"">+</div>","null","","fixation","","",""
"memory-trial","147","337056","0.0-18.0-1.51","5169","approach_avoid_sv1","""event"",""trial"",""time""
""fullscreenenter"",""1"",""1370""
""fullscreenexit"",""2"",""2505""
","
","
","""event"",""trial"",""time""
""fullscreenenter"",""1"",""1370""
","""event"",""trial"",""time""
""fullscreenexit"",""2"",""2505""
","","","","","","1468.5","images/banana1.png","","","memory_trial","3","maybe_new",""
"html-keyboard-response","148","337560","0.0-18.0-0.52","5169","approach_avoid_sv1","""event"",""trial"",""time""
""fullscreenenter"",""1"",""1370""
""fullscreenexit"",""2"",""2505""
","
","
","""event"",""trial"",""time""
""fullscreenenter"",""1"",""1370""
","""event"",""trial"",""time""
""fullscreenexit"",""2"",""2505""
","","","","","","null","<div style=""font-size:60px;"">+</div>","null","","fixation","","",""
"memory-trial","149","339464","0.0-18.0-1.52","5169","approach_avoid_sv1","""event"",""trial"",""time""
""fullscreenenter"",""1"",""1370""
""fullscreenexit"",""2"",""2505""
","
","
","""event"",""trial"",""time""
""fullscreenenter"",""1"",""1370""
","""event"",""trial"",""time""
""fullscreenexit"",""2"",""2505""
","","","","","","900.8000001907349","images/table8.png","","","memory_trial","1","definitely_old",""
"html-keyboard-response","150","339968","0.0-18.0-0.53","5169","approach_avoid_sv1","""event"",""trial"",""time""
""fullscreenenter"",""1"",""1370""
""fullscreenexit"",""2"",""2505""
","
","
","""event"",""trial"",""time""
""fullscreenenter"",""1"",""1370""
","""event"",""trial"",""time""
""fullscreenexit"",""2"",""2505""
","","","","","","null","<div style=""font-size:60px;"">+</div>","null","","fixation","","",""
"memory-trial","151","341856","0.0-18.0-1.53","5169","approach_avoid_sv1","""event"",""trial"",""time""
""fullscreenenter"",""1"",""1370""
""fullscreenexit"",""2"",""2505""
","
","
","""event"",""trial"",""time""
""fullscreenenter"",""1"",""1370""
","""event"",""trial"",""time""
""fullscreenexit"",""2"",""2505""
","","","","","","884.0999999046326","images/chair5.png","","","memory_trial","1","definitely_old",""
"html-keyboard-response","152","342360","0.0-18.0-0.54","5169","approach_avoid_sv1","""event"",""trial"",""time""
""fullscreenenter"",""1"",""1370""
""fullscreenexit"",""2"",""2505""
","
","
","""event"",""trial"",""time""
""fullscreenenter"",""1"",""1370""
","""event"",""trial"",""time""
""fullscreenexit"",""2"",""2505""
","","","","","","null","<div style=""font-size:60px;"">+</div>","null","","fixation","","",""
"memory-trial","153","344656","0.0-18.0-1.54","5169","approach_avoid_sv1","""event"",""trial"",""time""
""fullscreenenter"",""1"",""1370""
""fullscreenexit"",""2"",""2505""
","
","
","""event"",""trial"",""time""
""fullscreenenter"",""1"",""1370""
","""event"",""trial"",""time""
""fullscreenexit"",""2"",""2505""
","","","","","","1293.2000002861023","images/cow8.png","","","memory_trial","4","definitely_new",""
"html-keyboard-response","154","345160","0.0-18.0-0.55","5169","approach_avoid_sv1","""event"",""trial"",""time""
""fullscreenenter"",""1"",""1370""
""fullscreenexit"",""2"",""2505""
","
","
","""event"",""trial"",""time""
""fullscreenenter"",""1"",""1370""
","""event"",""trial"",""time""
""fullscreenexit"",""2"",""2505""
","","","","","","null","<div style=""font-size:60px;"">+</div>","null","","fixation","","",""
"memory-trial","155","346825","0.0-18.0-1.55","5169","approach_avoid_sv1","""event"",""trial"",""time""
""fullscreenenter"",""1"",""1370""
""fullscreenexit"",""2"",""2505""
","
","
","""event"",""trial"",""time""
""fullscreenenter"",""1"",""1370""
","""event"",""trial"",""time""
""fullscreenexit"",""2"",""2505""
","","","","","","654.4000000953674","images/sheep8.png","","","memory_trial","1","definitely_old",""
"html-keyboard-response","156","347328","0.0-18.0-0.56","5169","approach_avoid_sv1","""event"",""trial"",""time""
""fullscreenenter"",""1"",""1370""
""fullscreenexit"",""2"",""2505""
","
","
","""event"",""trial"",""time""
""fullscreenenter"",""1"",""1370""
","""event"",""trial"",""time""
""fullscreenexit"",""2"",""2505""
","","","","","","null","<div style=""font-size:60px;"">+</div>","null","","fixation","","",""
"memory-trial","157","349256","0.0-18.0-1.56","5169","approach_avoid_sv1","""event"",""trial"",""time""
""fullscreenenter"",""1"",""1370""
""fullscreenexit"",""2"",""2505""
","
","
","""event"",""trial"",""time""
""fullscreenenter"",""1"",""1370""
","""event"",""trial"",""time""
""fullscreenexit"",""2"",""2505""
","","","","","","920.2999997138977","images/orange1.png","","","memory_trial","1","definitely_old",""
"html-keyboard-response","158","349760","0.0-18.0-0.57","5169","approach_avoid_sv1","""event"",""trial"",""time""
""fullscreenenter"",""1"",""1370""
""fullscreenexit"",""2"",""2505""
","
","
","""event"",""trial"",""time""
""fullscreenenter"",""1"",""1370""
","""event"",""trial"",""time""
""fullscreenexit"",""2"",""2505""
","","","","","","null","<div style=""font-size:60px;"">+</div>","null","","fixation","","",""
"memory-trial","159","352496","0.0-18.0-1.57","5169","approach_avoid_sv1","""event"",""trial"",""time""
""fullscreenenter"",""1"",""1370""
""fullscreenexit"",""2"",""2505""
","
","
","""event"",""trial"",""time""
""fullscreenenter"",""1"",""1370""
","""event"",""trial"",""time""
""fullscreenexit"",""2"",""2505""
","","","","","","1725.7000002861023","images/horse5.png","","","memory_trial","4","definitely_new",""
"html-keyboard-response","160","353000","0.0-18.0-0.58","5169","approach_avoid_sv1","""event"",""trial"",""time""
""fullscreenenter"",""1"",""1370""
""fullscreenexit"",""2"",""2505""
","
","
","""event"",""trial"",""time""
""fullscreenenter"",""1"",""1370""
","""event"",""trial"",""time""
""fullscreenexit"",""2"",""2505""
","","","","","","null","<div style=""font-size:60px;"">+</div>","null","","fixation","","",""
"memory-trial","161","355323","0.0-18.0-1.58","5169","approach_avoid_sv1","""event"",""trial"",""time""
""fullscreenenter"",""1"",""1370""
""fullscreenexit"",""2"",""2505""
","
","
","""event"",""trial"",""time""
""fullscreenenter"",""1"",""1370""
","""event"",""trial"",""time""
""fullscreenexit"",""2"",""2505""
","","","","","","1303","images/dog4.png","","","memory_trial","1","definitely_old",""
"html-keyboard-response","162","355838","0.0-18.0-0.59","5169","approach_avoid_sv1","""event"",""trial"",""time""
""fullscreenenter"",""1"",""1370""
""fullscreenexit"",""2"",""2505""
","
","
","""event"",""trial"",""time""
""fullscreenenter"",""1"",""1370""
","""event"",""trial"",""time""
""fullscreenexit"",""2"",""2505""
","","","","","","null","<div style=""font-size:60px;"">+</div>","null","","fixation","","",""
"memory-trial","163","358113","0.0-18.0-1.59","5169","approach_avoid_sv1","""event"",""trial"",""time""
""fullscreenenter"",""1"",""1370""
""fullscreenexit"",""2"",""2505""
","
","
","""event"",""trial"",""time""
""fullscreenenter"",""1"",""1370""
","""event"",""trial"",""time""
""fullscreenexit"",""2"",""2505""
","","","","","","1264.3999996185303","images/table5.png","","","memory_trial","4","definitely_new",""
"html-keyboard-response","164","358617","0.0-18.0-0.60","5169","approach_avoid_sv1","""event"",""trial"",""time""
""fullscreenenter"",""1"",""1370""
""fullscreenexit"",""2"",""2505""
","
","
","""event"",""trial"",""time""
""fullscreenenter"",""1"",""1370""
","""event"",""trial"",""time""
""fullscreenexit"",""2"",""2505""
","","","","","","null","<div style=""font-size:60px;"">+</div>","null","","fixation","","",""
"memory-trial","165","361637","0.0-18.0-1.60","5169","approach_avoid_sv1","""event"",""trial"",""time""
""fullscreenenter"",""1"",""1370""
""fullscreenexit"",""2"",""2505""
","
","
","""event"",""trial"",""time""
""fullscreenenter"",""1"",""1370""
","""event"",""trial"",""time""
""fullscreenexit"",""2"",""2505""
","","","","","","1998.6999998092651","images/train4.png","","","memory_trial","1","definitely_old",""
"html-keyboard-response","166","362144","0.0-18.0-0.61","5169","approach_avoid_sv1","""event"",""trial"",""time""
""fullscreenenter"",""1"",""1370""
""fullscreenexit"",""2"",""2505""
","
","
","""event"",""trial"",""time""
""fullscreenenter"",""1"",""1370""
","""event"",""trial"",""time""
""fullscreenexit"",""2"",""2505""
","","","","","","null","<div style=""font-size:60px;"">+</div>","null","","fixation","","",""
"memory-trial","167","364319","0.0-18.0-1.61","5169","approach_avoid_sv1","""event"",""trial"",""time""
""fullscreenenter"",""1"",""1370""
""fullscreenexit"",""2"",""2505""
","
","
","""event"",""trial"",""time""
""fullscreenenter"",""1"",""1370""
","""event"",""trial"",""time""
""fullscreenexit"",""2"",""2505""
","","","","","","1168.4000000953674","images/cat1.png","","","memory_trial","4","definitely_new",""
"html-keyboard-response","168","364824","0.0-18.0-0.62","5169","approach_avoid_sv1","""event"",""trial"",""time""
""fullscreenenter"",""1"",""1370""
""fullscreenexit"",""2"",""2505""
","
","
","""event"",""trial"",""time""
""fullscreenenter"",""1"",""1370""
","""event"",""trial"",""time""
""fullscreenexit"",""2"",""2505""
","","","","","","null","<div style=""font-size:60px;"">+</div>","null","","fixation","","",""
"memory-trial","169","366608","0.0-18.0-1.62","5169","approach_avoid_sv1","""event"",""trial"",""time""
""fullscreenenter"",""1"",""1370""
""fullscreenexit"",""2"",""2505""
","
","
","""event"",""trial"",""time""
""fullscreenenter"",""1"",""1370""
","""event"",""trial"",""time""
""fullscreenexit"",""2"",""2505""
","","","","","","776","images/banana5.png","","","memory_trial","4","definitely_new",""
"html-keyboard-response","170","367111","0.0-18.0-0.63","5169","approach_avoid_sv1","""event"",""trial"",""time""
""fullscreenenter"",""1"",""1370""
""fullscreenexit"",""2"",""2505""
","
","
","""event"",""trial"",""time""
""fullscreenenter"",""1"",""1370""
","""event"",""trial"",""time""
""fullscreenexit"",""2"",""2505""
","","","","","","null","<div style=""font-size:60px;"">+</div>","null","","fixation","","",""
"memory-trial","171","369369","0.0-18.0-1.63","5169","approach_avoid_sv1","""event"",""trial"",""time""
""fullscreenenter"",""1"",""1370""
""fullscreenexit"",""2"",""2505""
","
","
","""event"",""trial"",""time""
""fullscreenenter"",""1"",""1370""
","""event"",""trial"",""time""
""fullscreenexit"",""2"",""2505""
","","","","","","1249.9000000953674","images/dog1.png","","","memory_trial","4","definitely_new",""
"html-keyboard-response","172","369872","0.0-18.0-0.64","5169","approach_avoid_sv1","""event"",""trial"",""time""
""fullscreenenter"",""1"",""1370""
""fullscreenexit"",""2"",""2505""
","
","
","""event"",""trial"",""time""
""fullscreenenter"",""1"",""1370""
","""event"",""trial"",""time""
""fullscreenexit"",""2"",""2505""
","","","","","","null","<div style=""font-size:60px;"">+</div>","null","","fixation","","",""
"memory-trial","173","371528","0.0-18.0-1.64","5169","approach_avoid_sv1","""event"",""trial"",""time""
""fullscreenenter"",""1"",""1370""
""fullscreenexit"",""2"",""2505""
","
","
","""event"",""trial"",""time""
""fullscreenenter"",""1"",""1370""
","""event"",""trial"",""time""
""fullscreenexit"",""2"",""2505""
","","","","","","649.5999999046326","images/cactus7.png","","","memory_trial","4","definitely_new",""
"html-keyboard-response","174","372033","0.0-18.0-0.65","5169","approach_avoid_sv1","""event"",""trial"",""time""
""fullscreenenter"",""1"",""1370""
""fullscreenexit"",""2"",""2505""
","
","
","""event"",""trial"",""time""
""fullscreenenter"",""1"",""1370""
","""event"",""trial"",""time""
""fullscreenexit"",""2"",""2505""
","","","","","","null","<div style=""font-size:60px;"">+</div>","null","","fixation","","",""
"memory-trial","175","374008","0.0-18.0-1.65","5169","approach_avoid_sv1","""event"",""trial"",""time""
""fullscreenenter"",""1"",""1370""
""fullscreenexit"",""2"",""2505""
","
","
","""event"",""trial"",""time""
""fullscreenenter"",""1"",""1370""
","""event"",""trial"",""time""
""fullscreenexit"",""2"",""2505""
","","","","","","968.5","images/chair1.png","","","memory_trial","4","definitely_new",""
"html-keyboard-response","176","374512","0.0-18.0-0.66","5169","approach_avoid_sv1","""event"",""trial"",""time""
""fullscreenenter"",""1"",""1370""
""fullscreenexit"",""2"",""2505""
","
","
","""event"",""trial"",""time""
""fullscreenenter"",""1"",""1370""
","""event"",""trial"",""time""
""fullscreenexit"",""2"",""2505""
","","","","","","null","<div style=""font-size:60px;"">+</div>","null","","fixation","","",""
"memory-trial","177","376264","0.0-18.0-1.66","5169","approach_avoid_sv1","""event"",""trial"",""time""
""fullscreenenter"",""1"",""1370""
""fullscreenexit"",""2"",""2505""
","
","
","""event"",""trial"",""time""
""fullscreenenter"",""1"",""1370""
","""event"",""trial"",""time""
""fullscreenexit"",""2"",""2505""
","","","","","","746.8999996185303","images/table7.png","","","memory_trial","1","definitely_old",""
"html-keyboard-response","178","376768","0.0-18.0-0.67","5169","approach_avoid_sv1","""event"",""trial"",""time""
""fullscreenenter"",""1"",""1370""
""fullscreenexit"",""2"",""2505""
","
","
","""event"",""trial"",""time""
""fullscreenenter"",""1"",""1370""
","""event"",""trial"",""time""
""fullscreenexit"",""2"",""2505""
","","","","","","null","<div style=""font-size:60px;"">+</div>","null","","fixation","","",""
"memory-trial","179","378593","0.0-18.0-1.67","5169","approach_avoid_sv1","""event"",""trial"",""time""
""fullscreenenter"",""1"",""1370""
""fullscreenexit"",""2"",""2505""
","
","
","""event"",""trial"",""time""
""fullscreenenter"",""1"",""1370""
","""event"",""trial"",""time""
""fullscreenexit"",""2"",""2505""
","","","","","","817.5999999046326","images/orange6.png","","","memory_trial","4","definitely_new",""
"html-keyboard-response","180","379097","0.0-18.0-0.68","5169","approach_avoid_sv1","""event"",""trial"",""time""
""fullscreenenter"",""1"",""1370""
""fullscreenexit"",""2"",""2505""
","
","
","""event"",""trial"",""time""
""fullscreenenter"",""1"",""1370""
","""event"",""trial"",""time""
""fullscreenexit"",""2"",""2505""
","","","","","","null","<div style=""font-size:60px;"">+</div>","null","","fixation","","",""
"memory-trial","181","381112","0.0-18.0-1.68","5169","approach_avoid_sv1","""event"",""trial"",""time""
""fullscreenenter"",""1"",""1370""
""fullscreenexit"",""2"",""2505""
","
","
","""event"",""trial"",""time""
""fullscreenenter"",""1"",""1370""
","""event"",""trial"",""time""
""fullscreenexit"",""2"",""2505""
","","","","","","1010.8000001907349","images/cactus4.png","","","memory_trial","4","definitely_new",""
"html-keyboard-response","182","381618","0.0-18.0-0.69","5169","approach_avoid_sv1","""event"",""trial"",""time""
""fullscreenenter"",""1"",""1370""
""fullscreenexit"",""2"",""2505""
","
","
","""event"",""trial"",""time""
""fullscreenenter"",""1"",""1370""
","""event"",""trial"",""time""
""fullscreenexit"",""2"",""2505""
","","","","","","null","<div style=""font-size:60px;"">+</div>","null","","fixation","","",""
"memory-trial","183","383480","0.0-18.0-1.69","5169","approach_avoid_sv1","""event"",""trial"",""time""
""fullscreenenter"",""1"",""1370""
""fullscreenexit"",""2"",""2505""
","
","
","""event"",""trial"",""time""
""fullscreenenter"",""1"",""1370""
","""event"",""trial"",""time""
""fullscreenexit"",""2"",""2505""
","","","","","","856.7000002861023","images/dog6.png","","","memory_trial","1","definitely_old",""
"html-keyboard-response","184","383984","0.0-18.0-0.70","5169","approach_avoid_sv1","""event"",""trial"",""time""
""fullscreenenter"",""1"",""1370""
""fullscreenexit"",""2"",""2505""
","
","
","""event"",""trial"",""time""
""fullscreenenter"",""1"",""1370""
","""event"",""trial"",""time""
""fullscreenexit"",""2"",""2505""
","","","","","","null","<div style=""font-size:60px;"">+</div>","null","","fixation","","",""
"memory-trial","185","386160","0.0-18.0-1.70","5169","approach_avoid_sv1","""event"",""trial"",""time""
""fullscreenenter"",""1"",""1370""
""fullscreenexit"",""2"",""2505""
","
","
","""event"",""trial"",""time""
""fullscreenenter"",""1"",""1370""
","""event"",""trial"",""time""
""fullscreenexit"",""2"",""2505""
","","","","","","1171.8000001907349","images/rodent6.png","","","memory_trial","1","definitely_old",""
"html-keyboard-response","186","386666","0.0-18.0-0.71","5169","approach_avoid_sv1","""event"",""trial"",""time""
""fullscreenenter"",""1"",""1370""
""fullscreenexit"",""2"",""2505""
","
","
","""event"",""trial"",""time""
""fullscreenenter"",""1"",""1370""
","""event"",""trial"",""time""
""fullscreenexit"",""2"",""2505""
","","","","","","null","<div style=""font-size:60px;"">+</div>","null","","fixation","","",""
"memory-trial","187","389104","0.0-18.0-1.71","5169","approach_avoid_sv1","""event"",""trial"",""time""
""fullscreenenter"",""1"",""1370""
""fullscreenexit"",""2"",""2505""
","
","
","""event"",""trial"",""time""
""fullscreenenter"",""1"",""1370""
","""event"",""trial"",""time""
""fullscreenexit"",""2"",""2505""
","","","","","","1434","images/apple8.png","","","memory_trial","3","maybe_new",""
"html-keyboard-response","188","389608","0.0-18.0-0.72","5169","approach_avoid_sv1","""event"",""trial"",""time""
""fullscreenenter"",""1"",""1370""
""fullscreenexit"",""2"",""2505""
","
","
","""event"",""trial"",""time""
""fullscreenenter"",""1"",""1370""
","""event"",""trial"",""time""
""fullscreenexit"",""2"",""2505""
","","","","","","null","<div style=""font-size:60px;"">+</div>","null","","fixation","","",""
"memory-trial","189","391465","0.0-18.0-1.72","5169","approach_avoid_sv1","""event"",""trial"",""time""
""fullscreenenter"",""1"",""1370""
""fullscreenexit"",""2"",""2505""
","
","
","""event"",""trial"",""time""
""fullscreenenter"",""1"",""1370""
","""event"",""trial"",""time""
""fullscreenexit"",""2"",""2505""
","","","","","","852.3000001907349","images/dog5.png","","","memory_trial","3","maybe_new",""
"html-keyboard-response","190","391968","0.0-18.0-0.73","5169","approach_avoid_sv1","""event"",""trial"",""time""
""fullscreenenter"",""1"",""1370""
""fullscreenexit"",""2"",""2505""
","
","
","""event"",""trial"",""time""
""fullscreenenter"",""1"",""1370""
","""event"",""trial"",""time""
""fullscreenexit"",""2"",""2505""
","","","","","","null","<div style=""font-size:60px;"">+</div>","null","","fixation","","",""
"memory-trial","191","394024","0.0-18.0-1.73","5169","approach_avoid_sv1","""event"",""trial"",""time""
""fullscreenenter"",""1"",""1370""
""fullscreenexit"",""2"",""2505""
","
","
","""event"",""trial"",""time""
""fullscreenenter"",""1"",""1370""
","""event"",""trial"",""time""
""fullscreenexit"",""2"",""2505""
","","","","","","1052.6999998092651","images/sofa8.png","","","memory_trial","4","definitely_new",""
"html-keyboard-response","192","394540","0.0-18.0-0.74","5169","approach_avoid_sv1","""event"",""trial"",""time""
""fullscreenenter"",""1"",""1370""
""fullscreenexit"",""2"",""2505""
","
","
","""event"",""trial"",""time""
""fullscreenenter"",""1"",""1370""
","""event"",""trial"",""time""
""fullscreenexit"",""2"",""2505""
","","","","","","null","<div style=""font-size:60px;"">+</div>","null","","fixation","","",""
"memory-trial","193","396528","0.0-18.0-1.74","5169","approach_avoid_sv1","""event"",""trial"",""time""
""fullscreenenter"",""1"",""1370""
""fullscreenexit"",""2"",""2505""
","
","
","""event"",""trial"",""time""
""fullscreenenter"",""1"",""1370""
","""event"",""trial"",""time""
""fullscreenexit"",""2"",""2505""
","","","","","","978.3999996185303","images/boat7.png","","","memory_trial","4","definitely_new",""
"html-keyboard-response","194","397035","0.0-18.0-0.75","5169","approach_avoid_sv1","""event"",""trial"",""time""
""fullscreenenter"",""1"",""1370""
""fullscreenexit"",""2"",""2505""
","
","
","""event"",""trial"",""time""
""fullscreenenter"",""1"",""1370""
","""event"",""trial"",""time""
""fullscreenexit"",""2"",""2505""
","","","","","","null","<div style=""font-size:60px;"">+</div>","null","","fixation","","",""
"memory-trial","195","398744","0.0-18.0-1.75","5169","approach_avoid_sv1","""event"",""trial"",""time""
""fullscreenenter"",""1"",""1370""
""fullscreenexit"",""2"",""2505""
","
","
","""event"",""trial"",""time""
""fullscreenenter"",""1"",""1370""
","""event"",""trial"",""time""
""fullscreenexit"",""2"",""2505""
","","","","","","705.6999998092651","images/rodent1.png","","","memory_trial","1","definitely_old",""
"html-keyboard-response","196","399248","0.0-18.0-0.76","5169","approach_avoid_sv1","""event"",""trial"",""time""
""fullscreenenter"",""1"",""1370""
""fullscreenexit"",""2"",""2505""
","
","
","""event"",""trial"",""time""
""fullscreenenter"",""1"",""1370""
","""event"",""trial"",""time""
""fullscreenexit"",""2"",""2505""
","","","","","","null","<div style=""font-size:60px;"">+</div>","null","","fixation","","",""
"memory-trial","197","401512","0.0-18.0-1.76","5169","approach_avoid_sv1","""event"",""trial"",""time""
""fullscreenenter"",""1"",""1370""
""fullscreenexit"",""2"",""2505""
","
","
","""event"",""trial"",""time""
""fullscreenenter"",""1"",""1370""
","""event"",""trial"",""time""
""fullscreenexit"",""2"",""2505""
","","","","","","1261.5999999046326","images/boat6.png","","","memory_trial","3","maybe_new",""
"html-keyboard-response","198","402016","0.0-18.0-0.77","5169","approach_avoid_sv1","""event"",""trial"",""time""
""fullscreenenter"",""1"",""1370""
""fullscreenexit"",""2"",""2505""
","
","
","""event"",""trial"",""time""
""fullscreenenter"",""1"",""1370""
","""event"",""trial"",""time""
""fullscreenexit"",""2"",""2505""
","","","","","","null","<div style=""font-size:60px;"">+</div>","null","","fixation","","",""
"memory-trial","199","403681","0.0-18.0-1.77","5169","approach_avoid_sv1","""event"",""trial"",""time""
""fullscreenenter"",""1"",""1370""
""fullscreenexit"",""2"",""2505""
","
","
","""event"",""trial"",""time""
""fullscreenenter"",""1"",""1370""
","""event"",""trial"",""time""
""fullscreenexit"",""2"",""2505""
","","","","","","661.9000000953674","images/straw7.png","","","memory_trial","3","maybe_new",""
"html-keyboard-response","200","404183","0.0-18.0-0.78","5169","approach_avoid_sv1","""event"",""trial"",""time""
""fullscreenenter"",""1"",""1370""
""fullscreenexit"",""2"",""2505""
","
","
","""event"",""trial"",""time""
""fullscreenenter"",""1"",""1370""
","""event"",""trial"",""time""
""fullscreenexit"",""2"",""2505""
","","","","","","null","<div style=""font-size:60px;"">+</div>","null","","fixation","","",""
"memory-trial","201","406048","0.0-18.0-1.78","5169","approach_avoid_sv1","""event"",""trial"",""time""
""fullscreenenter"",""1"",""1370""
""fullscreenexit"",""2"",""2505""
","
","
","""event"",""trial"",""time""
""fullscreenenter"",""1"",""1370""
","""event"",""trial"",""time""
""fullscreenexit"",""2"",""2505""
","","","","","","855.5999999046326","images/plane1.png","","","memory_trial","3","maybe_new",""
"html-keyboard-response","202","406552","0.0-18.0-0.79","5169","approach_avoid_sv1","""event"",""trial"",""time""
""fullscreenenter"",""1"",""1370""
""fullscreenexit"",""2"",""2505""
","
","
","""event"",""trial"",""time""
""fullscreenenter"",""1"",""1370""
","""event"",""trial"",""time""
""fullscreenexit"",""2"",""2505""
","","","","","","null","<div style=""font-size:60px;"">+</div>","null","","fixation","","",""
"memory-trial","203","408496","0.0-18.0-1.79","5169","approach_avoid_sv1","""event"",""trial"",""time""
""fullscreenenter"",""1"",""1370""
""fullscreenexit"",""2"",""2505""
","
","
","""event"",""trial"",""time""
""fullscreenenter"",""1"",""1370""
","""event"",""trial"",""time""
""fullscreenexit"",""2"",""2505""
","","","","","","936","images/truck7.png","","","memory_trial","1","definitely_old",""
"html-keyboard-response","204","409000","0.0-18.0-0.80","5169","approach_avoid_sv1","""event"",""trial"",""time""
""fullscreenenter"",""1"",""1370""
""fullscreenexit"",""2"",""2505""
","
","
","""event"",""trial"",""time""
""fullscreenenter"",""1"",""1370""
","""event"",""trial"",""time""
""fullscreenexit"",""2"",""2505""
","","","","","","null","<div style=""font-size:60px;"">+</div>","null","","fixation","","",""
"memory-trial","205","411464","0.0-18.0-1.80","5169","approach_avoid_sv1","""event"",""trial"",""time""
""fullscreenenter"",""1"",""1370""
""fullscreenexit"",""2"",""2505""
","
","
","""event"",""trial"",""time""
""fullscreenenter"",""1"",""1370""
","""event"",""trial"",""time""
""fullscreenexit"",""2"",""2505""
","","","","","","1454.6999998092651","images/chair3.png","","","memory_trial","4","definitely_new",""
"html-keyboard-response","206","411968","0.0-18.0-0.81","5169","approach_avoid_sv1","""event"",""trial"",""time""
""fullscreenenter"",""1"",""1370""
""fullscreenexit"",""2"",""2505""
","
","
","""event"",""trial"",""time""
""fullscreenenter"",""1"",""1370""
","""event"",""trial"",""time""
""fullscreenexit"",""2"",""2505""
","","","","","","null","<div style=""font-size:60px;"">+</div>","null","","fixation","","",""
"memory-trial","207","414240","0.0-18.0-1.81","5169","approach_avoid_sv1","""event"",""trial"",""time""
""fullscreenenter"",""1"",""1370""
""fullscreenexit"",""2"",""2505""
","
","
","""event"",""trial"",""time""
""fullscreenenter"",""1"",""1370""
","""event"",""trial"",""time""
""fullscreenexit"",""2"",""2505""
","","","","","","1263.3000001907349","images/rabbit1.png","","","memory_trial","4","definitely_new",""
"html-keyboard-response","208","414745","0.0-18.0-0.82","5169","approach_avoid_sv1","""event"",""trial"",""time""
""fullscreenenter"",""1"",""1370""
""fullscreenexit"",""2"",""2505""
","
","
","""event"",""trial"",""time""
""fullscreenenter"",""1"",""1370""
","""event"",""trial"",""time""
""fullscreenexit"",""2"",""2505""
","","","","","","null","<div style=""font-size:60px;"">+</div>","null","","fixation","","",""
"memory-trial","209","416565","0.0-18.0-1.82","5169","approach_avoid_sv1","""event"",""trial"",""time""
""fullscreenenter"",""1"",""1370""
""fullscreenexit"",""2"",""2505""
","
","
","""event"",""trial"",""time""
""fullscreenenter"",""1"",""1370""
","""event"",""trial"",""time""
""fullscreenexit"",""2"",""2505""
","","","","","","798.8999996185303","images/horse6.png","","","memory_trial","1","definitely_old",""
"html-keyboard-response","210","417072","0.0-18.0-0.83","5169","approach_avoid_sv1","""event"",""trial"",""time""
""fullscreenenter"",""1"",""1370""
""fullscreenexit"",""2"",""2505""
","
","
","""event"",""trial"",""time""
""fullscreenenter"",""1"",""1370""
","""event"",""trial"",""time""
""fullscreenexit"",""2"",""2505""
","","","","","","null","<div style=""font-size:60px;"">+</div>","null","","fixation","","",""
"memory-trial","211","419423","0.0-18.0-1.83","5169","approach_avoid_sv1","""event"",""trial"",""time""
""fullscreenenter"",""1"",""1370""
""fullscreenexit"",""2"",""2505""
","
","
","""event"",""trial"",""time""
""fullscreenenter"",""1"",""1370""
","""event"",""trial"",""time""
""fullscreenexit"",""2"",""2505""
","","","","","","1345.7999997138977","images/truck8.png","","","memory_trial","2","maybe_old",""
"html-keyboard-response","212","419928","0.0-18.0-0.84","5169","approach_avoid_sv1","""event"",""trial"",""time""
""fullscreenenter"",""1"",""1370""
""fullscreenexit"",""2"",""2505""
","
","
","""event"",""trial"",""time""
""fullscreenenter"",""1"",""1370""
","""event"",""trial"",""time""
""fullscreenexit"",""2"",""2505""
","","","","","","null","<div style=""font-size:60px;"">+</div>","null","","fixation","","",""
"memory-trial","213","422144","0.0-18.0-1.84","5169","approach_avoid_sv1","""event"",""trial"",""time""
""fullscreenenter"",""1"",""1370""
""fullscreenexit"",""2"",""2505""
","
","
","""event"",""trial"",""time""
""fullscreenenter"",""1"",""1370""
","""event"",""trial"",""time""
""fullscreenexit"",""2"",""2505""
","","","","","","1207.7999997138977","images/sofa1.png","","","memory_trial","3","maybe_new",""
"html-keyboard-response","214","422660","0.0-18.0-0.85","5169","approach_avoid_sv1","""event"",""trial"",""time""
""fullscreenenter"",""1"",""1370""
""fullscreenexit"",""2"",""2505""
","
","
","""event"",""trial"",""time""
""fullscreenenter"",""1"",""1370""
","""event"",""trial"",""time""
""fullscreenexit"",""2"",""2505""
","","","","","","null","<div style=""font-size:60px;"">+</div>","null","","fixation","","",""
"memory-trial","215","424447","0.0-18.0-1.85","5169","approach_avoid_sv1","""event"",""trial"",""time""
""fullscreenenter"",""1"",""1370""
""fullscreenexit"",""2"",""2505""
","
","
","""event"",""trial"",""time""
""fullscreenenter"",""1"",""1370""
","""event"",""trial"",""time""
""fullscreenexit"",""2"",""2505""
","","","","","","771.5999999046326","images/apple2.png","","","memory_trial","3","maybe_new",""
"html-keyboard-response","216","424952","0.0-18.0-0.86","5169","approach_avoid_sv1","""event"",""trial"",""time""
""fullscreenenter"",""1"",""1370""
""fullscreenexit"",""2"",""2505""
","
","
","""event"",""trial"",""time""
""fullscreenenter"",""1"",""1370""
","""event"",""trial"",""time""
""fullscreenexit"",""2"",""2505""
","","","","","","null","<div style=""font-size:60px;"">+</div>","null","","fixation","","",""
"memory-trial","217","426600","0.0-18.0-1.86","5169","approach_avoid_sv1","""event"",""trial"",""time""
""fullscreenenter"",""1"",""1370""
""fullscreenexit"",""2"",""2505""
","
","
","""event"",""trial"",""time""
""fullscreenenter"",""1"",""1370""
","""event"",""trial"",""time""
""fullscreenexit"",""2"",""2505""
","","","","","","641.5999999046326","images/dog7.png","","","memory_trial","1","definitely_old",""
"html-keyboard-response","218","427104","0.0-18.0-0.87","5169","approach_avoid_sv1","""event"",""trial"",""time""
""fullscreenenter"",""1"",""1370""
""fullscreenexit"",""2"",""2505""
","
","
","""event"",""trial"",""time""
""fullscreenenter"",""1"",""1370""
","""event"",""trial"",""time""
""fullscreenexit"",""2"",""2505""
","","","","","","null","<div style=""font-size:60px;"">+</div>","null","","fixation","","",""
"memory-trial","219","428777","0.0-18.0-1.87","5169","approach_avoid_sv1","""event"",""trial"",""time""
""fullscreenenter"",""1"",""1370""
""fullscreenexit"",""2"",""2505""
","
","
","""event"",""trial"",""time""
""fullscreenenter"",""1"",""1370""
","""event"",""trial"",""time""
""fullscreenexit"",""2"",""2505""
","","","","","","666.4000000953674","images/rodent2.png","","","memory_trial","1","definitely_old",""
"html-keyboard-response","220","429280","0.0-18.0-0.88","5169","approach_avoid_sv1","""event"",""trial"",""time""
""fullscreenenter"",""1"",""1370""
""fullscreenexit"",""2"",""2505""
","
","
","""event"",""trial"",""time""
""fullscreenenter"",""1"",""1370""
","""event"",""trial"",""time""
""fullscreenexit"",""2"",""2505""
","","","","","","null","<div style=""font-size:60px;"">+</div>","null","","fixation","","",""
"memory-trial","221","431111","0.0-18.0-1.88","5169","approach_avoid_sv1","""event"",""trial"",""time""
""fullscreenenter"",""1"",""1370""
""fullscreenexit"",""2"",""2505""
","
","
","""event"",""trial"",""time""
""fullscreenenter"",""1"",""1370""
","""event"",""trial"",""time""
""fullscreenexit"",""2"",""2505""
","","","","","","825.8000001907349","images/cow7.png","","","memory_trial","3","maybe_new",""
"html-keyboard-response","222","431616","0.0-18.0-0.89","5169","approach_avoid_sv1","""event"",""trial"",""time""
""fullscreenenter"",""1"",""1370""
""fullscreenexit"",""2"",""2505""
","
","
","""event"",""trial"",""time""
""fullscreenenter"",""1"",""1370""
","""event"",""trial"",""time""
""fullscreenexit"",""2"",""2505""
","","","","","","null","<div style=""font-size:60px;"">+</div>","null","","fixation","","",""
"memory-trial","223","433840","0.0-18.0-1.89","5169","approach_avoid_sv1","""event"",""trial"",""time""
""fullscreenenter"",""1"",""1370""
""fullscreenexit"",""2"",""2505""
","
","
","""event"",""trial"",""time""
""fullscreenenter"",""1"",""1370""
","""event"",""trial"",""time""
""fullscreenexit"",""2"",""2505""
","","","","","","1217.9000000953674","images/tree7.png","","","memory_trial","3","maybe_new",""
"html-keyboard-response","224","434346","0.0-18.0-0.90","5169","approach_avoid_sv1","""event"",""trial"",""time""
""fullscreenenter"",""1"",""1370""
""fullscreenexit"",""2"",""2505""
","
","
","""event"",""trial"",""time""
""fullscreenenter"",""1"",""1370""
","""event"",""trial"",""time""
""fullscreenexit"",""2"",""2505""
","","","","","","null","<div style=""font-size:60px;"">+</div>","null","","fixation","","",""
"memory-trial","225","437040","0.0-18.0-1.90","5169","approach_avoid_sv1","""event"",""trial"",""time""
""fullscreenenter"",""1"",""1370""
""fullscreenexit"",""2"",""2505""
","
","
","""event"",""trial"",""time""
""fullscreenenter"",""1"",""1370""
","""event"",""trial"",""time""
""fullscreenexit"",""2"",""2505""
","","","","","","1689.4000000953674","images/rodent8.png","","","memory_trial","4","definitely_new",""
"html-keyboard-response","226","437544","0.0-18.0-0.91","5169","approach_avoid_sv1","""event"",""trial"",""time""
""fullscreenenter"",""1"",""1370""
""fullscreenexit"",""2"",""2505""
","
","
","""event"",""trial"",""time""
""fullscreenenter"",""1"",""1370""
","""event"",""trial"",""time""
""fullscreenexit"",""2"",""2505""
","","","","","","null","<div style=""font-size:60px;"">+</div>","null","","fixation","","",""
"memory-trial","227","439344","0.0-18.0-1.91","5169","approach_avoid_sv1","""event"",""trial"",""time""
""fullscreenenter"",""1"",""1370""
""fullscreenexit"",""2"",""2505""
","
","
","""event"",""trial"",""time""
""fullscreenenter"",""1"",""1370""
","""event"",""trial"",""time""
""fullscreenexit"",""2"",""2505""
","","","","","","794.5999999046326","images/goat4.png","","","memory_trial","4","definitely_new",""
"html-button-response","228","440882","0.0-18.0-2.91-0.91","5169","approach_avoid_sv1","""event"",""trial"",""time""
""fullscreenenter"",""1"",""1370""
""fullscreenexit"",""2"",""2505""
","
","
","""event"",""trial"",""time""
""fullscreenenter"",""1"",""1370""
","""event"",""trial"",""time""
""fullscreenexit"",""2"",""2505""
","","","","","","1537.1999998092651","<p> Take a break! </p><p> Click the button to continue. </p>","0","","break","","",""
"html-keyboard-response","229","441384","0.0-18.0-0.92","5169","approach_avoid_sv1","""event"",""trial"",""time""
""fullscreenenter"",""1"",""1370""
