"trial_type","trial_index","time_elapsed","internal_node_id","subject_id","task_version","interactions","blur_events","focus_events","fullscreenenter_events","fullscreenexit_events","success","timeout","failed_images","failed_audio","failed_video","rt","stimulus","response","button_pressed","task_part","key_press","answer","correct"
"pavlovia","0","2","0.0-0.0","6375","approach_avoid_sv1","""event"",""trial"",""time""
""fullscreenenter"",""1"",""1878""
","
","
","""event"",""trial"",""time""
""fullscreenenter"",""1"",""1878""
","
","","","","","","","","","","","","",""
"fullscreen","1","2883","0.0-1.0","6375","approach_avoid_sv1","""event"",""trial"",""time""
""fullscreenenter"",""1"",""1878""
","
","
","""event"",""trial"",""time""
""fullscreenenter"",""1"",""1878""
","
","true","","","","","","","","","","","",""
"preload","2","13531","0.0-2.0","6375","approach_avoid_sv1","""event"",""trial"",""time""
""fullscreenenter"",""1"",""1878""
","
","
","""event"",""trial"",""time""
""fullscreenenter"",""1"",""1878""
","
","true","false","[]","[]","[]","","","","","","","",""
"preload","3","25615","0.0-3.0","6375","approach_avoid_sv1","""event"",""trial"",""time""
""fullscreenenter"",""1"",""1878""
","
","
","""event"",""trial"",""time""
""fullscreenenter"",""1"",""1878""
","
","true","false","[]","[]","[]","","","","","","","",""
"preload","4","26397","0.0-4.0","6375","approach_avoid_sv1","""event"",""trial"",""time""
""fullscreenenter"",""1"",""1878""
","
","
","""event"",""trial"",""time""
""fullscreenenter"",""1"",""1878""
","
","true","false","[]","[]","[]","","","","","","","",""
"audio-keyboard-response","5","32484","0.0-5.0","6375","approach_avoid_sv1","""event"",""trial"",""time""
""fullscreenenter"",""1"",""1878""
","
","
","""event"",""trial"",""time""
""fullscreenenter"",""1"",""1878""
","
","","","","","","6080","audio/beep_loop.wav"," ","","","","",""
"audio-button-response","6","34312","0.0-6.0","6375","approach_avoid_sv1","""event"",""trial"",""time""
""fullscreenenter"",""1"",""1878""
","
","
","""event"",""trial"",""time""
""fullscreenenter"",""1"",""1878""
","
","","","","","","1821","audio/turtle.wav","3","","","","",""
"audio-button-response","7","36359","0.0-7.0","6375","approach_avoid_sv1","""event"",""trial"",""time""
""fullscreenenter"",""1"",""1878""
","
","
","""event"",""trial"",""time""
""fullscreenenter"",""1"",""1878""
","
","","","","","","1040","audio/shark.wav","2","","","","",""
"preload","8","57700","0.0-8.0","6375","approach_avoid_sv1","""event"",""trial"",""time""
""fullscreenenter"",""1"",""1878""
","
","
","""event"",""trial"",""time""
""fullscreenenter"",""1"",""1878""
","
","true","false","[]","[]","[]","","","","","","","",""
"learning-instructions","9","63512","0.0-9.0-0.0","6375","approach_avoid_sv1","""event"",""trial"",""time""
""fullscreenenter"",""1"",""1878""
","
","
","""event"",""trial"",""time""
""fullscreenenter"",""1"",""1878""
","
","","","","","","1336","<p> Welcome back! </p><p> Last week, you had to make choices about lots of different items.  </p>","","0","instructions","","",""
"learning-instructions","10","68080","0.0-9.0-0.1","6375","approach_avoid_sv1","""event"",""trial"",""time""
""fullscreenenter"",""1"",""1878""
","
","
","""event"",""trial"",""time""
""fullscreenenter"",""1"",""1878""
","
","","","","","","454.60000002384186","<p> Today, we are going to ask you to try to remember all the items. </p>","","0","instructions","","",""
"learning-instructions","11","79032","0.0-9.0-0.2","6375","approach_avoid_sv1","""event"",""trial"",""time""
""fullscreenenter"",""1"",""1878""
","
","
","""event"",""trial"",""time""
""fullscreenenter"",""1"",""1878""
","
","","","","","","816.3999999761581","<p> On every trial, you will see an image. </p><p> The image may be an OLD image you saw during the games last week or it may be a NEW image that was not presented. </p>","","0","instructions","","",""
"learning-instructions","12","88145","0.0-9.0-0.3","6375","approach_avoid_sv1","""event"",""trial"",""time""
""fullscreenenter"",""1"",""1878""
","
","
","""event"",""trial"",""time""
""fullscreenenter"",""1"",""1878""
","
","","","","","","588","<p> You need to select whether the image is:  </p><p>  'Definitely old', 'Maybe old', 'Maybe new', or 'Definitely new.'  </p><div class=""mem-choice-instructions-grid""><div class=""choice-option"" id=""choice-option-1"" ><img src=""images/definitely_old_1.png"" id=""choice-option-img-1"" class=""choice-option-img"" stage=""1""></div><div class=""choice-option"" id=""choice-option-2"" ><img src=""images/maybe_old_1.png"" id=""choice-option-img-2"" class=""choice-option-img"" stage=""1""></div><div class=""choice-option"" id=""choice-option-3"" ><img src=""images/maybe_new_1.png"" id=""choice-option-img-3"" class=""choice-option-img"" stage=""1""></div><div class=""choice-option"" id=""choice-option-4"" > <img src=""images/definitely_new_1.png"" id=""choice-option-img-4"" class=""choice-option-img"" stage=""1""></div></div>","","0","instructions","","",""
"learning-instructions","13","95928","0.0-9.0-0.4","6375","approach_avoid_sv1","""event"",""trial"",""time""
""fullscreenenter"",""1"",""1878""
","
","
","""event"",""trial"",""time""
""fullscreenenter"",""1"",""1878""
","
","","","","","","1251.6000000238419","<p> You should use the 1, 2, 3, and 4 keys to make your responses.  </p><div class=""mem-choice-instructions-grid""><div class=""choice-option"" id=""choice-option-1"" ><img src=""images/definitely_old.png"" id=""choice-option-img-1"" class=""choice-option-img"" stage=""1""></div><div class=""choice-option"" id=""choice-option-2"" ><img src=""images/maybe_old.png"" id=""choice-option-img-2"" class=""choice-option-img"" stage=""1""></div><div class=""choice-option"" id=""choice-option-3"" ><img src=""images/maybe_new.png"" id=""choice-option-img-3"" class=""choice-option-img"" stage=""1""></div><div class=""choice-option"" id=""choice-option-4"" > <img src=""images/definitely_new.png"" id=""choice-option-img-4"" class=""choice-option-img"" stage=""1""></div></div>","","0","instructions","","",""
"learning-instructions","14","103728","0.0-9.0-0.5","6375","approach_avoid_sv1","""event"",""trial"",""time""
""fullscreenenter"",""1"",""1878""
","
","
","""event"",""trial"",""time""
""fullscreenenter"",""1"",""1878""
","
","","","","","","1462.1000000238419","<p> You will have 10 seconds to make each response.  </p><p>  Make sure to respond before time runs out! </p>","","0","instructions","","",""
"learning-instructions","15","111288","0.0-9.0-0.6","6375","approach_avoid_sv1","""event"",""trial"",""time""
""fullscreenenter"",""1"",""1878""
","
","
","""event"",""trial"",""time""
""fullscreenenter"",""1"",""1878""
","
","","","","","","471.8000000715256","<p> Today, you will see each image ONCE only.  </p><p>  That means none of the images will repeat. </p>","","0","instructions","","",""
"learning-instructions","16","125208","0.0-9.0-0.7","6375","approach_avoid_sv1","""event"",""trial"",""time""
""fullscreenenter"",""1"",""1878""
","
","
","""event"",""trial"",""time""
""fullscreenenter"",""1"",""1878""
","
","","","","","","1241.3999999761581","<p> Before you play the real game, it is time to practice. </p><p>  Just like in the real game, some of the images in the practice will be ones you have seen before. </p><p>  Others will be entirely new. </p>","","0","instructions","","",""
"html-button-response","17","127784","0.0-10.0","6375","approach_avoid_sv1","""event"",""trial"",""time""
""fullscreenenter"",""1"",""1878""
","
","
","""event"",""trial"",""time""
""fullscreenenter"",""1"",""1878""
","
","","","","","","2472.8000000715256","<p> Ready to practice? </p><p> Remember, use the 1, 2, 3, and 4 keys to make your responses. </p>","0","","instructions","","",""
"html-keyboard-response","18","128424","0.0-11.0-0.0","6375","approach_avoid_sv1","""event"",""trial"",""time""
""fullscreenenter"",""1"",""1878""
","
","
","""event"",""trial"",""time""
""fullscreenenter"",""1"",""1878""
","
","","","","","","null","<div style=""font-size:60px;"">+</div>","null","","fixation","","",""
"memory-trial","19","131184","0.0-11.0-1.0","6375","approach_avoid_sv1","""event"",""trial"",""time""
""fullscreenenter"",""1"",""1878""
","
","
","""event"",""trial"",""time""
""fullscreenenter"",""1"",""1878""
","
","","","","","","1733.7000000476837","images/racket1.png","","","practice","3","maybe_new",""
"html-keyboard-response","20","131703","0.0-11.0-0.1","6375","approach_avoid_sv1","""event"",""trial"",""time""
""fullscreenenter"",""1"",""1878""
","
","
","""event"",""trial"",""time""
""fullscreenenter"",""1"",""1878""
","
","","","","","","null","<div style=""font-size:60px;"">+</div>","null","","fixation","","",""
"memory-trial","21","135873","0.0-11.0-1.1","6375","approach_avoid_sv1","""event"",""trial"",""time""
""fullscreenenter"",""1"",""1878""
","
","
","""event"",""trial"",""time""
""fullscreenenter"",""1"",""1878""
","
","","","","","","3143.5","images/racket3.png","","","practice","2","maybe_old",""
"html-keyboard-response","22","136393","0.0-11.0-0.2","6375","approach_avoid_sv1","""event"",""trial"",""time""
""fullscreenenter"",""1"",""1878""
","
","
","""event"",""trial"",""time""
""fullscreenenter"",""1"",""1878""
","
","","","","","","null","<div style=""font-size:60px;"">+</div>","null","","fixation","","",""
"memory-trial","23","138973","0.0-11.0-1.2","6375","approach_avoid_sv1","""event"",""trial"",""time""
""fullscreenenter"",""1"",""1878""
","
","
","""event"",""trial"",""time""
""fullscreenenter"",""1"",""1878""
","
","","","","","","1559.6000000238419","images/ball2.png","","","practice","1","definitely_old",""
"html-keyboard-response","24","139493","0.0-11.0-0.3","6375","approach_avoid_sv1","""event"",""trial"",""time""
""fullscreenenter"",""1"",""1878""
","
","
","""event"",""trial"",""time""
""fullscreenenter"",""1"",""1878""
","
","","","","","","null","<div style=""font-size:60px;"">+</div>","null","","fixation","","",""
"memory-trial","25","141924","0.0-11.0-1.3","6375","approach_avoid_sv1","""event"",""trial"",""time""
""fullscreenenter"",""1"",""1878""
","
","
","""event"",""trial"",""time""
""fullscreenenter"",""1"",""1878""
","
","","","","","","1417","images/racket2.png","","","practice","1","definitely_old",""
"html-keyboard-response","26","142443","0.0-11.0-0.4","6375","approach_avoid_sv1","""event"",""trial"",""time""
""fullscreenenter"",""1"",""1878""
","
","
","""event"",""trial"",""time""
""fullscreenenter"",""1"",""1878""
","
","","","","","","null","<div style=""font-size:60px;"">+</div>","null","","fixation","","",""
"memory-trial","27","145314","0.0-11.0-1.4","6375","approach_avoid_sv1","""event"",""trial"",""time""
""fullscreenenter"",""1"",""1878""
","
","
","""event"",""trial"",""time""
""fullscreenenter"",""1"",""1878""
","
","","","","","","1859.8999999761581","images/ball3.png","","","practice","2","maybe_old",""
"html-keyboard-response","28","145833","0.0-11.0-0.5","6375","approach_avoid_sv1","""event"",""trial"",""time""
""fullscreenenter"",""1"",""1878""
","
","
","""event"",""trial"",""time""
""fullscreenenter"",""1"",""1878""
","
","","","","","","null","<div style=""font-size:60px;"">+</div>","null","","fixation","","",""
"memory-trial","29","150303","0.0-11.0-1.5","6375","approach_avoid_sv1","""event"",""trial"",""time""
""fullscreenenter"",""1"",""1878""
","
","
","""event"",""trial"",""time""
""fullscreenenter"",""1"",""1878""
","
","","","","","","3447.2000000476837","images/ball1.png","","","practice","3","maybe_new",""
"html-keyboard-response","30","150814","0.0-11.0-0.6","6375","approach_avoid_sv1","""event"",""trial"",""time""
""fullscreenenter"",""1"",""1878""
","
","
","""event"",""trial"",""time""
""fullscreenenter"",""1"",""1878""
","
","","","","","","null","<div style=""font-size:60px;"">+</div>","null","","fixation","","",""
"memory-trial","31","153519","0.0-11.0-1.6","6375","approach_avoid_sv1","""event"",""trial"",""time""
""fullscreenenter"",""1"",""1878""
","
","
","""event"",""trial"",""time""
""fullscreenenter"",""1"",""1878""
","
","","","","","","1695.2999999523163","images/racket5.png","","","practice","3","maybe_new",""
"html-keyboard-response","32","154027","0.0-11.0-0.7","6375","approach_avoid_sv1","""event"",""trial"",""time""
""fullscreenenter"",""1"",""1878""
","
","
","""event"",""trial"",""time""
""fullscreenenter"",""1"",""1878""
","
","","","","","","null","<div style=""font-size:60px;"">+</div>","null","","fixation","","",""
"memory-trial","33","156687","0.0-11.0-1.7","6375","approach_avoid_sv1","""event"",""trial"",""time""
""fullscreenenter"",""1"",""1878""
","
","
","""event"",""trial"",""time""
""fullscreenenter"",""1"",""1878""
","
","","","","","","1651.3999999761581","images/ball5.png","","","practice","1","definitely_old",""
"learning-instructions","34","165280","0.0-12.0-0.0","6375","approach_avoid_sv1","""event"",""trial"",""time""
""fullscreenenter"",""1"",""1878""
","
","
","""event"",""trial"",""time""
""fullscreenenter"",""1"",""1878""
","
","","","","","","1291.2000000476837","<p> Great! You have completed the practice. </p><p> Before you start, we're going to ask you a few questions about how the game works.  </p>","","0","instructions","","",""
"preload","35","174431","0.0-13.0","6375","approach_avoid_sv1","""event"",""trial"",""time""
""fullscreenenter"",""1"",""1878""
","
","
","""event"",""trial"",""time""
""fullscreenenter"",""1"",""1878""
","
","true","false","[]","[]","[]","","","","","","","",""
"comp-q","36","181440","0.0-14.0-0.0","6375","approach_avoid_sv1","""event"",""trial"",""time""
""fullscreenenter"",""1"",""1878""
","
","
","""event"",""trial"",""time""
""fullscreenenter"",""1"",""1878""
","
","","","","","","1181.3999999761581","<p> <b> True or False? </b> </p><p> In this game, you will only see each image once. </p>","","0","comp_question","","","true"
"comp-q","37","189840","0.0-14.0-1.0","6375","approach_avoid_sv1","""event"",""trial"",""time""
""fullscreenenter"",""1"",""1878""
","
","
","""event"",""trial"",""time""
""fullscreenenter"",""1"",""1878""
","
","","","","","","2060","<p> <b> That's right! </b> You will see many different images <i> one time each </i> in this game. </p>","","0","comp_answer","","",""
"comp-q","38","195912","0.0-15.0-0.0","6375","approach_avoid_sv1","""event"",""trial"",""time""
""fullscreenenter"",""1"",""1878""
","
","
","""event"",""trial"",""time""
""fullscreenenter"",""1"",""1878""
","
","","","","","","1052.2999999523163","<p> <b> True or False? </b> </p><p> You should use the mouse and click to make your response. </p>","","1","comp_question","","","true"
"comp-q","39","203488","0.0-15.0-1.0","6375","approach_avoid_sv1","""event"",""trial"",""time""
""fullscreenenter"",""1"",""1878""
","
","
","""event"",""trial"",""time""
""fullscreenenter"",""1"",""1878""
","
","","","","","","1079.2999999523163","<p><b> That's right! </b> You should use the '1', '2', '3', and '4' keys to make your response. </p>","","0","comp_answer","","",""
"comp-q","40","209968","0.0-16.0-0.0","6375","approach_avoid_sv1","""event"",""trial"",""time""
""fullscreenenter"",""1"",""1878""
","
","
","""event"",""trial"",""time""
""fullscreenenter"",""1"",""1878""
","
","","","","","","798.5","<p> <b> True or False? </b> </p><p> You will have as much time as you want to make each choice. </p>","","1","comp_question","","","true"
"comp-q","41","217160","0.0-16.0-1.0","6375","approach_avoid_sv1","""event"",""trial"",""time""
""fullscreenenter"",""1"",""1878""
","
","
","""event"",""trial"",""time""
""fullscreenenter"",""1"",""1878""
","
","","","","","","2480.1999999284744","<p> <b> That's right! </b> You will only have 10 seconds to make each choice. </p>","","0","comp_answer","","",""
"learning-instructions","42","227200","0.0-17.0","6375","approach_avoid_sv1","""event"",""trial"",""time""
""fullscreenenter"",""1"",""1878""
","
","
","""event"",""trial"",""time""
""fullscreenenter"",""1"",""1878""
","
","","","","","","1369.7000000476837","<p> Great! You are now ready to begin the game. </p><p> Remember, use the 1, 2, 3, and 4 keys to make your responses. </p>","","0","instructions","","",""
"html-keyboard-response","43","227827","0.0-18.0-0.0","6375","approach_avoid_sv1","""event"",""trial"",""time""
""fullscreenenter"",""1"",""1878""
","
","
","""event"",""trial"",""time""
""fullscreenenter"",""1"",""1878""
","
","","","","","","null","<div style=""font-size:60px;"">+</div>","null","","fixation","","",""
"memory-trial","44","230517","0.0-18.0-1.0","6375","approach_avoid_sv1","""event"",""trial"",""time""
""fullscreenenter"",""1"",""1878""
","
","
","""event"",""trial"",""time""
""fullscreenenter"",""1"",""1878""
","
","","","","","","1674.2999999523163","images/goat7.png","","","memory_trial","3","maybe_new",""
"html-keyboard-response","45","231037","0.0-18.0-0.1","6375","approach_avoid_sv1","""event"",""trial"",""time""
""fullscreenenter"",""1"",""1878""
","
","
","""event"",""trial"",""time""
""fullscreenenter"",""1"",""1878""
","
","","","","","","null","<div style=""font-size:60px;"">+</div>","null","","fixation","","",""
"memory-trial","46","233397","0.0-18.0-1.1","6375","approach_avoid_sv1","""event"",""trial"",""time""
""fullscreenenter"",""1"",""1878""
","
","
","""event"",""trial"",""time""
""fullscreenenter"",""1"",""1878""
","
","","","","","","1345.6000000238419","images/horse4.png","","","memory_trial","1","definitely_old",""
"html-keyboard-response","47","233909","0.0-18.0-0.2","6375","approach_avoid_sv1","""event"",""trial"",""time""
""fullscreenenter"",""1"",""1878""
","
","
","""event"",""trial"",""time""
""fullscreenenter"",""1"",""1878""
","
","","","","","","null","<div style=""font-size:60px;"">+</div>","null","","fixation","","",""
"memory-trial","48","235777","0.0-18.0-1.2","6375","approach_avoid_sv1","""event"",""trial"",""time""
""fullscreenenter"",""1"",""1878""
","
","
","""event"",""trial"",""time""
""fullscreenenter"",""1"",""1878""
","
","","","","","","857.7999999523163","images/flower8.png","","","memory_trial","1","definitely_old",""
"html-keyboard-response","49","236297","0.0-18.0-0.3","6375","approach_avoid_sv1","""event"",""trial"",""time""
""fullscreenenter"",""1"",""1878""
","
","
","""event"",""trial"",""time""
""fullscreenenter"",""1"",""1878""
","
","","","","","","null","<div style=""font-size:60px;"">+</div>","null","","fixation","","",""
"memory-trial","50","238847","0.0-18.0-1.3","6375","approach_avoid_sv1","""event"",""trial"",""time""
""fullscreenenter"",""1"",""1878""
","
","
","""event"",""trial"",""time""
""fullscreenenter"",""1"",""1878""
","
","","","","","","1528.3999999761581","images/bush7.png","","","memory_trial","1","definitely_old",""
"html-keyboard-response","51","239367","0.0-18.0-0.4","6375","approach_avoid_sv1","""event"",""trial"",""time""
""fullscreenenter"",""1"",""1878""
","
","
","""event"",""trial"",""time""
""fullscreenenter"",""1"",""1878""
","
","","","","","","null","<div style=""font-size:60px;"">+</div>","null","","fixation","","",""
"memory-trial","52","241587","0.0-18.0-1.4","6375","approach_avoid_sv1","""event"",""trial"",""time""
""fullscreenenter"",""1"",""1878""
","
","
","""event"",""trial"",""time""
""fullscreenenter"",""1"",""1878""
","
","","","","","","1207.7000000476837","images/straw7.png","","","memory_trial","1","definitely_old",""
"html-keyboard-response","53","242107","0.0-18.0-0.5","6375","approach_avoid_sv1","""event"",""trial"",""time""
""fullscreenenter"",""1"",""1878""
","
","
","""event"",""trial"",""time""
""fullscreenenter"",""1"",""1878""
","
","","","","","","null","<div style=""font-size:60px;"">+</div>","null","","fixation","","",""
"memory-trial","54","245037","0.0-18.0-1.5","6375","approach_avoid_sv1","""event"",""trial"",""time""
""fullscreenenter"",""1"",""1878""
","
","
","""event"",""trial"",""time""
""fullscreenenter"",""1"",""1878""
","
","","","","","","1907","images/cactus4.png","","","memory_trial","4","definitely_new",""
"html-keyboard-response","55","245556","0.0-18.0-0.6","6375","approach_avoid_sv1","""event"",""trial"",""time""
""fullscreenenter"",""1"",""1878""
","
","
","""event"",""trial"",""time""
""fullscreenenter"",""1"",""1878""
","
","","","","","","null","<div style=""font-size:60px;"">+</div>","null","","fixation","","",""
"memory-trial","56","247896","0.0-18.0-1.6","6375","approach_avoid_sv1","""event"",""trial"",""time""
""fullscreenenter"",""1"",""1878""
","
","
","""event"",""trial"",""time""
""fullscreenenter"",""1"",""1878""
","
","","","","","","1321.5","images/horse7.png","","","memory_trial","1","definitely_old",""
"html-keyboard-response","57","248417","0.0-18.0-0.7","6375","approach_avoid_sv1","""event"",""trial"",""time""
""fullscreenenter"",""1"",""1878""
","
","
","""event"",""trial"",""time""
""fullscreenenter"",""1"",""1878""
","
","","","","","","null","<div style=""font-size:60px;"">+</div>","null","","fixation","","",""
"memory-trial","58","250813","0.0-18.0-1.7","6375","approach_avoid_sv1","""event"",""trial"",""time""
""fullscreenenter"",""1"",""1878""
","
","
","""event"",""trial"",""time""
""fullscreenenter"",""1"",""1878""
","
","","","","","","1376.3999999761581","images/orange6.png","","","memory_trial","1","definitely_old",""
"html-keyboard-response","59","251327","0.0-18.0-0.8","6375","approach_avoid_sv1","""event"",""trial"",""time""
""fullscreenenter"",""1"",""1878""
","
","
","""event"",""trial"",""time""
""fullscreenenter"",""1"",""1878""
","
","","","","","","null","<div style=""font-size:60px;"">+</div>","null","","fixation","","",""
"memory-trial","60","253947","0.0-18.0-1.8","6375","approach_avoid_sv1","""event"",""trial"",""time""
""fullscreenenter"",""1"",""1878""
","
","
","""event"",""trial"",""time""
""fullscreenenter"",""1"",""1878""
","
","","","","","","1599.7000000476837","images/apple4.png","","","memory_trial","4","definitely_new",""
"html-keyboard-response","61","254467","0.0-18.0-0.9","6375","approach_avoid_sv1","""event"",""trial"",""time""
""fullscreenenter"",""1"",""1878""
","
","
","""event"",""trial"",""time""
""fullscreenenter"",""1"",""1878""
","
","","","","","","null","<div style=""font-size:60px;"">+</div>","null","","fixation","","",""
"memory-trial","62","257407","0.0-18.0-1.9","6375","approach_avoid_sv1","""event"",""trial"",""time""
""fullscreenenter"",""1"",""1878""
","
","
","""event"",""trial"",""time""
""fullscreenenter"",""1"",""1878""
","
","","","","","","1931.5","images/boat1.png","","","memory_trial","2","maybe_old",""
"html-keyboard-response","63","257911","0.0-18.0-0.10","6375","approach_avoid_sv1","""event"",""trial"",""time""
""fullscreenenter"",""1"",""1878""
","
","
","""event"",""trial"",""time""
""fullscreenenter"",""1"",""1878""
","
","","","","","","null","<div style=""font-size:60px;"">+</div>","null","","fixation","","",""
"memory-trial","64","260702","0.0-18.0-1.10","6375","approach_avoid_sv1","""event"",""trial"",""time""
""fullscreenenter"",""1"",""1878""
","
","
","""event"",""trial"",""time""
""fullscreenenter"",""1"",""1878""
","
","","","","","","1783.3999999761581","images/truck5.png","","","memory_trial","3","maybe_new",""
"html-keyboard-response","65","261207","0.0-18.0-0.11","6375","approach_avoid_sv1","""event"",""trial"",""time""
""fullscreenenter"",""1"",""1878""
","
","
","""event"",""trial"",""time""
""fullscreenenter"",""1"",""1878""
","
","","","","","","null","<div style=""font-size:60px;"">+</div>","null","","fixation","","",""
"memory-trial","66","263422","0.0-18.0-1.11","6375","approach_avoid_sv1","""event"",""trial"",""time""
""fullscreenenter"",""1"",""1878""
","
","
","""event"",""trial"",""time""
""fullscreenenter"",""1"",""1878""
","
","","","","","","1212.3000000715256","images/chair5.png","","","memory_trial","1","definitely_old",""
"html-keyboard-response","67","263926","0.0-18.0-0.12","6375","approach_avoid_sv1","""event"",""trial"",""time""
""fullscreenenter"",""1"",""1878""
","
","
","""event"",""trial"",""time""
""fullscreenenter"",""1"",""1878""
","
","","","","","","null","<div style=""font-size:60px;"">+</div>","null","","fixation","","",""
"memory-trial","68","266687","0.0-18.0-1.12","6375","approach_avoid_sv1","""event"",""trial"",""time""
""fullscreenenter"",""1"",""1878""
","
","
","""event"",""trial"",""time""
""fullscreenenter"",""1"",""1878""
","
","","","","","","1752.5","images/flower5.png","","","memory_trial","3","maybe_new",""
"html-keyboard-response","69","267191","0.0-18.0-0.13","6375","approach_avoid_sv1","""event"",""trial"",""time""
""fullscreenenter"",""1"",""1878""
","
","
","""event"",""trial"",""time""
""fullscreenenter"",""1"",""1878""
","
","","","","","","null","<div style=""font-size:60px;"">+</div>","null","","fixation","","",""
"memory-trial","70","269551","0.0-18.0-1.13","6375","approach_avoid_sv1","""event"",""trial"",""time""
""fullscreenenter"",""1"",""1878""
","
","
","""event"",""trial"",""time""
""fullscreenenter"",""1"",""1878""
","
","","","","","","1350","images/bush4.png","","","memory_trial","1","definitely_old",""
"html-keyboard-response","71","270054","0.0-18.0-0.14","6375","approach_avoid_sv1","""event"",""trial"",""time""
""fullscreenenter"",""1"",""1878""
","
","
","""event"",""trial"",""time""
""fullscreenenter"",""1"",""1878""
","
","","","","","","null","<div style=""font-size:60px;"">+</div>","null","","fixation","","",""
"memory-trial","72","273384","0.0-18.0-1.14","6375","approach_avoid_sv1","""event"",""trial"",""time""
""fullscreenenter"",""1"",""1878""
","
","
","""event"",""trial"",""time""
""fullscreenenter"",""1"",""1878""
","
","","","","","","2311.7999999523163","images/dog2.png","","","memory_trial","2","maybe_old",""
"html-keyboard-response","73","273885","0.0-18.0-0.15","6375","approach_avoid_sv1","""event"",""trial"",""time""
""fullscreenenter"",""1"",""1878""
","
","
","""event"",""trial"",""time""
""fullscreenenter"",""1"",""1878""
","
","","","","","","null","<div style=""font-size:60px;"">+</div>","null","","fixation","","",""
"memory-trial","74","277071","0.0-18.0-1.15","6375","approach_avoid_sv1","""event"",""trial"",""time""
""fullscreenenter"",""1"",""1878""
","
","
","""event"",""trial"",""time""
""fullscreenenter"",""1"",""1878""
","
","","","","","","2180.2000000476837","images/sofa4.png","","","memory_trial","3","maybe_new",""
"html-keyboard-response","75","277573","0.0-18.0-0.16","6375","approach_avoid_sv1","""event"",""trial"",""time""
""fullscreenenter"",""1"",""1878""
","
","
","""event"",""trial"",""time""
""fullscreenenter"",""1"",""1878""
","
","","","","","","null","<div style=""font-size:60px;"">+</div>","null","","fixation","","",""
"memory-trial","76","281358","0.0-18.0-1.16","6375","approach_avoid_sv1","""event"",""trial"",""time""
""fullscreenenter"",""1"",""1878""
","
","
","""event"",""trial"",""time""
""fullscreenenter"",""1"",""1878""
","
","","","","","","2775.2000000476837","images/orange2.png","","","memory_trial","3","maybe_new",""
"html-keyboard-response","77","281862","0.0-18.0-0.17","6375","approach_avoid_sv1","""event"",""trial"",""time""
""fullscreenenter"",""1"",""1878""
","
","
","""event"",""trial"",""time""
""fullscreenenter"",""1"",""1878""
","
","","","","","","null","<div style=""font-size:60px;"">+</div>","null","","fixation","","",""
"memory-trial","78","284047","0.0-18.0-1.17","6375","approach_avoid_sv1","""event"",""trial"",""time""
""fullscreenenter"",""1"",""1878""
","
","
","""event"",""trial"",""time""
""fullscreenenter"",""1"",""1878""
","
","","","","","","1176","images/cat1.png","","","memory_trial","1","definitely_old",""
"html-keyboard-response","79","284551","0.0-18.0-0.18","6375","approach_avoid_sv1","""event"",""trial"",""time""
""fullscreenenter"",""1"",""1878""
","
","
","""event"",""trial"",""time""
""fullscreenenter"",""1"",""1878""
","
","","","","","","null","<div style=""font-size:60px;"">+</div>","null","","fixation","","",""
"memory-trial","80","286862","0.0-18.0-1.18","6375","approach_avoid_sv1","""event"",""trial"",""time""
""fullscreenenter"",""1"",""1878""
","
","
","""event"",""trial"",""time""
""fullscreenenter"",""1"",""1878""
","
","","","","","","1302.3999999761581","images/sofa2.png","","","memory_trial","1","definitely_old",""
"html-keyboard-response","81","287366","0.0-18.0-0.19","6375","approach_avoid_sv1","""event"",""trial"",""time""
""fullscreenenter"",""1"",""1878""
","
","
","""event"",""trial"",""time""
""fullscreenenter"",""1"",""1878""
","
","","","","","","null","<div style=""font-size:60px;"">+</div>","null","","fixation","","",""
"memory-trial","82","290702","0.0-18.0-1.19","6375","approach_avoid_sv1","""event"",""trial"",""time""
""fullscreenenter"",""1"",""1878""
","
","
","""event"",""trial"",""time""
""fullscreenenter"",""1"",""1878""
","
","","","","","","2331.7000000476837","images/plane4.png","","","memory_trial","3","maybe_new",""
"html-keyboard-response","83","291205","0.0-18.0-0.20","6375","approach_avoid_sv1","""event"",""trial"",""time""
""fullscreenenter"",""1"",""1878""
","
","
","""event"",""trial"",""time""
""fullscreenenter"",""1"",""1878""
","
","","","","","","null","<div style=""font-size:60px;"">+</div>","null","","fixation","","",""
"memory-trial","84","294462","0.0-18.0-1.20","6375","approach_avoid_sv1","""event"",""trial"",""time""
""fullscreenenter"",""1"",""1878""
","
","
","""event"",""trial"",""time""
""fullscreenenter"",""1"",""1878""
","
","","","","","","2247.2000000476837","images/dog6.png","","","memory_trial","1","definitely_old",""
"html-keyboard-response","85","294965","0.0-18.0-0.21","6375","approach_avoid_sv1","""event"",""trial"",""time""
""fullscreenenter"",""1"",""1878""
","
","
","""event"",""trial"",""time""
""fullscreenenter"",""1"",""1878""
","
","","","","","","null","<div style=""font-size:60px;"">+</div>","null","","fixation","","",""
"memory-trial","86","297758","0.0-18.0-1.21","6375","approach_avoid_sv1","""event"",""trial"",""time""
""fullscreenenter"",""1"",""1878""
","
","
","""event"",""trial"",""time""
""fullscreenenter"",""1"",""1878""
","
","","","","","","1783.6000000238419","images/rabbit5.png","","","memory_trial","3","maybe_new",""
"html-keyboard-response","87","298262","0.0-18.0-0.22","6375","approach_avoid_sv1","""event"",""trial"",""time""
""fullscreenenter"",""1"",""1878""
","
","
","""event"",""trial"",""time""
""fullscreenenter"",""1"",""1878""
","
","","","","","","null","<div style=""font-size:60px;"">+</div>","null","","fixation","","",""
"memory-trial","88","300959","0.0-18.0-1.22","6375","approach_avoid_sv1","""event"",""trial"",""time""
""fullscreenenter"",""1"",""1878""
","
","
","""event"",""trial"",""time""
""fullscreenenter"",""1"",""1878""
","
","","","","","","1690","images/straw3.png","","","memory_trial","4","definitely_new",""
"html-keyboard-response","89","301462","0.0-18.0-0.23","6375","approach_avoid_sv1","""event"",""trial"",""time""
""fullscreenenter"",""1"",""1878""
","
","
","""event"",""trial"",""time""
""fullscreenenter"",""1"",""1878""
","
","","","","","","null","<div style=""font-size:60px;"">+</div>","null","","fixation","","",""
"memory-trial","90","305006","0.0-18.0-1.23","6375","approach_avoid_sv1","""event"",""trial"",""time""
""fullscreenenter"",""1"",""1878""
","
","
","""event"",""trial"",""time""
""fullscreenenter"",""1"",""1878""
","
","","","","","","2536.3000000715256","images/straw1.png","","","memory_trial","1","definitely_old",""
"html-keyboard-response","91","305511","0.0-18.0-0.24","6375","approach_avoid_sv1","""event"",""trial"",""time""
""fullscreenenter"",""1"",""1878""
","
","
","""event"",""trial"",""time""
""fullscreenenter"",""1"",""1878""
","
","","","","","","null","<div style=""font-size:60px;"">+</div>","null","","fixation","","",""
"memory-trial","92","307982","0.0-18.0-1.24","6375","approach_avoid_sv1","""event"",""trial"",""time""
""fullscreenenter"",""1"",""1878""
","
","
","""event"",""trial"",""time""
""fullscreenenter"",""1"",""1878""
","
","","","","","","1462.2999999523163","images/cat6.png","","","memory_trial","1","definitely_old",""
"html-keyboard-response","93","308486","0.0-18.0-0.25","6375","approach_avoid_sv1","""event"",""trial"",""time""
""fullscreenenter"",""1"",""1878""
","
","
","""event"",""trial"",""time""
""fullscreenenter"",""1"",""1878""
","
","","","","","","null","<div style=""font-size:60px;"">+</div>","null","","fixation","","",""
"memory-trial","94","310926","0.0-18.0-1.25","6375","approach_avoid_sv1","""event"",""trial"",""time""
""fullscreenenter"",""1"",""1878""
","
","
","""event"",""trial"",""time""
""fullscreenenter"",""1"",""1878""
","
","","","","","","1432.3999999761581","images/cactus3.png","","","memory_trial","4","definitely_new",""
"html-keyboard-response","95","311430","0.0-18.0-0.26","6375","approach_avoid_sv1","""event"",""trial"",""time""
""fullscreenenter"",""1"",""1878""
","
","
","""event"",""trial"",""time""
""fullscreenenter"",""1"",""1878""
","
","","","","","","null","<div style=""font-size:60px;"">+</div>","null","","fixation","","",""
"memory-trial","96","313444","0.0-18.0-1.26","6375","approach_avoid_sv1","""event"",""trial"",""time""
""fullscreenenter"",""1"",""1878""
","
","
","""event"",""trial"",""time""
""fullscreenenter"",""1"",""1878""
","
","","","","","","1004.1000000238419","images/apple5.png","","","memory_trial","4","definitely_new",""
"html-keyboard-response","97","313950","0.0-18.0-0.27","6375","approach_avoid_sv1","""event"",""trial"",""time""
""fullscreenenter"",""1"",""1878""
","
","
","""event"",""trial"",""time""
""fullscreenenter"",""1"",""1878""
","
","","","","","","null","<div style=""font-size:60px;"">+</div>","null","","fixation","","",""
"memory-trial","98","315759","0.0-18.0-1.27","6375","approach_avoid_sv1","""event"",""trial"",""time""
""fullscreenenter"",""1"",""1878""
","
","
","""event"",""trial"",""time""
""fullscreenenter"",""1"",""1878""
","
","","","","","","800.1000000238419","images/cactus6.png","","","memory_trial","4","definitely_new",""
"html-keyboard-response","99","316262","0.0-18.0-0.28","6375","approach_avoid_sv1","""event"",""trial"",""time""
""fullscreenenter"",""1"",""1878""
","
","
","""event"",""trial"",""time""
""fullscreenenter"",""1"",""1878""
","
","","","","","","null","<div style=""font-size:60px;"">+</div>","null","","fixation","","",""
"memory-trial","100","319103","0.0-18.0-1.28","6375","approach_avoid_sv1","""event"",""trial"",""time""
""fullscreenenter"",""1"",""1878""
","
","
","""event"",""trial"",""time""
""fullscreenenter"",""1"",""1878""
","
","","","","","","1831.0999999046326","images/goat2.png","","","memory_trial","3","maybe_new",""
"html-keyboard-response","101","319606","0.0-18.0-0.29","6375","approach_avoid_sv1","""event"",""trial"",""time""
""fullscreenenter"",""1"",""1878""
","
","
","""event"",""trial"",""time""
""fullscreenenter"",""1"",""1878""
","
","","","","","","null","<div style=""font-size:60px;"">+</div>","null","","fixation","","",""
"memory-trial","102","321678","0.0-18.0-1.29","6375","approach_avoid_sv1","""event"",""trial"",""time""
""fullscreenenter"",""1"",""1878""
","
","
","""event"",""trial"",""time""
""fullscreenenter"",""1"",""1878""
","
","","","","","","1063.8999999761581","images/bed5.png","","","memory_trial","4","definitely_new",""
"html-keyboard-response","103","322182","0.0-18.0-0.30","6375","approach_avoid_sv1","""event"",""trial"",""time""
""fullscreenenter"",""1"",""1878""
","
","
","""event"",""trial"",""time""
""fullscreenenter"",""1"",""1878""
","
","","","","","","null","<div style=""font-size:60px;"">+</div>","null","","fixation","","",""
"memory-trial","104","325038","0.0-18.0-1.30","6375","approach_avoid_sv1","""event"",""trial"",""time""
""fullscreenenter"",""1"",""1878""
","
","
","""event"",""trial"",""time""
""fullscreenenter"",""1"",""1878""
","
","","","","","","1851.1000000238419","images/dog5.png","","","memory_trial","4","definitely_new",""
"html-keyboard-response","105","325542","0.0-18.0-0.31","6375","approach_avoid_sv1","""event"",""trial"",""time""
""fullscreenenter"",""1"",""1878""
","
","
","""event"",""trial"",""time""
""fullscreenenter"",""1"",""1878""
","
","","","","","","null","<div style=""font-size:60px;"">+</div>","null","","fixation","","",""
"memory-trial","106","328254","0.0-18.0-1.31","6375","approach_avoid_sv1","""event"",""trial"",""time""
""fullscreenenter"",""1"",""1878""
","
","
","""event"",""trial"",""time""
""fullscreenenter"",""1"",""1878""
","
","","","","","","1703.7999999523163","images/cow8.png","","","memory_trial","4","definitely_new",""
"html-keyboard-response","107","328758","0.0-18.0-0.32","6375","approach_avoid_sv1","""event"",""trial"",""time""
""fullscreenenter"",""1"",""1878""
","
","
","""event"",""trial"",""time""
""fullscreenenter"",""1"",""1878""
","
","","","","","","null","<div style=""font-size:60px;"">+</div>","null","","fixation","","",""
"memory-trial","108","331134","0.0-18.0-1.32","6375","approach_avoid_sv1","""event"",""trial"",""time""
""fullscreenenter"",""1"",""1878""
","
","
","""event"",""trial"",""time""
""fullscreenenter"",""1"",""1878""
","
","","","","","","1367.9000000953674","images/table2.png","","","memory_trial","1","definitely_old",""
"html-keyboard-response","109","331638","0.0-18.0-0.33","6375","approach_avoid_sv1","""event"",""trial"",""time""
""fullscreenenter"",""1"",""1878""
","
","
","""event"",""trial"",""time""
""fullscreenenter"",""1"",""1878""
","
","","","","","","null","<div style=""font-size:60px;"">+</div>","null","","fixation","","",""
"memory-trial","110","334271","0.0-18.0-1.33","6375","approach_avoid_sv1","""event"",""trial"",""time""
""fullscreenenter"",""1"",""1878""
","
","
","""event"",""trial"",""time""
""fullscreenenter"",""1"",""1878""
","
","","","","","","1624.3000000715256","images/sofa8.png","","","memory_trial","1","definitely_old",""
"html-keyboard-response","111","334774","0.0-18.0-0.34","6375","approach_avoid_sv1","""event"",""trial"",""time""
""fullscreenenter"",""1"",""1878""
","
","
","""event"",""trial"",""time""
""fullscreenenter"",""1"",""1878""
","
","","","","","","null","<div style=""font-size:60px;"">+</div>","null","","fixation","","",""
"memory-trial","112","337648","0.0-18.0-1.34","6375","approach_avoid_sv1","""event"",""trial"",""time""
""fullscreenenter"",""1"",""1878""
","
","
","""event"",""trial"",""time""
""fullscreenenter"",""1"",""1878""
","
","","","","","","1866.8999999761581","images/orange5.png","","","memory_trial","1","definitely_old",""
"html-keyboard-response","113","338150","0.0-18.0-0.35","6375","approach_avoid_sv1","""event"",""trial"",""time""
""fullscreenenter"",""1"",""1878""
","
","
","""event"",""trial"",""time""
""fullscreenenter"",""1"",""1878""
","
","","","","","","null","<div style=""font-size:60px;"">+</div>","null","","fixation","","",""
"memory-trial","114","341471","0.0-18.0-1.35","6375","approach_avoid_sv1","""event"",""trial"",""time""
""fullscreenenter"",""1"",""1878""
","
","
","""event"",""trial"",""time""
""fullscreenenter"",""1"",""1878""
","
","","","","","","2311.8000000715256","images/flower2.png","","","memory_trial","3","maybe_new",""
"html-keyboard-response","115","341989","0.0-18.0-0.36","6375","approach_avoid_sv1","""event"",""trial"",""time""
""fullscreenenter"",""1"",""1878""
","
","
","""event"",""trial"",""time""
""fullscreenenter"",""1"",""1878""
","
","","","","","","null","<div style=""font-size:60px;"">+</div>","null","","fixation","","",""
"memory-trial","116","345343","0.0-18.0-1.36","6375","approach_avoid_sv1","""event"",""trial"",""time""
""fullscreenenter"",""1"",""1878""
","
","
","""event"",""trial"",""time""
""fullscreenenter"",""1"",""1878""
","
","","","","","","2344.2999999523163","images/flower4.png","","","memory_trial","2","maybe_old",""
"html-keyboard-response","117","345847","0.0-18.0-0.37","6375","approach_avoid_sv1","""event"",""trial"",""time""
""fullscreenenter"",""1"",""1878""
","
","
","""event"",""trial"",""time""
""fullscreenenter"",""1"",""1878""
","
","","","","","","null","<div style=""font-size:60px;"">+</div>","null","","fixation","","",""
"memory-trial","118","348047","0.0-18.0-1.37","6375","approach_avoid_sv1","""event"",""trial"",""time""
""fullscreenenter"",""1"",""1878""
","
","
","""event"",""trial"",""time""
""fullscreenenter"",""1"",""1878""
","
","","","","","","1193.1999999284744","images/flower7.png","","","memory_trial","1","definitely_old",""
"html-keyboard-response","119","348551","0.0-18.0-0.38","6375","approach_avoid_sv1","""event"",""trial"",""time""
""fullscreenenter"",""1"",""1878""
","
","
","""event"",""trial"",""time""
""fullscreenenter"",""1"",""1878""
","
","","","","","","null","<div style=""font-size:60px;"">+</div>","null","","fixation","","",""
"memory-trial","120","351231","0.0-18.0-1.38","6375","approach_avoid_sv1","""event"",""trial"",""time""
""fullscreenenter"",""1"",""1878""
","
","
","""event"",""trial"",""time""
""fullscreenenter"",""1"",""1878""
","
","","","","","","1670.5","images/table3.png","","","memory_trial","3","maybe_new",""
"html-keyboard-response","121","351734","0.0-18.0-0.39","6375","approach_avoid_sv1","""event"",""trial"",""time""
""fullscreenenter"",""1"",""1878""
","
","
","""event"",""trial"",""time""
""fullscreenenter"",""1"",""1878""
","
","","","","","","null","<div style=""font-size:60px;"">+</div>","null","","fixation","","",""
"memory-trial","122","353662","0.0-18.0-1.39","6375","approach_avoid_sv1","""event"",""trial"",""time""
""fullscreenenter"",""1"",""1878""
","
","
","""event"",""trial"",""time""
""fullscreenenter"",""1"",""1878""
","
","","","","","","920.1999999284744","images/bed1.png","","","memory_trial","4","definitely_new",""
"html-keyboard-response","123","354166","0.0-18.0-0.40","6375","approach_avoid_sv1","""event"",""trial"",""time""
""fullscreenenter"",""1"",""1878""
","
","
","""event"",""trial"",""time""
""fullscreenenter"",""1"",""1878""
","
","","","","","","null","<div style=""font-size:60px;"">+</div>","null","","fixation","","",""
"memory-trial","124","356654","0.0-18.0-1.40","6375","approach_avoid_sv1","""event"",""trial"",""time""
""fullscreenenter"",""1"",""1878""
","
","
","""event"",""trial"",""time""
""fullscreenenter"",""1"",""1878""
","
","","","","","","1480.5999999046326","images/flower1.png","","","memory_trial","4","definitely_new",""
"html-keyboard-response","125","357158","0.0-18.0-0.41","6375","approach_avoid_sv1","""event"",""trial"",""time""
""fullscreenenter"",""1"",""1878""
","
","
","""event"",""trial"",""time""
""fullscreenenter"",""1"",""1878""
","
","","","","","","null","<div style=""font-size:60px;"">+</div>","null","","fixation","","",""
"memory-trial","126","359711","0.0-18.0-1.41","6375","approach_avoid_sv1","""event"",""trial"",""time""
""fullscreenenter"",""1"",""1878""
","
","
","""event"",""trial"",""time""
""fullscreenenter"",""1"",""1878""
","
","","","","","","1546.3999999761581","images/tree7.png","","","memory_trial","1","definitely_old",""
"html-button-response","127","362840","0.0-18.0-2.41-0.41","6375","approach_avoid_sv1","""event"",""trial"",""time""
""fullscreenenter"",""1"",""1878""
","
","
","""event"",""trial"",""time""
""fullscreenenter"",""1"",""1878""
","
","","","","","","3127.6999999284744","<p> Take a break! </p><p> Click the button to continue. </p>","0","","break","","",""
"html-keyboard-response","128","363342","0.0-18.0-0.42","6375","approach_avoid_sv1","""event"",""trial"",""time""
""fullscreenenter"",""1"",""1878""
","
","
","""event"",""trial"",""time""
""fullscreenenter"",""1"",""1878""
","
","","","","","","null","<div style=""font-size:60px;"">+</div>","null","","fixation","","",""
"memory-trial","129","366735","0.0-18.0-1.42","6375","approach_avoid_sv1","""event"",""trial"",""time""
""fullscreenenter"",""1"",""1878""
","
","
","""event"",""trial"",""time""
""fullscreenenter"",""1"",""1878""
","
","","","","","","2383.2000000476837","images/tree4.png","","","memory_trial","3","maybe_new",""
"html-keyboard-response","130","367238","0.0-18.0-0.43","6375","approach_avoid_sv1","""event"",""trial"",""time""
""fullscreenenter"",""1"",""1878""
","
","
","""event"",""trial"",""time""
""fullscreenenter"",""1"",""1878""
","
","","","","","","null","<div style=""font-size:60px;"">+</div>","null","","fixation","","",""
"memory-trial","131","369727","0.0-18.0-1.43","6375","approach_avoid_sv1","""event"",""trial"",""time""
""fullscreenenter"",""1"",""1878""
","
","
","""event"",""trial"",""time""
""fullscreenenter"",""1"",""1878""
","
","","","","","","1482.8999999761581","images/plane6.png","","","memory_trial","1","definitely_old",""
"html-keyboard-response","132","370230","0.0-18.0-0.44","6375","approach_avoid_sv1","""event"",""trial"",""time""
""fullscreenenter"",""1"",""1878""
","
","
","""event"",""trial"",""time""
""fullscreenenter"",""1"",""1878""
","
","","","","","","null","<div style=""font-size:60px;"">+</div>","null","","fixation","","",""
"memory-trial","133","372527","0.0-18.0-1.44","6375","approach_avoid_sv1","""event"",""trial"",""time""
""fullscreenenter"",""1"",""1878""
","
","
","""event"",""trial"",""time""
""fullscreenenter"",""1"",""1878""
","
","","","","","","1289","images/orange8.png","","","memory_trial","4","definitely_new",""
"html-keyboard-response","134","373030","0.0-18.0-0.45","6375","approach_avoid_sv1","""event"",""trial"",""time""
""fullscreenenter"",""1"",""1878""
","
","
","""event"",""trial"",""time""
""fullscreenenter"",""1"",""1878""
","
","","","","","","null","<div style=""font-size:60px;"">+</div>","null","","fixation","","",""
"memory-trial","135","375919","0.0-18.0-1.45","6375","approach_avoid_sv1","""event"",""trial"",""time""
""fullscreenenter"",""1"",""1878""
","
","
","""event"",""trial"",""time""
""fullscreenenter"",""1"",""1878""
","
","","","","","","1880.1000000238419","images/sheep8.png","","","memory_trial","4","definitely_new",""
"html-keyboard-response","136","376422","0.0-18.0-0.46","6375","approach_avoid_sv1","""event"",""trial"",""time""
""fullscreenenter"",""1"",""1878""
","
","
","""event"",""trial"",""time""
""fullscreenenter"",""1"",""1878""
","
","","","","","","null","<div style=""font-size:60px;"">+</div>","null","","fixation","","",""
"memory-trial","137","378175","0.0-18.0-1.46","6375","approach_avoid_sv1","""event"",""trial"",""time""
""fullscreenenter"",""1"",""1878""
","
","
","""event"",""trial"",""time""
""fullscreenenter"",""1"",""1878""
","
","","","","","","744.8999999761581","images/bed2.png","","","memory_trial","4","definitely_new",""
"html-keyboard-response","138","378678","0.0-18.0-0.47","6375","approach_avoid_sv1","""event"",""trial"",""time""
""fullscreenenter"",""1"",""1878""
","
","
","""event"",""trial"",""time""
""fullscreenenter"",""1"",""1878""
","
","","","","","","null","<div style=""font-size:60px;"">+</div>","null","","fixation","","",""
"memory-trial","139","381998","0.0-18.0-1.47","6375","approach_avoid_sv1","""event"",""trial"",""time""
""fullscreenenter"",""1"",""1878""
","
","
","""event"",""trial"",""time""
""fullscreenenter"",""1"",""1878""
","
","","","","","","2317","images/straw6.png","","","memory_trial","2","maybe_old",""
"html-keyboard-response","140","382502","0.0-18.0-0.48","6375","approach_avoid_sv1","""event"",""trial"",""time""
""fullscreenenter"",""1"",""1878""
","
","
","""event"",""trial"",""time""
""fullscreenenter"",""1"",""1878""
","
","","","","","","null","<div style=""font-size:60px;"">+</div>","null","","fixation","","",""
"memory-trial","141","384927","0.0-18.0-1.48","6375","approach_avoid_sv1","""event"",""trial"",""time""
""fullscreenenter"",""1"",""1878""
","
","
","""event"",""trial"",""time""
""fullscreenenter"",""1"",""1878""
","
","","","","","","1416","images/banana7.png","","","memory_trial","1","definitely_old",""
"html-keyboard-response","142","385431","0.0-18.0-0.49","6375","approach_avoid_sv1","""event"",""trial"",""time""
""fullscreenenter"",""1"",""1878""
","
","
","""event"",""trial"",""time""
""fullscreenenter"",""1"",""1878""
","
","","","","","","null","<div style=""font-size:60px;"">+</div>","null","","fixation","","",""
"memory-trial","143","387695","0.0-18.0-1.49","6375","approach_avoid_sv1","""event"",""trial"",""time""
""fullscreenenter"",""1"",""1878""
","
","
","""event"",""trial"",""time""
""fullscreenenter"",""1"",""1878""
","
","","","","","","1255.7000000476837","images/banana6.png","","","memory_trial","4","definitely_new",""
"html-keyboard-response","144","388198","0.0-18.0-0.50","6375","approach_avoid_sv1","""event"",""trial"",""time""
""fullscreenenter"",""1"",""1878""
","
","
","""event"",""trial"",""time""
""fullscreenenter"",""1"",""1878""
","
","","","","","","null","<div style=""font-size:60px;"">+</div>","null","","fixation","","",""
"memory-trial","145","390718","0.0-18.0-1.50","6375","approach_avoid_sv1","""event"",""trial"",""time""
""fullscreenenter"",""1"",""1878""
","
","
","""event"",""trial"",""time""
""fullscreenenter"",""1"",""1878""
","
","","","","","","1512.5","images/orange7.png","","","memory_trial","4","definitely_new",""
"html-keyboard-response","146","391232","0.0-18.0-0.51","6375","approach_avoid_sv1","""event"",""trial"",""time""
""fullscreenenter"",""1"",""1878""
","
","
","""event"",""trial"",""time""
""fullscreenenter"",""1"",""1878""
","
","","","","","","null","<div style=""font-size:60px;"">+</div>","null","","fixation","","",""
"memory-trial","147","393886","0.0-18.0-1.51","6375","approach_avoid_sv1","""event"",""trial"",""time""
""fullscreenenter"",""1"",""1878""
","
","
","""event"",""trial"",""time""
""fullscreenenter"",""1"",""1878""
","
","","","","","","1648.1000000238419","images/rabbit4.png","","","memory_trial","4","definitely_new",""
"html-keyboard-response","148","394391","0.0-18.0-0.52","6375","approach_avoid_sv1","""event"",""trial"",""time""
""fullscreenenter"",""1"",""1878""
","
","
","""event"",""trial"",""time""
""fullscreenenter"",""1"",""1878""
","
","","","","","","null","<div style=""font-size:60px;"">+</div>","null","","fixation","","",""
"memory-trial","149","396687","0.0-18.0-1.52","6375","approach_avoid_sv1","""event"",""trial"",""time""
""fullscreenenter"",""1"",""1878""
","
","
","""event"",""trial"",""time""
""fullscreenenter"",""1"",""1878""
","
","","","","","","1286.6999999284744","images/goat4.png","","","memory_trial","3","maybe_new",""
"html-keyboard-response","150","397191","0.0-18.0-0.53","6375","approach_avoid_sv1","""event"",""trial"",""time""
""fullscreenenter"",""1"",""1878""
","
","
","""event"",""trial"",""time""
""fullscreenenter"",""1"",""1878""
","
","","","","","","null","<div style=""font-size:60px;"">+</div>","null","","fixation","","",""
"memory-trial","151","399631","0.0-18.0-1.53","6375","approach_avoid_sv1","""event"",""trial"",""time""
""fullscreenenter"",""1"",""1878""
","
","
","""event"",""trial"",""time""
""fullscreenenter"",""1"",""1878""
","
","","","","","","1430.3000000715256","images/dog3.png","","","memory_trial","1","definitely_old",""
"html-keyboard-response","152","400135","0.0-18.0-0.54","6375","approach_avoid_sv1","""event"",""trial"",""time""
""fullscreenenter"",""1"",""1878""
","
","
","""event"",""trial"",""time""
""fullscreenenter"",""1"",""1878""
","
","","","","","","null","<div style=""font-size:60px;"">+</div>","null","","fixation","","",""
"memory-trial","153","402447","0.0-18.0-1.54","6375","approach_avoid_sv1","""event"",""trial"",""time""
""fullscreenenter"",""1"",""1878""
","
","
","""event"",""trial"",""time""
""fullscreenenter"",""1"",""1878""
","
","","","","","","1303","images/rabbit2.png","","","memory_trial","1","definitely_old",""
"html-keyboard-response","154","402951","0.0-18.0-0.55","6375","approach_avoid_sv1","""event"",""trial"",""time""
""fullscreenenter"",""1"",""1878""
","
","
","""event"",""trial"",""time""
""fullscreenenter"",""1"",""1878""
","
","","","","","","null","<div style=""font-size:60px;"">+</div>","null","","fixation","","",""
"memory-trial","155","406272","0.0-18.0-1.55","6375","approach_avoid_sv1","""event"",""trial"",""time""
""fullscreenenter"",""1"",""1878""
","
","
","""event"",""trial"",""time""
""fullscreenenter"",""1"",""1878""
","
","","","","","","2313.100000023842","images/cow5.png","","","memory_trial","2","maybe_old",""
"html-keyboard-response","156","406774","0.0-18.0-0.56","6375","approach_avoid_sv1","""event"",""trial"",""time""
""fullscreenenter"",""1"",""1878""
","
","
","""event"",""trial"",""time""
""fullscreenenter"",""1"",""1878""
","
","","","","","","null","<div style=""font-size:60px;"">+</div>","null","","fixation","","",""
"memory-trial","157","410046","0.0-18.0-1.56","6375","approach_avoid_sv1","""event"",""trial"",""time""
""fullscreenenter"",""1"",""1878""
","
","
","""event"",""trial"",""time""
""fullscreenenter"",""1"",""1878""
","
","","","","","","2266.7999999523163","images/chair3.png","","","memory_trial","3","maybe_new",""
"html-keyboard-response","158","410551","0.0-18.0-0.57","6375","approach_avoid_sv1","""event"",""trial"",""time""
""fullscreenenter"",""1"",""1878""
","
","
","""event"",""trial"",""time""
""fullscreenenter"",""1"",""1878""
","
","","","","","","null","<div style=""font-size:60px;"">+</div>","null","","fixation","","",""
"memory-trial","159","414048","0.0-18.0-1.57","6375","approach_avoid_sv1","""event"",""trial"",""time""
""fullscreenenter"",""1"",""1878""
","
","
","""event"",""trial"",""time""
""fullscreenenter"",""1"",""1878""
","
","","","","","","2487.8000000715256","images/bush8.png","","","memory_trial","4","definitely_new",""
"html-keyboard-response","160","414551","0.0-18.0-0.58","6375","approach_avoid_sv1","""event"",""trial"",""time""
""fullscreenenter"",""1"",""1878""
","
","
","""event"",""trial"",""time""
""fullscreenenter"",""1"",""1878""
","
","","","","","","null","<div style=""font-size:60px;"">+</div>","null","","fixation","","",""
"memory-trial","161","418095","0.0-18.0-1.58","6375","approach_avoid_sv1","""event"",""trial"",""time""
""fullscreenenter"",""1"",""1878""
","
","
","""event"",""trial"",""time""
""fullscreenenter"",""1"",""1878""
","
","","","","","","2536.2000000476837","images/sheep4.png","","","memory_trial","3","maybe_new",""
"html-keyboard-response","162","418598","0.0-18.0-0.59","6375","approach_avoid_sv1","""event"",""trial"",""time""
""fullscreenenter"",""1"",""1878""
","
","
","""event"",""trial"",""time""
""fullscreenenter"",""1"",""1878""
","
","","","","","","null","<div style=""font-size:60px;"">+</div>","null","","fixation","","",""
"memory-trial","163","421247","0.0-18.0-1.59","6375","approach_avoid_sv1","""event"",""trial"",""time""
""fullscreenenter"",""1"",""1878""
","
","
","""event"",""trial"",""time""
""fullscreenenter"",""1"",""1878""
","
","","","","","","1639.5999999046326","images/train2.png","","","memory_trial","2","maybe_old",""
"html-keyboard-response","164","421751","0.0-18.0-0.60","6375","approach_avoid_sv1","""event"",""trial"",""time""
""fullscreenenter"",""1"",""1878""
","
","
","""event"",""trial"",""time""
""fullscreenenter"",""1"",""1878""
","
","","","","","","null","<div style=""font-size:60px;"">+</div>","null","","fixation","","",""
"memory-trial","165","424830","0.0-18.0-1.60","6375","approach_avoid_sv1","""event"",""trial"",""time""
""fullscreenenter"",""1"",""1878""
","
","
","""event"",""trial"",""time""
""fullscreenenter"",""1"",""1878""
","
","","","","","","2071.5999999046326","images/truck1.png","","","memory_trial","4","definitely_new",""
"html-keyboard-response","166","425335","0.0-18.0-0.61","6375","approach_avoid_sv1","""event"",""trial"",""time""
""fullscreenenter"",""1"",""1878""
","
","
","""event"",""trial"",""time""
""fullscreenenter"",""1"",""1878""
","
","","","","","","null","<div style=""font-size:60px;"">+</div>","null","","fixation","","",""
"memory-trial","167","428271","0.0-18.0-1.61","6375","approach_avoid_sv1","""event"",""trial"",""time""
""fullscreenenter"",""1"",""1878""
","
","
","""event"",""trial"",""time""
""fullscreenenter"",""1"",""1878""
","
","","","","","","1930","images/cow6.png","","","memory_trial","3","maybe_new",""
"html-keyboard-response","168","428775","0.0-18.0-0.62","6375","approach_avoid_sv1","""event"",""trial"",""time""
""fullscreenenter"",""1"",""1878""
","
","
","""event"",""trial"",""time""
""fullscreenenter"",""1"",""1878""
","
","","","","","","null","<div style=""font-size:60px;"">+</div>","null","","fixation","","",""
"memory-trial","169","432046","0.0-18.0-1.62","6375","approach_avoid_sv1","""event"",""trial"",""time""
""fullscreenenter"",""1"",""1878""
","
","
","""event"",""trial"",""time""
""fullscreenenter"",""1"",""1878""
","
","","","","","","2262.5","images/train4.png","","","memory_trial","4","definitely_new",""
"html-keyboard-response","170","432549","0.0-18.0-0.63","6375","approach_avoid_sv1","""event"",""trial"",""time""
""fullscreenenter"",""1"",""1878""
","
","
","""event"",""trial"",""time""
""fullscreenenter"",""1"",""1878""
","
","","","","","","null","<div style=""font-size:60px;"">+</div>","null","","fixation","","",""
"memory-trial","171","435551","0.0-18.0-1.63","6375","approach_avoid_sv1","""event"",""trial"",""time""
""fullscreenenter"",""1"",""1878""
","
","
","""event"",""trial"",""time""
""fullscreenenter"",""1"",""1878""
","
","","","","","","1993","images/boat4.png","","","memory_trial","2","maybe_old",""
"html-keyboard-response","172","436054","0.0-18.0-0.64","6375","approach_avoid_sv1","""event"",""trial"",""time""
""fullscreenenter"",""1"",""1878""
","
","
","""event"",""trial"",""time""
""fullscreenenter"",""1"",""1878""
","
","","","","","","null","<div style=""font-size:60px;"">+</div>","null","","fixation","","",""
"memory-trial","173","439022","0.0-18.0-1.64","6375","approach_avoid_sv1","""event"",""trial"",""time""
""fullscreenenter"",""1"",""1878""
","
","
","""event"",""trial"",""time""
""fullscreenenter"",""1"",""1878""
","
","","","","","","1963.0999999046326","images/rabbit1.png","","","memory_trial","1","definitely_old",""
"html-keyboard-response","174","439526","0.0-18.0-0.65","6375","approach_avoid_sv1","""event"",""trial"",""time""
""fullscreenenter"",""1"",""1878""
","
","
","""event"",""trial"",""time""
""fullscreenenter"",""1"",""1878""
","
","","","","","","null","<div style=""font-size:60px;"">+</div>","null","","fixation","","",""
"memory-trial","175","441758","0.0-18.0-1.65","6375","approach_avoid_sv1","""event"",""trial"",""time""
""fullscreenenter"",""1"",""1878""
","
","
","""event"",""trial"",""time""
""fullscreenenter"",""1"",""1878""
","
","","","","","","1223.8999999761581","images/train6.png","","","memory_trial","1","definitely_old",""
"html-keyboard-response","176","442262","0.0-18.0-0.66","6375","approach_avoid_sv1","""event"",""trial"",""time""
""fullscreenenter"",""1"",""1878""
","
","
","""event"",""trial"",""time""
""fullscreenenter"",""1"",""1878""
","
","","","","","","null","<div style=""font-size:60px;"">+</div>","null","","fixation","","",""
"memory-trial","177","444237","0.0-18.0-1.66","6375","approach_avoid_sv1","""event"",""trial"",""time""
""fullscreenenter"",""1"",""1878""
","
","
","""event"",""trial"",""time""
""fullscreenenter"",""1"",""1878""
","
","","","","","","968.3000000715256","images/cat2.png","","","memory_trial","1","definitely_old",""
"html-keyboard-response","178","444742","0.0-18.0-0.67","6375","approach_avoid_sv1","""event"",""trial"",""time""
""fullscreenenter"",""1"",""1878""
","
","
","""event"",""trial"",""time""
""fullscreenenter"",""1"",""1878""
","
","","","","","","null","<div style=""font-size:60px;"">+</div>","null","","fixation","","",""
"memory-trial","179","446942","0.0-18.0-1.67","6375","approach_avoid_sv1","""event"",""trial"",""time""
""fullscreenenter"",""1"",""1878""
","
","
","""event"",""trial"",""time""
""fullscreenenter"",""1"",""1878""
","
","","","","","","1191.8000000715256","images/cat5.png","","","memory_trial","1","definitely_old",""
"html-keyboard-response","180","447447","0.0-18.0-0.68","6375","approach_avoid_sv1","""event"",""trial"",""time""
""fullscreenenter"",""1"",""1878""
","
","
","""event"",""trial"",""time""
""fullscreenenter"",""1"",""1878""
","
","","","","","","null","<div style=""font-size:60px;"">+</div>","null","","fixation","","",""
"memory-trial","181","449598","0.0-18.0-1.68","6375","approach_avoid_sv1","""event"",""trial"",""time""
""fullscreenenter"",""1"",""1878""
","
","
","""event"",""trial"",""time""
""fullscreenenter"",""1"",""1878""
","
","","","","","","1146.6999999284744","images/rodent6.png","","","memory_trial","4","definitely_new",""
"html-keyboard-response","182","450102","0.0-18.0-0.69","6375","approach_avoid_sv1","""event"",""trial"",""time""
""fullscreenenter"",""1"",""1878""
","
","
","""event"",""trial"",""time""
""fullscreenenter"",""1"",""1878""
","
","","","","","","null","<div style=""font-size:60px;"">+</div>","null","","fixation","","",""
"memory-trial","183","452878","0.0-18.0-1.69","6375","approach_avoid_sv1","""event"",""trial"",""time""
""fullscreenenter"",""1"",""1878""
","
","
","""event"",""trial"",""time""
""fullscreenenter"",""1"",""1878""
","
","","","","","","1768","images/cow3.png","","","memory_trial","4","definitely_new",""
"html-keyboard-response","184","453382","0.0-18.0-0.70","6375","approach_avoid_sv1","""event"",""trial"",""time""
""fullscreenenter"",""1"",""1878""
","
","
","""event"",""trial"",""time""
""fullscreenenter"",""1"",""1878""
","
","","","","","","null","<div style=""font-size:60px;"">+</div>","null","","fixation","","",""
"memory-trial","185","455998","0.0-18.0-1.70","6375","approach_avoid_sv1","""event"",""trial"",""time""
""fullscreenenter"",""1"",""1878""
","
","
","""event"",""trial"",""time""
""fullscreenenter"",""1"",""1878""
","
","","","","","","1607.8999999761581","images/table7.png","","","memory_trial","2","maybe_old",""
"html-keyboard-response","186","456502","0.0-18.0-0.71","6375","approach_avoid_sv1","""event"",""trial"",""time""
""fullscreenenter"",""1"",""1878""
","
","
","""event"",""trial"",""time""
""fullscreenenter"",""1"",""1878""
","
","","","","","","null","<div style=""font-size:60px;"">+</div>","null","","fixation","","",""
"memory-trial","187","459182","0.0-18.0-1.71","6375","approach_avoid_sv1","""event"",""trial"",""time""
""fullscreenenter"",""1"",""1878""
","
","
","""event"",""trial"",""time""
""fullscreenenter"",""1"",""1878""
","
","","","","","","1673.1000000238419","images/plane7.png","","","memory_trial","3","maybe_new",""
"html-keyboard-response","188","459686","0.0-18.0-0.72","6375","approach_avoid_sv1","""event"",""trial"",""time""
""fullscreenenter"",""1"",""1878""
","
","
","""event"",""trial"",""time""
""fullscreenenter"",""1"",""1878""
","
","","","","","","null","<div style=""font-size:60px;"">+</div>","null","","fixation","","",""
"memory-trial","189","461871","0.0-18.0-1.72","6375","approach_avoid_sv1","""event"",""trial"",""time""
""fullscreenenter"",""1"",""1878""
","
","
","""event"",""trial"",""time""
""fullscreenenter"",""1"",""1878""
","
","","","","","","1178.9000000953674","images/sheep2.png","","","memory_trial","4","definitely_new",""
"html-keyboard-response","190","462374","0.0-18.0-0.73","6375","approach_avoid_sv1","""event"",""trial"",""time""
""fullscreenenter"",""1"",""1878""
","
","
","""event"",""trial"",""time""
""fullscreenenter"",""1"",""1878""
","
","","","","","","null","<div style=""font-size:60px;"">+</div>","null","","fixation","","",""
"memory-trial","191","464302","0.0-18.0-1.73","6375","approach_avoid_sv1","""event"",""trial"",""time""
""fullscreenenter"",""1"",""1878""
","
","
","""event"",""trial"",""time""
""fullscreenenter"",""1"",""1878""
","
","","","","","","921.5","images/apple3.png","","","memory_trial","4","definitely_new",""
"html-keyboard-response","192","464806","0.0-18.0-0.74","6375","approach_avoid_sv1","""event"",""trial"",""time""
""fullscreenenter"",""1"",""1878""
","
","
","""event"",""trial"",""time""
""fullscreenenter"",""1"",""1878""
","
","","","","","","null","<div style=""font-size:60px;"">+</div>","null","","fixation","","",""
"memory-trial","193","466782","0.0-18.0-1.74","6375","approach_avoid_sv1","""event"",""trial"",""time""
""fullscreenenter"",""1"",""1878""
","
","
","""event"",""trial"",""time""
""fullscreenenter"",""1"",""1878""
","
","","","","","","966.8999999761581","images/apple7.png","","","memory_trial","4","definitely_new",""
"html-keyboard-response","194","467286","0.0-18.0-0.75","6375","approach_avoid_sv1","""event"",""trial"",""time""
""fullscreenenter"",""1"",""1878""
","
","
","""event"",""trial"",""time""
""fullscreenenter"",""1"",""1878""
","
","","","","","","null","<div style=""font-size:60px;"">+</div>","null","","fixation","","",""
"memory-trial","195","469934","0.0-18.0-1.75","6375","approach_avoid_sv1","""event"",""trial"",""time""
""fullscreenenter"",""1"",""1878""
","
","
","""event"",""trial"",""time""
""fullscreenenter"",""1"",""1878""
","
","","","","","","1640.8999999761581","images/cat4.png","","","memory_trial","2","maybe_old",""
"html-keyboard-response","196","470438","0.0-18.0-0.76","6375","approach_avoid_sv1","""event"",""trial"",""time""
""fullscreenenter"",""1"",""1878""
","
","
","""event"",""trial"",""time""
""fullscreenenter"",""1"",""1878""
","
","","","","","","null","<div style=""font-size:60px;"">+</div>","null","","fixation","","",""
"memory-trial","197","472910","0.0-18.0-1.76","6375","approach_avoid_sv1","""event"",""trial"",""time""
""fullscreenenter"",""1"",""1878""
","
","
","""event"",""trial"",""time""
""fullscreenenter"",""1"",""1878""
","
","","","","","","1467.8000000715256","images/tree5.png","","","memory_trial","4","definitely_new",""
"html-keyboard-response","198","473417","0.0-18.0-0.77","6375","approach_avoid_sv1","""event"",""trial"",""time""
""fullscreenenter"",""1"",""1878""
","
","
","""event"",""trial"",""time""
""fullscreenenter"",""1"",""1878""
","
","","","","","","null","<div style=""font-size:60px;"">+</div>","null","","fixation","","",""
"memory-trial","199","475726","0.0-18.0-1.77","6375","approach_avoid_sv1","""event"",""trial"",""time""
""fullscreenenter"",""1"",""1878""
","
","
","""event"",""trial"",""time""
""fullscreenenter"",""1"",""1878""
","
","","","","","","1300.8999999761581","images/sheep3.png","","","memory_trial","4","definitely_new",""
"html-keyboard-response","200","476231","0.0-18.0-0.78","6375","approach_avoid_sv1","""event"",""trial"",""time""
""fullscreenenter"",""1"",""1878""
","
","
","""event"",""trial"",""time""
""fullscreenenter"",""1"",""1878""
","
","","","","","","null","<div style=""font-size:60px;"">+</div>","null","","fixation","","",""
"memory-trial","201","478190","0.0-18.0-1.78","6375","approach_avoid_sv1","""event"",""trial"",""time""
""fullscreenenter"",""1"",""1878""
","
","
","""event"",""trial"",""time""
""fullscreenenter"",""1"",""1878""
","
","","","","","","951.9000000953674","images/truck8.png","","","memory_trial","4","definitely_new",""
"html-keyboard-response","202","478694","0.0-18.0-0.79","6375","approach_avoid_sv1","""event"",""trial"",""time""
""fullscreenenter"",""1"",""1878""
","
","
","""event"",""trial"",""time""
""fullscreenenter"",""1"",""1878""
","
","","","","","","null","<div style=""font-size:60px;"">+</div>","null","","fixation","","",""
"memory-trial","203","480942","0.0-18.0-1.79","6375","approach_avoid_sv1","""event"",""trial"",""time""
""fullscreenenter"",""1"",""1878""
","
","
","""event"",""trial"",""time""
""fullscreenenter"",""1"",""1878""
","
","","","","","","1240.2000000476837","images/cat3.png","","","memory_trial","3","maybe_new",""
"html-keyboard-response","204","481446","0.0-18.0-0.80","6375","approach_avoid_sv1","""event"",""trial"",""time""
""fullscreenenter"",""1"",""1878""
","
","
","""event"",""trial"",""time""
""fullscreenenter"",""1"",""1878""
","
","","","","","","null","<div style=""font-size:60px;"">+</div>","null","","fixation","","",""
"memory-trial","205","483694","0.0-18.0-1.80","6375","approach_avoid_sv1","""event"",""trial"",""time""
""fullscreenenter"",""1"",""1878""
","
","
","""event"",""trial"",""time""
""fullscreenenter"",""1"",""1878""
","
","","","","","","1242.5","images/chair4.png","","","memory_trial","4","definitely_new",""
"html-keyboard-response","206","484198","0.0-18.0-0.81","6375","approach_avoid_sv1","""event"",""trial"",""time""
""fullscreenenter"",""1"",""1878""
","
","
","""event"",""trial"",""time""
""fullscreenenter"",""1"",""1878""
","
","","","","","","null","<div style=""font-size:60px;"">+</div>","null","","fixation","","",""
"memory-trial","207","487230","0.0-18.0-1.81","6375","approach_avoid_sv1","""event"",""trial"",""time""
""fullscreenenter"",""1"",""1878""
","
","
","""event"",""trial"",""time""
""fullscreenenter"",""1"",""1878""
","
","","","","","","2024.5","images/table5.png","","","memory_trial","2","maybe_old",""
"html-keyboard-response","208","487734","0.0-18.0-0.82","6375","approach_avoid_sv1","""event"",""trial"",""time""
""fullscreenenter"",""1"",""1878""
","
","
","""event"",""trial"",""time""
""fullscreenenter"",""1"",""1878""
","
","","","","","","null","<div style=""font-size:60px;"">+</div>","null","","fixation","","",""
"memory-trial","209","490702","0.0-18.0-1.82","6375","approach_avoid_sv1","""event"",""trial"",""time""
""fullscreenenter"",""1"",""1878""
","
","
","""event"",""trial"",""time""
""fullscreenenter"",""1"",""1878""
","
","","","","","","1959.7999999523163","images/plane3.png","","","memory_trial","3","maybe_new",""
"html-keyboard-response","210","491206","0.0-18.0-0.83","6375","approach_avoid_sv1","""event"",""trial"",""time""
""fullscreenenter"",""1"",""1878""
","
","
","""event"",""trial"",""time""
""fullscreenenter"",""1"",""1878""
","
","","","","","","null","<div style=""font-size:60px;"">+</div>","null","","fixation","","",""
"memory-trial","211","493742","0.0-18.0-1.83","6375","approach_avoid_sv1","""event"",""trial"",""time""
""fullscreenenter"",""1"",""1878""
","
","
","""event"",""trial"",""time""
""fullscreenenter"",""1"",""1878""
","
","","","","","","1530.8999999761581","images/train7.png","","","memory_trial","1","definitely_old",""
"html-keyboard-response","212","494246","0.0-18.0-0.84","6375","approach_avoid_sv1","""event"",""trial"",""time""
""fullscreenenter"",""1"",""1878""
","
","
","""event"",""trial"",""time""
""fullscreenenter"",""1"",""1878""
","
","","","","","","null","<div style=""font-size:60px;"">+</div>","null","","fixation","","",""
"memory-trial","213","496414","0.0-18.0-1.84","6375","approach_avoid_sv1","""event"",""trial"",""time""
""fullscreenenter"",""1"",""1878""
","
","
","""event"",""trial"",""time""
""fullscreenenter"",""1"",""1878""
","
","","","","","","1160.6999999284744","images/rabbit8.png","","","memory_trial","1","definitely_old",""
"html-keyboard-response","214","496919","0.0-18.0-0.85","6375","approach_avoid_sv1","""event"",""trial"",""time""
""fullscreenenter"",""1"",""1878""
","
","
","""event"",""trial"",""time""
""fullscreenenter"",""1"",""1878""
","
","","","","","","null","<div style=""font-size:60px;"">+</div>","null","","fixation","","",""
"memory-trial","215","499214","0.0-18.0-1.85","6375","approach_avoid_sv1","""event"",""trial"",""time""
""fullscreenenter"",""1"",""1878""
","
","
","""event"",""trial"",""time""
""fullscreenenter"",""1"",""1878""
","
","","","","","","1287.2000000476837","images/cow7.png","","","memory_trial","3","maybe_new",""
"html-keyboard-response","216","499718","0.0-18.0-0.86","6375","approach_avoid_sv1","""event"",""trial"",""time""
""fullscreenenter"",""1"",""1878""
","
","
","""event"",""trial"",""time""
""fullscreenenter"",""1"",""1878""
","
","","","","","","null","<div style=""font-size:60px;"">+</div>","null","","fixation","","",""
"memory-trial","217","501486","0.0-18.0-1.86","6375","approach_avoid_sv1","""event"",""trial"",""time""
""fullscreenenter"",""1"",""1878""
","
","
","""event"",""trial"",""time""
""fullscreenenter"",""1"",""1878""
","
","","","","","","759.6000000238419","images/apple6.png","","","memory_trial","4","definitely_new",""
"html-keyboard-response","218","501990","0.0-18.0-0.87","6375","approach_avoid_sv1","""event"",""trial"",""time""
""fullscreenenter"",""1"",""1878""
","
","
","""event"",""trial"",""time""
""fullscreenenter"",""1"",""1878""
","
","","","","","","null","<div style=""font-size:60px;"">+</div>","null","","fixation","","",""
"memory-trial","219","504718","0.0-18.0-1.87","6375","approach_avoid_sv1","""event"",""trial"",""time""
""fullscreenenter"",""1"",""1878""
","
","
","""event"",""trial"",""time""
""fullscreenenter"",""1"",""1878""
","
","","","","","","1723.3999999761581","images/sofa1.png","","","memory_trial","1","definitely_old",""
"html-keyboard-response","220","505222","0.0-18.0-0.88","6375","approach_avoid_sv1","""event"",""trial"",""time""
""fullscreenenter"",""1"",""1878""
","
","
","""event"",""trial"",""time""
""fullscreenenter"",""1"",""1878""
","
","","","","","","null","<div style=""font-size:60px;"">+</div>","null","","fixation","","",""
"memory-trial","221","507310","0.0-18.0-1.88","6375","approach_avoid_sv1","""event"",""trial"",""time""
""fullscreenenter"",""1"",""1878""
","
","
","""event"",""trial"",""time""
""fullscreenenter"",""1"",""1878""
","
","","","","","","1078.3999999761581","images/cow1.png","","","memory_trial","1","definitely_old",""
"html-keyboard-response","222","507814","0.0-18.0-0.89","6375","approach_avoid_sv1","""event"",""trial"",""time""
""fullscreenenter"",""1"",""1878""
","
","
","""event"",""trial"",""time""
""fullscreenenter"",""1"",""1878""
","
","","","","","","null","<div style=""font-size:60px;"">+</div>","null","","fixation","","",""
"memory-trial","223","509982","0.0-18.0-1.89","6375","approach_avoid_sv1","""event"",""trial"",""time""
""fullscreenenter"",""1"",""1878""
","
","
","""event"",""trial"",""time""
""fullscreenenter"",""1"",""1878""
","
","","","","","","1160.2000000476837","images/cat8.png","","","memory_trial","4","definitely_new",""
"html-keyboard-response","224","510486","0.0-18.0-0.90","6375","approach_avoid_sv1","""event"",""trial"",""time""
""fullscreenenter"",""1"",""1878""
","
","
","""event"",""trial"",""time""
""fullscreenenter"",""1"",""1878""
","
","","","","","","null","<div style=""font-size:60px;"">+</div>","null","","fixation","","",""
"memory-trial","225","512863","0.0-18.0-1.90","6375","approach_avoid_sv1","""event"",""trial"",""time""
""fullscreenenter"",""1"",""1878""
","
","
","""event"",""trial"",""time""
""fullscreenenter"",""1"",""1878""
","
","","","","","","1368.4000000953674","images/goat6.png","","","memory_trial","1","definitely_old",""
"html-keyboard-response","226","513366","0.0-18.0-0.91","6375","approach_avoid_sv1","""event"",""trial"",""time""
""fullscreenenter"",""1"",""1878""
","
","
","""event"",""trial"",""time""
""fullscreenenter"",""1"",""1878""
","
","","","","","","null","<div style=""font-size:60px;"">+</div>","null","","fixation","","",""
"memory-trial","227","515231","0.0-18.0-1.91","6375","approach_avoid_sv1","""event"",""trial"",""time""
""fullscreenenter"",""1"",""1878""
","
","
","""event"",""trial"",""time""
""fullscreenenter"",""1"",""1878""
","
","","","","","","859.8999999761581","images/cactus5.png","","","memory_trial","4","definitely_new",""
"html-button-response","228","521576","0.0-18.0-2.91-0.91","6375","approach_avoid_sv1","""event"",""trial"",""time""
""fullscreenenter"",""1"",""1878""
","
","
","""event"",""trial"",""time""
""fullscreenenter"",""1"",""1878""
","
","","","","","","6343.899999976158","<p> Take a break! </p><p> Click the button to continue. </p>","0","","break","","",""
"html-keyboard-response","229","522078","0.0-18.0-0.92","6375","approach_avoid_sv1","""event"",""trial"",""time""
""fullscreenenter"",""1"",""1878""
","
","
","""event"",""trial"",""time""
""fullscreenenter"",""1"",""1878""
","
","","","","","","null","<div style=""font-size:60px;"">+</div>","null","","fixation","","",""
"memory-trial","230","524767","0.0-18.0-1.92","6375","approach_avoid_sv1","""event"",""trial"",""time""
""fullscreenenter"",""1"",""1878""
","
","
","""event"",""trial"",""time""
""fullscreenenter"",""1"",""1878""
","
","","","","","","1679","images/chair6.png","","","memory_trial","2","maybe_old",""
"html-keyboard-response","231","525270","0.0-18.0-0.93","6375","approach_avoid_sv1","""event"",""trial"",""time""
""fullscreenenter"",""1"",""1878""
","
","
","""event"",""trial"",""time""
""fullscreenenter"",""1"",""1878""
","
","","","","","","null","<div style=""font-size:60px;"">+</div>","null","","fixation","","",""
"memory-trial","232","527007","0.0-18.0-1.93","6375","approach_avoid_sv1","""event"",""trial"",""time""
""fullscreenenter"",""1"",""1878""
","
","
","""event"",""trial"",""time""
""fullscreenenter"",""1"",""1878""
","
","","","","","","729.8999999761581","images/apple8.png","","","memory_trial","4","definitely_new",""
"html-keyboard-response","233","527510","0.0-18.0-0.94","6375","approach_avoid_sv1","""event"",""trial"",""time""
""fullscreenenter"",""1"",""1878""
","
","
","""event"",""trial"",""time""
""fullscreenenter"",""1"",""1878""
","
","","","","","","null","<div style=""font-size:60px;"">+</div>","null","","fixation","","",""
"memory-trial","234","530079","0.0-18.0-1.94","6375","approach_avoid_sv1","""event"",""trial"",""time""
""fullscreenenter"",""1"",""1878""
","
","
","""event"",""trial"",""time""
""fullscreenenter"",""1"",""1878""
","
","","","","","","1559.6000000238419","images/plane1.png","","","memory_trial","1","definitely_old",""
"html-keyboard-response","235","530582","0.0-18.0-0.95","6375","approach_avoid_sv1","""event"",""trial"",""time""
""fullscreenenter"",""1"",""1878""
","
","
","""event"",""trial"",""time""
""fullscreenenter"",""1"",""1878""
","
","","","","","","null","<div style=""font-size:60px;"">+</div>","null","","fixation","","",""
"memory-trial","236","532687","0.0-18.0-1.95","6375","approach_avoid_sv1","""event"",""trial"",""time""
""fullscreenenter"",""1"",""1878""
","
","
","""event"",""trial"",""time""
""fullscreenenter"",""1"",""1878""
","
","","","","","","1095.7999999523163","images/bush3.png","","","memory_trial","1","definitely_old",""
"html-keyboard-response","237","533190","0.0-18.0-0.96","6375","approach_avoid_sv1","""event"",""trial"",""time""
""fullscreenenter"",""1"",""1878""
","
","
","""event"",""trial"",""time""
""fullscreenenter"",""1"",""1878""
","
","","","","","","null","<div style=""font-size:60px;"">+</div>","null","","fixation","","",""
"memory-trial","238","536286","0.0-18.0-1.96","6375","approach_avoid_sv1","""event"",""trial"",""time""
""fullscreenenter"",""1"",""1878""
","
","
","""event"",""trial"",""time""
""fullscreenenter"",""1"",""1878""
","
","","","","","","2089.2000000476837","images/cow2.png","","","memory_trial","2","maybe_old",""
"html-keyboard-response","239","536790","0.0-18.0-0.97","6375","approach_avoid_sv1","""event"",""trial"",""time""
""fullscreenenter"",""1"",""1878""
","
","
","""event"",""trial"",""time""
""fullscreenenter"",""1"",""1878""
","
","","","","","","null","<div style=""font-size:60px;"">+</div>","null","","fixation","","",""
"memory-trial","240","539182","0.0-18.0-1.97","6375","approach_avoid_sv1","""event"",""trial"",""time""
""fullscreenenter"",""1"",""1878""
","
","
","""event"",""trial"",""time""
""fullscreenenter"",""1"",""1878""
","
","","","","","","1389.3000000715256","images/sofa7.png","","","memory_trial","1","definitely_old",""
"html-keyboard-response","241","539687","0.0-18.0-0.98","6375","approach_avoid_sv1","""event"",""trial"",""time""
""fullscreenenter"",""1"",""1878""
","
","
","""event"",""trial"",""time""
""fullscreenenter"",""1"",""1878""
","
","","","","","","null","<div style=""font-size:60px;"">+</div>","null","","fixation","","",""
"memory-trial","242","542094","0.0-18.0-1.98","6375","approach_avoid_sv1","""event"",""trial"",""time""
""fullscreenenter"",""1"",""1878""
","
","
","""event"",""trial"",""time""
""fullscreenenter"",""1"",""1878""
","
","","","","","","1399.2999999523163","images/table6.png","","","memory_trial","3","maybe_new",""
"html-keyboard-response","243","542599","0.0-18.0-0.99","6375","approach_avoid_sv1","""event"",""trial"",""time""
""fullscreenenter"",""1"",""1878""
","
","
","""event"",""trial"",""time""
""fullscreenenter"",""1"",""1878""
","
","","","","","","null","<div style=""font-size:60px;"">+</div>","null","","fixation","","",""
"memory-trial","244","544862","0.0-18.0-1.99","6375","approach_avoid_sv1","""event"",""trial"",""time""
""fullscreenenter"",""1"",""1878""
","
","
","""event"",""trial"",""time""
""fullscreenenter"",""1"",""1878""
","
","","","","","","1255.1000000238419","images/horse5.png","","","memory_trial","1","definitely_old",""
"html-keyboard-response","245","545366","0.0-18.0-0.100","6375","approach_avoid_sv1","""event"",""trial"",""time""
""fullscreenenter"",""1"",""1878""
","
","
","""event"",""trial"",""time""
""fullscreenenter"",""1"",""1878""
","
","","","","","","null","<div style=""font-size:60px;"">+</div>","null","","fixation","","",""
"memory-trial","246","548303","0.0-18.0-1.100","6375","approach_avoid_sv1","""event"",""trial"",""time""
""fullscreenenter"",""1"",""1878""
","
","
","""event"",""trial"",""time""
""fullscreenenter"",""1"",""1878""
","
","","","","","","1929.1999999284744","images/tree3.png","","","memory_trial","1","definitely_old",""
"html-keyboard-response","247","548807","0.0-18.0-0.101","6375","approach_avoid_sv1","""event"",""trial"",""time""
""fullscreenenter"",""1"",""1878""
","
","
","""event"",""trial"",""time""
""fullscreenenter"",""1"",""1878""
","
","","","","","","null","<div style=""font-size:60px;"">+</div>","null","","fixation","","",""
"memory-trial","248","550526","0.0-18.0-1.101","6375","approach_avoid_sv1","""event"",""trial"",""time""
""fullscreenenter"",""1"",""1878""
","
","
","""event"",""trial"",""time""
""fullscreenenter"",""1"",""1878""
","
","","","","","","715.2000000476837","images/cactus1.png","","","memory_trial","4","definitely_new",""
"html-keyboard-response","249","551030","0.0-18.0-0.102","6375","approach_avoid_sv1","""event"",""trial"",""time""
""fullscreenenter"",""1"",""1878""
","
","
","""event"",""trial"",""time""
""fullscreenenter"",""1"",""1878""
","
","","","","","","null","<div style=""font-size:60px;"">+</div>","null","","fixation","","",""
"memory-trial","250","553118","0.0-18.0-1.102","6375","approach_avoid_sv1","""event"",""trial"",""time""
""fullscreenenter"",""1"",""1878""
","
","
","""event"",""trial"",""time""
""fullscreenenter"",""1"",""1878""
","
","","","","","","1080","images/truck4.png","","","memory_trial","4","definitely_new",""
"html-keyboard-response","251","553622","0.0-18.0-0.103","6375","approach_avoid_sv1","""event"",""trial"",""time""
""fullscreenenter"",""1"",""1878""
","
","
","""event"",""trial"",""time""
""fullscreenenter"",""1"",""1878""
","
","","","","","","null","<div style=""font-size:60px;"">+</div>","null","","fixation","","",""
"memory-trial","252","556191","0.0-18.0-1.103","6375","approach_avoid_sv1","""event"",""trial"",""time""
""fullscreenenter"",""1"",""1878""
","
","
","""event"",""trial"",""time""
""fullscreenenter"",""1"",""1878""
","
","","","","","","1560.5999999046326","images/train3.png","","","memory_trial","1","definitely_old",""
"html-keyboard-response","253","556694","0.0-18.0-0.104","6375","approach_avoid_sv1","""event"",""trial"",""time""
""fullscreenenter"",""1"",""1878""
","
","
","""event"",""trial"",""time""
""fullscreenenter"",""1"",""1878""
","
","","","","","","null","<div style=""font-size:60px;"">+</div>","null","","fixation","","",""
"memory-trial","254","559071","0.0-18.0-1.104","6375","approach_avoid_sv1","""event"",""trial"",""time""
""fullscreenenter"",""1"",""1878""
","
","
","""event"",""trial"",""time""
""fullscreenenter"",""1"",""1878""
","
","","","","","","1366.5","images/horse2.png","","","memory_trial","4","definitely_new",""
"html-keyboard-response","255","559574","0.0-18.0-0.105","6375","approach_avoid_sv1","""event"",""trial"",""time""
""fullscreenenter"",""1"",""1878""
","
","
","""event"",""trial"",""time""
""fullscreenenter"",""1"",""1878""
","
","","","","","","null","<div style=""font-size:60px;"">+</div>","null","","fixation","","",""
"memory-trial","256","562046","0.0-18.0-1.105","6375","approach_avoid_sv1","""event"",""trial"",""time""
""fullscreenenter"",""1"",""1878""
","
","
","""event"",""trial"",""time""
""fullscreenenter"",""1"",""1878""
","
","","","","","","1468.2999999523163","images/plane5.png","","","memory_trial","3","maybe_new",""
"html-keyboard-response","257","562551","0.0-18.0-0.106","6375","approach_avoid_sv1","""event"",""trial"",""time""
""fullscreenenter"",""1"",""1878""
","
","
","""event"",""trial"",""time""
""fullscreenenter"",""1"",""1878""
","
","","","","","","null","<div style=""font-size:60px;"">+</div>","null","","fixation","","",""
"memory-trial","258","564910","0.0-18.0-1.106","6375","approach_avoid_sv1","""event"",""trial"",""time""
""fullscreenenter"",""1"",""1878""
","
","
","""event"",""trial"",""time""
""fullscreenenter"",""1"",""1878""
","
","","","","","","1351.4000000953674","images/sofa3.png","","","memory_trial","1","definitely_old",""
"html-keyboard-response","259","565413","0.0-18.0-0.107","6375","approach_avoid_sv1","""event"",""trial"",""time""
""fullscreenenter"",""1"",""1878""
","
","
","""event"",""trial"",""time""
""fullscreenenter"",""1"",""1878""
","
","","","","","","null","<div style=""font-size:60px;"">+</div>","null","","fixation","","",""
"memory-trial","260","567230","0.0-18.0-1.107","6375","approach_avoid_sv1","""event"",""trial"",""time""
""fullscreenenter"",""1"",""1878""
","
","
","""event"",""trial"",""time""
""fullscreenenter"",""1"",""1878""
","
","","","","","","810.7000000476837","images/sheep6.png","","","memory_trial","4","definitely_new",""
"html-keyboard-response","261","567734","0.0-18.0-0.108","6375","approach_avoid_sv1","""event"",""trial"",""time""
""fullscreenenter"",""1"",""1878""
","
","
","""event"",""trial"",""time""
""fullscreenenter"",""1"",""1878""
","
","","","","","","null","<div style=""font-size:60px;"">+</div>","null","","fixation","","",""
"memory-trial","262","569646","0.0-18.0-1.108","6375","approach_avoid_sv1","""event"",""trial"",""time""
""fullscreenenter"",""1"",""1878""
","
","
","""event"",""trial"",""time""
""fullscreenenter"",""1"",""1878""
","
","","","","","","903.7999999523163","images/bed3.png","","","memory_trial","4","definitely_new",""
"html-keyboard-response","263","570151","0.0-18.0-0.109","6375","approach_avoid_sv1","""event"",""trial"",""time""
""fullscreenenter"",""1"",""1878""
","
","
","""event"",""trial"",""time""
""fullscreenenter"",""1"",""1878""
","
","","","","","","null","<div style=""font-size:60px;"">+</div>","null","","fixation","","",""
"memory-trial","264","571966","0.0-18.0-1.109","6375","approach_avoid_sv1","""event"",""trial"",""time""
""fullscreenenter"",""1"",""1878""
","
","
","""event"",""trial"",""time""
""fullscreenenter"",""1"",""1878""
","
","","","","","","806.8999999761581","images/bed6.png","","","memory_trial","4","definitely_new",""
"html-keyboard-response","265","572471","0.0-18.0-0.110","6375","approach_avoid_sv1","""event"",""trial"",""time""
""fullscreenenter"",""1"",""1878""
","
","
","""event"",""trial"",""time""
""fullscreenenter"",""1"",""1878""
","
","","","","","","null","<div style=""font-size:60px;"">+</div>","null","","fixation","","",""
"memory-trial","266","574398","0.0-18.0-1.110","6375","approach_avoid_sv1","""event"",""trial"",""time""
""fullscreenenter"",""1"",""1878""
","
","
","""event"",""trial"",""time""
""fullscreenenter"",""1"",""1878""
","
","","","","","","921.2000000476837","images/rodent3.png","","","memory_trial","4","definitely_new",""
"html-keyboard-response","267","574902","0.0-18.0-0.111","6375","approach_avoid_sv1","""event"",""trial"",""time""
""fullscreenenter"",""1"",""1878""
","
","
","""event"",""trial"",""time""
""fullscreenenter"",""1"",""1878""
","
","","","","","","null","<div style=""font-size:60px;"">+</div>","null","","fixation","","",""
"memory-trial","268","577310","0.0-18.0-1.111","6375","approach_avoid_sv1","""event"",""trial"",""time""
""fullscreenenter"",""1"",""1878""
","
","
","""event"",""trial"",""time""
""fullscreenenter"",""1"",""1878""
","
","","","","","","1400.1000000238419","images/banana2.png","","","memory_trial","4","definitely_new",""
"html-keyboard-response","269","577814","0.0-18.0-0.112","6375","approach_avoid_sv1","""event"",""trial"",""time""
""fullscreenenter"",""1"",""1878""
","
","
","""event"",""trial"",""time""
""fullscreenenter"",""1"",""1878""
","
","","","","","","null","<div style=""font-size:60px;"">+</div>","null","","fixation","","",""
"memory-trial","270","579598","0.0-18.0-1.112","6375","approach_avoid_sv1","""event"",""trial"",""time""
""fullscreenenter"",""1"",""1878""
","
","
","""event"",""trial"",""time""
""fullscreenenter"",""1"",""1878""
","
","","","","","","776.3999999761581","images/sheep1.png","","","memory_trial","4","definitely_new",""
"html-keyboard-response","271","580102","0.0-18.0-0.113","6375","approach_avoid_sv1","""event"",""trial"",""time""
""fullscreenenter"",""1"",""1878""
","
","
","""event"",""trial"",""time""
""fullscreenenter"",""1"",""1878""
","
","","","","","","null","<div style=""font-size:60px;"">+</div>","null","","fixation","","",""
"memory-trial","272","582479","0.0-18.0-1.113","6375","approach_avoid_sv1","""event"",""trial"",""time""
""fullscreenenter"",""1"",""1878""
","
","
","""event"",""trial"",""time""
""fullscreenenter"",""1"",""1878""
","
","","","","","","1368.3999999761581","images/tree2.png","","","memory_trial","1","definitely_old",""
"html-keyboard-response","273","582982","0.0-18.0-0.114","6375","approach_avoid_sv1","""event"",""trial"",""time""
""fullscreenenter"",""1"",""1878""
","
","
","""event"",""trial"",""time""
""fullscreenenter"",""1"",""1878""
","
","","","","","","null","<div style=""font-size:60px;"">+</div>","null","","fixation","","",""
"memory-trial","274","584830","0.0-18.0-1.114","6375","approach_avoid_sv1","""event"",""trial"",""time""
""fullscreenenter"",""1"",""1878""
","
","
","""event"",""trial"",""time""
""fullscreenenter"",""1"",""1878""
","
","","","","","","843.5","images/rodent5.png","","","memory_trial","3","maybe_new",""
"html-keyboard-response","275","585334","0.0-18.0-0.115","6375","approach_avoid_sv1","""event"",""trial"",""time""
""fullscreenenter"",""1"",""1878""
","
","
","""event"",""trial"",""time""
""fullscreenenter"",""1"",""1878""
","
","","","","","","null","<div style=""font-size:60px;"">+</div>","null","","fixation","","",""
"memory-trial","276","587790","0.0-18.0-1.115","6375","approach_avoid_sv1","""event"",""trial"",""time""
""fullscreenenter"",""1"",""1878""
","
","
","""event"",""trial"",""time""
""fullscreenenter"",""1"",""1878""
","
","","","","","","1448.5","images/boat8.png","","","memory_trial","2","maybe_old",""
"html-keyboard-response","277","588294","0.0-18.0-0.116","6375","approach_avoid_sv1","""event"",""trial"",""time""
""fullscreenenter"",""1"",""1878""
","
","
","""event"",""trial"",""time""
""fullscreenenter"",""1"",""1878""
","
","","","","","","null","<div style=""font-size:60px;"">+</div>","null","","fixation","","",""
"memory-trial","278","590047","0.0-18.0-1.116","6375","approach_avoid_sv1","""event"",""trial"",""time""
""fullscreenenter"",""1"",""1878""
","
","
","""event"",""trial"",""time""
""fullscreenenter"",""1"",""1878""
","
","","","","","","744.2000000476837","images/sheep5.png","","","memory_trial","4","definitely_new",""
"html-keyboard-response","279","590550","0.0-18.0-0.117","6375","approach_avoid_sv1","""event"",""trial"",""time""
""fullscreenenter"",""1"",""1878""
","
","
","""event"",""trial"",""time""
""fullscreenenter"",""1"",""1878""
","
","","","","","","null","<div style=""font-size:60px;"">+</div>","null","","fixation","","",""
"memory-trial","280","593071","0.0-18.0-1.117","6375","approach_avoid_sv1","""event"",""trial"",""time""
""fullscreenenter"",""1"",""1878""
","
","
","""event"",""trial"",""time""
""fullscreenenter"",""1"",""1878""
","
","","","","","","1512","images/bush1.png","","","memory_trial","1","definitely_old",""
"html-keyboard-response","281","593574","0.0-18.0-0.118","6375","approach_avoid_sv1","""event"",""trial"",""time""
""fullscreenenter"",""1"",""1878""
","
","
","""event"",""trial"",""time""
""fullscreenenter"",""1"",""1878""
","
","","","","","","null","<div style=""font-size:60px;"">+</div>","null","","fixation","","",""
"memory-trial","282","596614","0.0-18.0-1.118","6375","approach_avoid_sv1","""event"",""trial"",""time""
""fullscreenenter"",""1"",""1878""
","
","
","""event"",""trial"",""time""
""fullscreenenter"",""1"",""1878""
","
","","","","","","2028.0999999046326","images/banana1.png","","","memory_trial","3","maybe_new",""
"html-keyboard-response","283","597119","0.0-18.0-0.119","6375","approach_avoid_sv1","""event"",""trial"",""time""
""fullscreenenter"",""1"",""1878""
","
","
","""event"",""trial"",""time""
""fullscreenenter"",""1"",""1878""
","
","","","","","","null","<div style=""font-size:60px;"">+</div>","null","","fixation","","",""
"memory-trial","284","599422","0.0-18.0-1.119","6375","approach_avoid_sv1","""event"",""trial"",""time""
""fullscreenenter"",""1"",""1878""
","
","
","""event"",""trial"",""time""
""fullscreenenter"",""1"",""1878""
","
","","","","","","1294.3999999761581","images/orange1.png","","","memory_trial","1","definitely_old",""
"html-keyboard-response","285","599926","0.0-18.0-0.120","6375","approach_avoid_sv1","""event"",""trial"",""time""
""fullscreenenter"",""1"",""1878""
","
","
","""event"",""trial"",""time""
""fullscreenenter"",""1"",""1878""
","
","","","","","","null","<div style=""font-size:60px;"">+</div>","null","","fixation","","",""
"memory-trial","286","603182","0.0-18.0-1.120","6375","approach_avoid_sv1","""event"",""trial"",""time""
""fullscreenenter"",""1"",""1878""
","
","
","""event"",""trial"",""time""
""fullscreenenter"",""1"",""1878""
","
","","","","","","2247.899999976158","images/cow4.png","","","memory_trial","4","definitely_new",""
"html-keyboard-response","287","603686","0.0-18.0-0.121","6375","approach_avoid_sv1","""event"",""trial"",""time""
""fullscreenenter"",""1"",""1878""
","
","
","""event"",""trial"",""time""
""fullscreenenter"",""1"",""1878""
","
","","","","","","null","<div style=""font-size:60px;"">+</div>","null","","fixation","","",""
"memory-trial","288","605742","0.0-18.0-1.121","6375","approach_avoid_sv1","""event"",""trial"",""time""
""fullscreenenter"",""1"",""1878""
","
","
","""event"",""trial"",""time""
""fullscreenenter"",""1"",""1878""
","
","","","","","","1048","images/bush5.png","","","memory_trial","3","maybe_new",""
"html-keyboard-response","289","606247","0.0-18.0-0.122","6375","approach_avoid_sv1","""event"",""trial"",""time""
""fullscreenenter"",""1"",""1878""
","
","
","""event"",""trial"",""time""
""fullscreenenter"",""1"",""1878""
","
","","","","","","null","<div style=""font-size:60px;"">+</div>","null","","fixation","","",""
"memory-trial","290","609518","0.0-18.0-1.122","6375","approach_avoid_sv1","""event"",""trial"",""time""
""fullscreenenter"",""1"",""1878""
","
","
","""event"",""trial"",""time""
""fullscreenenter"",""1"",""1878""
","
","","","","","","2267.1999999284744","images/rabbit6.png","","","memory_trial","1","definitely_old",""
"html-keyboard-response","291","610022","0.0-18.0-0.123","6375","approach_avoid_sv1","""event"",""trial"",""time""
""fullscreenenter"",""1"",""1878""
","
","
","""event"",""trial"",""time""
""fullscreenenter"",""1"",""1878""
","
","","","","","","null","<div style=""font-size:60px;"">+</div>","null","","fixation","","",""
"memory-trial","292","611759","0.0-18.0-1.123","6375","approach_avoid_sv1","""event"",""trial"",""time""
""fullscreenenter"",""1"",""1878""
","
","
","""event"",""trial"",""time""
""fullscreenenter"",""1"",""1878""
","
","","","","","","727.2999999523163","images/apple2.png","","","memory_trial","4","definitely_new",""
"html-keyboard-response","293","612262","0.0-18.0-0.124","6375","approach_avoid_sv1","""event"",""trial"",""time""
""fullscreenenter"",""1"",""1878""
","
","
","""event"",""trial"",""time""
""fullscreenenter"",""1"",""1878""
","
","","","","","","null","<div style=""font-size:60px;"">+</div>","null","","fixation","","",""
"memory-trial","294","614142","0.0-18.0-1.124","6375","approach_avoid_sv1","""event"",""trial"",""time""
""fullscreenenter"",""1"",""1878""
","
","
","""event"",""trial"",""time""
""fullscreenenter"",""1"",""1878""
","
","","","","","","872.2999999523163","images/banana4.png","","","memory_trial","4","definitely_new",""
"html-keyboard-response","295","614646","0.0-18.0-0.125","6375","approach_avoid_sv1","""event"",""trial"",""time""
""fullscreenenter"",""1"",""1878""
","
","
","""event"",""trial"",""time""
""fullscreenenter"",""1"",""1878""
","
","","","","","","null","<div style=""font-size:60px;"">+</div>","null","","fixation","","",""
"memory-trial","296","616526","0.0-18.0-1.125","6375","approach_avoid_sv1","""event"",""trial"",""time""
""fullscreenenter"",""1"",""1878""
","
","
","""event"",""trial"",""time""
""fullscreenenter"",""1"",""1878""
","
","","","","","","871.8000000715256","images/truck6.png","","","memory_trial","4","definitely_new",""
"html-keyboard-response","297","617030","0.0-18.0-0.126","6375","approach_avoid_sv1","""event"",""trial"",""time""
""fullscreenenter"",""1"",""1878""
","
","
","""event"",""trial"",""time""
