"trial_type","trial_index","time_elapsed","internal_node_id","subject_id","task_version","interactions","blur_events","focus_events","fullscreenenter_events","fullscreenexit_events","success","timeout","failed_images","failed_audio","failed_video","rt","stimulus","response","button_pressed","task_part","key_press","answer","correct"
"pavlovia","0","10","0.0-0.0","6267","approach_avoid_sv1","""event"",""trial"",""time""
""focus"",""0"",""2""
""fullscreenenter"",""1"",""2480""
","
","""event"",""trial"",""time""
""focus"",""0"",""2""
","""event"",""trial"",""time""
""fullscreenenter"",""1"",""2480""
","
","","","","","","","","","","","","",""
"fullscreen","1","3281","0.0-1.0","6267","approach_avoid_sv1","""event"",""trial"",""time""
""focus"",""0"",""2""
""fullscreenenter"",""1"",""2480""
","
","""event"",""trial"",""time""
""focus"",""0"",""2""
","""event"",""trial"",""time""
""fullscreenenter"",""1"",""2480""
","
","true","","","","","","","","","","","",""
"preload","2","4639","0.0-2.0","6267","approach_avoid_sv1","""event"",""trial"",""time""
""focus"",""0"",""2""
""fullscreenenter"",""1"",""2480""
","
","""event"",""trial"",""time""
""focus"",""0"",""2""
","""event"",""trial"",""time""
""fullscreenenter"",""1"",""2480""
","
","true","false","[]","[]","[]","","","","","","","",""
"preload","3","5100","0.0-3.0","6267","approach_avoid_sv1","""event"",""trial"",""time""
""focus"",""0"",""2""
""fullscreenenter"",""1"",""2480""
","
","""event"",""trial"",""time""
""focus"",""0"",""2""
","""event"",""trial"",""time""
""fullscreenenter"",""1"",""2480""
","
","true","false","[]","[]","[]","","","","","","","",""
"preload","4","5383","0.0-4.0","6267","approach_avoid_sv1","""event"",""trial"",""time""
""focus"",""0"",""2""
""fullscreenenter"",""1"",""2480""
","
","""event"",""trial"",""time""
""focus"",""0"",""2""
","""event"",""trial"",""time""
""fullscreenenter"",""1"",""2480""
","
","true","false","[]","[]","[]","","","","","","","",""
"audio-keyboard-response","5","7759","0.0-5.0","6267","approach_avoid_sv1","""event"",""trial"",""time""
""focus"",""0"",""2""
""fullscreenenter"",""1"",""2480""
","
","""event"",""trial"",""time""
""focus"",""0"",""2""
","""event"",""trial"",""time""
""fullscreenenter"",""1"",""2480""
","
","","","","","","2368","audio/beep_loop.wav"," ","","","","",""
"audio-button-response","6","9561","0.0-6.0","6267","approach_avoid_sv1","""event"",""trial"",""time""
""focus"",""0"",""2""
""fullscreenenter"",""1"",""2480""
","
","""event"",""trial"",""time""
""focus"",""0"",""2""
","""event"",""trial"",""time""
""fullscreenenter"",""1"",""2480""
","
","","","","","","1800","audio/turtle.wav","3","","","","",""
"audio-button-response","7","11565","0.0-7.0","6267","approach_avoid_sv1","""event"",""trial"",""time""
""focus"",""0"",""2""
""fullscreenenter"",""1"",""2480""
","
","""event"",""trial"",""time""
""focus"",""0"",""2""
","""event"",""trial"",""time""
""fullscreenenter"",""1"",""2480""
","
","","","","","","1000","audio/shark.wav","2","","","","",""
"preload","8","14010","0.0-8.0","6267","approach_avoid_sv1","""event"",""trial"",""time""
""focus"",""0"",""2""
""fullscreenenter"",""1"",""2480""
","
","""event"",""trial"",""time""
""focus"",""0"",""2""
","""event"",""trial"",""time""
""fullscreenenter"",""1"",""2480""
","
","true","false","[]","[]","[]","","","","","","","",""
"learning-instructions","9","23818","0.0-9.0-0.0","6267","approach_avoid_sv1","""event"",""trial"",""time""
""focus"",""0"",""2""
""fullscreenenter"",""1"",""2480""
","
","""event"",""trial"",""time""
""focus"",""0"",""2""
","""event"",""trial"",""time""
""fullscreenenter"",""1"",""2480""
","
","","","","","","5317","<p> Welcome back! </p><p> Last week, you had to make choices about lots of different items.  </p>","","0","instructions","","",""
"learning-instructions","10","28436","0.0-9.0-0.1","6267","approach_avoid_sv1","""event"",""trial"",""time""
""focus"",""0"",""2""
""fullscreenenter"",""1"",""2480""
","
","""event"",""trial"",""time""
""focus"",""0"",""2""
","""event"",""trial"",""time""
""fullscreenenter"",""1"",""2480""
","
","","","","","","504","<p> Today, we are going to ask you to try to remember all the items. </p>","","0","instructions","","",""
"learning-instructions","11","38836","0.0-9.0-0.2","6267","approach_avoid_sv1","""event"",""trial"",""time""
""focus"",""0"",""2""
""fullscreenenter"",""1"",""2480""
","
","""event"",""trial"",""time""
""focus"",""0"",""2""
","""event"",""trial"",""time""
""fullscreenenter"",""1"",""2480""
","
","","","","","","265","<p> On every trial, you will see an image. </p><p> The image may be an OLD image you saw during the games last week or it may be a NEW image that was not presented. </p>","","0","instructions","","",""
"learning-instructions","12","48024","0.0-9.0-0.3","6267","approach_avoid_sv1","""event"",""trial"",""time""
""focus"",""0"",""2""
""fullscreenenter"",""1"",""2480""
","
","""event"",""trial"",""time""
""focus"",""0"",""2""
","""event"",""trial"",""time""
""fullscreenenter"",""1"",""2480""
","
","","","","","","682","<p> You need to select whether the image is:  </p><p>  'Definitely old', 'Maybe old', 'Maybe new', or 'Definitely new.'  </p><div class=""mem-choice-instructions-grid""><div class=""choice-option"" id=""choice-option-1"" ><img src=""images/definitely_old_1.png"" id=""choice-option-img-1"" class=""choice-option-img"" stage=""1""></div><div class=""choice-option"" id=""choice-option-2"" ><img src=""images/maybe_old_1.png"" id=""choice-option-img-2"" class=""choice-option-img"" stage=""1""></div><div class=""choice-option"" id=""choice-option-3"" ><img src=""images/maybe_new_1.png"" id=""choice-option-img-3"" class=""choice-option-img"" stage=""1""></div><div class=""choice-option"" id=""choice-option-4"" > <img src=""images/definitely_new_1.png"" id=""choice-option-img-4"" class=""choice-option-img"" stage=""1""></div></div>","","0","instructions","","",""
"learning-instructions","13","55114","0.0-9.0-0.4","6267","approach_avoid_sv1","""event"",""trial"",""time""
""focus"",""0"",""2""
""fullscreenenter"",""1"",""2480""
","
","""event"",""trial"",""time""
""focus"",""0"",""2""
","""event"",""trial"",""time""
""fullscreenenter"",""1"",""2480""
","
","","","","","","562","<p> You should use the 1, 2, 3, and 4 keys to make your responses.  </p><div class=""mem-choice-instructions-grid""><div class=""choice-option"" id=""choice-option-1"" ><img src=""images/definitely_old.png"" id=""choice-option-img-1"" class=""choice-option-img"" stage=""1""></div><div class=""choice-option"" id=""choice-option-2"" ><img src=""images/maybe_old.png"" id=""choice-option-img-2"" class=""choice-option-img"" stage=""1""></div><div class=""choice-option"" id=""choice-option-3"" ><img src=""images/maybe_new.png"" id=""choice-option-img-3"" class=""choice-option-img"" stage=""1""></div><div class=""choice-option"" id=""choice-option-4"" > <img src=""images/definitely_new.png"" id=""choice-option-img-4"" class=""choice-option-img"" stage=""1""></div></div>","","0","instructions","","",""
"learning-instructions","14","61973","0.0-9.0-0.5","6267","approach_avoid_sv1","""event"",""trial"",""time""
""focus"",""0"",""2""
""fullscreenenter"",""1"",""2480""
","
","""event"",""trial"",""time""
""focus"",""0"",""2""
","""event"",""trial"",""time""
""fullscreenenter"",""1"",""2480""
","
","","","","","","512","<p> You will have 10 seconds to make each response.  </p><p>  Make sure to respond before time runs out! </p>","","0","instructions","","",""
"learning-instructions","15","69858","0.0-9.0-0.6","6267","approach_avoid_sv1","""event"",""trial"",""time""
""focus"",""0"",""2""
""fullscreenenter"",""1"",""2480""
","
","""event"",""trial"",""time""
""focus"",""0"",""2""
","""event"",""trial"",""time""
""fullscreenenter"",""1"",""2480""
","
","","","","","","806","<p> Today, you will see each image ONCE only.  </p><p>  That means none of the images will repeat. </p>","","0","instructions","","",""
"learning-instructions","16","83091","0.0-9.0-0.7","6267","approach_avoid_sv1","""event"",""trial"",""time""
""focus"",""0"",""2""
""fullscreenenter"",""1"",""2480""
","
","""event"",""trial"",""time""
""focus"",""0"",""2""
","""event"",""trial"",""time""
""fullscreenenter"",""1"",""2480""
","
","","","","","","550","<p> Before you play the real game, it is time to practice. </p><p>  Just like in the real game, some of the images in the practice will be ones you have seen before. </p><p>  Others will be entirely new. </p>","","0","instructions","","",""
"html-button-response","17","84735","0.0-10.0","6267","approach_avoid_sv1","""event"",""trial"",""time""
""focus"",""0"",""2""
""fullscreenenter"",""1"",""2480""
","
","""event"",""trial"",""time""
""focus"",""0"",""2""
","""event"",""trial"",""time""
""fullscreenenter"",""1"",""2480""
","
","","","","","","1536","<p> Ready to practice? </p><p> Remember, use the 1, 2, 3, and 4 keys to make your responses. </p>","0","","instructions","","",""
"html-keyboard-response","18","85360","0.0-11.0-0.0","6267","approach_avoid_sv1","""event"",""trial"",""time""
""focus"",""0"",""2""
""fullscreenenter"",""1"",""2480""
","
","""event"",""trial"",""time""
""focus"",""0"",""2""
","""event"",""trial"",""time""
""fullscreenenter"",""1"",""2480""
","
","","","","","","null","<div style=""font-size:60px;"">+</div>","null","","fixation","","",""
"memory-trial","19","88568","0.0-11.0-1.0","6267","approach_avoid_sv1","""event"",""trial"",""time""
""focus"",""0"",""2""
""fullscreenenter"",""1"",""2480""
","
","""event"",""trial"",""time""
""focus"",""0"",""2""
","""event"",""trial"",""time""
""fullscreenenter"",""1"",""2480""
","
","","","","","","2199","images/ball3.png","","","practice","4","definitely_new",""
"html-keyboard-response","20","89079","0.0-11.0-0.1","6267","approach_avoid_sv1","""event"",""trial"",""time""
""focus"",""0"",""2""
""fullscreenenter"",""1"",""2480""
","
","""event"",""trial"",""time""
""focus"",""0"",""2""
","""event"",""trial"",""time""
""fullscreenenter"",""1"",""2480""
","
","","","","","","null","<div style=""font-size:60px;"">+</div>","null","","fixation","","",""
"memory-trial","21","92168","0.0-11.0-1.1","6267","approach_avoid_sv1","""event"",""trial"",""time""
""focus"",""0"",""2""
""fullscreenenter"",""1"",""2480""
","
","""event"",""trial"",""time""
""focus"",""0"",""2""
","""event"",""trial"",""time""
""fullscreenenter"",""1"",""2480""
","
","","","","","","2082","images/ball2.png","","","practice","1","definitely_old",""
"html-keyboard-response","22","92673","0.0-11.0-0.2","6267","approach_avoid_sv1","""event"",""trial"",""time""
""focus"",""0"",""2""
""fullscreenenter"",""1"",""2480""
","
","""event"",""trial"",""time""
""focus"",""0"",""2""
","""event"",""trial"",""time""
""fullscreenenter"",""1"",""2480""
","
","","","","","","null","<div style=""font-size:60px;"">+</div>","null","","fixation","","",""
"memory-trial","23","94704","0.0-11.0-1.2","6267","approach_avoid_sv1","""event"",""trial"",""time""
""focus"",""0"",""2""
""fullscreenenter"",""1"",""2480""
","
","""event"",""trial"",""time""
""focus"",""0"",""2""
","""event"",""trial"",""time""
""fullscreenenter"",""1"",""2480""
","
","","","","","","1017","images/racket5.png","","","practice","4","definitely_new",""
"html-keyboard-response","24","95210","0.0-11.0-0.3","6267","approach_avoid_sv1","""event"",""trial"",""time""
""focus"",""0"",""2""
""fullscreenenter"",""1"",""2480""
","
","""event"",""trial"",""time""
""focus"",""0"",""2""
","""event"",""trial"",""time""
""fullscreenenter"",""1"",""2480""
","
","","","","","","null","<div style=""font-size:60px;"">+</div>","null","","fixation","","",""
"memory-trial","25","97460","0.0-11.0-1.3","6267","approach_avoid_sv1","""event"",""trial"",""time""
""focus"",""0"",""2""
""fullscreenenter"",""1"",""2480""
","
","""event"",""trial"",""time""
""focus"",""0"",""2""
","""event"",""trial"",""time""
""fullscreenenter"",""1"",""2480""
","
","","","","","","1240","images/racket3.png","","","practice","4","definitely_new",""
"html-keyboard-response","26","97969","0.0-11.0-0.4","6267","approach_avoid_sv1","""event"",""trial"",""time""
""focus"",""0"",""2""
""fullscreenenter"",""1"",""2480""
","
","""event"",""trial"",""time""
""focus"",""0"",""2""
","""event"",""trial"",""time""
""fullscreenenter"",""1"",""2480""
","
","","","","","","null","<div style=""font-size:60px;"">+</div>","null","","fixation","","",""
"memory-trial","27","100990","0.0-11.0-1.4","6267","approach_avoid_sv1","""event"",""trial"",""time""
""focus"",""0"",""2""
""fullscreenenter"",""1"",""2480""
","
","""event"",""trial"",""time""
""focus"",""0"",""2""
","""event"",""trial"",""time""
""fullscreenenter"",""1"",""2480""
","
","","","","","","2007","images/racket2.png","","","practice","2","maybe_old",""
"html-keyboard-response","28","101495","0.0-11.0-0.5","6267","approach_avoid_sv1","""event"",""trial"",""time""
""focus"",""0"",""2""
""fullscreenenter"",""1"",""2480""
","
","""event"",""trial"",""time""
""focus"",""0"",""2""
","""event"",""trial"",""time""
""fullscreenenter"",""1"",""2480""
","
","","","","","","null","<div style=""font-size:60px;"">+</div>","null","","fixation","","",""
"memory-trial","29","106010","0.0-11.0-1.5","6267","approach_avoid_sv1","""event"",""trial"",""time""
""focus"",""0"",""2""
""fullscreenenter"",""1"",""2480""
","
","""event"",""trial"",""time""
""focus"",""0"",""2""
","""event"",""trial"",""time""
""fullscreenenter"",""1"",""2480""
","
","","","","","","3513","images/ball1.png","","","practice","2","maybe_old",""
"html-keyboard-response","30","106525","0.0-11.0-0.6","6267","approach_avoid_sv1","""event"",""trial"",""time""
""focus"",""0"",""2""
""fullscreenenter"",""1"",""2480""
","
","""event"",""trial"",""time""
""focus"",""0"",""2""
","""event"",""trial"",""time""
""fullscreenenter"",""1"",""2480""
","
","","","","","","null","<div style=""font-size:60px;"">+</div>","null","","fixation","","",""
"memory-trial","31","109944","0.0-11.0-1.6","6267","approach_avoid_sv1","""event"",""trial"",""time""
""focus"",""0"",""2""
""fullscreenenter"",""1"",""2480""
","
","""event"",""trial"",""time""
""focus"",""0"",""2""
","""event"",""trial"",""time""
""fullscreenenter"",""1"",""2480""
","
","","","","","","2416","images/racket1.png","","","practice","3","maybe_new",""
"html-keyboard-response","32","110455","0.0-11.0-0.7","6267","approach_avoid_sv1","""event"",""trial"",""time""
""focus"",""0"",""2""
""fullscreenenter"",""1"",""2480""
","
","""event"",""trial"",""time""
""focus"",""0"",""2""
","""event"",""trial"",""time""
""fullscreenenter"",""1"",""2480""
","
","","","","","","null","<div style=""font-size:60px;"">+</div>","null","","fixation","","",""
"memory-trial","33","113401","0.0-11.0-1.7","6267","approach_avoid_sv1","""event"",""trial"",""time""
""focus"",""0"",""2""
""fullscreenenter"",""1"",""2480""
","
","""event"",""trial"",""time""
""focus"",""0"",""2""
","""event"",""trial"",""time""
""fullscreenenter"",""1"",""2480""
","
","","","","","","1934","images/ball5.png","","","practice","1","definitely_old",""
"learning-instructions","34","121467","0.0-12.0-0.0","6267","approach_avoid_sv1","""event"",""trial"",""time""
""focus"",""0"",""2""
""fullscreenenter"",""1"",""2480""
","
","""event"",""trial"",""time""
""focus"",""0"",""2""
","""event"",""trial"",""time""
""fullscreenenter"",""1"",""2480""
","
","","","","","","745","<p> Great! You have completed the practice. </p><p> Before you start, we're going to ask you a few questions about how the game works.  </p>","","0","instructions","","",""
"preload","35","137408","0.0-13.0","6267","approach_avoid_sv1","""event"",""trial"",""time""
""focus"",""0"",""2""
""fullscreenenter"",""1"",""2480""
","
","""event"",""trial"",""time""
""focus"",""0"",""2""
","""event"",""trial"",""time""
""fullscreenenter"",""1"",""2480""
","
","true","false","[]","[]","[]","","","","","","","",""
"comp-q","36","144528","0.0-14.0-0.0","6267","approach_avoid_sv1","""event"",""trial"",""time""
""focus"",""0"",""2""
""fullscreenenter"",""1"",""2480""
","
","""event"",""trial"",""time""
""focus"",""0"",""2""
","""event"",""trial"",""time""
""fullscreenenter"",""1"",""2480""
","
","","","","","","1285","<p> <b> True or False? </b> </p><p> In this game, you will only see each image once. </p>","","0","comp_question","","","true"
"comp-q","37","151811","0.0-14.0-1.0","6267","approach_avoid_sv1","""event"",""trial"",""time""
""focus"",""0"",""2""
""fullscreenenter"",""1"",""2480""
","
","""event"",""trial"",""time""
""focus"",""0"",""2""
","""event"",""trial"",""time""
""fullscreenenter"",""1"",""2480""
","
","","","","","","928","<p> <b> That's right! </b> You will see many different images <i> one time each </i> in this game. </p>","","0","comp_answer","","",""
"comp-q","38","158059","0.0-15.0-0.0","6267","approach_avoid_sv1","""event"",""trial"",""time""
""focus"",""0"",""2""
""fullscreenenter"",""1"",""2480""
","
","""event"",""trial"",""time""
""focus"",""0"",""2""
","""event"",""trial"",""time""
""fullscreenenter"",""1"",""2480""
","
","","","","","","1216","<p> <b> True or False? </b> </p><p> You should use the mouse and click to make your response. </p>","","1","comp_question","","","true"
"comp-q","39","166263","0.0-15.0-1.0","6267","approach_avoid_sv1","""event"",""trial"",""time""
""focus"",""0"",""2""
""fullscreenenter"",""1"",""2480""
","
","""event"",""trial"",""time""
""focus"",""0"",""2""
","""event"",""trial"",""time""
""fullscreenenter"",""1"",""2480""
","
","","","","","","1691","<p><b> That's right! </b> You should use the '1', '2', '3', and '4' keys to make your response. </p>","","0","comp_answer","","",""
"comp-q","40","172560","0.0-16.0-0.0","6267","approach_avoid_sv1","""event"",""trial"",""time""
""focus"",""0"",""2""
""fullscreenenter"",""1"",""2480""
","
","""event"",""trial"",""time""
""focus"",""0"",""2""
","""event"",""trial"",""time""
""fullscreenenter"",""1"",""2480""
","
","","","","","","619","<p> <b> True or False? </b> </p><p> You will have as much time as you want to make each choice. </p>","","1","comp_question","","","true"
"comp-q","41","179062","0.0-16.0-1.0","6267","approach_avoid_sv1","""event"",""trial"",""time""
""focus"",""0"",""2""
""fullscreenenter"",""1"",""2480""
","
","""event"",""trial"",""time""
""focus"",""0"",""2""
","""event"",""trial"",""time""
""fullscreenenter"",""1"",""2480""
","
","","","","","","1780","<p> <b> That's right! </b> You will only have 10 seconds to make each choice. </p>","","0","comp_answer","","",""
"learning-instructions","42","189133","0.0-17.0","6267","approach_avoid_sv1","""event"",""trial"",""time""
""focus"",""0"",""2""
""fullscreenenter"",""1"",""2480""
","
","""event"",""trial"",""time""
""focus"",""0"",""2""
","""event"",""trial"",""time""
""fullscreenenter"",""1"",""2480""
","
","","","","","","1370","<p> Great! You are now ready to begin the game. </p><p> Remember, use the 1, 2, 3, and 4 keys to make your responses. </p>","","0","instructions","","",""
"html-keyboard-response","43","189765","0.0-18.0-0.0","6267","approach_avoid_sv1","""event"",""trial"",""time""
""focus"",""0"",""2""
""fullscreenenter"",""1"",""2480""
","
","""event"",""trial"",""time""
""focus"",""0"",""2""
","""event"",""trial"",""time""
""fullscreenenter"",""1"",""2480""
","
","","","","","","null","<div style=""font-size:60px;"">+</div>","null","","fixation","","",""
"memory-trial","44","192785","0.0-18.0-1.0","6267","approach_avoid_sv1","""event"",""trial"",""time""
""focus"",""0"",""2""
""fullscreenenter"",""1"",""2480""
","
","""event"",""trial"",""time""
""focus"",""0"",""2""
","""event"",""trial"",""time""
""fullscreenenter"",""1"",""2480""
","
","","","","","","2015","images/goat5.png","","","memory_trial","1","definitely_old",""
"html-keyboard-response","45","193292","0.0-18.0-0.1","6267","approach_avoid_sv1","""event"",""trial"",""time""
""focus"",""0"",""2""
""fullscreenenter"",""1"",""2480""
","
","""event"",""trial"",""time""
""focus"",""0"",""2""
","""event"",""trial"",""time""
""fullscreenenter"",""1"",""2480""
","
","","","","","","null","<div style=""font-size:60px;"">+</div>","null","","fixation","","",""
"memory-trial","46","195339","0.0-18.0-1.1","6267","approach_avoid_sv1","""event"",""trial"",""time""
""focus"",""0"",""2""
""fullscreenenter"",""1"",""2480""
","
","""event"",""trial"",""time""
""focus"",""0"",""2""
","""event"",""trial"",""time""
""fullscreenenter"",""1"",""2480""
","
","","","","","","1040","images/dog6.png","","","memory_trial","4","definitely_new",""
"html-keyboard-response","47","195841","0.0-18.0-0.2","6267","approach_avoid_sv1","""event"",""trial"",""time""
""focus"",""0"",""2""
""fullscreenenter"",""1"",""2480""
","
","""event"",""trial"",""time""
""focus"",""0"",""2""
","""event"",""trial"",""time""
""fullscreenenter"",""1"",""2480""
","
","","","","","","null","<div style=""font-size:60px;"">+</div>","null","","fixation","","",""
"memory-trial","48","198191","0.0-18.0-1.2","6267","approach_avoid_sv1","""event"",""trial"",""time""
""focus"",""0"",""2""
""fullscreenenter"",""1"",""2480""
","
","""event"",""trial"",""time""
""focus"",""0"",""2""
","""event"",""trial"",""time""
""fullscreenenter"",""1"",""2480""
","
","","","","","","1341","images/dog7.png","","","memory_trial","3","maybe_new",""
"html-keyboard-response","49","198701","0.0-18.0-0.3","6267","approach_avoid_sv1","""event"",""trial"",""time""
""focus"",""0"",""2""
""fullscreenenter"",""1"",""2480""
","
","""event"",""trial"",""time""
""focus"",""0"",""2""
","""event"",""trial"",""time""
""fullscreenenter"",""1"",""2480""
","
","","","","","","null","<div style=""font-size:60px;"">+</div>","null","","fixation","","",""
"memory-trial","50","201266","0.0-18.0-1.3","6267","approach_avoid_sv1","""event"",""trial"",""time""
""focus"",""0"",""2""
""fullscreenenter"",""1"",""2480""
","
","""event"",""trial"",""time""
""focus"",""0"",""2""
","""event"",""trial"",""time""
""fullscreenenter"",""1"",""2480""
","
","","","","","","1556","images/table3.png","","","memory_trial","1","definitely_old",""
"html-keyboard-response","51","201775","0.0-18.0-0.4","6267","approach_avoid_sv1","""event"",""trial"",""time""
""focus"",""0"",""2""
""fullscreenenter"",""1"",""2480""
","
","""event"",""trial"",""time""
""focus"",""0"",""2""
","""event"",""trial"",""time""
""fullscreenenter"",""1"",""2480""
","
","","","","","","null","<div style=""font-size:60px;"">+</div>","null","","fixation","","",""
"memory-trial","52","204178","0.0-18.0-1.4","6267","approach_avoid_sv1","""event"",""trial"",""time""
""focus"",""0"",""2""
""fullscreenenter"",""1"",""2480""
","
","""event"",""trial"",""time""
""focus"",""0"",""2""
","""event"",""trial"",""time""
""fullscreenenter"",""1"",""2480""
","
","","","","","","1394","images/sheep7.png","","","memory_trial","3","maybe_new",""
"html-keyboard-response","53","204679","0.0-18.0-0.5","6267","approach_avoid_sv1","""event"",""trial"",""time""
""focus"",""0"",""2""
""fullscreenenter"",""1"",""2480""
","
","""event"",""trial"",""time""
""focus"",""0"",""2""
","""event"",""trial"",""time""
""fullscreenenter"",""1"",""2480""
","
","","","","","","null","<div style=""font-size:60px;"">+</div>","null","","fixation","","",""
"memory-trial","54","206706","0.0-18.0-1.5","6267","approach_avoid_sv1","""event"",""trial"",""time""
""focus"",""0"",""2""
""fullscreenenter"",""1"",""2480""
","
","""event"",""trial"",""time""
""focus"",""0"",""2""
","""event"",""trial"",""time""
""fullscreenenter"",""1"",""2480""
","
","","","","","","1021","images/boat3.png","","","memory_trial","1","definitely_old",""
"html-keyboard-response","55","207221","0.0-18.0-0.6","6267","approach_avoid_sv1","""event"",""trial"",""time""
""focus"",""0"",""2""
""fullscreenenter"",""1"",""2480""
","
","""event"",""trial"",""time""
""focus"",""0"",""2""
","""event"",""trial"",""time""
""fullscreenenter"",""1"",""2480""
","
","","","","","","null","<div style=""font-size:60px;"">+</div>","null","","fixation","","",""
"memory-trial","56","209242","0.0-18.0-1.6","6267","approach_avoid_sv1","""event"",""trial"",""time""
""focus"",""0"",""2""
""fullscreenenter"",""1"",""2480""
","
","""event"",""trial"",""time""
""focus"",""0"",""2""
","""event"",""trial"",""time""
""fullscreenenter"",""1"",""2480""
","
","","","","","","1008","images/flower5.png","","","memory_trial","1","definitely_old",""
"html-keyboard-response","57","209761","0.0-18.0-0.7","6267","approach_avoid_sv1","""event"",""trial"",""time""
""focus"",""0"",""2""
""fullscreenenter"",""1"",""2480""
","
","""event"",""trial"",""time""
""focus"",""0"",""2""
","""event"",""trial"",""time""
""fullscreenenter"",""1"",""2480""
","
","","","","","","null","<div style=""font-size:60px;"">+</div>","null","","fixation","","",""
"memory-trial","58","211536","0.0-18.0-1.7","6267","approach_avoid_sv1","""event"",""trial"",""time""
""focus"",""0"",""2""
""fullscreenenter"",""1"",""2480""
","
","""event"",""trial"",""time""
""focus"",""0"",""2""
","""event"",""trial"",""time""
""fullscreenenter"",""1"",""2480""
","
","","","","","","764","images/bush7.png","","","memory_trial","1","definitely_old",""
"html-keyboard-response","59","212037","0.0-18.0-0.8","6267","approach_avoid_sv1","""event"",""trial"",""time""
""focus"",""0"",""2""
""fullscreenenter"",""1"",""2480""
","
","""event"",""trial"",""time""
""focus"",""0"",""2""
","""event"",""trial"",""time""
""fullscreenenter"",""1"",""2480""
","
","","","","","","null","<div style=""font-size:60px;"">+</div>","null","","fixation","","",""
"memory-trial","60","214385","0.0-18.0-1.8","6267","approach_avoid_sv1","""event"",""trial"",""time""
""focus"",""0"",""2""
""fullscreenenter"",""1"",""2480""
","
","""event"",""trial"",""time""
""focus"",""0"",""2""
","""event"",""trial"",""time""
""fullscreenenter"",""1"",""2480""
","
","","","","","","1342","images/flower6.png","","","memory_trial","4","definitely_new",""
"html-keyboard-response","61","214896","0.0-18.0-0.9","6267","approach_avoid_sv1","""event"",""trial"",""time""
""focus"",""0"",""2""
""fullscreenenter"",""1"",""2480""
","
","""event"",""trial"",""time""
""focus"",""0"",""2""
","""event"",""trial"",""time""
""fullscreenenter"",""1"",""2480""
","
","","","","","","null","<div style=""font-size:60px;"">+</div>","null","","fixation","","",""
"memory-trial","62","217356","0.0-18.0-1.9","6267","approach_avoid_sv1","""event"",""trial"",""time""
""focus"",""0"",""2""
""fullscreenenter"",""1"",""2480""
","
","""event"",""trial"",""time""
""focus"",""0"",""2""
","""event"",""trial"",""time""
""fullscreenenter"",""1"",""2480""
","
","","","","","","1456","images/banana3.png","","","memory_trial","1","definitely_old",""
"html-keyboard-response","63","217862","0.0-18.0-0.10","6267","approach_avoid_sv1","""event"",""trial"",""time""
""focus"",""0"",""2""
""fullscreenenter"",""1"",""2480""
","
","""event"",""trial"",""time""
""focus"",""0"",""2""
","""event"",""trial"",""time""
""fullscreenenter"",""1"",""2480""
","
","","","","","","null","<div style=""font-size:60px;"">+</div>","null","","fixation","","",""
"memory-trial","64","219601","0.0-18.0-1.10","6267","approach_avoid_sv1","""event"",""trial"",""time""
""focus"",""0"",""2""
""fullscreenenter"",""1"",""2480""
","
","""event"",""trial"",""time""
""focus"",""0"",""2""
","""event"",""trial"",""time""
""fullscreenenter"",""1"",""2480""
","
","","","","","","730","images/apple6.png","","","memory_trial","1","definitely_old",""
"html-keyboard-response","65","220116","0.0-18.0-0.11","6267","approach_avoid_sv1","""event"",""trial"",""time""
""focus"",""0"",""2""
""fullscreenenter"",""1"",""2480""
","
","""event"",""trial"",""time""
""focus"",""0"",""2""
","""event"",""trial"",""time""
""fullscreenenter"",""1"",""2480""
","
","","","","","","null","<div style=""font-size:60px;"">+</div>","null","","fixation","","",""
"memory-trial","66","221908","0.0-18.0-1.11","6267","approach_avoid_sv1","""event"",""trial"",""time""
""focus"",""0"",""2""
""fullscreenenter"",""1"",""2480""
","
","""event"",""trial"",""time""
""focus"",""0"",""2""
","""event"",""trial"",""time""
""fullscreenenter"",""1"",""2480""
","
","","","","","","790","images/tree3.png","","","memory_trial","4","definitely_new",""
"html-keyboard-response","67","222411","0.0-18.0-0.12","6267","approach_avoid_sv1","""event"",""trial"",""time""
""focus"",""0"",""2""
""fullscreenenter"",""1"",""2480""
","
","""event"",""trial"",""time""
""focus"",""0"",""2""
","""event"",""trial"",""time""
""fullscreenenter"",""1"",""2480""
","
","","","","","","null","<div style=""font-size:60px;"">+</div>","null","","fixation","","",""
"memory-trial","68","224797","0.0-18.0-1.12","6267","approach_avoid_sv1","""event"",""trial"",""time""
""focus"",""0"",""2""
""fullscreenenter"",""1"",""2480""
","
","""event"",""trial"",""time""
""focus"",""0"",""2""
","""event"",""trial"",""time""
""fullscreenenter"",""1"",""2480""
","
","","","","","","1370","images/horse4.png","","","memory_trial","1","definitely_old",""
"html-keyboard-response","69","225311","0.0-18.0-0.13","6267","approach_avoid_sv1","""event"",""trial"",""time""
""focus"",""0"",""2""
""fullscreenenter"",""1"",""2480""
","
","""event"",""trial"",""time""
""focus"",""0"",""2""
","""event"",""trial"",""time""
""fullscreenenter"",""1"",""2480""
","
","","","","","","null","<div style=""font-size:60px;"">+</div>","null","","fixation","","",""
"memory-trial","70","227118","0.0-18.0-1.13","6267","approach_avoid_sv1","""event"",""trial"",""time""
""focus"",""0"",""2""
""fullscreenenter"",""1"",""2480""
","
","""event"",""trial"",""time""
""focus"",""0"",""2""
","""event"",""trial"",""time""
""fullscreenenter"",""1"",""2480""
","
","","","","","","792","images/orange7.png","","","memory_trial","1","definitely_old",""
"html-keyboard-response","71","227632","0.0-18.0-0.14","6267","approach_avoid_sv1","""event"",""trial"",""time""
""focus"",""0"",""2""
""fullscreenenter"",""1"",""2480""
","
","""event"",""trial"",""time""
""focus"",""0"",""2""
","""event"",""trial"",""time""
""fullscreenenter"",""1"",""2480""
","
","","","","","","null","<div style=""font-size:60px;"">+</div>","null","","fixation","","",""
"memory-trial","72","230455","0.0-18.0-1.14","6267","approach_avoid_sv1","""event"",""trial"",""time""
""focus"",""0"",""2""
""fullscreenenter"",""1"",""2480""
","
","""event"",""trial"",""time""
""focus"",""0"",""2""
","""event"",""trial"",""time""
""fullscreenenter"",""1"",""2480""
","
","","","","","","1819","images/train8.png","","","memory_trial","2","maybe_old",""
"html-keyboard-response","73","230969","0.0-18.0-0.15","6267","approach_avoid_sv1","""event"",""trial"",""time""
""focus"",""0"",""2""
""fullscreenenter"",""1"",""2480""
","
","""event"",""trial"",""time""
""focus"",""0"",""2""
","""event"",""trial"",""time""
""fullscreenenter"",""1"",""2480""
","
","","","","","","null","<div style=""font-size:60px;"">+</div>","null","","fixation","","",""
"memory-trial","74","233459","0.0-18.0-1.15","6267","approach_avoid_sv1","""event"",""trial"",""time""
""focus"",""0"",""2""
""fullscreenenter"",""1"",""2480""
","
","""event"",""trial"",""time""
""focus"",""0"",""2""
","""event"",""trial"",""time""
""fullscreenenter"",""1"",""2480""
","
","","","","","","1478","images/goat8.png","","","memory_trial","1","definitely_old",""
"html-keyboard-response","75","233974","0.0-18.0-0.16","6267","approach_avoid_sv1","""event"",""trial"",""time""
""focus"",""0"",""2""
""fullscreenenter"",""1"",""2480""
","
","""event"",""trial"",""time""
""focus"",""0"",""2""
","""event"",""trial"",""time""
""fullscreenenter"",""1"",""2480""
","
","","","","","","null","<div style=""font-size:60px;"">+</div>","null","","fixation","","",""
"memory-trial","76","235842","0.0-18.0-1.16","6267","approach_avoid_sv1","""event"",""trial"",""time""
""focus"",""0"",""2""
""fullscreenenter"",""1"",""2480""
","
","""event"",""trial"",""time""
""focus"",""0"",""2""
","""event"",""trial"",""time""
""fullscreenenter"",""1"",""2480""
","
","","","","","","866","images/rabbit2.png","","","memory_trial","1","definitely_old",""
"html-keyboard-response","77","236353","0.0-18.0-0.17","6267","approach_avoid_sv1","""event"",""trial"",""time""
""focus"",""0"",""2""
""fullscreenenter"",""1"",""2480""
","
","""event"",""trial"",""time""
""focus"",""0"",""2""
","""event"",""trial"",""time""
""fullscreenenter"",""1"",""2480""
","
","","","","","","null","<div style=""font-size:60px;"">+</div>","null","","fixation","","",""
"memory-trial","78","238139","0.0-18.0-1.17","6267","approach_avoid_sv1","""event"",""trial"",""time""
""focus"",""0"",""2""
""fullscreenenter"",""1"",""2480""
","
","""event"",""trial"",""time""
""focus"",""0"",""2""
","""event"",""trial"",""time""
""fullscreenenter"",""1"",""2480""
","
","","","","","","780","images/tree1.png","","","memory_trial","4","definitely_new",""
"html-keyboard-response","79","238653","0.0-18.0-0.18","6267","approach_avoid_sv1","""event"",""trial"",""time""
""focus"",""0"",""2""
""fullscreenenter"",""1"",""2480""
","
","""event"",""trial"",""time""
""focus"",""0"",""2""
","""event"",""trial"",""time""
""fullscreenenter"",""1"",""2480""
","
","","","","","","null","<div style=""font-size:60px;"">+</div>","null","","fixation","","",""
"memory-trial","80","240472","0.0-18.0-1.18","6267","approach_avoid_sv1","""event"",""trial"",""time""
""focus"",""0"",""2""
""fullscreenenter"",""1"",""2480""
","
","""event"",""trial"",""time""
""focus"",""0"",""2""
","""event"",""trial"",""time""
""fullscreenenter"",""1"",""2480""
","
","","","","","","810","images/tree2.png","","","memory_trial","4","definitely_new",""
"html-keyboard-response","81","240985","0.0-18.0-0.19","6267","approach_avoid_sv1","""event"",""trial"",""time""
""focus"",""0"",""2""
""fullscreenenter"",""1"",""2480""
","
","""event"",""trial"",""time""
""focus"",""0"",""2""
","""event"",""trial"",""time""
""fullscreenenter"",""1"",""2480""
","
","","","","","","null","<div style=""font-size:60px;"">+</div>","null","","fixation","","",""
"memory-trial","82","242703","0.0-18.0-1.19","6267","approach_avoid_sv1","""event"",""trial"",""time""
""focus"",""0"",""2""
""fullscreenenter"",""1"",""2480""
","
","""event"",""trial"",""time""
""focus"",""0"",""2""
","""event"",""trial"",""time""
""fullscreenenter"",""1"",""2480""
","
","","","","","","707","images/boat1.png","","","memory_trial","1","definitely_old",""
"html-keyboard-response","83","243217","0.0-18.0-0.20","6267","approach_avoid_sv1","""event"",""trial"",""time""
""focus"",""0"",""2""
""fullscreenenter"",""1"",""2480""
","
","""event"",""trial"",""time""
""focus"",""0"",""2""
","""event"",""trial"",""time""
""fullscreenenter"",""1"",""2480""
","
","","","","","","null","<div style=""font-size:60px;"">+</div>","null","","fixation","","",""
"memory-trial","84","245181","0.0-18.0-1.20","6267","approach_avoid_sv1","""event"",""trial"",""time""
""focus"",""0"",""2""
""fullscreenenter"",""1"",""2480""
","
","""event"",""trial"",""time""
""focus"",""0"",""2""
","""event"",""trial"",""time""
""fullscreenenter"",""1"",""2480""
","
","","","","","","959","images/banana2.png","","","memory_trial","1","definitely_old",""
"html-keyboard-response","85","245696","0.0-18.0-0.21","6267","approach_avoid_sv1","""event"",""trial"",""time""
""focus"",""0"",""2""
""fullscreenenter"",""1"",""2480""
","
","""event"",""trial"",""time""
""focus"",""0"",""2""
","""event"",""trial"",""time""
""fullscreenenter"",""1"",""2480""
","
","","","","","","null","<div style=""font-size:60px;"">+</div>","null","","fixation","","",""
"memory-trial","86","247627","0.0-18.0-1.21","6267","approach_avoid_sv1","""event"",""trial"",""time""
""focus"",""0"",""2""
""fullscreenenter"",""1"",""2480""
","
","""event"",""trial"",""time""
""focus"",""0"",""2""
","""event"",""trial"",""time""
""fullscreenenter"",""1"",""2480""
","
","","","","","","926","images/orange8.png","","","memory_trial","1","definitely_old",""
"html-keyboard-response","87","248141","0.0-18.0-0.22","6267","approach_avoid_sv1","""event"",""trial"",""time""
""focus"",""0"",""2""
""fullscreenenter"",""1"",""2480""
","
","""event"",""trial"",""time""
""focus"",""0"",""2""
","""event"",""trial"",""time""
""fullscreenenter"",""1"",""2480""
","
","","","","","","null","<div style=""font-size:60px;"">+</div>","null","","fixation","","",""
"memory-trial","88","250261","0.0-18.0-1.22","6267","approach_avoid_sv1","""event"",""trial"",""time""
""focus"",""0"",""2""
""fullscreenenter"",""1"",""2480""
","
","""event"",""trial"",""time""
""focus"",""0"",""2""
","""event"",""trial"",""time""
""fullscreenenter"",""1"",""2480""
","
","","","","","","1112","images/cow3.png","","","memory_trial","1","definitely_old",""
"html-keyboard-response","89","250773","0.0-18.0-0.23","6267","approach_avoid_sv1","""event"",""trial"",""time""
""focus"",""0"",""2""
""fullscreenenter"",""1"",""2480""
","
","""event"",""trial"",""time""
""focus"",""0"",""2""
","""event"",""trial"",""time""
""fullscreenenter"",""1"",""2480""
","
","","","","","","null","<div style=""font-size:60px;"">+</div>","null","","fixation","","",""
"memory-trial","90","252399","0.0-18.0-1.23","6267","approach_avoid_sv1","""event"",""trial"",""time""
""focus"",""0"",""2""
""fullscreenenter"",""1"",""2480""
","
","""event"",""trial"",""time""
""focus"",""0"",""2""
","""event"",""trial"",""time""
""fullscreenenter"",""1"",""2480""
","
","","","","","","608","images/goat6.png","","","memory_trial","4","definitely_new",""
"html-keyboard-response","91","252911","0.0-18.0-0.24","6267","approach_avoid_sv1","""event"",""trial"",""time""
""focus"",""0"",""2""
""fullscreenenter"",""1"",""2480""
","
","""event"",""trial"",""time""
""focus"",""0"",""2""
","""event"",""trial"",""time""
""fullscreenenter"",""1"",""2480""
","
","","","","","","null","<div style=""font-size:60px;"">+</div>","null","","fixation","","",""
"memory-trial","92","254806","0.0-18.0-1.24","6267","approach_avoid_sv1","""event"",""trial"",""time""
""focus"",""0"",""2""
""fullscreenenter"",""1"",""2480""
","
","""event"",""trial"",""time""
""focus"",""0"",""2""
","""event"",""trial"",""time""
""fullscreenenter"",""1"",""2480""
","
","","","","","","893","images/dog3.png","","","memory_trial","4","definitely_new",""
"html-keyboard-response","93","255316","0.0-18.0-0.25","6267","approach_avoid_sv1","""event"",""trial"",""time""
""focus"",""0"",""2""
""fullscreenenter"",""1"",""2480""
","
","""event"",""trial"",""time""
""focus"",""0"",""2""
","""event"",""trial"",""time""
""fullscreenenter"",""1"",""2480""
","
","","","","","","null","<div style=""font-size:60px;"">+</div>","null","","fixation","","",""
"memory-trial","94","257832","0.0-18.0-1.25","6267","approach_avoid_sv1","""event"",""trial"",""time""
""focus"",""0"",""2""
""fullscreenenter"",""1"",""2480""
","
","""event"",""trial"",""time""
""focus"",""0"",""2""
","""event"",""trial"",""time""
""fullscreenenter"",""1"",""2480""
","
","","","","","","1502","images/flower1.png","","","memory_trial","3","maybe_new",""
"html-keyboard-response","95","258340","0.0-18.0-0.26","6267","approach_avoid_sv1","""event"",""trial"",""time""
""focus"",""0"",""2""
""fullscreenenter"",""1"",""2480""
","
","""event"",""trial"",""time""
""focus"",""0"",""2""
","""event"",""trial"",""time""
""fullscreenenter"",""1"",""2480""
","
","","","","","","null","<div style=""font-size:60px;"">+</div>","null","","fixation","","",""
"memory-trial","96","260150","0.0-18.0-1.26","6267","approach_avoid_sv1","""event"",""trial"",""time""
""focus"",""0"",""2""
""fullscreenenter"",""1"",""2480""
","
","""event"",""trial"",""time""
""focus"",""0"",""2""
","""event"",""trial"",""time""
""fullscreenenter"",""1"",""2480""
","
","","","","","","796","images/goat3.png","","","memory_trial","3","maybe_new",""
"html-keyboard-response","97","260656","0.0-18.0-0.27","6267","approach_avoid_sv1","""event"",""trial"",""time""
""focus"",""0"",""2""
""fullscreenenter"",""1"",""2480""
","
","""event"",""trial"",""time""
""focus"",""0"",""2""
","""event"",""trial"",""time""
""fullscreenenter"",""1"",""2480""
","
","","","","","","null","<div style=""font-size:60px;"">+</div>","null","","fixation","","",""
"memory-trial","98","262648","0.0-18.0-1.27","6267","approach_avoid_sv1","""event"",""trial"",""time""
""focus"",""0"",""2""
""fullscreenenter"",""1"",""2480""
","
","""event"",""trial"",""time""
""focus"",""0"",""2""
","""event"",""trial"",""time""
""fullscreenenter"",""1"",""2480""
","
","","","","","","985","images/cactus3.png","","","memory_trial","1","definitely_old",""
"html-keyboard-response","99","263156","0.0-18.0-0.28","6267","approach_avoid_sv1","""event"",""trial"",""time""
""focus"",""0"",""2""
""fullscreenenter"",""1"",""2480""
","
","""event"",""trial"",""time""
""focus"",""0"",""2""
","""event"",""trial"",""time""
""fullscreenenter"",""1"",""2480""
","
","","","","","","null","<div style=""font-size:60px;"">+</div>","null","","fixation","","",""
"memory-trial","100","265627","0.0-18.0-1.28","6267","approach_avoid_sv1","""event"",""trial"",""time""
""focus"",""0"",""2""
""fullscreenenter"",""1"",""2480""
","
","""event"",""trial"",""time""
""focus"",""0"",""2""
","""event"",""trial"",""time""
""fullscreenenter"",""1"",""2480""
","
","","","","","","1456","images/sofa5.png","","","memory_trial","3","maybe_new",""
"html-keyboard-response","101","266136","0.0-18.0-0.29","6267","approach_avoid_sv1","""event"",""trial"",""time""
""focus"",""0"",""2""
""fullscreenenter"",""1"",""2480""
","
","""event"",""trial"",""time""
""focus"",""0"",""2""
","""event"",""trial"",""time""
""fullscreenenter"",""1"",""2480""
","
","","","","","","null","<div style=""font-size:60px;"">+</div>","null","","fixation","","",""
"memory-trial","102","267960","0.0-18.0-1.29","6267","approach_avoid_sv1","""event"",""trial"",""time""
""focus"",""0"",""2""
""fullscreenenter"",""1"",""2480""
","
","""event"",""trial"",""time""
""focus"",""0"",""2""
","""event"",""trial"",""time""
""fullscreenenter"",""1"",""2480""
","
","","","","","","816","images/bed5.png","","","memory_trial","1","definitely_old",""
"html-keyboard-response","103","268466","0.0-18.0-0.30","6267","approach_avoid_sv1","""event"",""trial"",""time""
""focus"",""0"",""2""
""fullscreenenter"",""1"",""2480""
","
","""event"",""trial"",""time""
""focus"",""0"",""2""
","""event"",""trial"",""time""
""fullscreenenter"",""1"",""2480""
","
","","","","","","null","<div style=""font-size:60px;"">+</div>","null","","fixation","","",""
"memory-trial","104","270762","0.0-18.0-1.30","6267","approach_avoid_sv1","""event"",""trial"",""time""
""focus"",""0"",""2""
""fullscreenenter"",""1"",""2480""
","
","""event"",""trial"",""time""
""focus"",""0"",""2""
","""event"",""trial"",""time""
""fullscreenenter"",""1"",""2480""
","
","","","","","","1283","images/plane8.png","","","memory_trial","4","definitely_new",""
"html-keyboard-response","105","271271","0.0-18.0-0.31","6267","approach_avoid_sv1","""event"",""trial"",""time""
""focus"",""0"",""2""
""fullscreenenter"",""1"",""2480""
","
","""event"",""trial"",""time""
""focus"",""0"",""2""
","""event"",""trial"",""time""
""fullscreenenter"",""1"",""2480""
","
","","","","","","null","<div style=""font-size:60px;"">+</div>","null","","fixation","","",""
"memory-trial","106","273797","0.0-18.0-1.31","6267","approach_avoid_sv1","""event"",""trial"",""time""
""focus"",""0"",""2""
""fullscreenenter"",""1"",""2480""
","
","""event"",""trial"",""time""
""focus"",""0"",""2""
","""event"",""trial"",""time""
""fullscreenenter"",""1"",""2480""
","
","","","","","","1515","images/sheep3.png","","","memory_trial","4","definitely_new",""
"html-keyboard-response","107","274298","0.0-18.0-0.32","6267","approach_avoid_sv1","""event"",""trial"",""time""
""focus"",""0"",""2""
""fullscreenenter"",""1"",""2480""
","
","""event"",""trial"",""time""
""focus"",""0"",""2""
","""event"",""trial"",""time""
""fullscreenenter"",""1"",""2480""
","
","","","","","","null","<div style=""font-size:60px;"">+</div>","null","","fixation","","",""
"memory-trial","108","276481","0.0-18.0-1.32","6267","approach_avoid_sv1","""event"",""trial"",""time""
""focus"",""0"",""2""
""fullscreenenter"",""1"",""2480""
","
","""event"",""trial"",""time""
""focus"",""0"",""2""
","""event"",""trial"",""time""
""fullscreenenter"",""1"",""2480""
","
","","","","","","1168","images/goat7.png","","","memory_trial","1","definitely_old",""
"html-keyboard-response","109","276986","0.0-18.0-0.33","6267","approach_avoid_sv1","""event"",""trial"",""time""
""focus"",""0"",""2""
""fullscreenenter"",""1"",""2480""
","
","""event"",""trial"",""time""
""focus"",""0"",""2""
","""event"",""trial"",""time""
""fullscreenenter"",""1"",""2480""
","
","","","","","","null","<div style=""font-size:60px;"">+</div>","null","","fixation","","",""
"memory-trial","110","278791","0.0-18.0-1.33","6267","approach_avoid_sv1","""event"",""trial"",""time""
""focus"",""0"",""2""
""fullscreenenter"",""1"",""2480""
","
","""event"",""trial"",""time""
""focus"",""0"",""2""
","""event"",""trial"",""time""
""fullscreenenter"",""1"",""2480""
","
","","","","","","803","images/apple1.png","","","memory_trial","1","definitely_old",""
"html-keyboard-response","111","279301","0.0-18.0-0.34","6267","approach_avoid_sv1","""event"",""trial"",""time""
""focus"",""0"",""2""
""fullscreenenter"",""1"",""2480""
","
","""event"",""trial"",""time""
""focus"",""0"",""2""
","""event"",""trial"",""time""
""fullscreenenter"",""1"",""2480""
","
","","","","","","null","<div style=""font-size:60px;"">+</div>","null","","fixation","","",""
"memory-trial","112","280960","0.0-18.0-1.34","6267","approach_avoid_sv1","""event"",""trial"",""time""
""focus"",""0"",""2""
""fullscreenenter"",""1"",""2480""
","
","""event"",""trial"",""time""
""focus"",""0"",""2""
","""event"",""trial"",""time""
""fullscreenenter"",""1"",""2480""
","
","","","","","","653","images/boat6.png","","","memory_trial","1","definitely_old",""
"html-keyboard-response","113","281466","0.0-18.0-0.35","6267","approach_avoid_sv1","""event"",""trial"",""time""
""focus"",""0"",""2""
""fullscreenenter"",""1"",""2480""
","
","""event"",""trial"",""time""
""focus"",""0"",""2""
","""event"",""trial"",""time""
""fullscreenenter"",""1"",""2480""
","
","","","","","","null","<div style=""font-size:60px;"">+</div>","null","","fixation","","",""
"memory-trial","114","283212","0.0-18.0-1.35","6267","approach_avoid_sv1","""event"",""trial"",""time""
""focus"",""0"",""2""
""fullscreenenter"",""1"",""2480""
","
","""event"",""trial"",""time""
""focus"",""0"",""2""
","""event"",""trial"",""time""
""fullscreenenter"",""1"",""2480""
","
","","","","","","733","images/banana8.png","","","memory_trial","1","definitely_old",""
"html-keyboard-response","115","283722","0.0-18.0-0.36","6267","approach_avoid_sv1","""event"",""trial"",""time""
""focus"",""0"",""2""
""fullscreenenter"",""1"",""2480""
","
","""event"",""trial"",""time""
""focus"",""0"",""2""
","""event"",""trial"",""time""
""fullscreenenter"",""1"",""2480""
","
","","","","","","null","<div style=""font-size:60px;"">+</div>","null","","fixation","","",""
"memory-trial","116","285572","0.0-18.0-1.36","6267","approach_avoid_sv1","""event"",""trial"",""time""
""focus"",""0"",""2""
""fullscreenenter"",""1"",""2480""
","
","""event"",""trial"",""time""
""focus"",""0"",""2""
","""event"",""trial"",""time""
""fullscreenenter"",""1"",""2480""
","
","","","","","","848","images/plane4.png","","","memory_trial","4","definitely_new",""
"html-keyboard-response","117","286082","0.0-18.0-0.37","6267","approach_avoid_sv1","""event"",""trial"",""time""
""focus"",""0"",""2""
""fullscreenenter"",""1"",""2480""
","
","""event"",""trial"",""time""
""focus"",""0"",""2""
","""event"",""trial"",""time""
""fullscreenenter"",""1"",""2480""
","
","","","","","","null","<div style=""font-size:60px;"">+</div>","null","","fixation","","",""
"memory-trial","118","288192","0.0-18.0-1.37","6267","approach_avoid_sv1","""event"",""trial"",""time""
""focus"",""0"",""2""
""fullscreenenter"",""1"",""2480""
","
","""event"",""trial"",""time""
""focus"",""0"",""2""
","""event"",""trial"",""time""
""fullscreenenter"",""1"",""2480""
","
","","","","","","1104","images/truck5.png","","","memory_trial","1","definitely_old",""
"html-keyboard-response","119","288696","0.0-18.0-0.38","6267","approach_avoid_sv1","""event"",""trial"",""time""
""focus"",""0"",""2""
""fullscreenenter"",""1"",""2480""
","
","""event"",""trial"",""time""
""focus"",""0"",""2""
","""event"",""trial"",""time""
""fullscreenenter"",""1"",""2480""
","
","","","","","","null","<div style=""font-size:60px;"">+</div>","null","","fixation","","",""
"memory-trial","120","290377","0.0-18.0-1.38","6267","approach_avoid_sv1","""event"",""trial"",""time""
""focus"",""0"",""2""
""fullscreenenter"",""1"",""2480""
","
","""event"",""trial"",""time""
""focus"",""0"",""2""
","""event"",""trial"",""time""
""fullscreenenter"",""1"",""2480""
","
","","","","","","666","images/bush1.png","","","memory_trial","1","definitely_old",""
"html-keyboard-response","121","290877","0.0-18.0-0.39","6267","approach_avoid_sv1","""event"",""trial"",""time""
""focus"",""0"",""2""
""fullscreenenter"",""1"",""2480""
","
","""event"",""trial"",""time""
""focus"",""0"",""2""
","""event"",""trial"",""time""
""fullscreenenter"",""1"",""2480""
","
","","","","","","null","<div style=""font-size:60px;"">+</div>","null","","fixation","","",""
"memory-trial","122","292592","0.0-18.0-1.39","6267","approach_avoid_sv1","""event"",""trial"",""time""
""focus"",""0"",""2""
""fullscreenenter"",""1"",""2480""
","
","""event"",""trial"",""time""
""focus"",""0"",""2""
","""event"",""trial"",""time""
""fullscreenenter"",""1"",""2480""
","
","","","","","","700","images/chair7.png","","","memory_trial","4","definitely_new",""
"html-keyboard-response","123","293102","0.0-18.0-0.40","6267","approach_avoid_sv1","""event"",""trial"",""time""
""focus"",""0"",""2""
""fullscreenenter"",""1"",""2480""
","
","""event"",""trial"",""time""
""focus"",""0"",""2""
","""event"",""trial"",""time""
""fullscreenenter"",""1"",""2480""
","
","","","","","","null","<div style=""font-size:60px;"">+</div>","null","","fixation","","",""
"memory-trial","124","294897","0.0-18.0-1.40","6267","approach_avoid_sv1","""event"",""trial"",""time""
""focus"",""0"",""2""
""fullscreenenter"",""1"",""2480""
","
","""event"",""trial"",""time""
""focus"",""0"",""2""
","""event"",""trial"",""time""
""fullscreenenter"",""1"",""2480""
","
","","","","","","794","images/cactus4.png","","","memory_trial","4","definitely_new",""
"html-keyboard-response","125","295411","0.0-18.0-0.41","6267","approach_avoid_sv1","""event"",""trial"",""time""
""focus"",""0"",""2""
""fullscreenenter"",""1"",""2480""
","
","""event"",""trial"",""time""
""focus"",""0"",""2""
","""event"",""trial"",""time""
""fullscreenenter"",""1"",""2480""
","
","","","","","","null","<div style=""font-size:60px;"">+</div>","null","","fixation","","",""
"memory-trial","126","297256","0.0-18.0-1.41","6267","approach_avoid_sv1","""event"",""trial"",""time""
""focus"",""0"",""2""
""fullscreenenter"",""1"",""2480""
","
","""event"",""trial"",""time""
""focus"",""0"",""2""
","""event"",""trial"",""time""
""fullscreenenter"",""1"",""2480""
","
","","","","","","832","images/straw2.png","","","memory_trial","4","definitely_new",""
"html-button-response","127","299510","0.0-18.0-2.41-0.41","6267","approach_avoid_sv1","""event"",""trial"",""time""
""focus"",""0"",""2""
""fullscreenenter"",""1"",""2480""
","
","""event"",""trial"",""time""
""focus"",""0"",""2""
","""event"",""trial"",""time""
""fullscreenenter"",""1"",""2480""
","
","","","","","","2253","<p> Take a break! </p><p> Click the button to continue. </p>","0","","break","","",""
"html-keyboard-response","128","300026","0.0-18.0-0.42","6267","approach_avoid_sv1","""event"",""trial"",""time""
""focus"",""0"",""2""
""fullscreenenter"",""1"",""2480""
","
","""event"",""trial"",""time""
""focus"",""0"",""2""
","""event"",""trial"",""time""
""fullscreenenter"",""1"",""2480""
","
","","","","","","null","<div style=""font-size:60px;"">+</div>","null","","fixation","","",""
"memory-trial","129","302042","0.0-18.0-1.42","6267","approach_avoid_sv1","""event"",""trial"",""time""
""focus"",""0"",""2""
""fullscreenenter"",""1"",""2480""
","
","""event"",""trial"",""time""
""focus"",""0"",""2""
","""event"",""trial"",""time""
""fullscreenenter"",""1"",""2480""
","
","","","","","","1001","images/goat2.png","","","memory_trial","4","definitely_new",""
"html-keyboard-response","130","302546","0.0-18.0-0.43","6267","approach_avoid_sv1","""event"",""trial"",""time""
""focus"",""0"",""2""
""fullscreenenter"",""1"",""2480""
","
","""event"",""trial"",""time""
""focus"",""0"",""2""
","""event"",""trial"",""time""
""fullscreenenter"",""1"",""2480""
","
","","","","","","null","<div style=""font-size:60px;"">+</div>","null","","fixation","","",""
"memory-trial","131","304661","0.0-18.0-1.43","6267","approach_avoid_sv1","""event"",""trial"",""time""
""focus"",""0"",""2""
""fullscreenenter"",""1"",""2480""
","
","""event"",""trial"",""time""
""focus"",""0"",""2""
","""event"",""trial"",""time""
""fullscreenenter"",""1"",""2480""
","
","","","","","","1113","images/cat2.png","","","memory_trial","1","definitely_old",""
"html-keyboard-response","132","305176","0.0-18.0-0.44","6267","approach_avoid_sv1","""event"",""trial"",""time""
""focus"",""0"",""2""
""fullscreenenter"",""1"",""2480""
","
","""event"",""trial"",""time""
""focus"",""0"",""2""
","""event"",""trial"",""time""
""fullscreenenter"",""1"",""2480""
","
","","","","","","null","<div style=""font-size:60px;"">+</div>","null","","fixation","","",""
"memory-trial","133","307061","0.0-18.0-1.44","6267","approach_avoid_sv1","""event"",""trial"",""time""
""focus"",""0"",""2""
""fullscreenenter"",""1"",""2480""
","
","""event"",""trial"",""time""
""focus"",""0"",""2""
","""event"",""trial"",""time""
""fullscreenenter"",""1"",""2480""
","
","","","","","","870","images/horse3.png","","","memory_trial","1","definitely_old",""
"html-keyboard-response","134","307562","0.0-18.0-0.45","6267","approach_avoid_sv1","""event"",""trial"",""time""
""focus"",""0"",""2""
""fullscreenenter"",""1"",""2480""
","
","""event"",""trial"",""time""
""focus"",""0"",""2""
","""event"",""trial"",""time""
""fullscreenenter"",""1"",""2480""
","
","","","","","","null","<div style=""font-size:60px;"">+</div>","null","","fixation","","",""
"memory-trial","135","310153","0.0-18.0-1.45","6267","approach_avoid_sv1","""event"",""trial"",""time""
""focus"",""0"",""2""
""fullscreenenter"",""1"",""2480""
","
","""event"",""trial"",""time""
""focus"",""0"",""2""
","""event"",""trial"",""time""
""fullscreenenter"",""1"",""2480""
","
","","","","","","1574","images/apple7.png","","","memory_trial","3","maybe_new",""
"html-keyboard-response","136","310662","0.0-18.0-0.46","6267","approach_avoid_sv1","""event"",""trial"",""time""
""focus"",""0"",""2""
""fullscreenenter"",""1"",""2480""
","
","""event"",""trial"",""time""
""focus"",""0"",""2""
","""event"",""trial"",""time""
""fullscreenenter"",""1"",""2480""
","
","","","","","","null","<div style=""font-size:60px;"">+</div>","null","","fixation","","",""
"memory-trial","137","313193","0.0-18.0-1.46","6267","approach_avoid_sv1","""event"",""trial"",""time""
""focus"",""0"",""2""
""fullscreenenter"",""1"",""2480""
","
","""event"",""trial"",""time""
""focus"",""0"",""2""
","""event"",""trial"",""time""
""fullscreenenter"",""1"",""2480""
","
","","","","","","1522","images/cat8.png","","","memory_trial","3","maybe_new",""
"html-keyboard-response","138","313706","0.0-18.0-0.47","6267","approach_avoid_sv1","""event"",""trial"",""time""
""focus"",""0"",""2""
""fullscreenenter"",""1"",""2480""
","
","""event"",""trial"",""time""
""focus"",""0"",""2""
","""event"",""trial"",""time""
""fullscreenenter"",""1"",""2480""
","
","","","","","","null","<div style=""font-size:60px;"">+</div>","null","","fixation","","",""
"memory-trial","139","315663","0.0-18.0-1.47","6267","approach_avoid_sv1","""event"",""trial"",""time""
""focus"",""0"",""2""
""fullscreenenter"",""1"",""2480""
","
","""event"",""trial"",""time""
""focus"",""0"",""2""
","""event"",""trial"",""time""
""fullscreenenter"",""1"",""2480""
","
","","","","","","949","images/rodent4.png","","","memory_trial","1","definitely_old",""
"html-keyboard-response","140","316166","0.0-18.0-0.48","6267","approach_avoid_sv1","""event"",""trial"",""time""
""focus"",""0"",""2""
""fullscreenenter"",""1"",""2480""
","
","""event"",""trial"",""time""
""focus"",""0"",""2""
","""event"",""trial"",""time""
""fullscreenenter"",""1"",""2480""
","
","","","","","","null","<div style=""font-size:60px;"">+</div>","null","","fixation","","",""
"memory-trial","141","317926","0.0-18.0-1.48","6267","approach_avoid_sv1","""event"",""trial"",""time""
""focus"",""0"",""2""
""fullscreenenter"",""1"",""2480""
","
","""event"",""trial"",""time""
""focus"",""0"",""2""
","""event"",""trial"",""time""
""fullscreenenter"",""1"",""2480""
","
","","","","","","751","images/truck7.png","","","memory_trial","1","definitely_old",""
"html-keyboard-response","142","318436","0.0-18.0-0.49","6267","approach_avoid_sv1","""event"",""trial"",""time""
""focus"",""0"",""2""
""fullscreenenter"",""1"",""2480""
","
","""event"",""trial"",""time""
""focus"",""0"",""2""
","""event"",""trial"",""time""
""fullscreenenter"",""1"",""2480""
","
","","","","","","null","<div style=""font-size:60px;"">+</div>","null","","fixation","","",""
"memory-trial","143","320402","0.0-18.0-1.49","6267","approach_avoid_sv1","""event"",""trial"",""time""
""focus"",""0"",""2""
""fullscreenenter"",""1"",""2480""
","
","""event"",""trial"",""time""
""focus"",""0"",""2""
","""event"",""trial"",""time""
""fullscreenenter"",""1"",""2480""
","
","","","","","","959","images/rodent7.png","","","memory_trial","1","definitely_old",""
"html-keyboard-response","144","320906","0.0-18.0-0.50","6267","approach_avoid_sv1","""event"",""trial"",""time""
""focus"",""0"",""2""
""fullscreenenter"",""1"",""2480""
","
","""event"",""trial"",""time""
""focus"",""0"",""2""
","""event"",""trial"",""time""
""fullscreenenter"",""1"",""2480""
","
","","","","","","null","<div style=""font-size:60px;"">+</div>","null","","fixation","","",""
"memory-trial","145","322587","0.0-18.0-1.50","6267","approach_avoid_sv1","""event"",""trial"",""time""
""focus"",""0"",""2""
""fullscreenenter"",""1"",""2480""
","
","""event"",""trial"",""time""
""focus"",""0"",""2""
","""event"",""trial"",""time""
""fullscreenenter"",""1"",""2480""
","
","","","","","","676","images/rabbit4.png","","","memory_trial","1","definitely_old",""
"html-keyboard-response","146","323101","0.0-18.0-0.51","6267","approach_avoid_sv1","""event"",""trial"",""time""
""focus"",""0"",""2""
""fullscreenenter"",""1"",""2480""
","
","""event"",""trial"",""time""
""focus"",""0"",""2""
","""event"",""trial"",""time""
""fullscreenenter"",""1"",""2480""
","
","","","","","","null","<div style=""font-size:60px;"">+</div>","null","","fixation","","",""
"memory-trial","147","324892","0.0-18.0-1.51","6267","approach_avoid_sv1","""event"",""trial"",""time""
""focus"",""0"",""2""
""fullscreenenter"",""1"",""2480""
","
","""event"",""trial"",""time""
""focus"",""0"",""2""
","""event"",""trial"",""time""
""fullscreenenter"",""1"",""2480""
","
","","","","","","778","images/cat1.png","","","memory_trial","1","definitely_old",""
"html-keyboard-response","148","325396","0.0-18.0-0.52","6267","approach_avoid_sv1","""event"",""trial"",""time""
""focus"",""0"",""2""
""fullscreenenter"",""1"",""2480""
","
","""event"",""trial"",""time""
""focus"",""0"",""2""
","""event"",""trial"",""time""
""fullscreenenter"",""1"",""2480""
","
","","","","","","null","<div style=""font-size:60px;"">+</div>","null","","fixation","","",""
"memory-trial","149","327016","0.0-18.0-1.52","6267","approach_avoid_sv1","""event"",""trial"",""time""
""focus"",""0"",""2""
""fullscreenenter"",""1"",""2480""
","
","""event"",""trial"",""time""
""focus"",""0"",""2""
","""event"",""trial"",""time""
""fullscreenenter"",""1"",""2480""
","
","","","","","","606","images/apple5.png","","","memory_trial","1","definitely_old",""
"html-keyboard-response","150","327528","0.0-18.0-0.53","6267","approach_avoid_sv1","""event"",""trial"",""time""
""focus"",""0"",""2""
""fullscreenenter"",""1"",""2480""
","
","""event"",""trial"",""time""
""focus"",""0"",""2""
","""event"",""trial"",""time""
""fullscreenenter"",""1"",""2480""
","
","","","","","","null","<div style=""font-size:60px;"">+</div>","null","","fixation","","",""
"memory-trial","151","329282","0.0-18.0-1.53","6267","approach_avoid_sv1","""event"",""trial"",""time""
""focus"",""0"",""2""
""fullscreenenter"",""1"",""2480""
","
","""event"",""trial"",""time""
""focus"",""0"",""2""
","""event"",""trial"",""time""
""fullscreenenter"",""1"",""2480""
","
","","","","","","753","images/bed2.png","","","memory_trial","1","definitely_old",""
"html-keyboard-response","152","329791","0.0-18.0-0.54","6267","approach_avoid_sv1","""event"",""trial"",""time""
""focus"",""0"",""2""
""fullscreenenter"",""1"",""2480""
","
","""event"",""trial"",""time""
""focus"",""0"",""2""
","""event"",""trial"",""time""
""fullscreenenter"",""1"",""2480""
","
","","","","","","null","<div style=""font-size:60px;"">+</div>","null","","fixation","","",""
"memory-trial","153","331680","0.0-18.0-1.54","6267","approach_avoid_sv1","""event"",""trial"",""time""
""focus"",""0"",""2""
""fullscreenenter"",""1"",""2480""
","
","""event"",""trial"",""time""
""focus"",""0"",""2""
","""event"",""trial"",""time""
""fullscreenenter"",""1"",""2480""
","
","","","","","","877","images/rabbit1.png","","","memory_trial","4","definitely_new",""
"html-keyboard-response","154","332185","0.0-18.0-0.55","6267","approach_avoid_sv1","""event"",""trial"",""time""
""focus"",""0"",""2""
""fullscreenenter"",""1"",""2480""
","
","""event"",""trial"",""time""
""focus"",""0"",""2""
","""event"",""trial"",""time""
""fullscreenenter"",""1"",""2480""
","
","","","","","","null","<div style=""font-size:60px;"">+</div>","null","","fixation","","",""
"memory-trial","155","334814","0.0-18.0-1.55","6267","approach_avoid_sv1","""event"",""trial"",""time""
""focus"",""0"",""2""
""fullscreenenter"",""1"",""2480""
","
","""event"",""trial"",""time""
""focus"",""0"",""2""
","""event"",""trial"",""time""
""fullscreenenter"",""1"",""2480""
","
","","","","","","1622","images/bush2.png","","","memory_trial","4","definitely_new",""
"html-keyboard-response","156","335314","0.0-18.0-0.56","6267","approach_avoid_sv1","""event"",""trial"",""time""
""focus"",""0"",""2""
""fullscreenenter"",""1"",""2480""
","
","""event"",""trial"",""time""
""focus"",""0"",""2""
","""event"",""trial"",""time""
""fullscreenenter"",""1"",""2480""
","
","","","","","","null","<div style=""font-size:60px;"">+</div>","null","","fixation","","",""
"memory-trial","157","337553","0.0-18.0-1.56","6267","approach_avoid_sv1","""event"",""trial"",""time""
""focus"",""0"",""2""
""fullscreenenter"",""1"",""2480""
","
","""event"",""trial"",""time""
""focus"",""0"",""2""
","""event"",""trial"",""time""
""fullscreenenter"",""1"",""2480""
","
","","","","","","1230","images/plane7.png","","","memory_trial","4","definitely_new",""
"html-keyboard-response","158","338061","0.0-18.0-0.57","6267","approach_avoid_sv1","""event"",""trial"",""time""
""focus"",""0"",""2""
""fullscreenenter"",""1"",""2480""
","
","""event"",""trial"",""time""
""focus"",""0"",""2""
","""event"",""trial"",""time""
""fullscreenenter"",""1"",""2480""
","
","","","","","","null","<div style=""font-size:60px;"">+</div>","null","","fixation","","",""
"memory-trial","159","339941","0.0-18.0-1.57","6267","approach_avoid_sv1","""event"",""trial"",""time""
""focus"",""0"",""2""
""fullscreenenter"",""1"",""2480""
","
","""event"",""trial"",""time""
""focus"",""0"",""2""
","""event"",""trial"",""time""
""fullscreenenter"",""1"",""2480""
","
","","","","","","866","images/table2.png","","","memory_trial","1","definitely_old",""
"html-keyboard-response","160","340451","0.0-18.0-0.58","6267","approach_avoid_sv1","""event"",""trial"",""time""
""focus"",""0"",""2""
""fullscreenenter"",""1"",""2480""
","
","""event"",""trial"",""time""
""focus"",""0"",""2""
","""event"",""trial"",""time""
""fullscreenenter"",""1"",""2480""
","
","","","","","","null","<div style=""font-size:60px;"">+</div>","null","","fixation","","",""
"memory-trial","161","342689","0.0-18.0-1.58","6267","approach_avoid_sv1","""event"",""trial"",""time""
""focus"",""0"",""2""
""fullscreenenter"",""1"",""2480""
","
","""event"",""trial"",""time""
""focus"",""0"",""2""
","""event"",""trial"",""time""
""fullscreenenter"",""1"",""2480""
","
","","","","","","1229","images/straw8.png","","","memory_trial","4","definitely_new",""
"html-keyboard-response","162","343194","0.0-18.0-0.59","6267","approach_avoid_sv1","""event"",""trial"",""time""
""focus"",""0"",""2""
""fullscreenenter"",""1"",""2480""
","
","""event"",""trial"",""time""
""focus"",""0"",""2""
","""event"",""trial"",""time""
""fullscreenenter"",""1"",""2480""
","
","","","","","","null","<div style=""font-size:60px;"">+</div>","null","","fixation","","",""
"memory-trial","163","345559","0.0-18.0-1.59","6267","approach_avoid_sv1","""event"",""trial"",""time""
""focus"",""0"",""2""
""fullscreenenter"",""1"",""2480""
","
","""event"",""trial"",""time""
""focus"",""0"",""2""
","""event"",""trial"",""time""
""fullscreenenter"",""1"",""2480""
","
","","","","","","1360","images/rodent5.png","","","memory_trial","3","maybe_new",""
"html-keyboard-response","164","346059","0.0-18.0-0.60","6267","approach_avoid_sv1","""event"",""trial"",""time""
""focus"",""0"",""2""
""fullscreenenter"",""1"",""2480""
","
","""event"",""trial"",""time""
""focus"",""0"",""2""
","""event"",""trial"",""time""
""fullscreenenter"",""1"",""2480""
","
","","","","","","null","<div style=""font-size:60px;"">+</div>","null","","fixation","","",""
"memory-trial","165","347974","0.0-18.0-1.60","6267","approach_avoid_sv1","""event"",""trial"",""time""
""focus"",""0"",""2""
""fullscreenenter"",""1"",""2480""
","
","""event"",""trial"",""time""
""focus"",""0"",""2""
","""event"",""trial"",""time""
""fullscreenenter"",""1"",""2480""
","
","","","","","","902","images/chair1.png","","","memory_trial","3","maybe_new",""
"html-keyboard-response","166","348480","0.0-18.0-0.61","6267","approach_avoid_sv1","""event"",""trial"",""time""
""focus"",""0"",""2""
""fullscreenenter"",""1"",""2480""
","
","""event"",""trial"",""time""
""focus"",""0"",""2""
","""event"",""trial"",""time""
""fullscreenenter"",""1"",""2480""
","
","","","","","","null","<div style=""font-size:60px;"">+</div>","null","","fixation","","",""
"memory-trial","167","350628","0.0-18.0-1.61","6267","approach_avoid_sv1","""event"",""trial"",""time""
""focus"",""0"",""2""
""fullscreenenter"",""1"",""2480""
","
","""event"",""trial"",""time""
""focus"",""0"",""2""
","""event"",""trial"",""time""
""fullscreenenter"",""1"",""2480""
","
","","","","","","1137","images/banana7.png","","","memory_trial","1","definitely_old",""
"html-keyboard-response","168","351137","0.0-18.0-0.62","6267","approach_avoid_sv1","""event"",""trial"",""time""
""focus"",""0"",""2""
""fullscreenenter"",""1"",""2480""
","
","""event"",""trial"",""time""
""focus"",""0"",""2""
","""event"",""trial"",""time""
""fullscreenenter"",""1"",""2480""
","
","","","","","","null","<div style=""font-size:60px;"">+</div>","null","","fixation","","",""
"memory-trial","169","353082","0.0-18.0-1.62","6267","approach_avoid_sv1","""event"",""trial"",""time""
""focus"",""0"",""2""
""fullscreenenter"",""1"",""2480""
","
","""event"",""trial"",""time""
""focus"",""0"",""2""
","""event"",""trial"",""time""
""fullscreenenter"",""1"",""2480""
","
","","","","","","933","images/bed1.png","","","memory_trial","1","definitely_old",""
"html-keyboard-response","170","353588","0.0-18.0-0.63","6267","approach_avoid_sv1","""event"",""trial"",""time""
""focus"",""0"",""2""
""fullscreenenter"",""1"",""2480""
","
","""event"",""trial"",""time""
""focus"",""0"",""2""
","""event"",""trial"",""time""
""fullscreenenter"",""1"",""2480""
","
","","","","","","null","<div style=""font-size:60px;"">+</div>","null","","fixation","","",""
"memory-trial","171","355914","0.0-18.0-1.63","6267","approach_avoid_sv1","""event"",""trial"",""time""
""focus"",""0"",""2""
""fullscreenenter"",""1"",""2480""
","
","""event"",""trial"",""time""
""focus"",""0"",""2""
","""event"",""trial"",""time""
""fullscreenenter"",""1"",""2480""
","
","","","","","","1317","images/horse6.png","","","memory_trial","1","definitely_old",""
"html-keyboard-response","172","356422","0.0-18.0-0.64","6267","approach_avoid_sv1","""event"",""trial"",""time""
""focus"",""0"",""2""
""fullscreenenter"",""1"",""2480""
","
","""event"",""trial"",""time""
""focus"",""0"",""2""
","""event"",""trial"",""time""
""fullscreenenter"",""1"",""2480""
","
","","","","","","null","<div style=""font-size:60px;"">+</div>","null","","fixation","","",""
"memory-trial","173","358580","0.0-18.0-1.64","6267","approach_avoid_sv1","""event"",""trial"",""time""
""focus"",""0"",""2""
""fullscreenenter"",""1"",""2480""
","
","""event"",""trial"",""time""
""focus"",""0"",""2""
","""event"",""trial"",""time""
""fullscreenenter"",""1"",""2480""
","
","","","","","","1152","images/dog2.png","","","memory_trial","3","maybe_new",""
"html-keyboard-response","174","359081","0.0-18.0-0.65","6267","approach_avoid_sv1","""event"",""trial"",""time""
""focus"",""0"",""2""
""fullscreenenter"",""1"",""2480""
","
","""event"",""trial"",""time""
""focus"",""0"",""2""
","""event"",""trial"",""time""
""fullscreenenter"",""1"",""2480""
","
","","","","","","null","<div style=""font-size:60px;"">+</div>","null","","fixation","","",""
"memory-trial","175","360970","0.0-18.0-1.65","6267","approach_avoid_sv1","""event"",""trial"",""time""
""focus"",""0"",""2""
""fullscreenenter"",""1"",""2480""
","
","""event"",""trial"",""time""
""focus"",""0"",""2""
","""event"",""trial"",""time""
""fullscreenenter"",""1"",""2480""
","
","","","","","","885","images/orange5.png","","","memory_trial","3","maybe_new",""
"html-keyboard-response","176","361482","0.0-18.0-0.66","6267","approach_avoid_sv1","""event"",""trial"",""time""
""focus"",""0"",""2""
""fullscreenenter"",""1"",""2480""
","
","""event"",""trial"",""time""
""focus"",""0"",""2""
","""event"",""trial"",""time""
""fullscreenenter"",""1"",""2480""
","
","","","","","","null","<div style=""font-size:60px;"">+</div>","null","","fixation","","",""
"memory-trial","177","363516","0.0-18.0-1.66","6267","approach_avoid_sv1","""event"",""trial"",""time""
""focus"",""0"",""2""
""fullscreenenter"",""1"",""2480""
","
","""event"",""trial"",""time""
""focus"",""0"",""2""
","""event"",""trial"",""time""
""fullscreenenter"",""1"",""2480""
","
","","","","","","1019","images/horse8.png","","","memory_trial","3","maybe_new",""
"html-keyboard-response","178","364026","0.0-18.0-0.67","6267","approach_avoid_sv1","""event"",""trial"",""time""
""focus"",""0"",""2""
""fullscreenenter"",""1"",""2480""
","
","""event"",""trial"",""time""
""focus"",""0"",""2""
","""event"",""trial"",""time""
""fullscreenenter"",""1"",""2480""
","
","","","","","","null","<div style=""font-size:60px;"">+</div>","null","","fixation","","",""
"memory-trial","179","365767","0.0-18.0-1.67","6267","approach_avoid_sv1","""event"",""trial"",""time""
""focus"",""0"",""2""
""fullscreenenter"",""1"",""2480""
","
","""event"",""trial"",""time""
""focus"",""0"",""2""
","""event"",""trial"",""time""
""fullscreenenter"",""1"",""2480""
","
","","","","","","738","images/orange4.png","","","memory_trial","3","maybe_new",""
"html-keyboard-response","180","366275","0.0-18.0-0.68","6267","approach_avoid_sv1","""event"",""trial"",""time""
""focus"",""0"",""2""
""fullscreenenter"",""1"",""2480""
","
","""event"",""trial"",""time""
""focus"",""0"",""2""
","""event"",""trial"",""time""
""fullscreenenter"",""1"",""2480""
","
","","","","","","null","<div style=""font-size:60px;"">+</div>","null","","fixation","","",""
"memory-trial","181","369230","0.0-18.0-1.68","6267","approach_avoid_sv1","""event"",""trial"",""time""
""focus"",""0"",""2""
""fullscreenenter"",""1"",""2480""
","
","""event"",""trial"",""time""
""focus"",""0"",""2""
","""event"",""trial"",""time""
""fullscreenenter"",""1"",""2480""
","
","","","","","","1952","images/orange6.png","","","memory_trial","2","maybe_old",""
"html-keyboard-response","182","369743","0.0-18.0-0.69","6267","approach_avoid_sv1","""event"",""trial"",""time""
""focus"",""0"",""2""
""fullscreenenter"",""1"",""2480""
","
","""event"",""trial"",""time""
""focus"",""0"",""2""
","""event"",""trial"",""time""
""fullscreenenter"",""1"",""2480""
","
","","","","","","null","<div style=""font-size:60px;"">+</div>","null","","fixation","","",""
"memory-trial","183","372193","0.0-18.0-1.69","6267","approach_avoid_sv1","""event"",""trial"",""time""
""focus"",""0"",""2""
""fullscreenenter"",""1"",""2480""
","
","""event"",""trial"",""time""
""focus"",""0"",""2""
","""event"",""trial"",""time""
""fullscreenenter"",""1"",""2480""
","
","","","","","","1432","images/tree6.png","","","memory_trial","2","maybe_old",""
"html-keyboard-response","184","372713","0.0-18.0-0.70","6267","approach_avoid_sv1","""event"",""trial"",""time""
""focus"",""0"",""2""
""fullscreenenter"",""1"",""2480""
","
","""event"",""trial"",""time""
""focus"",""0"",""2""
","""event"",""trial"",""time""
""fullscreenenter"",""1"",""2480""
","
","","","","","","null","<div style=""font-size:60px;"">+</div>","null","","fixation","","",""
"memory-trial","185","374933","0.0-18.0-1.70","6267","approach_avoid_sv1","""event"",""trial"",""time""
""focus"",""0"",""2""
""fullscreenenter"",""1"",""2480""
","
","""event"",""trial"",""time""
""focus"",""0"",""2""
","""event"",""trial"",""time""
""fullscreenenter"",""1"",""2480""
","
","","","","","","1203","images/plane1.png","","","memory_trial","4","definitely_new",""
"html-keyboard-response","186","375445","0.0-18.0-0.71","6267","approach_avoid_sv1","""event"",""trial"",""time""
""focus"",""0"",""2""
""fullscreenenter"",""1"",""2480""
","
","""event"",""trial"",""time""
""focus"",""0"",""2""
","""event"",""trial"",""time""
""fullscreenenter"",""1"",""2480""
","
","","","","","","null","<div style=""font-size:60px;"">+</div>","null","","fixation","","",""
"memory-trial","187","379250","0.0-18.0-1.71","6267","approach_avoid_sv1","""event"",""trial"",""time""
""focus"",""0"",""2""
""fullscreenenter"",""1"",""2480""
","
","""event"",""trial"",""time""
""focus"",""0"",""2""
","""event"",""trial"",""time""
""fullscreenenter"",""1"",""2480""
","
","","","","","","2802","images/horse5.png","","","memory_trial","4","definitely_new",""
"html-keyboard-response","188","379763","0.0-18.0-0.72","6267","approach_avoid_sv1","""event"",""trial"",""time""
""focus"",""0"",""2""
""fullscreenenter"",""1"",""2480""
","
","""event"",""trial"",""time""
""focus"",""0"",""2""
","""event"",""trial"",""time""
""fullscreenenter"",""1"",""2480""
","
","","","","","","null","<div style=""font-size:60px;"">+</div>","null","","fixation","","",""
"memory-trial","189","382261","0.0-18.0-1.72","6267","approach_avoid_sv1","""event"",""trial"",""time""
""focus"",""0"",""2""
""fullscreenenter"",""1"",""2480""
","
","""event"",""trial"",""time""
""focus"",""0"",""2""
","""event"",""trial"",""time""
""fullscreenenter"",""1"",""2480""
","
","","","","","","1496","images/boat2.png","","","memory_trial","2","maybe_old",""
"html-keyboard-response","190","382761","0.0-18.0-0.73","6267","approach_avoid_sv1","""event"",""trial"",""time""
""focus"",""0"",""2""
""fullscreenenter"",""1"",""2480""
","
","""event"",""trial"",""time""
""focus"",""0"",""2""
","""event"",""trial"",""time""
""fullscreenenter"",""1"",""2480""
","
","","","","","","null","<div style=""font-size:60px;"">+</div>","null","","fixation","","",""
"memory-trial","191","384603","0.0-18.0-1.73","6267","approach_avoid_sv1","""event"",""trial"",""time""
""focus"",""0"",""2""
""fullscreenenter"",""1"",""2480""
","
","""event"",""trial"",""time""
""focus"",""0"",""2""
","""event"",""trial"",""time""
""fullscreenenter"",""1"",""2480""
","
","","","","","","830","images/apple8.png","","","memory_trial","2","maybe_old",""
"html-keyboard-response","192","385111","0.0-18.0-0.74","6267","approach_avoid_sv1","""event"",""trial"",""time""
""focus"",""0"",""2""
""fullscreenenter"",""1"",""2480""
","
","""event"",""trial"",""time""
""focus"",""0"",""2""
","""event"",""trial"",""time""
""fullscreenenter"",""1"",""2480""
","
","","","","","","null","<div style=""font-size:60px;"">+</div>","null","","fixation","","",""
"memory-trial","193","387451","0.0-18.0-1.74","6267","approach_avoid_sv1","""event"",""trial"",""time""
""focus"",""0"",""2""
""fullscreenenter"",""1"",""2480""
","
","""event"",""trial"",""time""
""focus"",""0"",""2""
","""event"",""trial"",""time""
""fullscreenenter"",""1"",""2480""
","
","","","","","","1338","images/truck3.png","","","memory_trial","4","definitely_new",""
"html-keyboard-response","194","387957","0.0-18.0-0.75","6267","approach_avoid_sv1","""event"",""trial"",""time""
""focus"",""0"",""2""
""fullscreenenter"",""1"",""2480""
","
","""event"",""trial"",""time""
""focus"",""0"",""2""
","""event"",""trial"",""time""
""fullscreenenter"",""1"",""2480""
","
","","","","","","null","<div style=""font-size:60px;"">+</div>","null","","fixation","","",""
"memory-trial","195","390483","0.0-18.0-1.75","6267","approach_avoid_sv1","""event"",""trial"",""time""
""focus"",""0"",""2""
""fullscreenenter"",""1"",""2480""
","
","""event"",""trial"",""time""
""focus"",""0"",""2""
","""event"",""trial"",""time""
""fullscreenenter"",""1"",""2480""
","
","","","","","","1521","images/rabbit7.png","","","memory_trial","1","definitely_old",""
"html-keyboard-response","196","390993","0.0-18.0-0.76","6267","approach_avoid_sv1","""event"",""trial"",""time""
""focus"",""0"",""2""
""fullscreenenter"",""1"",""2480""
","
","""event"",""trial"",""time""
""focus"",""0"",""2""
","""event"",""trial"",""time""
""fullscreenenter"",""1"",""2480""
","
","","","","","","null","<div style=""font-size:60px;"">+</div>","null","","fixation","","",""
"memory-trial","197","393474","0.0-18.0-1.76","6267","approach_avoid_sv1","""event"",""trial"",""time""
""focus"",""0"",""2""
""fullscreenenter"",""1"",""2480""
","
","""event"",""trial"",""time""
""focus"",""0"",""2""
","""event"",""trial"",""time""
""fullscreenenter"",""1"",""2480""
","
","","","","","","1466","images/cow6.png","","","memory_trial","1","definitely_old",""
"html-keyboard-response","198","393984","0.0-18.0-0.77","6267","approach_avoid_sv1","""event"",""trial"",""time""
""focus"",""0"",""2""
""fullscreenenter"",""1"",""2480""
","
","""event"",""trial"",""time""
""focus"",""0"",""2""
","""event"",""trial"",""time""
""fullscreenenter"",""1"",""2480""
","
","","","","","","null","<div style=""font-size:60px;"">+</div>","null","","fixation","","",""
"memory-trial","199","396910","0.0-18.0-1.77","6267","approach_avoid_sv1","""event"",""trial"",""time""
""focus"",""0"",""2""
""fullscreenenter"",""1"",""2480""
","
","""event"",""trial"",""time""
""focus"",""0"",""2""
","""event"",""trial"",""time""
""fullscreenenter"",""1"",""2480""
","
","","","","","","1917","images/banana6.png","","","memory_trial","4","definitely_new",""
"html-keyboard-response","200","397415","0.0-18.0-0.78","6267","approach_avoid_sv1","""event"",""trial"",""time""
""focus"",""0"",""2""
""fullscreenenter"",""1"",""2480""
","
","""event"",""trial"",""time""
""focus"",""0"",""2""
","""event"",""trial"",""time""
""fullscreenenter"",""1"",""2480""
","
","","","","","","null","<div style=""font-size:60px;"">+</div>","null","","fixation","","",""
"memory-trial","201","399307","0.0-18.0-1.78","6267","approach_avoid_sv1","""event"",""trial"",""time""
""focus"",""0"",""2""
""fullscreenenter"",""1"",""2480""
","
","""event"",""trial"",""time""
""focus"",""0"",""2""
","""event"",""trial"",""time""
""fullscreenenter"",""1"",""2480""
","
","","","","","","889","images/cactus5.png","","","memory_trial","4","definitely_new",""
"html-keyboard-response","202","399820","0.0-18.0-0.79","6267","approach_avoid_sv1","""event"",""trial"",""time""
""focus"",""0"",""2""
""fullscreenenter"",""1"",""2480""
","
","""event"",""trial"",""time""
""focus"",""0"",""2""
","""event"",""trial"",""time""
""fullscreenenter"",""1"",""2480""
","
","","","","","","null","<div style=""font-size:60px;"">+</div>","null","","fixation","","",""
"memory-trial","203","401786","0.0-18.0-1.79","6267","approach_avoid_sv1","""event"",""trial"",""time""
""focus"",""0"",""2""
""fullscreenenter"",""1"",""2480""
","
","""event"",""trial"",""time""
""focus"",""0"",""2""
","""event"",""trial"",""time""
""fullscreenenter"",""1"",""2480""
","
","","","","","","954","images/plane3.png","","","memory_trial","4","definitely_new",""
"html-keyboard-response","204","402298","0.0-18.0-0.80","6267","approach_avoid_sv1","""event"",""trial"",""time""
""focus"",""0"",""2""
""fullscreenenter"",""1"",""2480""
","
","""event"",""trial"",""time""
""focus"",""0"",""2""
","""event"",""trial"",""time""
""fullscreenenter"",""1"",""2480""
","
","","","","","","null","<div style=""font-size:60px;"">+</div>","null","","fixation","","",""
"memory-trial","205","405042","0.0-18.0-1.80","6267","approach_avoid_sv1","""event"",""trial"",""time""
""focus"",""0"",""2""
""fullscreenenter"",""1"",""2480""
","
","""event"",""trial"",""time""
""focus"",""0"",""2""
","""event"",""trial"",""time""
""fullscreenenter"",""1"",""2480""
","
","","","","","","1737","images/cow2.png","","","memory_trial","1","definitely_old",""
"html-keyboard-response","206","405557","0.0-18.0-0.81","6267","approach_avoid_sv1","""event"",""trial"",""time""
""focus"",""0"",""2""
""fullscreenenter"",""1"",""2480""
","
","""event"",""trial"",""time""
""focus"",""0"",""2""
","""event"",""trial"",""time""
""fullscreenenter"",""1"",""2480""
","
","","","","","","null","<div style=""font-size:60px;"">+</div>","null","","fixation","","",""
"memory-trial","207","408198","0.0-18.0-1.81","6267","approach_avoid_sv1","""event"",""trial"",""time""
""focus"",""0"",""2""
""fullscreenenter"",""1"",""2480""
","
","""event"",""trial"",""time""
""focus"",""0"",""2""
","""event"",""trial"",""time""
""fullscreenenter"",""1"",""2480""
","
","","","","","","1626","images/chair5.png","","","memory_trial","4","definitely_new",""
"html-keyboard-response","208","408702","0.0-18.0-0.82","6267","approach_avoid_sv1","""event"",""trial"",""time""
""focus"",""0"",""2""
""fullscreenenter"",""1"",""2480""
","
","""event"",""trial"",""time""
""focus"",""0"",""2""
","""event"",""trial"",""time""
""fullscreenenter"",""1"",""2480""
","
","","","","","","null","<div style=""font-size:60px;"">+</div>","null","","fixation","","",""
"memory-trial","209","411051","0.0-18.0-1.82","6267","approach_avoid_sv1","""event"",""trial"",""time""
""focus"",""0"",""2""
""fullscreenenter"",""1"",""2480""
","
","""event"",""trial"",""time""
""focus"",""0"",""2""
","""event"",""trial"",""time""
""fullscreenenter"",""1"",""2480""
","
","","","","","","1336","images/train7.png","","","memory_trial","2","maybe_old",""
"html-keyboard-response","210","411564","0.0-18.0-0.83","6267","approach_avoid_sv1","""event"",""trial"",""time""
""focus"",""0"",""2""
""fullscreenenter"",""1"",""2480""
","
","""event"",""trial"",""time""
""focus"",""0"",""2""
","""event"",""trial"",""time""
""fullscreenenter"",""1"",""2480""
","
","","","","","","null","<div style=""font-size:60px;"">+</div>","null","","fixation","","",""
"memory-trial","211","413589","0.0-18.0-1.83","6267","approach_avoid_sv1","""event"",""trial"",""time""
""focus"",""0"",""2""
""fullscreenenter"",""1"",""2480""
","
","""event"",""trial"",""time""
""focus"",""0"",""2""
","""event"",""trial"",""time""
""fullscreenenter"",""1"",""2480""
","
","","","","","","1017","images/cow1.png","","","memory_trial","2","maybe_old",""
"html-keyboard-response","212","414097","0.0-18.0-0.84","6267","approach_avoid_sv1","""event"",""trial"",""time""
""focus"",""0"",""2""
""fullscreenenter"",""1"",""2480""
","
","""event"",""trial"",""time""
""focus"",""0"",""2""
","""event"",""trial"",""time""
""fullscreenenter"",""1"",""2480""
","
","","","","","","null","<div style=""font-size:60px;"">+</div>","null","","fixation","","",""
"memory-trial","213","416337","0.0-18.0-1.84","6267","approach_avoid_sv1","""event"",""trial"",""time""
""focus"",""0"",""2""
""fullscreenenter"",""1"",""2480""
","
","""event"",""trial"",""time""
""focus"",""0"",""2""
","""event"",""trial"",""time""
""fullscreenenter"",""1"",""2480""
","
","","","","","","1233","images/cow7.png","","","memory_trial","1","definitely_old",""
"html-keyboard-response","214","416847","0.0-18.0-0.85","6267","approach_avoid_sv1","""event"",""trial"",""time""
""focus"",""0"",""2""
""fullscreenenter"",""1"",""2480""
","
","""event"",""trial"",""time""
""focus"",""0"",""2""
","""event"",""trial"",""time""
""fullscreenenter"",""1"",""2480""
","
","","","","","","null","<div style=""font-size:60px;"">+</div>","null","","fixation","","",""
"memory-trial","215","419632","0.0-18.0-1.85","6267","approach_avoid_sv1","""event"",""trial"",""time""
""focus"",""0"",""2""
""fullscreenenter"",""1"",""2480""
","
","""event"",""trial"",""time""
""focus"",""0"",""2""
","""event"",""trial"",""time""
""fullscreenenter"",""1"",""2480""
","
","","","","","","1771","images/boat8.png","","","memory_trial","3","maybe_new",""
"html-keyboard-response","216","420143","0.0-18.0-0.86","6267","approach_avoid_sv1","""event"",""trial"",""time""
""focus"",""0"",""2""
""fullscreenenter"",""1"",""2480""
","
","""event"",""trial"",""time""
""focus"",""0"",""2""
","""event"",""trial"",""time""
""fullscreenenter"",""1"",""2480""
","
","","","","","","null","<div style=""font-size:60px;"">+</div>","null","","fixation","","",""
"memory-trial","217","422332","0.0-18.0-1.86","6267","approach_avoid_sv1","""event"",""trial"",""time""
""focus"",""0"",""2""
""fullscreenenter"",""1"",""2480""
","
","""event"",""trial"",""time""
""focus"",""0"",""2""
","""event"",""trial"",""time""
""fullscreenenter"",""1"",""2480""
","
","","","","","","1180","images/bed8.png","","","memory_trial","3","maybe_new",""
"html-keyboard-response","218","422841","0.0-18.0-0.87","6267","approach_avoid_sv1","""event"",""trial"",""time""
""focus"",""0"",""2""
""fullscreenenter"",""1"",""2480""
","
","""event"",""trial"",""time""
""focus"",""0"",""2""
","""event"",""trial"",""time""
""fullscreenenter"",""1"",""2480""
","
","","","","","","null","<div style=""font-size:60px;"">+</div>","null","","fixation","","",""
"memory-trial","219","424811","0.0-18.0-1.87","6267","approach_avoid_sv1","""event"",""trial"",""time""
""focus"",""0"",""2""
""fullscreenenter"",""1"",""2480""
","
","""event"",""trial"",""time""
""focus"",""0"",""2""
","""event"",""trial"",""time""
""fullscreenenter"",""1"",""2480""
","
","","","","","","967","images/table7.png","","","memory_trial","3","maybe_new",""
"html-keyboard-response","220","425315","0.0-18.0-0.88","6267","approach_avoid_sv1","""event"",""trial"",""time""
""focus"",""0"",""2""
""fullscreenenter"",""1"",""2480""
","
","""event"",""trial"",""time""
""focus"",""0"",""2""
","""event"",""trial"",""time""
""fullscreenenter"",""1"",""2480""
","
","","","","","","null","<div style=""font-size:60px;"">+</div>","null","","fixation","","",""
"memory-trial","221","427469","0.0-18.0-1.88","6267","approach_avoid_sv1","""event"",""trial"",""time""
""focus"",""0"",""2""
""fullscreenenter"",""1"",""2480""
","
","""event"",""trial"",""time""
""focus"",""0"",""2""
","""event"",""trial"",""time""
""fullscreenenter"",""1"",""2480""
","
","","","","","","1143","images/bush4.png","","","memory_trial","1","definitely_old",""
"html-keyboard-response","222","427976","0.0-18.0-0.89","6267","approach_avoid_sv1","""event"",""trial"",""time""
""focus"",""0"",""2""
""fullscreenenter"",""1"",""2480""
","
","""event"",""trial"",""time""
""focus"",""0"",""2""
","""event"",""trial"",""time""
""fullscreenenter"",""1"",""2480""
","
","","","","","","null","<div style=""font-size:60px;"">+</div>","null","","fixation","","",""
"memory-trial","223","429818","0.0-18.0-1.89","6267","approach_avoid_sv1","""event"",""trial"",""time""
""focus"",""0"",""2""
""fullscreenenter"",""1"",""2480""
","
","""event"",""trial"",""time""
""focus"",""0"",""2""
","""event"",""trial"",""time""
""fullscreenenter"",""1"",""2480""
","
","","","","","","831","images/rabbit8.png","","","memory_trial","1","definitely_old",""
"html-keyboard-response","224","430321","0.0-18.0-0.90","6267","approach_avoid_sv1","""event"",""trial"",""time""
""focus"",""0"",""2""
""fullscreenenter"",""1"",""2480""
","
","""event"",""trial"",""time""
""focus"",""0"",""2""
","""event"",""trial"",""time""
""fullscreenenter"",""1"",""2480""
","
","","","","","","null","<div style=""font-size:60px;"">+</div>","null","","fixation","","",""
"memory-trial","225","432364","0.0-18.0-1.90","6267","approach_avoid_sv1","""event"",""trial"",""time""
""focus"",""0"",""2""
""fullscreenenter"",""1"",""2480""
","
","""event"",""trial"",""time""
""focus"",""0"",""2""
","""event"",""trial"",""time""
""fullscreenenter"",""1"",""2480""
","
","","","","","","1032","images/cow8.png","","","memory_trial","1","definitely_old",""
"html-keyboard-response","226","432868","0.0-18.0-0.91","6267","approach_avoid_sv1","""event"",""trial"",""time""
""focus"",""0"",""2""
""fullscreenenter"",""1"",""2480""
","
","""event"",""trial"",""time""
""focus"",""0"",""2""
","""event"",""trial"",""time""
""fullscreenenter"",""1"",""2480""
","
","","","","","","null","<div style=""font-size:60px;"">+</div>","null","","fixation","","",""
"memory-trial","227","435209","0.0-18.0-1.91","6267","approach_avoid_sv1","""event"",""trial"",""time""
""focus"",""0"",""2""
""fullscreenenter"",""1"",""2480""
","
","""event"",""trial"",""time""
""focus"",""0"",""2""
","""event"",""trial"",""time""
""fullscreenenter"",""1"",""2480""
","
","","","","","","1336","images/rodent8.png","","","memory_trial","3","maybe_new",""
"html-button-response","228","437680","0.0-18.0-2.91-0.91","6267","approach_avoid_sv1","""event"",""trial"",""time""
""focus"",""0"",""2""
""fullscreenenter"",""1"",""2480""
","
","""event"",""trial"",""time""
""focus"",""0"",""2""
","""event"",""trial"",""time""
""fullscreenenter"",""1"",""2480""
","
","","","","","","2470","<p> Take a break! </p><p> Click the button to continue. </p>","0","","break","","",""
"html-keyboard-response","229","438188","0.0-18.0-0.92","6267","approach_avoid_sv1","""event"",""trial"",""time""
""focus"",""0"",""2""
""fullscreenenter"",""1"",""2480""
","
","""event"",""trial"",""time""
""focus"",""0"",""2""
","""event"",""trial"",""time""
""fullscreenenter"",""1"",""2480""
","
","","","","","","null","<div style=""font-size:60px;"">+</div>","null","","fixation","","",""
"memory-trial","230","440643","0.0-18.0-1.92","6267","approach_avoid_sv1","""event"",""trial"",""time""
""focus"",""0"",""2""
""fullscreenenter"",""1"",""2480""
","
","""event"",""trial"",""time""
""focus"",""0"",""2""
","""event"",""trial"",""time""
""fullscreenenter"",""1"",""2480""
","
","","","","","","1447","images/flower7.png","","","memory_trial","1","definitely_old",""
"html-keyboard-response","231","441148","0.0-18.0-0.93","6267","approach_avoid_sv1","""event"",""trial"",""time""
""focus"",""0"",""2""
""fullscreenenter"",""1"",""2480""
","
","""event"",""trial"",""time""
""focus"",""0"",""2""
","""event"",""trial"",""time""
""fullscreenenter"",""1"",""2480""
","
","","","","","","null","<div style=""font-size:60px;"">+</div>","null","","fixation","","",""
"memory-trial","232","443182","0.0-18.0-1.93","6267","approach_avoid_sv1","""event"",""trial"",""time""
""focus"",""0"",""2""
""fullscreenenter"",""1"",""2480""
","
","""event"",""trial"",""time""
""focus"",""0"",""2""
","""event"",""trial"",""time""
""fullscreenenter"",""1"",""2480""
","
","","","","","","1030","images/cat3.png","","","memory_trial","1","definitely_old",""
"html-keyboard-response","233","443687","0.0-18.0-0.94","6267","approach_avoid_sv1","""event"",""trial"",""time""
""focus"",""0"",""2""
""fullscreenenter"",""1"",""2480""
","
","""event"",""trial"",""time""
""focus"",""0"",""2""
","""event"",""trial"",""time""
""fullscreenenter"",""1"",""2480""
","
","","","","","","null","<div style=""font-size:60px;"">+</div>","null","","fixation","","",""
"memory-trial","234","445898","0.0-18.0-1.94","6267","approach_avoid_sv1","""event"",""trial"",""time""
""focus"",""0"",""2""
""fullscreenenter"",""1"",""2480""
","
","""event"",""trial"",""time""
""focus"",""0"",""2""
","""event"",""trial"",""time""
""fullscreenenter"",""1"",""2480""
","
","","","","","","1206","images/straw1.png","","","memory_trial","4","definitely_new",""
"html-keyboard-response","235","446413","0.0-18.0-0.95","6267","approach_avoid_sv1","""event"",""trial"",""time""
""focus"",""0"",""2""
""fullscreenenter"",""1"",""2480""
","
","""event"",""trial"",""time""
""focus"",""0"",""2""
","""event"",""trial"",""time""
""fullscreenenter"",""1"",""2480""
","
","","","","","","null","<div style=""font-size:60px;"">+</div>","null","","fixation","","",""
"memory-trial","236","448973","0.0-18.0-1.95","6267","approach_avoid_sv1","""event"",""trial"",""time""
""focus"",""0"",""2""
""fullscreenenter"",""1"",""2480""
","
","""event"",""trial"",""time""
""focus"",""0"",""2""
","""event"",""trial"",""time""
""fullscreenenter"",""1"",""2480""
","
","","","","","","1547","images/table6.png","","","memory_trial","2","maybe_old",""
"html-keyboard-response","237","449480","0.0-18.0-0.96","6267","approach_avoid_sv1","""event"",""trial"",""time""
""focus"",""0"",""2""
""fullscreenenter"",""1"",""2480""
","
","""event"",""trial"",""time""
""focus"",""0"",""2""
","""event"",""trial"",""time""
""fullscreenenter"",""1"",""2480""
","
","","","","","","null","<div style=""font-size:60px;"">+</div>","null","","fixation","","",""
"memory-trial","238","451888","0.0-18.0-1.96","6267","approach_avoid_sv1","""event"",""trial"",""time""
""focus"",""0"",""2""
""fullscreenenter"",""1"",""2480""
","
","""event"",""trial"",""time""
""focus"",""0"",""2""
","""event"",""trial"",""time""
""fullscreenenter"",""1"",""2480""
","
","","","","","","1403","images/horse1.png","","","memory_trial","4","definitely_new",""
"html-keyboard-response","239","452392","0.0-18.0-0.97","6267","approach_avoid_sv1","""event"",""trial"",""time""
""focus"",""0"",""2""
""fullscreenenter"",""1"",""2480""
","
","""event"",""trial"",""time""
""focus"",""0"",""2""
","""event"",""trial"",""time""
""fullscreenenter"",""1"",""2480""
","
","","","","","","null","<div style=""font-size:60px;"">+</div>","null","","fixation","","",""
"memory-trial","240","454554","0.0-18.0-1.97","6267","approach_avoid_sv1","""event"",""trial"",""time""
""focus"",""0"",""2""
""fullscreenenter"",""1"",""2480""
","
","""event"",""trial"",""time""
""focus"",""0"",""2""
","""event"",""trial"",""time""
""fullscreenenter"",""1"",""2480""
","
","","","","","","1153","images/dog4.png","","","memory_trial","4","definitely_new",""
"html-keyboard-response","241","455067","0.0-18.0-0.98","6267","approach_avoid_sv1","""event"",""trial"",""time""
""focus"",""0"",""2""
""fullscreenenter"",""1"",""2480""
","
","""event"",""trial"",""time""
""focus"",""0"",""2""
","""event"",""trial"",""time""
""fullscreenenter"",""1"",""2480""
","
","","","","","","null","<div style=""font-size:60px;"">+</div>","null","","fixation","","",""
"memory-trial","242","457166","0.0-18.0-1.98","6267","approach_avoid_sv1","""event"",""trial"",""time""
""focus"",""0"",""2""
""fullscreenenter"",""1"",""2480""
","
","""event"",""trial"",""time""
""focus"",""0"",""2""
","""event"",""trial"",""time""
""fullscreenenter"",""1"",""2480""
","
","","","","","","1096","images/table4.png","","","memory_trial","1","definitely_old",""
"html-keyboard-response","243","457668","0.0-18.0-0.99","6267","approach_avoid_sv1","""event"",""trial"",""time""
""focus"",""0"",""2""
""fullscreenenter"",""1"",""2480""
","
","""event"",""trial"",""time""
""focus"",""0"",""2""
","""event"",""trial"",""time""
""fullscreenenter"",""1"",""2480""
","
","","","","","","null","<div style=""font-size:60px;"">+</div>","null","","fixation","","",""
"memory-trial","244","459688","0.0-18.0-1.99","6267","approach_avoid_sv1","""event"",""trial"",""time""
""focus"",""0"",""2""
""fullscreenenter"",""1"",""2480""
","
","""event"",""trial"",""time""
""focus"",""0"",""2""
","""event"",""trial"",""time""
""fullscreenenter"",""1"",""2480""
","
","","","","","","1017","images/sofa2.png","","","memory_trial","4","definitely_new",""
"html-keyboard-response","245","460193","0.0-18.0-0.100","6267","approach_avoid_sv1","""event"",""trial"",""time""
""focus"",""0"",""2""
""fullscreenenter"",""1"",""2480""
","
","""event"",""trial"",""time""
""focus"",""0"",""2""
","""event"",""trial"",""time""
""fullscreenenter"",""1"",""2480""
","
","","","","","","null","<div style=""font-size:60px;"">+</div>","null","","fixation","","",""
"memory-trial","246","462238","0.0-18.0-1.100","6267","approach_avoid_sv1","""event"",""trial"",""time""
""focus"",""0"",""2""
""fullscreenenter"",""1"",""2480""
","
