"trial_type","trial_index","time_elapsed","internal_node_id","subject_id","task_version","interactions","blur_events","focus_events","fullscreenenter_events","fullscreenexit_events","success","timeout","failed_images","failed_audio","failed_video","rt","stimulus","response","button_pressed","task_part","key_press","answer","correct"
"pavlovia","0","3","0.0-0.0","4586","approach_avoid_sv1","""event"",""trial"",""time""
""fullscreenenter"",""1"",""2188""
","
","
","""event"",""trial"",""time""
""fullscreenenter"",""1"",""2188""
","
","","","","","","","","","","","","",""
"fullscreen","1","3147","0.0-1.0","4586","approach_avoid_sv1","""event"",""trial"",""time""
""fullscreenenter"",""1"",""2188""
","
","
","""event"",""trial"",""time""
""fullscreenenter"",""1"",""2188""
","
","true","","","","","","","","","","","",""
"preload","2","5202","0.0-2.0","4586","approach_avoid_sv1","""event"",""trial"",""time""
""fullscreenenter"",""1"",""2188""
","
","
","""event"",""trial"",""time""
""fullscreenenter"",""1"",""2188""
","
","true","false","[]","[]","[]","","","","","","","",""
"preload","3","5902","0.0-3.0","4586","approach_avoid_sv1","""event"",""trial"",""time""
""fullscreenenter"",""1"",""2188""
","
","
","""event"",""trial"",""time""
""fullscreenenter"",""1"",""2188""
","
","true","false","[]","[]","[]","","","","","","","",""
"preload","4","6284","0.0-4.0","4586","approach_avoid_sv1","""event"",""trial"",""time""
""fullscreenenter"",""1"",""2188""
","
","
","""event"",""trial"",""time""
""fullscreenenter"",""1"",""2188""
","
","true","false","[]","[]","[]","","","","","","","",""
"audio-keyboard-response","5","11251","0.0-5.0","4586","approach_avoid_sv1","""event"",""trial"",""time""
""fullscreenenter"",""1"",""2188""
","
","
","""event"",""trial"",""time""
""fullscreenenter"",""1"",""2188""
","
","","","","","","4970.666666666665","audio/beep_loop.wav"," ","","","","",""
"audio-button-response","6","12384","0.0-6.0","4586","approach_avoid_sv1","""event"",""trial"",""time""
""fullscreenenter"",""1"",""2188""
","
","
","""event"",""trial"",""time""
""fullscreenenter"",""1"",""2188""
","
","","","","","","1131","audio/turtle.wav","3","","","","",""
"audio-button-response","7","17698","0.0-7.0","4586","approach_avoid_sv1","""event"",""trial"",""time""
""fullscreenenter"",""1"",""2188""
","
","
","""event"",""trial"",""time""
""fullscreenenter"",""1"",""2188""
","
","","","","","","4291","audio/shark.wav","2","","","","",""
"preload","8","21547","0.0-8.0","4586","approach_avoid_sv1","""event"",""trial"",""time""
""fullscreenenter"",""1"",""2188""
""fullscreenexit"",""9"",""30613""
""blur"",""9"",""33473""
""focus"",""9"",""60291""
","""event"",""trial"",""time""
""blur"",""9"",""33473""
","""event"",""trial"",""time""
""focus"",""9"",""60291""
","""event"",""trial"",""time""
""fullscreenenter"",""1"",""2188""
","""event"",""trial"",""time""
""fullscreenexit"",""9"",""30613""
","true","false","[]","[]","[]","","","","","","","",""
"learning-instructions","9","70205","0.0-9.0-0.0","4586","approach_avoid_sv1","""event"",""trial"",""time""
""fullscreenenter"",""1"",""2188""
""fullscreenexit"",""9"",""30613""
""blur"",""9"",""33473""
""focus"",""9"",""60291""
","""event"",""trial"",""time""
""blur"",""9"",""33473""
","""event"",""trial"",""time""
""focus"",""9"",""60291""
","""event"",""trial"",""time""
""fullscreenenter"",""1"",""2188""
","""event"",""trial"",""time""
""fullscreenexit"",""9"",""30613""
","","","","","","44185.70000001788","<p> Welcome back! </p><p> Last week, you had to make choices about lots of different items.  </p>","","0","instructions","","",""
"learning-instructions","10","75742","0.0-9.0-0.1","4586","approach_avoid_sv1","""event"",""trial"",""time""
""fullscreenenter"",""1"",""2188""
""fullscreenexit"",""9"",""30613""
""blur"",""9"",""33473""
""focus"",""9"",""60291""
","""event"",""trial"",""time""
""blur"",""9"",""33473""
","""event"",""trial"",""time""
""focus"",""9"",""60291""
","""event"",""trial"",""time""
""fullscreenenter"",""1"",""2188""
","""event"",""trial"",""time""
""fullscreenexit"",""9"",""30613""
","","","","","","1057.9000000059605","<p> Today, we are going to ask you to try to remember all the items. </p>","","0","instructions","","",""
"learning-instructions","11","88748","0.0-9.0-0.2","4586","approach_avoid_sv1","""event"",""trial"",""time""
""fullscreenenter"",""1"",""2188""
""fullscreenexit"",""9"",""30613""
""blur"",""9"",""33473""
""focus"",""9"",""60291""
","""event"",""trial"",""time""
""blur"",""9"",""33473""
","""event"",""trial"",""time""
""focus"",""9"",""60291""
","""event"",""trial"",""time""
""fullscreenenter"",""1"",""2188""
","""event"",""trial"",""time""
""fullscreenexit"",""9"",""30613""
","","","","","","2874.4000000059605","<p> On every trial, you will see an image. </p><p> The image may be an OLD image you saw during the games last week or it may be a NEW image that was not presented. </p>","","0","instructions","","",""
"learning-instructions","12","97771","0.0-9.0-0.3","4586","approach_avoid_sv1","""event"",""trial"",""time""
""fullscreenenter"",""1"",""2188""
""fullscreenexit"",""9"",""30613""
""blur"",""9"",""33473""
""focus"",""9"",""60291""
","""event"",""trial"",""time""
""blur"",""9"",""33473""
","""event"",""trial"",""time""
""focus"",""9"",""60291""
","""event"",""trial"",""time""
""fullscreenenter"",""1"",""2188""
","""event"",""trial"",""time""
""fullscreenexit"",""9"",""30613""
","","","","","","515.5999999940395","<p> You need to select whether the image is:  </p><p>  'Definitely old', 'Maybe old', 'Maybe new', or 'Definitely new.'  </p><div class=""mem-choice-instructions-grid""><div class=""choice-option"" id=""choice-option-1"" ><img src=""images/definitely_old_1.png"" id=""choice-option-img-1"" class=""choice-option-img"" stage=""1""></div><div class=""choice-option"" id=""choice-option-2"" ><img src=""images/maybe_old_1.png"" id=""choice-option-img-2"" class=""choice-option-img"" stage=""1""></div><div class=""choice-option"" id=""choice-option-3"" ><img src=""images/maybe_new_1.png"" id=""choice-option-img-3"" class=""choice-option-img"" stage=""1""></div><div class=""choice-option"" id=""choice-option-4"" > <img src=""images/definitely_new_1.png"" id=""choice-option-img-4"" class=""choice-option-img"" stage=""1""></div></div>","","0","instructions","","",""
"learning-instructions","13","107214","0.0-9.0-0.4","4586","approach_avoid_sv1","""event"",""trial"",""time""
""fullscreenenter"",""1"",""2188""
""fullscreenexit"",""9"",""30613""
""blur"",""9"",""33473""
""focus"",""9"",""60291""
","""event"",""trial"",""time""
""blur"",""9"",""33473""
","""event"",""trial"",""time""
""focus"",""9"",""60291""
","""event"",""trial"",""time""
""fullscreenenter"",""1"",""2188""
","""event"",""trial"",""time""
""fullscreenexit"",""9"",""30613""
","","","","","","2919.5999999940395","<p> You should use the 1, 2, 3, and 4 keys to make your responses.  </p><div class=""mem-choice-instructions-grid""><div class=""choice-option"" id=""choice-option-1"" ><img src=""images/definitely_old.png"" id=""choice-option-img-1"" class=""choice-option-img"" stage=""1""></div><div class=""choice-option"" id=""choice-option-2"" ><img src=""images/maybe_old.png"" id=""choice-option-img-2"" class=""choice-option-img"" stage=""1""></div><div class=""choice-option"" id=""choice-option-3"" ><img src=""images/maybe_new.png"" id=""choice-option-img-3"" class=""choice-option-img"" stage=""1""></div><div class=""choice-option"" id=""choice-option-4"" > <img src=""images/definitely_new.png"" id=""choice-option-img-4"" class=""choice-option-img"" stage=""1""></div></div>","","0","instructions","","",""
"learning-instructions","14","116846","0.0-9.0-0.5","4586","approach_avoid_sv1","""event"",""trial"",""time""
""fullscreenenter"",""1"",""2188""
""fullscreenexit"",""9"",""30613""
""blur"",""9"",""33473""
""focus"",""9"",""60291""
","""event"",""trial"",""time""
""blur"",""9"",""33473""
","""event"",""trial"",""time""
""focus"",""9"",""60291""
","""event"",""trial"",""time""
""fullscreenenter"",""1"",""2188""
","""event"",""trial"",""time""
""fullscreenexit"",""9"",""30613""
","","","","","","3302.199999988079","<p> You will have 10 seconds to make each response.  </p><p>  Make sure to respond before time runs out! </p>","","0","instructions","","",""
"learning-instructions","15","127154","0.0-9.0-0.6","4586","approach_avoid_sv1","""event"",""trial"",""time""
""fullscreenenter"",""1"",""2188""
""fullscreenexit"",""9"",""30613""
""blur"",""9"",""33473""
""focus"",""9"",""60291""
","""event"",""trial"",""time""
""blur"",""9"",""33473""
","""event"",""trial"",""time""
""focus"",""9"",""60291""
","""event"",""trial"",""time""
""fullscreenenter"",""1"",""2188""
","""event"",""trial"",""time""
""fullscreenexit"",""9"",""30613""
","","","","","","3229.7999999821186","<p> Today, you will see each image ONCE only.  </p><p>  That means none of the images will repeat. </p>","","0","instructions","","",""
"learning-instructions","16","140426","0.0-9.0-0.7","4586","approach_avoid_sv1","""event"",""trial"",""time""
""fullscreenenter"",""1"",""2188""
""fullscreenexit"",""9"",""30613""
""blur"",""9"",""33473""
""focus"",""9"",""60291""
","""event"",""trial"",""time""
""blur"",""9"",""33473""
","""event"",""trial"",""time""
""focus"",""9"",""60291""
","""event"",""trial"",""time""
""fullscreenenter"",""1"",""2188""
","""event"",""trial"",""time""
""fullscreenexit"",""9"",""30613""
","","","","","","602.1000000238419","<p> Before you play the real game, it is time to practice. </p><p>  Just like in the real game, some of the images in the practice will be ones you have seen before. </p><p>  Others will be entirely new. </p>","","0","instructions","","",""
"html-button-response","17","142544","0.0-10.0","4586","approach_avoid_sv1","""event"",""trial"",""time""
""fullscreenenter"",""1"",""2188""
""fullscreenexit"",""9"",""30613""
""blur"",""9"",""33473""
""focus"",""9"",""60291""
","""event"",""trial"",""time""
""blur"",""9"",""33473""
","""event"",""trial"",""time""
""focus"",""9"",""60291""
","""event"",""trial"",""time""
""fullscreenenter"",""1"",""2188""
","""event"",""trial"",""time""
""fullscreenexit"",""9"",""30613""
","","","","","","2013.300000011921","<p> Ready to practice? </p><p> Remember, use the 1, 2, 3, and 4 keys to make your responses. </p>","0","","instructions","","",""
"html-keyboard-response","18","143166","0.0-11.0-0.0","4586","approach_avoid_sv1","""event"",""trial"",""time""
""fullscreenenter"",""1"",""2188""
""fullscreenexit"",""9"",""30613""
""blur"",""9"",""33473""
""focus"",""9"",""60291""
","""event"",""trial"",""time""
""blur"",""9"",""33473""
","""event"",""trial"",""time""
""focus"",""9"",""60291""
","""event"",""trial"",""time""
""fullscreenenter"",""1"",""2188""
","""event"",""trial"",""time""
""fullscreenexit"",""9"",""30613""
","","","","","","null","<div style=""font-size:60px;"">+</div>","null","","fixation","","",""
"memory-trial","19","147472","0.0-11.0-1.0","4586","approach_avoid_sv1","""event"",""trial"",""time""
""fullscreenenter"",""1"",""2188""
""fullscreenexit"",""9"",""30613""
""blur"",""9"",""33473""
""focus"",""9"",""60291""
","""event"",""trial"",""time""
""blur"",""9"",""33473""
","""event"",""trial"",""time""
""focus"",""9"",""60291""
","""event"",""trial"",""time""
""fullscreenenter"",""1"",""2188""
","""event"",""trial"",""time""
""fullscreenexit"",""9"",""30613""
","","","","","","3289.899999976158","images/ball1.png","","","practice","3","maybe_new",""
"html-keyboard-response","20","147994","0.0-11.0-0.1","4586","approach_avoid_sv1","""event"",""trial"",""time""
""fullscreenenter"",""1"",""2188""
""fullscreenexit"",""9"",""30613""
""blur"",""9"",""33473""
""focus"",""9"",""60291""
","""event"",""trial"",""time""
""blur"",""9"",""33473""
","""event"",""trial"",""time""
""focus"",""9"",""60291""
","""event"",""trial"",""time""
""fullscreenenter"",""1"",""2188""
","""event"",""trial"",""time""
""fullscreenexit"",""9"",""30613""
","","","","","","null","<div style=""font-size:60px;"">+</div>","null","","fixation","","",""
"memory-trial","21","151329","0.0-11.0-1.1","4586","approach_avoid_sv1","""event"",""trial"",""time""
""fullscreenenter"",""1"",""2188""
""fullscreenexit"",""9"",""30613""
""blur"",""9"",""33473""
""focus"",""9"",""60291""
","""event"",""trial"",""time""
""blur"",""9"",""33473""
","""event"",""trial"",""time""
""focus"",""9"",""60291""
","""event"",""trial"",""time""
""fullscreenenter"",""1"",""2188""
","""event"",""trial"",""time""
""fullscreenexit"",""9"",""30613""
","","","","","","2327","images/ball5.png","","","practice","1","definitely_old",""
"html-keyboard-response","22","151837","0.0-11.0-0.2","4586","approach_avoid_sv1","""event"",""trial"",""time""
""fullscreenenter"",""1"",""2188""
""fullscreenexit"",""9"",""30613""
""blur"",""9"",""33473""
""focus"",""9"",""60291""
","""event"",""trial"",""time""
""blur"",""9"",""33473""
","""event"",""trial"",""time""
""focus"",""9"",""60291""
","""event"",""trial"",""time""
""fullscreenenter"",""1"",""2188""
","""event"",""trial"",""time""
""fullscreenexit"",""9"",""30613""
","","","","","","null","<div style=""font-size:60px;"">+</div>","null","","fixation","","",""
"memory-trial","23","155560","0.0-11.0-1.2","4586","approach_avoid_sv1","""event"",""trial"",""time""
""fullscreenenter"",""1"",""2188""
""fullscreenexit"",""9"",""30613""
""blur"",""9"",""33473""
""focus"",""9"",""60291""
","""event"",""trial"",""time""
""blur"",""9"",""33473""
","""event"",""trial"",""time""
""focus"",""9"",""60291""
","""event"",""trial"",""time""
""fullscreenenter"",""1"",""2188""
","""event"",""trial"",""time""
""fullscreenexit"",""9"",""30613""
","","","","","","2707.5","images/racket5.png","","","practice","3","maybe_new",""
"html-keyboard-response","24","156068","0.0-11.0-0.3","4586","approach_avoid_sv1","""event"",""trial"",""time""
""fullscreenenter"",""1"",""2188""
""fullscreenexit"",""9"",""30613""
""blur"",""9"",""33473""
""focus"",""9"",""60291""
","""event"",""trial"",""time""
""blur"",""9"",""33473""
","""event"",""trial"",""time""
""focus"",""9"",""60291""
","""event"",""trial"",""time""
""fullscreenenter"",""1"",""2188""
","""event"",""trial"",""time""
""fullscreenexit"",""9"",""30613""
","","","","","","null","<div style=""font-size:60px;"">+</div>","null","","fixation","","",""
"memory-trial","25","158915","0.0-11.0-1.3","4586","approach_avoid_sv1","""event"",""trial"",""time""
""fullscreenenter"",""1"",""2188""
""fullscreenexit"",""9"",""30613""
""blur"",""9"",""33473""
""focus"",""9"",""60291""
","""event"",""trial"",""time""
""blur"",""9"",""33473""
","""event"",""trial"",""time""
""focus"",""9"",""60291""
","""event"",""trial"",""time""
""fullscreenenter"",""1"",""2188""
","""event"",""trial"",""time""
""fullscreenexit"",""9"",""30613""
","","","","","","1836.5","images/racket3.png","","","practice","1","definitely_old",""
"html-keyboard-response","26","159422","0.0-11.0-0.4","4586","approach_avoid_sv1","""event"",""trial"",""time""
""fullscreenenter"",""1"",""2188""
""fullscreenexit"",""9"",""30613""
""blur"",""9"",""33473""
""focus"",""9"",""60291""
","""event"",""trial"",""time""
""blur"",""9"",""33473""
","""event"",""trial"",""time""
""focus"",""9"",""60291""
","""event"",""trial"",""time""
""fullscreenenter"",""1"",""2188""
","""event"",""trial"",""time""
""fullscreenexit"",""9"",""30613""
","","","","","","null","<div style=""font-size:60px;"">+</div>","null","","fixation","","",""
"memory-trial","27","163601","0.0-11.0-1.4","4586","approach_avoid_sv1","""event"",""trial"",""time""
""fullscreenenter"",""1"",""2188""
""fullscreenexit"",""9"",""30613""
""blur"",""9"",""33473""
""focus"",""9"",""60291""
","""event"",""trial"",""time""
""blur"",""9"",""33473""
","""event"",""trial"",""time""
""focus"",""9"",""60291""
","""event"",""trial"",""time""
""fullscreenenter"",""1"",""2188""
","""event"",""trial"",""time""
""fullscreenexit"",""9"",""30613""
","","","","","","3154.2000000178814","images/racket1.png","","","practice","4","definitely_new",""
"html-keyboard-response","28","164112","0.0-11.0-0.5","4586","approach_avoid_sv1","""event"",""trial"",""time""
""fullscreenenter"",""1"",""2188""
""fullscreenexit"",""9"",""30613""
""blur"",""9"",""33473""
""focus"",""9"",""60291""
","""event"",""trial"",""time""
""blur"",""9"",""33473""
","""event"",""trial"",""time""
""focus"",""9"",""60291""
","""event"",""trial"",""time""
""fullscreenenter"",""1"",""2188""
","""event"",""trial"",""time""
""fullscreenexit"",""9"",""30613""
","","","","","","null","<div style=""font-size:60px;"">+</div>","null","","fixation","","",""
"memory-trial","29","167049","0.0-11.0-1.5","4586","approach_avoid_sv1","""event"",""trial"",""time""
""fullscreenenter"",""1"",""2188""
""fullscreenexit"",""9"",""30613""
""blur"",""9"",""33473""
""focus"",""9"",""60291""
","""event"",""trial"",""time""
""blur"",""9"",""33473""
","""event"",""trial"",""time""
""focus"",""9"",""60291""
","""event"",""trial"",""time""
""fullscreenenter"",""1"",""2188""
","""event"",""trial"",""time""
""fullscreenexit"",""9"",""30613""
","","","","","","1920.4000000059605","images/ball3.png","","","practice","1","definitely_old",""
"html-keyboard-response","30","167559","0.0-11.0-0.6","4586","approach_avoid_sv1","""event"",""trial"",""time""
""fullscreenenter"",""1"",""2188""
""fullscreenexit"",""9"",""30613""
""blur"",""9"",""33473""
""focus"",""9"",""60291""
","""event"",""trial"",""time""
""blur"",""9"",""33473""
","""event"",""trial"",""time""
""focus"",""9"",""60291""
","""event"",""trial"",""time""
""fullscreenenter"",""1"",""2188""
","""event"",""trial"",""time""
""fullscreenexit"",""9"",""30613""
","","","","","","null","<div style=""font-size:60px;"">+</div>","null","","fixation","","",""
"memory-trial","31","170978","0.0-11.0-1.6","4586","approach_avoid_sv1","""event"",""trial"",""time""
""fullscreenenter"",""1"",""2188""
""fullscreenexit"",""9"",""30613""
""blur"",""9"",""33473""
""focus"",""9"",""60291""
","""event"",""trial"",""time""
""blur"",""9"",""33473""
","""event"",""trial"",""time""
""focus"",""9"",""60291""
","""event"",""trial"",""time""
""fullscreenenter"",""1"",""2188""
","""event"",""trial"",""time""
""fullscreenexit"",""9"",""30613""
","","","","","","2400","images/ball2.png","","","practice","3","maybe_new",""
"html-keyboard-response","32","171484","0.0-11.0-0.7","4586","approach_avoid_sv1","""event"",""trial"",""time""
""fullscreenenter"",""1"",""2188""
""fullscreenexit"",""9"",""30613""
""blur"",""9"",""33473""
""focus"",""9"",""60291""
","""event"",""trial"",""time""
""blur"",""9"",""33473""
","""event"",""trial"",""time""
""focus"",""9"",""60291""
","""event"",""trial"",""time""
""fullscreenenter"",""1"",""2188""
","""event"",""trial"",""time""
""fullscreenexit"",""9"",""30613""
","","","","","","null","<div style=""font-size:60px;"">+</div>","null","","fixation","","",""
"memory-trial","33","174740","0.0-11.0-1.7","4586","approach_avoid_sv1","""event"",""trial"",""time""
""fullscreenenter"",""1"",""2188""
""fullscreenexit"",""9"",""30613""
""blur"",""9"",""33473""
""focus"",""9"",""60291""
","""event"",""trial"",""time""
""blur"",""9"",""33473""
","""event"",""trial"",""time""
""focus"",""9"",""60291""
","""event"",""trial"",""time""
""fullscreenenter"",""1"",""2188""
","""event"",""trial"",""time""
""fullscreenexit"",""9"",""30613""
","","","","","","2252.899999976158","images/racket2.png","","","practice","3","maybe_new",""
"learning-instructions","34","183296","0.0-12.0-0.0","4586","approach_avoid_sv1","""event"",""trial"",""time""
""fullscreenenter"",""1"",""2188""
""fullscreenexit"",""9"",""30613""
""blur"",""9"",""33473""
""focus"",""9"",""60291""
","""event"",""trial"",""time""
""blur"",""9"",""33473""
","""event"",""trial"",""time""
""focus"",""9"",""60291""
","""event"",""trial"",""time""
""fullscreenenter"",""1"",""2188""
","""event"",""trial"",""time""
""fullscreenexit"",""9"",""30613""
","","","","","","1261","<p> Great! You have completed the practice. </p><p> Before you start, we're going to ask you a few questions about how the game works.  </p>","","0","instructions","","",""
"preload","35","185157","0.0-13.0","4586","approach_avoid_sv1","""event"",""trial"",""time""
""fullscreenenter"",""1"",""2188""
""fullscreenexit"",""9"",""30613""
""blur"",""9"",""33473""
""focus"",""9"",""60291""
","""event"",""trial"",""time""
""blur"",""9"",""33473""
","""event"",""trial"",""time""
""focus"",""9"",""60291""
","""event"",""trial"",""time""
""fullscreenenter"",""1"",""2188""
","""event"",""trial"",""time""
""fullscreenexit"",""9"",""30613""
","true","false","[]","[]","[]","","","","","","","",""
"comp-q","36","192493","0.0-14.0-0.0","4586","approach_avoid_sv1","""event"",""trial"",""time""
""fullscreenenter"",""1"",""2188""
""fullscreenexit"",""9"",""30613""
""blur"",""9"",""33473""
""focus"",""9"",""60291""
","""event"",""trial"",""time""
""blur"",""9"",""33473""
","""event"",""trial"",""time""
""focus"",""9"",""60291""
","""event"",""trial"",""time""
""fullscreenenter"",""1"",""2188""
","""event"",""trial"",""time""
""fullscreenexit"",""9"",""30613""
","","","","","","1506.800000011921","<p> <b> True or False? </b> </p><p> In this game, you will only see each image once. </p>","","0","comp_question","","","true"
"comp-q","37","200242","0.0-14.0-1.0","4586","approach_avoid_sv1","""event"",""trial"",""time""
""fullscreenenter"",""1"",""2188""
""fullscreenexit"",""9"",""30613""
""blur"",""9"",""33473""
""focus"",""9"",""60291""
","""event"",""trial"",""time""
""blur"",""9"",""33473""
","""event"",""trial"",""time""
""focus"",""9"",""60291""
","""event"",""trial"",""time""
""fullscreenenter"",""1"",""2188""
","""event"",""trial"",""time""
""fullscreenexit"",""9"",""30613""
","","","","","","1397","<p> <b> That's right! </b> You will see many different images <i> one time each </i> in this game. </p>","","0","comp_answer","","",""
"comp-q","38","205986","0.0-15.0-0.0","4586","approach_avoid_sv1","""event"",""trial"",""time""
""fullscreenenter"",""1"",""2188""
""fullscreenexit"",""9"",""30613""
""blur"",""9"",""33473""
""focus"",""9"",""60291""
","""event"",""trial"",""time""
""blur"",""9"",""33473""
","""event"",""trial"",""time""
""focus"",""9"",""60291""
","""event"",""trial"",""time""
""fullscreenenter"",""1"",""2188""
","""event"",""trial"",""time""
""fullscreenexit"",""9"",""30613""
","","","","","","740.5999999940395","<p> <b> True or False? </b> </p><p> You should use the mouse and click to make your response. </p>","","1","comp_question","","","true"
"comp-q","39","215432","0.0-15.0-1.0","4586","approach_avoid_sv1","""event"",""trial"",""time""
""fullscreenenter"",""1"",""2188""
""fullscreenexit"",""9"",""30613""
""blur"",""9"",""33473""
""focus"",""9"",""60291""
","""event"",""trial"",""time""
""blur"",""9"",""33473""
","""event"",""trial"",""time""
""focus"",""9"",""60291""
","""event"",""trial"",""time""
""fullscreenenter"",""1"",""2188""
","""event"",""trial"",""time""
""fullscreenexit"",""9"",""30613""
","","","","","","2947.0999999940395","<p><b> That's right! </b> You should use the '1', '2', '3', and '4' keys to make your response. </p>","","0","comp_answer","","",""
"comp-q","40","221796","0.0-16.0-0.0","4586","approach_avoid_sv1","""event"",""trial"",""time""
""fullscreenenter"",""1"",""2188""
""fullscreenexit"",""9"",""30613""
""blur"",""9"",""33473""
""focus"",""9"",""60291""
","""event"",""trial"",""time""
""blur"",""9"",""33473""
","""event"",""trial"",""time""
""focus"",""9"",""60291""
","""event"",""trial"",""time""
""fullscreenenter"",""1"",""2188""
","""event"",""trial"",""time""
""fullscreenexit"",""9"",""30613""
","","","","","","680.5999999940395","<p> <b> True or False? </b> </p><p> You will have as much time as you want to make each choice. </p>","","1","comp_question","","","true"
"comp-q","41","227320","0.0-16.0-1.0","4586","approach_avoid_sv1","""event"",""trial"",""time""
""fullscreenenter"",""1"",""2188""
""fullscreenexit"",""9"",""30613""
""blur"",""9"",""33473""
""focus"",""9"",""60291""
","""event"",""trial"",""time""
""blur"",""9"",""33473""
","""event"",""trial"",""time""
""focus"",""9"",""60291""
","""event"",""trial"",""time""
""fullscreenenter"",""1"",""2188""
","""event"",""trial"",""time""
""fullscreenexit"",""9"",""30613""
","","","","","","814.6999999880791","<p> <b> That's right! </b> You will only have 10 seconds to make each choice. </p>","","0","comp_answer","","",""
"learning-instructions","42","237082","0.0-17.0","4586","approach_avoid_sv1","""event"",""trial"",""time""
""fullscreenenter"",""1"",""2188""
""fullscreenexit"",""9"",""30613""
""blur"",""9"",""33473""
""focus"",""9"",""60291""
","""event"",""trial"",""time""
""blur"",""9"",""33473""
","""event"",""trial"",""time""
""focus"",""9"",""60291""
","""event"",""trial"",""time""
""fullscreenenter"",""1"",""2188""
","""event"",""trial"",""time""
""fullscreenexit"",""9"",""30613""
","","","","","","1076.9000000059605","<p> Great! You are now ready to begin the game. </p><p> Remember, use the 1, 2, 3, and 4 keys to make your responses. </p>","","0","instructions","","",""
"html-keyboard-response","43","237708","0.0-18.0-0.0","4586","approach_avoid_sv1","""event"",""trial"",""time""
""fullscreenenter"",""1"",""2188""
""fullscreenexit"",""9"",""30613""
""blur"",""9"",""33473""
""focus"",""9"",""60291""
","""event"",""trial"",""time""
""blur"",""9"",""33473""
","""event"",""trial"",""time""
""focus"",""9"",""60291""
","""event"",""trial"",""time""
""fullscreenenter"",""1"",""2188""
","""event"",""trial"",""time""
""fullscreenexit"",""9"",""30613""
","","","","","","null","<div style=""font-size:60px;"">+</div>","null","","fixation","","",""
"memory-trial","44","240769","0.0-18.0-1.0","4586","approach_avoid_sv1","""event"",""trial"",""time""
""fullscreenenter"",""1"",""2188""
""fullscreenexit"",""9"",""30613""
""blur"",""9"",""33473""
""focus"",""9"",""60291""
","""event"",""trial"",""time""
""blur"",""9"",""33473""
","""event"",""trial"",""time""
""focus"",""9"",""60291""
","""event"",""trial"",""time""
""fullscreenenter"",""1"",""2188""
","""event"",""trial"",""time""
""fullscreenexit"",""9"",""30613""
","","","","","","2043.4000000059605","images/boat8.png","","","memory_trial","3","maybe_new",""
"html-keyboard-response","45","241279","0.0-18.0-0.1","4586","approach_avoid_sv1","""event"",""trial"",""time""
""fullscreenenter"",""1"",""2188""
""fullscreenexit"",""9"",""30613""
""blur"",""9"",""33473""
""focus"",""9"",""60291""
","""event"",""trial"",""time""
""blur"",""9"",""33473""
","""event"",""trial"",""time""
""focus"",""9"",""60291""
","""event"",""trial"",""time""
""fullscreenenter"",""1"",""2188""
","""event"",""trial"",""time""
""fullscreenexit"",""9"",""30613""
","","","","","","null","<div style=""font-size:60px;"">+</div>","null","","fixation","","",""
"memory-trial","46","243996","0.0-18.0-1.1","4586","approach_avoid_sv1","""event"",""trial"",""time""
""fullscreenenter"",""1"",""2188""
""fullscreenexit"",""9"",""30613""
""blur"",""9"",""33473""
""focus"",""9"",""60291""
","""event"",""trial"",""time""
""blur"",""9"",""33473""
","""event"",""trial"",""time""
""focus"",""9"",""60291""
","""event"",""trial"",""time""
""fullscreenenter"",""1"",""2188""
","""event"",""trial"",""time""
""fullscreenexit"",""9"",""30613""
","","","","","","1705.2000000178814","images/dog5.png","","","memory_trial","1","definitely_old",""
"html-keyboard-response","47","244506","0.0-18.0-0.2","4586","approach_avoid_sv1","""event"",""trial"",""time""
""fullscreenenter"",""1"",""2188""
""fullscreenexit"",""9"",""30613""
""blur"",""9"",""33473""
""focus"",""9"",""60291""
","""event"",""trial"",""time""
""blur"",""9"",""33473""
","""event"",""trial"",""time""
""focus"",""9"",""60291""
","""event"",""trial"",""time""
""fullscreenenter"",""1"",""2188""
","""event"",""trial"",""time""
""fullscreenexit"",""9"",""30613""
","","","","","","null","<div style=""font-size:60px;"">+</div>","null","","fixation","","",""
"memory-trial","48","246560","0.0-18.0-1.2","4586","approach_avoid_sv1","""event"",""trial"",""time""
""fullscreenenter"",""1"",""2188""
""fullscreenexit"",""9"",""30613""
""blur"",""9"",""33473""
""focus"",""9"",""60291""
","""event"",""trial"",""time""
""blur"",""9"",""33473""
","""event"",""trial"",""time""
""focus"",""9"",""60291""
","""event"",""trial"",""time""
""fullscreenenter"",""1"",""2188""
","""event"",""trial"",""time""
""fullscreenexit"",""9"",""30613""
","","","","","","1039.199999988079","images/cow5.png","","","memory_trial","1","definitely_old",""
"html-keyboard-response","49","247075","0.0-18.0-0.3","4586","approach_avoid_sv1","""event"",""trial"",""time""
""fullscreenenter"",""1"",""2188""
""fullscreenexit"",""9"",""30613""
""blur"",""9"",""33473""
""focus"",""9"",""60291""
","""event"",""trial"",""time""
""blur"",""9"",""33473""
","""event"",""trial"",""time""
""focus"",""9"",""60291""
","""event"",""trial"",""time""
""fullscreenenter"",""1"",""2188""
","""event"",""trial"",""time""
""fullscreenexit"",""9"",""30613""
","","","","","","null","<div style=""font-size:60px;"">+</div>","null","","fixation","","",""
"memory-trial","50","249660","0.0-18.0-1.3","4586","approach_avoid_sv1","""event"",""trial"",""time""
""fullscreenenter"",""1"",""2188""
""fullscreenexit"",""9"",""30613""
""blur"",""9"",""33473""
""focus"",""9"",""60291""
","""event"",""trial"",""time""
""blur"",""9"",""33473""
","""event"",""trial"",""time""
""focus"",""9"",""60291""
","""event"",""trial"",""time""
""fullscreenenter"",""1"",""2188""
","""event"",""trial"",""time""
""fullscreenexit"",""9"",""30613""
","","","","","","1573.5","images/tree5.png","","","memory_trial","3","maybe_new",""
"html-keyboard-response","51","250169","0.0-18.0-0.4","4586","approach_avoid_sv1","""event"",""trial"",""time""
""fullscreenenter"",""1"",""2188""
""fullscreenexit"",""9"",""30613""
""blur"",""9"",""33473""
""focus"",""9"",""60291""
","""event"",""trial"",""time""
""blur"",""9"",""33473""
","""event"",""trial"",""time""
""focus"",""9"",""60291""
","""event"",""trial"",""time""
""fullscreenenter"",""1"",""2188""
","""event"",""trial"",""time""
""fullscreenexit"",""9"",""30613""
","","","","","","null","<div style=""font-size:60px;"">+</div>","null","","fixation","","",""
"memory-trial","52","252051","0.0-18.0-1.4","4586","approach_avoid_sv1","""event"",""trial"",""time""
""fullscreenenter"",""1"",""2188""
""fullscreenexit"",""9"",""30613""
""blur"",""9"",""33473""
""focus"",""9"",""60291""
","""event"",""trial"",""time""
""blur"",""9"",""33473""
","""event"",""trial"",""time""
""focus"",""9"",""60291""
","""event"",""trial"",""time""
""fullscreenenter"",""1"",""2188""
","""event"",""trial"",""time""
""fullscreenexit"",""9"",""30613""
","","","","","","879.5999999940395","images/truck1.png","","","memory_trial","3","maybe_new",""
"html-keyboard-response","53","252555","0.0-18.0-0.5","4586","approach_avoid_sv1","""event"",""trial"",""time""
""fullscreenenter"",""1"",""2188""
""fullscreenexit"",""9"",""30613""
""blur"",""9"",""33473""
""focus"",""9"",""60291""
","""event"",""trial"",""time""
""blur"",""9"",""33473""
","""event"",""trial"",""time""
""focus"",""9"",""60291""
","""event"",""trial"",""time""
""fullscreenenter"",""1"",""2188""
","""event"",""trial"",""time""
""fullscreenexit"",""9"",""30613""
","","","","","","null","<div style=""font-size:60px;"">+</div>","null","","fixation","","",""
"memory-trial","54","254768","0.0-18.0-1.5","4586","approach_avoid_sv1","""event"",""trial"",""time""
""fullscreenenter"",""1"",""2188""
""fullscreenexit"",""9"",""30613""
""blur"",""9"",""33473""
""focus"",""9"",""60291""
","""event"",""trial"",""time""
""blur"",""9"",""33473""
","""event"",""trial"",""time""
""focus"",""9"",""60291""
","""event"",""trial"",""time""
""fullscreenenter"",""1"",""2188""
","""event"",""trial"",""time""
""fullscreenexit"",""9"",""30613""
","","","","","","1205","images/orange4.png","","","memory_trial","4","definitely_new",""
"html-keyboard-response","55","255280","0.0-18.0-0.6","4586","approach_avoid_sv1","""event"",""trial"",""time""
""fullscreenenter"",""1"",""2188""
""fullscreenexit"",""9"",""30613""
""blur"",""9"",""33473""
""focus"",""9"",""60291""
","""event"",""trial"",""time""
""blur"",""9"",""33473""
","""event"",""trial"",""time""
""focus"",""9"",""60291""
","""event"",""trial"",""time""
""fullscreenenter"",""1"",""2188""
","""event"",""trial"",""time""
""fullscreenexit"",""9"",""30613""
","","","","","","null","<div style=""font-size:60px;"">+</div>","null","","fixation","","",""
"memory-trial","56","257492","0.0-18.0-1.6","4586","approach_avoid_sv1","""event"",""trial"",""time""
""fullscreenenter"",""1"",""2188""
""fullscreenexit"",""9"",""30613""
""blur"",""9"",""33473""
""focus"",""9"",""60291""
","""event"",""trial"",""time""
""blur"",""9"",""33473""
","""event"",""trial"",""time""
""focus"",""9"",""60291""
","""event"",""trial"",""time""
""fullscreenenter"",""1"",""2188""
","""event"",""trial"",""time""
""fullscreenexit"",""9"",""30613""
","","","","","","1199.9000000059605","images/truck5.png","","","memory_trial","1","definitely_old",""
"html-keyboard-response","57","258000","0.0-18.0-0.7","4586","approach_avoid_sv1","""event"",""trial"",""time""
""fullscreenenter"",""1"",""2188""
""fullscreenexit"",""9"",""30613""
""blur"",""9"",""33473""
""focus"",""9"",""60291""
","""event"",""trial"",""time""
""blur"",""9"",""33473""
","""event"",""trial"",""time""
""focus"",""9"",""60291""
","""event"",""trial"",""time""
""fullscreenenter"",""1"",""2188""
","""event"",""trial"",""time""
""fullscreenexit"",""9"",""30613""
","","","","","","null","<div style=""font-size:60px;"">+</div>","null","","fixation","","",""
"memory-trial","58","260181","0.0-18.0-1.7","4586","approach_avoid_sv1","""event"",""trial"",""time""
""fullscreenenter"",""1"",""2188""
""fullscreenexit"",""9"",""30613""
""blur"",""9"",""33473""
""focus"",""9"",""60291""
","""event"",""trial"",""time""
""blur"",""9"",""33473""
","""event"",""trial"",""time""
""focus"",""9"",""60291""
","""event"",""trial"",""time""
""fullscreenenter"",""1"",""2188""
","""event"",""trial"",""time""
""fullscreenexit"",""9"",""30613""
","","","","","","1168.199999988079","images/boat7.png","","","memory_trial","1","definitely_old",""
"html-keyboard-response","59","260706","0.0-18.0-0.8","4586","approach_avoid_sv1","""event"",""trial"",""time""
""fullscreenenter"",""1"",""2188""
""fullscreenexit"",""9"",""30613""
""blur"",""9"",""33473""
""focus"",""9"",""60291""
","""event"",""trial"",""time""
""blur"",""9"",""33473""
","""event"",""trial"",""time""
""focus"",""9"",""60291""
","""event"",""trial"",""time""
""fullscreenenter"",""1"",""2188""
","""event"",""trial"",""time""
""fullscreenexit"",""9"",""30613""
","","","","","","null","<div style=""font-size:60px;"">+</div>","null","","fixation","","",""
"memory-trial","60","263128","0.0-18.0-1.8","4586","approach_avoid_sv1","""event"",""trial"",""time""
""fullscreenenter"",""1"",""2188""
""fullscreenexit"",""9"",""30613""
""blur"",""9"",""33473""
""focus"",""9"",""60291""
","""event"",""trial"",""time""
""blur"",""9"",""33473""
","""event"",""trial"",""time""
""focus"",""9"",""60291""
","""event"",""trial"",""time""
""fullscreenenter"",""1"",""2188""
","""event"",""trial"",""time""
""fullscreenexit"",""9"",""30613""
","","","","","","1406.800000011921","images/rodent4.png","","","memory_trial","4","definitely_new",""
"html-keyboard-response","61","263638","0.0-18.0-0.9","4586","approach_avoid_sv1","""event"",""trial"",""time""
""fullscreenenter"",""1"",""2188""
""fullscreenexit"",""9"",""30613""
""blur"",""9"",""33473""
""focus"",""9"",""60291""
","""event"",""trial"",""time""
""blur"",""9"",""33473""
","""event"",""trial"",""time""
""focus"",""9"",""60291""
","""event"",""trial"",""time""
""fullscreenenter"",""1"",""2188""
","""event"",""trial"",""time""
""fullscreenexit"",""9"",""30613""
","","","","","","null","<div style=""font-size:60px;"">+</div>","null","","fixation","","",""
"memory-trial","62","266034","0.0-18.0-1.9","4586","approach_avoid_sv1","""event"",""trial"",""time""
""fullscreenenter"",""1"",""2188""
""fullscreenexit"",""9"",""30613""
""blur"",""9"",""33473""
""focus"",""9"",""60291""
","""event"",""trial"",""time""
""blur"",""9"",""33473""
","""event"",""trial"",""time""
""focus"",""9"",""60291""
","""event"",""trial"",""time""
""fullscreenenter"",""1"",""2188""
","""event"",""trial"",""time""
""fullscreenexit"",""9"",""30613""
","","","","","","1385.9000000059605","images/horse4.png","","","memory_trial","3","maybe_new",""
"html-keyboard-response","63","266551","0.0-18.0-0.10","4586","approach_avoid_sv1","""event"",""trial"",""time""
""fullscreenenter"",""1"",""2188""
""fullscreenexit"",""9"",""30613""
""blur"",""9"",""33473""
""focus"",""9"",""60291""
","""event"",""trial"",""time""
""blur"",""9"",""33473""
","""event"",""trial"",""time""
""focus"",""9"",""60291""
","""event"",""trial"",""time""
""fullscreenenter"",""1"",""2188""
","""event"",""trial"",""time""
""fullscreenexit"",""9"",""30613""
","","","","","","null","<div style=""font-size:60px;"">+</div>","null","","fixation","","",""
"memory-trial","64","269155","0.0-18.0-1.10","4586","approach_avoid_sv1","""event"",""trial"",""time""
""fullscreenenter"",""1"",""2188""
""fullscreenexit"",""9"",""30613""
""blur"",""9"",""33473""
""focus"",""9"",""60291""
","""event"",""trial"",""time""
""blur"",""9"",""33473""
","""event"",""trial"",""time""
""focus"",""9"",""60291""
","""event"",""trial"",""time""
""fullscreenenter"",""1"",""2188""
","""event"",""trial"",""time""
""fullscreenexit"",""9"",""30613""
","","","","","","1601.300000011921","images/straw2.png","","","memory_trial","2","maybe_old",""
"html-keyboard-response","65","269666","0.0-18.0-0.11","4586","approach_avoid_sv1","""event"",""trial"",""time""
""fullscreenenter"",""1"",""2188""
""fullscreenexit"",""9"",""30613""
""blur"",""9"",""33473""
""focus"",""9"",""60291""
","""event"",""trial"",""time""
""blur"",""9"",""33473""
","""event"",""trial"",""time""
""focus"",""9"",""60291""
","""event"",""trial"",""time""
""fullscreenenter"",""1"",""2188""
","""event"",""trial"",""time""
""fullscreenexit"",""9"",""30613""
","","","","","","null","<div style=""font-size:60px;"">+</div>","null","","fixation","","",""
"memory-trial","66","273091","0.0-18.0-1.11","4586","approach_avoid_sv1","""event"",""trial"",""time""
""fullscreenenter"",""1"",""2188""
""fullscreenexit"",""9"",""30613""
""blur"",""9"",""33473""
""focus"",""9"",""60291""
","""event"",""trial"",""time""
""blur"",""9"",""33473""
","""event"",""trial"",""time""
""focus"",""9"",""60291""
","""event"",""trial"",""time""
""fullscreenenter"",""1"",""2188""
","""event"",""trial"",""time""
""fullscreenexit"",""9"",""30613""
","","","","","","2422.699999988079","images/sofa2.png","","","memory_trial","3","maybe_new",""
"html-keyboard-response","67","273596","0.0-18.0-0.12","4586","approach_avoid_sv1","""event"",""trial"",""time""
""fullscreenenter"",""1"",""2188""
""fullscreenexit"",""9"",""30613""
""blur"",""9"",""33473""
""focus"",""9"",""60291""
","""event"",""trial"",""time""
""blur"",""9"",""33473""
","""event"",""trial"",""time""
""focus"",""9"",""60291""
","""event"",""trial"",""time""
""fullscreenenter"",""1"",""2188""
","""event"",""trial"",""time""
""fullscreenexit"",""9"",""30613""
","","","","","","null","<div style=""font-size:60px;"">+</div>","null","","fixation","","",""
"memory-trial","68","275917","0.0-18.0-1.12","4586","approach_avoid_sv1","""event"",""trial"",""time""
""fullscreenenter"",""1"",""2188""
""fullscreenexit"",""9"",""30613""
""blur"",""9"",""33473""
""focus"",""9"",""60291""
","""event"",""trial"",""time""
""blur"",""9"",""33473""
","""event"",""trial"",""time""
""focus"",""9"",""60291""
","""event"",""trial"",""time""
""fullscreenenter"",""1"",""2188""
","""event"",""trial"",""time""
""fullscreenexit"",""9"",""30613""
","","","","","","1309.0999999940395","images/banana6.png","","","memory_trial","3","maybe_new",""
"html-keyboard-response","69","276419","0.0-18.0-0.13","4586","approach_avoid_sv1","""event"",""trial"",""time""
""fullscreenenter"",""1"",""2188""
""fullscreenexit"",""9"",""30613""
""blur"",""9"",""33473""
""focus"",""9"",""60291""
","""event"",""trial"",""time""
""blur"",""9"",""33473""
","""event"",""trial"",""time""
""focus"",""9"",""60291""
","""event"",""trial"",""time""
""fullscreenenter"",""1"",""2188""
","""event"",""trial"",""time""
""fullscreenexit"",""9"",""30613""
","","","","","","null","<div style=""font-size:60px;"">+</div>","null","","fixation","","",""
"memory-trial","70","278795","0.0-18.0-1.13","4586","approach_avoid_sv1","""event"",""trial"",""time""
""fullscreenenter"",""1"",""2188""
""fullscreenexit"",""9"",""30613""
""blur"",""9"",""33473""
""focus"",""9"",""60291""
","""event"",""trial"",""time""
""blur"",""9"",""33473""
","""event"",""trial"",""time""
""focus"",""9"",""60291""
","""event"",""trial"",""time""
""fullscreenenter"",""1"",""2188""
","""event"",""trial"",""time""
""fullscreenexit"",""9"",""30613""
","","","","","","1366.3999999761581","images/goat2.png","","","memory_trial","1","definitely_old",""
"html-keyboard-response","71","279310","0.0-18.0-0.14","4586","approach_avoid_sv1","""event"",""trial"",""time""
""fullscreenenter"",""1"",""2188""
""fullscreenexit"",""9"",""30613""
""blur"",""9"",""33473""
""focus"",""9"",""60291""
","""event"",""trial"",""time""
""blur"",""9"",""33473""
","""event"",""trial"",""time""
""focus"",""9"",""60291""
","""event"",""trial"",""time""
""fullscreenenter"",""1"",""2188""
","""event"",""trial"",""time""
""fullscreenexit"",""9"",""30613""
","","","","","","null","<div style=""font-size:60px;"">+</div>","null","","fixation","","",""
"memory-trial","72","281803","0.0-18.0-1.14","4586","approach_avoid_sv1","""event"",""trial"",""time""
""fullscreenenter"",""1"",""2188""
""fullscreenexit"",""9"",""30613""
""blur"",""9"",""33473""
""focus"",""9"",""60291""
","""event"",""trial"",""time""
""blur"",""9"",""33473""
","""event"",""trial"",""time""
""focus"",""9"",""60291""
","""event"",""trial"",""time""
""fullscreenenter"",""1"",""2188""
","""event"",""trial"",""time""
""fullscreenexit"",""9"",""30613""
","","","","","","1483.5","images/rodent7.png","","","memory_trial","4","definitely_new",""
"html-keyboard-response","73","282308","0.0-18.0-0.15","4586","approach_avoid_sv1","""event"",""trial"",""time""
""fullscreenenter"",""1"",""2188""
""fullscreenexit"",""9"",""30613""
""blur"",""9"",""33473""
""focus"",""9"",""60291""
","""event"",""trial"",""time""
""blur"",""9"",""33473""
","""event"",""trial"",""time""
""focus"",""9"",""60291""
","""event"",""trial"",""time""
""fullscreenenter"",""1"",""2188""
","""event"",""trial"",""time""
""fullscreenexit"",""9"",""30613""
","","","","","","null","<div style=""font-size:60px;"">+</div>","null","","fixation","","",""
"memory-trial","74","285052","0.0-18.0-1.15","4586","approach_avoid_sv1","""event"",""trial"",""time""
""fullscreenenter"",""1"",""2188""
""fullscreenexit"",""9"",""30613""
""blur"",""9"",""33473""
""focus"",""9"",""60291""
","""event"",""trial"",""time""
""blur"",""9"",""33473""
","""event"",""trial"",""time""
""focus"",""9"",""60291""
","""event"",""trial"",""time""
""fullscreenenter"",""1"",""2188""
","""event"",""trial"",""time""
""fullscreenexit"",""9"",""30613""
","","","","","","1740.9000000059605","images/horse3.png","","","memory_trial","2","maybe_old",""
"html-keyboard-response","75","285566","0.0-18.0-0.16","4586","approach_avoid_sv1","""event"",""trial"",""time""
""fullscreenenter"",""1"",""2188""
""fullscreenexit"",""9"",""30613""
""blur"",""9"",""33473""
""focus"",""9"",""60291""
","""event"",""trial"",""time""
""blur"",""9"",""33473""
","""event"",""trial"",""time""
""focus"",""9"",""60291""
","""event"",""trial"",""time""
""fullscreenenter"",""1"",""2188""
","""event"",""trial"",""time""
""fullscreenexit"",""9"",""30613""
","","","","","","null","<div style=""font-size:60px;"">+</div>","null","","fixation","","",""
"memory-trial","76","288059","0.0-18.0-1.16","4586","approach_avoid_sv1","""event"",""trial"",""time""
""fullscreenenter"",""1"",""2188""
""fullscreenexit"",""9"",""30613""
""blur"",""9"",""33473""
""focus"",""9"",""60291""
","""event"",""trial"",""time""
""blur"",""9"",""33473""
","""event"",""trial"",""time""
""focus"",""9"",""60291""
","""event"",""trial"",""time""
""fullscreenenter"",""1"",""2188""
","""event"",""trial"",""time""
""fullscreenexit"",""9"",""30613""
","","","","","","1491.300000011921","images/chair8.png","","","memory_trial","2","maybe_old",""
"html-keyboard-response","77","288571","0.0-18.0-0.17","4586","approach_avoid_sv1","""event"",""trial"",""time""
""fullscreenenter"",""1"",""2188""
""fullscreenexit"",""9"",""30613""
""blur"",""9"",""33473""
""focus"",""9"",""60291""
","""event"",""trial"",""time""
""blur"",""9"",""33473""
","""event"",""trial"",""time""
""focus"",""9"",""60291""
","""event"",""trial"",""time""
""fullscreenenter"",""1"",""2188""
","""event"",""trial"",""time""
""fullscreenexit"",""9"",""30613""
","","","","","","null","<div style=""font-size:60px;"">+</div>","null","","fixation","","",""
"memory-trial","78","291068","0.0-18.0-1.17","4586","approach_avoid_sv1","""event"",""trial"",""time""
""fullscreenenter"",""1"",""2188""
""fullscreenexit"",""9"",""30613""
""blur"",""9"",""33473""
""focus"",""9"",""60291""
","""event"",""trial"",""time""
""blur"",""9"",""33473""
","""event"",""trial"",""time""
""focus"",""9"",""60291""
","""event"",""trial"",""time""
""fullscreenenter"",""1"",""2188""
","""event"",""trial"",""time""
""fullscreenexit"",""9"",""30613""
","","","","","","1494.0999999940395","images/flower1.png","","","memory_trial","3","maybe_new",""
"html-keyboard-response","79","291571","0.0-18.0-0.18","4586","approach_avoid_sv1","""event"",""trial"",""time""
""fullscreenenter"",""1"",""2188""
""fullscreenexit"",""9"",""30613""
""blur"",""9"",""33473""
""focus"",""9"",""60291""
","""event"",""trial"",""time""
""blur"",""9"",""33473""
","""event"",""trial"",""time""
""focus"",""9"",""60291""
","""event"",""trial"",""time""
""fullscreenenter"",""1"",""2188""
","""event"",""trial"",""time""
""fullscreenexit"",""9"",""30613""
","","","","","","null","<div style=""font-size:60px;"">+</div>","null","","fixation","","",""
"memory-trial","80","293723","0.0-18.0-1.18","4586","approach_avoid_sv1","""event"",""trial"",""time""
""fullscreenenter"",""1"",""2188""
""fullscreenexit"",""9"",""30613""
""blur"",""9"",""33473""
""focus"",""9"",""60291""
","""event"",""trial"",""time""
""blur"",""9"",""33473""
","""event"",""trial"",""time""
""focus"",""9"",""60291""
","""event"",""trial"",""time""
""fullscreenenter"",""1"",""2188""
","""event"",""trial"",""time""
""fullscreenexit"",""9"",""30613""
","","","","","","1149.9000000059605","images/boat2.png","","","memory_trial","3","maybe_new",""
"html-keyboard-response","81","294228","0.0-18.0-0.19","4586","approach_avoid_sv1","""event"",""trial"",""time""
""fullscreenenter"",""1"",""2188""
""fullscreenexit"",""9"",""30613""
""blur"",""9"",""33473""
""focus"",""9"",""60291""
","""event"",""trial"",""time""
""blur"",""9"",""33473""
","""event"",""trial"",""time""
""focus"",""9"",""60291""
","""event"",""trial"",""time""
""fullscreenenter"",""1"",""2188""
","""event"",""trial"",""time""
""fullscreenexit"",""9"",""30613""
","","","","","","null","<div style=""font-size:60px;"">+</div>","null","","fixation","","",""
"memory-trial","82","296700","0.0-18.0-1.19","4586","approach_avoid_sv1","""event"",""trial"",""time""
""fullscreenenter"",""1"",""2188""
""fullscreenexit"",""9"",""30613""
""blur"",""9"",""33473""
""focus"",""9"",""60291""
","""event"",""trial"",""time""
""blur"",""9"",""33473""
","""event"",""trial"",""time""
""focus"",""9"",""60291""
","""event"",""trial"",""time""
""fullscreenenter"",""1"",""2188""
","""event"",""trial"",""time""
""fullscreenexit"",""9"",""30613""
","","","","","","1469.2999999821186","images/sheep5.png","","","memory_trial","3","maybe_new",""
"html-keyboard-response","83","297204","0.0-18.0-0.20","4586","approach_avoid_sv1","""event"",""trial"",""time""
""fullscreenenter"",""1"",""2188""
""fullscreenexit"",""9"",""30613""
""blur"",""9"",""33473""
""focus"",""9"",""60291""
","""event"",""trial"",""time""
""blur"",""9"",""33473""
","""event"",""trial"",""time""
""focus"",""9"",""60291""
","""event"",""trial"",""time""
""fullscreenenter"",""1"",""2188""
","""event"",""trial"",""time""
""fullscreenexit"",""9"",""30613""
","","","","","","null","<div style=""font-size:60px;"">+</div>","null","","fixation","","",""
"memory-trial","84","299188","0.0-18.0-1.20","4586","approach_avoid_sv1","""event"",""trial"",""time""
""fullscreenenter"",""1"",""2188""
""fullscreenexit"",""9"",""30613""
""blur"",""9"",""33473""
""focus"",""9"",""60291""
","""event"",""trial"",""time""
""blur"",""9"",""33473""
","""event"",""trial"",""time""
""focus"",""9"",""60291""
","""event"",""trial"",""time""
""fullscreenenter"",""1"",""2188""
","""event"",""trial"",""time""
""fullscreenexit"",""9"",""30613""
","","","","","","982","images/sofa1.png","","","memory_trial","3","maybe_new",""
"html-keyboard-response","85","299691","0.0-18.0-0.21","4586","approach_avoid_sv1","""event"",""trial"",""time""
""fullscreenenter"",""1"",""2188""
""fullscreenexit"",""9"",""30613""
""blur"",""9"",""33473""
""focus"",""9"",""60291""
","""event"",""trial"",""time""
""blur"",""9"",""33473""
","""event"",""trial"",""time""
""focus"",""9"",""60291""
","""event"",""trial"",""time""
""fullscreenenter"",""1"",""2188""
","""event"",""trial"",""time""
""fullscreenexit"",""9"",""30613""
","","","","","","null","<div style=""font-size:60px;"">+</div>","null","","fixation","","",""
"memory-trial","86","301972","0.0-18.0-1.21","4586","approach_avoid_sv1","""event"",""trial"",""time""
""fullscreenenter"",""1"",""2188""
""fullscreenexit"",""9"",""30613""
""blur"",""9"",""33473""
""focus"",""9"",""60291""
","""event"",""trial"",""time""
""blur"",""9"",""33473""
","""event"",""trial"",""time""
""focus"",""9"",""60291""
","""event"",""trial"",""time""
""fullscreenenter"",""1"",""2188""
","""event"",""trial"",""time""
""fullscreenexit"",""9"",""30613""
","","","","","","1277.9000000059605","images/straw8.png","","","memory_trial","2","maybe_old",""
"html-keyboard-response","87","302477","0.0-18.0-0.22","4586","approach_avoid_sv1","""event"",""trial"",""time""
""fullscreenenter"",""1"",""2188""
""fullscreenexit"",""9"",""30613""
""blur"",""9"",""33473""
""focus"",""9"",""60291""
","""event"",""trial"",""time""
""blur"",""9"",""33473""
","""event"",""trial"",""time""
""focus"",""9"",""60291""
","""event"",""trial"",""time""
""fullscreenenter"",""1"",""2188""
","""event"",""trial"",""time""
""fullscreenexit"",""9"",""30613""
","","","","","","null","<div style=""font-size:60px;"">+</div>","null","","fixation","","",""
"memory-trial","88","304603","0.0-18.0-1.22","4586","approach_avoid_sv1","""event"",""trial"",""time""
""fullscreenenter"",""1"",""2188""
""fullscreenexit"",""9"",""30613""
""blur"",""9"",""33473""
""focus"",""9"",""60291""
","""event"",""trial"",""time""
""blur"",""9"",""33473""
","""event"",""trial"",""time""
""focus"",""9"",""60291""
","""event"",""trial"",""time""
""fullscreenenter"",""1"",""2188""
","""event"",""trial"",""time""
""fullscreenexit"",""9"",""30613""
","","","","","","1116.5","images/sheep4.png","","","memory_trial","2","maybe_old",""
"html-keyboard-response","89","305107","0.0-18.0-0.23","4586","approach_avoid_sv1","""event"",""trial"",""time""
""fullscreenenter"",""1"",""2188""
""fullscreenexit"",""9"",""30613""
""blur"",""9"",""33473""
""focus"",""9"",""60291""
","""event"",""trial"",""time""
""blur"",""9"",""33473""
","""event"",""trial"",""time""
""focus"",""9"",""60291""
","""event"",""trial"",""time""
""fullscreenenter"",""1"",""2188""
","""event"",""trial"",""time""
""fullscreenexit"",""9"",""30613""
","","","","","","null","<div style=""font-size:60px;"">+</div>","null","","fixation","","",""
"memory-trial","90","307513","0.0-18.0-1.23","4586","approach_avoid_sv1","""event"",""trial"",""time""
""fullscreenenter"",""1"",""2188""
""fullscreenexit"",""9"",""30613""
""blur"",""9"",""33473""
""focus"",""9"",""60291""
","""event"",""trial"",""time""
""blur"",""9"",""33473""
","""event"",""trial"",""time""
""focus"",""9"",""60291""
","""event"",""trial"",""time""
""fullscreenenter"",""1"",""2188""
","""event"",""trial"",""time""
""fullscreenexit"",""9"",""30613""
","","","","","","1398.300000011921","images/train8.png","","","memory_trial","1","definitely_old",""
"html-keyboard-response","91","308019","0.0-18.0-0.24","4586","approach_avoid_sv1","""event"",""trial"",""time""
""fullscreenenter"",""1"",""2188""
""fullscreenexit"",""9"",""30613""
""blur"",""9"",""33473""
""focus"",""9"",""60291""
","""event"",""trial"",""time""
""blur"",""9"",""33473""
","""event"",""trial"",""time""
""focus"",""9"",""60291""
","""event"",""trial"",""time""
""fullscreenenter"",""1"",""2188""
","""event"",""trial"",""time""
""fullscreenexit"",""9"",""30613""
","","","","","","null","<div style=""font-size:60px;"">+</div>","null","","fixation","","",""
"memory-trial","92","310334","0.0-18.0-1.24","4586","approach_avoid_sv1","""event"",""trial"",""time""
""fullscreenenter"",""1"",""2188""
""fullscreenexit"",""9"",""30613""
""blur"",""9"",""33473""
""focus"",""9"",""60291""
","""event"",""trial"",""time""
""blur"",""9"",""33473""
","""event"",""trial"",""time""
""focus"",""9"",""60291""
","""event"",""trial"",""time""
""fullscreenenter"",""1"",""2188""
","""event"",""trial"",""time""
""fullscreenexit"",""9"",""30613""
","","","","","","1302.1000000238419","images/bed3.png","","","memory_trial","1","definitely_old",""
"html-keyboard-response","93","310844","0.0-18.0-0.25","4586","approach_avoid_sv1","""event"",""trial"",""time""
""fullscreenenter"",""1"",""2188""
""fullscreenexit"",""9"",""30613""
""blur"",""9"",""33473""
""focus"",""9"",""60291""
","""event"",""trial"",""time""
""blur"",""9"",""33473""
","""event"",""trial"",""time""
""focus"",""9"",""60291""
","""event"",""trial"",""time""
""fullscreenenter"",""1"",""2188""
","""event"",""trial"",""time""
""fullscreenexit"",""9"",""30613""
","","","","","","null","<div style=""font-size:60px;"">+</div>","null","","fixation","","",""
"memory-trial","94","313881","0.0-18.0-1.25","4586","approach_avoid_sv1","""event"",""trial"",""time""
""fullscreenenter"",""1"",""2188""
""fullscreenexit"",""9"",""30613""
""blur"",""9"",""33473""
""focus"",""9"",""60291""
","""event"",""trial"",""time""
""blur"",""9"",""33473""
","""event"",""trial"",""time""
""focus"",""9"",""60291""
","""event"",""trial"",""time""
""fullscreenenter"",""1"",""2188""
","""event"",""trial"",""time""
""fullscreenexit"",""9"",""30613""
","","","","","","2021.5999999940395","images/truck6.png","","","memory_trial","3","maybe_new",""
"html-keyboard-response","95","314387","0.0-18.0-0.26","4586","approach_avoid_sv1","""event"",""trial"",""time""
""fullscreenenter"",""1"",""2188""
""fullscreenexit"",""9"",""30613""
""blur"",""9"",""33473""
""focus"",""9"",""60291""
","""event"",""trial"",""time""
""blur"",""9"",""33473""
","""event"",""trial"",""time""
""focus"",""9"",""60291""
","""event"",""trial"",""time""
""fullscreenenter"",""1"",""2188""
","""event"",""trial"",""time""
""fullscreenexit"",""9"",""30613""
","","","","","","null","<div style=""font-size:60px;"">+</div>","null","","fixation","","",""
"memory-trial","96","316369","0.0-18.0-1.26","4586","approach_avoid_sv1","""event"",""trial"",""time""
""fullscreenenter"",""1"",""2188""
""fullscreenexit"",""9"",""30613""
""blur"",""9"",""33473""
""focus"",""9"",""60291""
","""event"",""trial"",""time""
""blur"",""9"",""33473""
","""event"",""trial"",""time""
""focus"",""9"",""60291""
","""event"",""trial"",""time""
""fullscreenenter"",""1"",""2188""
","""event"",""trial"",""time""
""fullscreenexit"",""9"",""30613""
","","","","","","974","images/train5.png","","","memory_trial","3","maybe_new",""
"html-keyboard-response","97","316876","0.0-18.0-0.27","4586","approach_avoid_sv1","""event"",""trial"",""time""
""fullscreenenter"",""1"",""2188""
""fullscreenexit"",""9"",""30613""
""blur"",""9"",""33473""
""focus"",""9"",""60291""
","""event"",""trial"",""time""
""blur"",""9"",""33473""
","""event"",""trial"",""time""
""focus"",""9"",""60291""
","""event"",""trial"",""time""
""fullscreenenter"",""1"",""2188""
","""event"",""trial"",""time""
""fullscreenexit"",""9"",""30613""
","","","","","","null","<div style=""font-size:60px;"">+</div>","null","","fixation","","",""
"memory-trial","98","318988","0.0-18.0-1.27","4586","approach_avoid_sv1","""event"",""trial"",""time""
""fullscreenenter"",""1"",""2188""
""fullscreenexit"",""9"",""30613""
""blur"",""9"",""33473""
""focus"",""9"",""60291""
","""event"",""trial"",""time""
""blur"",""9"",""33473""
","""event"",""trial"",""time""
""focus"",""9"",""60291""
","""event"",""trial"",""time""
""fullscreenenter"",""1"",""2188""
","""event"",""trial"",""time""
""fullscreenexit"",""9"",""30613""
","","","","","","1110","images/straw4.png","","","memory_trial","2","maybe_old",""
"html-keyboard-response","99","319506","0.0-18.0-0.28","4586","approach_avoid_sv1","""event"",""trial"",""time""
""fullscreenenter"",""1"",""2188""
""fullscreenexit"",""9"",""30613""
""blur"",""9"",""33473""
""focus"",""9"",""60291""
","""event"",""trial"",""time""
""blur"",""9"",""33473""
","""event"",""trial"",""time""
""focus"",""9"",""60291""
","""event"",""trial"",""time""
""fullscreenenter"",""1"",""2188""
","""event"",""trial"",""time""
""fullscreenexit"",""9"",""30613""
","","","","","","null","<div style=""font-size:60px;"">+</div>","null","","fixation","","",""
"memory-trial","100","321548","0.0-18.0-1.28","4586","approach_avoid_sv1","""event"",""trial"",""time""
""fullscreenenter"",""1"",""2188""
""fullscreenexit"",""9"",""30613""
""blur"",""9"",""33473""
""focus"",""9"",""60291""
","""event"",""trial"",""time""
""blur"",""9"",""33473""
","""event"",""trial"",""time""
""focus"",""9"",""60291""
","""event"",""trial"",""time""
""fullscreenenter"",""1"",""2188""
","""event"",""trial"",""time""
""fullscreenexit"",""9"",""30613""
","","","","","","1039.0999999940395","images/orange3.png","","","memory_trial","2","maybe_old",""
"html-keyboard-response","101","322052","0.0-18.0-0.29","4586","approach_avoid_sv1","""event"",""trial"",""time""
""fullscreenenter"",""1"",""2188""
""fullscreenexit"",""9"",""30613""
""blur"",""9"",""33473""
""focus"",""9"",""60291""
","""event"",""trial"",""time""
""blur"",""9"",""33473""
","""event"",""trial"",""time""
""focus"",""9"",""60291""
","""event"",""trial"",""time""
""fullscreenenter"",""1"",""2188""
","""event"",""trial"",""time""
""fullscreenexit"",""9"",""30613""
","","","","","","null","<div style=""font-size:60px;"">+</div>","null","","fixation","","",""
"memory-trial","102","324235","0.0-18.0-1.29","4586","approach_avoid_sv1","""event"",""trial"",""time""
""fullscreenenter"",""1"",""2188""
""fullscreenexit"",""9"",""30613""
""blur"",""9"",""33473""
""focus"",""9"",""60291""
","""event"",""trial"",""time""
""blur"",""9"",""33473""
","""event"",""trial"",""time""
""focus"",""9"",""60291""
","""event"",""trial"",""time""
""fullscreenenter"",""1"",""2188""
","""event"",""trial"",""time""
""fullscreenexit"",""9"",""30613""
","","","","","","1181.0999999940395","images/bush7.png","","","memory_trial","1","definitely_old",""
"html-keyboard-response","103","324754","0.0-18.0-0.30","4586","approach_avoid_sv1","""event"",""trial"",""time""
""fullscreenenter"",""1"",""2188""
""fullscreenexit"",""9"",""30613""
""blur"",""9"",""33473""
""focus"",""9"",""60291""
","""event"",""trial"",""time""
""blur"",""9"",""33473""
","""event"",""trial"",""time""
""focus"",""9"",""60291""
","""event"",""trial"",""time""
""fullscreenenter"",""1"",""2188""
","""event"",""trial"",""time""
""fullscreenexit"",""9"",""30613""
","","","","","","null","<div style=""font-size:60px;"">+</div>","null","","fixation","","",""
"memory-trial","104","326988","0.0-18.0-1.30","4586","approach_avoid_sv1","""event"",""trial"",""time""
""fullscreenenter"",""1"",""2188""
""fullscreenexit"",""9"",""30613""
""blur"",""9"",""33473""
""focus"",""9"",""60291""
","""event"",""trial"",""time""
""blur"",""9"",""33473""
","""event"",""trial"",""time""
""focus"",""9"",""60291""
","""event"",""trial"",""time""
""fullscreenenter"",""1"",""2188""
","""event"",""trial"",""time""
""fullscreenexit"",""9"",""30613""
","","","","","","1231.2999999821186","images/dog4.png","","","memory_trial","2","maybe_old",""
"html-keyboard-response","105","327491","0.0-18.0-0.31","4586","approach_avoid_sv1","""event"",""trial"",""time""
""fullscreenenter"",""1"",""2188""
""fullscreenexit"",""9"",""30613""
""blur"",""9"",""33473""
""focus"",""9"",""60291""
","""event"",""trial"",""time""
""blur"",""9"",""33473""
","""event"",""trial"",""time""
""focus"",""9"",""60291""
","""event"",""trial"",""time""
""fullscreenenter"",""1"",""2188""
","""event"",""trial"",""time""
""fullscreenexit"",""9"",""30613""
","","","","","","null","<div style=""font-size:60px;"">+</div>","null","","fixation","","",""
"memory-trial","106","329700","0.0-18.0-1.31","4586","approach_avoid_sv1","""event"",""trial"",""time""
""fullscreenenter"",""1"",""2188""
""fullscreenexit"",""9"",""30613""
""blur"",""9"",""33473""
""focus"",""9"",""60291""
","""event"",""trial"",""time""
""blur"",""9"",""33473""
","""event"",""trial"",""time""
""focus"",""9"",""60291""
","""event"",""trial"",""time""
""fullscreenenter"",""1"",""2188""
","""event"",""trial"",""time""
""fullscreenexit"",""9"",""30613""
","","","","","","1205.4000000059605","images/sheep3.png","","","memory_trial","3","maybe_new",""
"html-keyboard-response","107","330215","0.0-18.0-0.32","4586","approach_avoid_sv1","""event"",""trial"",""time""
""fullscreenenter"",""1"",""2188""
""fullscreenexit"",""9"",""30613""
""blur"",""9"",""33473""
""focus"",""9"",""60291""
","""event"",""trial"",""time""
""blur"",""9"",""33473""
","""event"",""trial"",""time""
""focus"",""9"",""60291""
","""event"",""trial"",""time""
""fullscreenenter"",""1"",""2188""
","""event"",""trial"",""time""
""fullscreenexit"",""9"",""30613""
","","","","","","null","<div style=""font-size:60px;"">+</div>","null","","fixation","","",""
"memory-trial","108","332461","0.0-18.0-1.32","4586","approach_avoid_sv1","""event"",""trial"",""time""
""fullscreenenter"",""1"",""2188""
""fullscreenexit"",""9"",""30613""
""blur"",""9"",""33473""
""focus"",""9"",""60291""
","""event"",""trial"",""time""
""blur"",""9"",""33473""
","""event"",""trial"",""time""
""focus"",""9"",""60291""
","""event"",""trial"",""time""
""fullscreenenter"",""1"",""2188""
","""event"",""trial"",""time""
""fullscreenexit"",""9"",""30613""
","","","","","","1233.7000000178814","images/horse2.png","","","memory_trial","1","definitely_old",""
"html-keyboard-response","109","332963","0.0-18.0-0.33","4586","approach_avoid_sv1","""event"",""trial"",""time""
""fullscreenenter"",""1"",""2188""
""fullscreenexit"",""9"",""30613""
""blur"",""9"",""33473""
""focus"",""9"",""60291""
","""event"",""trial"",""time""
""blur"",""9"",""33473""
","""event"",""trial"",""time""
""focus"",""9"",""60291""
","""event"",""trial"",""time""
""fullscreenenter"",""1"",""2188""
","""event"",""trial"",""time""
""fullscreenexit"",""9"",""30613""
","","","","","","null","<div style=""font-size:60px;"">+</div>","null","","fixation","","",""
"memory-trial","110","335139","0.0-18.0-1.33","4586","approach_avoid_sv1","""event"",""trial"",""time""
""fullscreenenter"",""1"",""2188""
""fullscreenexit"",""9"",""30613""
""blur"",""9"",""33473""
""focus"",""9"",""60291""
","""event"",""trial"",""time""
""blur"",""9"",""33473""
","""event"",""trial"",""time""
""focus"",""9"",""60291""
","""event"",""trial"",""time""
""fullscreenenter"",""1"",""2188""
","""event"",""trial"",""time""
""fullscreenexit"",""9"",""30613""
","","","","","","1174.2000000178814","images/flower2.png","","","memory_trial","3","maybe_new",""
"html-keyboard-response","111","335657","0.0-18.0-0.34","4586","approach_avoid_sv1","""event"",""trial"",""time""
""fullscreenenter"",""1"",""2188""
""fullscreenexit"",""9"",""30613""
""blur"",""9"",""33473""
""focus"",""9"",""60291""
","""event"",""trial"",""time""
""blur"",""9"",""33473""
","""event"",""trial"",""time""
""focus"",""9"",""60291""
","""event"",""trial"",""time""
""fullscreenenter"",""1"",""2188""
","""event"",""trial"",""time""
""fullscreenexit"",""9"",""30613""
","","","","","","null","<div style=""font-size:60px;"">+</div>","null","","fixation","","",""
"memory-trial","112","337411","0.0-18.0-1.34","4586","approach_avoid_sv1","""event"",""trial"",""time""
""fullscreenenter"",""1"",""2188""
""fullscreenexit"",""9"",""30613""
""blur"",""9"",""33473""
""focus"",""9"",""60291""
","""event"",""trial"",""time""
""blur"",""9"",""33473""
","""event"",""trial"",""time""
""focus"",""9"",""60291""
","""event"",""trial"",""time""
""fullscreenenter"",""1"",""2188""
","""event"",""trial"",""time""
""fullscreenexit"",""9"",""30613""
","","","","","","751.9000000059605","images/rodent3.png","","","memory_trial","3","maybe_new",""
"html-keyboard-response","113","337915","0.0-18.0-0.35","4586","approach_avoid_sv1","""event"",""trial"",""time""
""fullscreenenter"",""1"",""2188""
""fullscreenexit"",""9"",""30613""
""blur"",""9"",""33473""
""focus"",""9"",""60291""
","""event"",""trial"",""time""
""blur"",""9"",""33473""
","""event"",""trial"",""time""
""focus"",""9"",""60291""
","""event"",""trial"",""time""
""fullscreenenter"",""1"",""2188""
","""event"",""trial"",""time""
""fullscreenexit"",""9"",""30613""
","","","","","","null","<div style=""font-size:60px;"">+</div>","null","","fixation","","",""
"memory-trial","114","340240","0.0-18.0-1.35","4586","approach_avoid_sv1","""event"",""trial"",""time""
""fullscreenenter"",""1"",""2188""
""fullscreenexit"",""9"",""30613""
""blur"",""9"",""33473""
""focus"",""9"",""60291""
","""event"",""trial"",""time""
""blur"",""9"",""33473""
","""event"",""trial"",""time""
""focus"",""9"",""60291""
","""event"",""trial"",""time""
""fullscreenenter"",""1"",""2188""
","""event"",""trial"",""time""
""fullscreenexit"",""9"",""30613""
","","","","","","1309.699999988079","images/dog1.png","","","memory_trial","1","definitely_old",""
"html-keyboard-response","115","340752","0.0-18.0-0.36","4586","approach_avoid_sv1","""event"",""trial"",""time""
""fullscreenenter"",""1"",""2188""
""fullscreenexit"",""9"",""30613""
""blur"",""9"",""33473""
""focus"",""9"",""60291""
","""event"",""trial"",""time""
""blur"",""9"",""33473""
","""event"",""trial"",""time""
""focus"",""9"",""60291""
","""event"",""trial"",""time""
""fullscreenenter"",""1"",""2188""
","""event"",""trial"",""time""
""fullscreenexit"",""9"",""30613""
","","","","","","null","<div style=""font-size:60px;"">+</div>","null","","fixation","","",""
"memory-trial","116","343075","0.0-18.0-1.36","4586","approach_avoid_sv1","""event"",""trial"",""time""
""fullscreenenter"",""1"",""2188""
""fullscreenexit"",""9"",""30613""
""blur"",""9"",""33473""
""focus"",""9"",""60291""
","""event"",""trial"",""time""
""blur"",""9"",""33473""
","""event"",""trial"",""time""
""focus"",""9"",""60291""
","""event"",""trial"",""time""
""fullscreenenter"",""1"",""2188""
","""event"",""trial"",""time""
""fullscreenexit"",""9"",""30613""
","","","","","","1321","images/plane3.png","","","memory_trial","3","maybe_new",""
"html-keyboard-response","117","343580","0.0-18.0-0.37","4586","approach_avoid_sv1","""event"",""trial"",""time""
""fullscreenenter"",""1"",""2188""
""fullscreenexit"",""9"",""30613""
""blur"",""9"",""33473""
""focus"",""9"",""60291""
","""event"",""trial"",""time""
""blur"",""9"",""33473""
","""event"",""trial"",""time""
""focus"",""9"",""60291""
","""event"",""trial"",""time""
""fullscreenenter"",""1"",""2188""
","""event"",""trial"",""time""
""fullscreenexit"",""9"",""30613""
","","","","","","null","<div style=""font-size:60px;"">+</div>","null","","fixation","","",""
"memory-trial","118","345712","0.0-18.0-1.37","4586","approach_avoid_sv1","""event"",""trial"",""time""
""fullscreenenter"",""1"",""2188""
""fullscreenexit"",""9"",""30613""
""blur"",""9"",""33473""
""focus"",""9"",""60291""
","""event"",""trial"",""time""
""blur"",""9"",""33473""
","""event"",""trial"",""time""
""focus"",""9"",""60291""
","""event"",""trial"",""time""
""fullscreenenter"",""1"",""2188""
","""event"",""trial"",""time""
""fullscreenexit"",""9"",""30613""
","","","","","","1116.9000000059605","images/plane1.png","","","memory_trial","4","definitely_new",""
"html-keyboard-response","119","346225","0.0-18.0-0.38","4586","approach_avoid_sv1","""event"",""trial"",""time""
""fullscreenenter"",""1"",""2188""
""fullscreenexit"",""9"",""30613""
""blur"",""9"",""33473""
""focus"",""9"",""60291""
","""event"",""trial"",""time""
""blur"",""9"",""33473""
","""event"",""trial"",""time""
""focus"",""9"",""60291""
","""event"",""trial"",""time""
""fullscreenenter"",""1"",""2188""
","""event"",""trial"",""time""
""fullscreenexit"",""9"",""30613""
","","","","","","null","<div style=""font-size:60px;"">+</div>","null","","fixation","","",""
"memory-trial","120","348284","0.0-18.0-1.38","4586","approach_avoid_sv1","""event"",""trial"",""time""
""fullscreenenter"",""1"",""2188""
""fullscreenexit"",""9"",""30613""
""blur"",""9"",""33473""
""focus"",""9"",""60291""
","""event"",""trial"",""time""
""blur"",""9"",""33473""
","""event"",""trial"",""time""
""focus"",""9"",""60291""
","""event"",""trial"",""time""
""fullscreenenter"",""1"",""2188""
","""event"",""trial"",""time""
""fullscreenexit"",""9"",""30613""
","","","","","","1055.5999999940395","images/sofa8.png","","","memory_trial","3","maybe_new",""
"html-keyboard-response","121","348787","0.0-18.0-0.39","4586","approach_avoid_sv1","""event"",""trial"",""time""
""fullscreenenter"",""1"",""2188""
""fullscreenexit"",""9"",""30613""
""blur"",""9"",""33473""
""focus"",""9"",""60291""
","""event"",""trial"",""time""
""blur"",""9"",""33473""
","""event"",""trial"",""time""
""focus"",""9"",""60291""
","""event"",""trial"",""time""
""fullscreenenter"",""1"",""2188""
","""event"",""trial"",""time""
""fullscreenexit"",""9"",""30613""
","","","","","","null","<div style=""font-size:60px;"">+</div>","null","","fixation","","",""
"memory-trial","122","350779","0.0-18.0-1.39","4586","approach_avoid_sv1","""event"",""trial"",""time""
""fullscreenenter"",""1"",""2188""
""fullscreenexit"",""9"",""30613""
""blur"",""9"",""33473""
""focus"",""9"",""60291""
","""event"",""trial"",""time""
""blur"",""9"",""33473""
","""event"",""trial"",""time""
""focus"",""9"",""60291""
","""event"",""trial"",""time""
""fullscreenenter"",""1"",""2188""
","""event"",""trial"",""time""
""fullscreenexit"",""9"",""30613""
","","","","","","990.3999999761581","images/cactus1.png","","","memory_trial","1","definitely_old",""
"html-keyboard-response","123","351284","0.0-18.0-0.40","4586","approach_avoid_sv1","""event"",""trial"",""time""
""fullscreenenter"",""1"",""2188""
""fullscreenexit"",""9"",""30613""
""blur"",""9"",""33473""
""focus"",""9"",""60291""
","""event"",""trial"",""time""
""blur"",""9"",""33473""
","""event"",""trial"",""time""
""focus"",""9"",""60291""
","""event"",""trial"",""time""
""fullscreenenter"",""1"",""2188""
","""event"",""trial"",""time""
""fullscreenexit"",""9"",""30613""
","","","","","","null","<div style=""font-size:60px;"">+</div>","null","","fixation","","",""
"memory-trial","124","352956","0.0-18.0-1.40","4586","approach_avoid_sv1","""event"",""trial"",""time""
""fullscreenenter"",""1"",""2188""
""fullscreenexit"",""9"",""30613""
""blur"",""9"",""33473""
""focus"",""9"",""60291""
","""event"",""trial"",""time""
""blur"",""9"",""33473""
","""event"",""trial"",""time""
""focus"",""9"",""60291""
","""event"",""trial"",""time""
""fullscreenenter"",""1"",""2188""
","""event"",""trial"",""time""
""fullscreenexit"",""9"",""30613""
","","","","","","669.3000000119209","images/horse8.png","","","memory_trial","1","definitely_old",""
"html-keyboard-response","125","353469","0.0-18.0-0.41","4586","approach_avoid_sv1","""event"",""trial"",""time""
""fullscreenenter"",""1"",""2188""
""fullscreenexit"",""9"",""30613""
""blur"",""9"",""33473""
""focus"",""9"",""60291""
","""event"",""trial"",""time""
""blur"",""9"",""33473""
","""event"",""trial"",""time""
""focus"",""9"",""60291""
","""event"",""trial"",""time""
""fullscreenenter"",""1"",""2188""
","""event"",""trial"",""time""
""fullscreenexit"",""9"",""30613""
","","","","","","null","<div style=""font-size:60px;"">+</div>","null","","fixation","","",""
"memory-trial","126","355782","0.0-18.0-1.41","4586","approach_avoid_sv1","""event"",""trial"",""time""
""fullscreenenter"",""1"",""2188""
""fullscreenexit"",""9"",""30613""
""blur"",""9"",""33473""
""focus"",""9"",""60291""
","""event"",""trial"",""time""
""blur"",""9"",""33473""
","""event"",""trial"",""time""
""focus"",""9"",""60291""
","""event"",""trial"",""time""
""fullscreenenter"",""1"",""2188""
","""event"",""trial"",""time""
""fullscreenexit"",""9"",""30613""
","","","","","","1300.0999999940395","images/cat3.png","","","memory_trial","2","maybe_old",""
"html-button-response","127","396570","0.0-18.0-2.41-0.41","4586","approach_avoid_sv1","""event"",""trial"",""time""
""fullscreenenter"",""1"",""2188""
""fullscreenexit"",""9"",""30613""
""blur"",""9"",""33473""
""focus"",""9"",""60291""
","""event"",""trial"",""time""
""blur"",""9"",""33473""
","""event"",""trial"",""time""
""focus"",""9"",""60291""
","""event"",""trial"",""time""
""fullscreenenter"",""1"",""2188""
","""event"",""trial"",""time""
""fullscreenexit"",""9"",""30613""
","","","","","","40787.90000000596","<p> Take a break! </p><p> Click the button to continue. </p>","0","","break","","",""
"html-keyboard-response","128","397075","0.0-18.0-0.42","4586","approach_avoid_sv1","""event"",""trial"",""time""
""fullscreenenter"",""1"",""2188""
""fullscreenexit"",""9"",""30613""
""blur"",""9"",""33473""
""focus"",""9"",""60291""
","""event"",""trial"",""time""
""blur"",""9"",""33473""
","""event"",""trial"",""time""
""focus"",""9"",""60291""
","""event"",""trial"",""time""
""fullscreenenter"",""1"",""2188""
","""event"",""trial"",""time""
""fullscreenexit"",""9"",""30613""
","","","","","","null","<div style=""font-size:60px;"">+</div>","null","","fixation","","",""
"memory-trial","129","399043","0.0-18.0-1.42","4586","approach_avoid_sv1","""event"",""trial"",""time""
""fullscreenenter"",""1"",""2188""
""fullscreenexit"",""9"",""30613""
""blur"",""9"",""33473""
""focus"",""9"",""60291""
","""event"",""trial"",""time""
""blur"",""9"",""33473""
","""event"",""trial"",""time""
""focus"",""9"",""60291""
","""event"",""trial"",""time""
""fullscreenenter"",""1"",""2188""
","""event"",""trial"",""time""
""fullscreenexit"",""9"",""30613""
","","","","","","965","images/rabbit4.png","","","memory_trial","3","maybe_new",""
"html-keyboard-response","130","399547","0.0-18.0-0.43","4586","approach_avoid_sv1","""event"",""trial"",""time""
""fullscreenenter"",""1"",""2188""
""fullscreenexit"",""9"",""30613""
""blur"",""9"",""33473""
""focus"",""9"",""60291""
","""event"",""trial"",""time""
""blur"",""9"",""33473""
","""event"",""trial"",""time""
""focus"",""9"",""60291""
","""event"",""trial"",""time""
""fullscreenenter"",""1"",""2188""
","""event"",""trial"",""time""
""fullscreenexit"",""9"",""30613""
","","","","","","null","<div style=""font-size:60px;"">+</div>","null","","fixation","","",""
"memory-trial","131","401571","0.0-18.0-1.43","4586","approach_avoid_sv1","""event"",""trial"",""time""
""fullscreenenter"",""1"",""2188""
""fullscreenexit"",""9"",""30613""
""blur"",""9"",""33473""
""focus"",""9"",""60291""
","""event"",""trial"",""time""
""blur"",""9"",""33473""
","""event"",""trial"",""time""
""focus"",""9"",""60291""
","""event"",""trial"",""time""
""fullscreenenter"",""1"",""2188""
","""event"",""trial"",""time""
""fullscreenexit"",""9"",""30613""
","","","","","","1021.5999999940395","images/cat2.png","","","memory_trial","2","maybe_old",""
"html-keyboard-response","132","402075","0.0-18.0-0.44","4586","approach_avoid_sv1","""event"",""trial"",""time""
""fullscreenenter"",""1"",""2188""
""fullscreenexit"",""9"",""30613""
""blur"",""9"",""33473""
""focus"",""9"",""60291""
","""event"",""trial"",""time""
""blur"",""9"",""33473""
","""event"",""trial"",""time""
""focus"",""9"",""60291""
","""event"",""trial"",""time""
""fullscreenenter"",""1"",""2188""
","""event"",""trial"",""time""
""fullscreenexit"",""9"",""30613""
","","","","","","null","<div style=""font-size:60px;"">+</div>","null","","fixation","","",""
"memory-trial","133","404035","0.0-18.0-1.44","4586","approach_avoid_sv1","""event"",""trial"",""time""
""fullscreenenter"",""1"",""2188""
""fullscreenexit"",""9"",""30613""
""blur"",""9"",""33473""
""focus"",""9"",""60291""
","""event"",""trial"",""time""
""blur"",""9"",""33473""
","""event"",""trial"",""time""
""focus"",""9"",""60291""
","""event"",""trial"",""time""
""fullscreenenter"",""1"",""2188""
","""event"",""trial"",""time""
""fullscreenexit"",""9"",""30613""
","","","","","","957.9000000059605","images/rabbit7.png","","","memory_trial","3","maybe_new",""
"html-keyboard-response","134","404538","0.0-18.0-0.45","4586","approach_avoid_sv1","""event"",""trial"",""time""
""fullscreenenter"",""1"",""2188""
""fullscreenexit"",""9"",""30613""
""blur"",""9"",""33473""
""focus"",""9"",""60291""
","""event"",""trial"",""time""
""blur"",""9"",""33473""
","""event"",""trial"",""time""
""focus"",""9"",""60291""
","""event"",""trial"",""time""
""fullscreenenter"",""1"",""2188""
","""event"",""trial"",""time""
""fullscreenexit"",""9"",""30613""
","","","","","","null","<div style=""font-size:60px;"">+</div>","null","","fixation","","",""
"memory-trial","135","407267","0.0-18.0-1.45","4586","approach_avoid_sv1","""event"",""trial"",""time""
""fullscreenenter"",""1"",""2188""
""fullscreenexit"",""9"",""30613""
""blur"",""9"",""33473""
""focus"",""9"",""60291""
","""event"",""trial"",""time""
""blur"",""9"",""33473""
","""event"",""trial"",""time""
""focus"",""9"",""60291""
","""event"",""trial"",""time""
""fullscreenenter"",""1"",""2188""
","""event"",""trial"",""time""
""fullscreenexit"",""9"",""30613""
","","","","","","1725.800000011921","images/plane8.png","","","memory_trial","3","maybe_new",""
"html-keyboard-response","136","407770","0.0-18.0-0.46","4586","approach_avoid_sv1","""event"",""trial"",""time""
""fullscreenenter"",""1"",""2188""
""fullscreenexit"",""9"",""30613""
""blur"",""9"",""33473""
""focus"",""9"",""60291""
","""event"",""trial"",""time""
""blur"",""9"",""33473""
","""event"",""trial"",""time""
""focus"",""9"",""60291""
","""event"",""trial"",""time""
""fullscreenenter"",""1"",""2188""
","""event"",""trial"",""time""
""fullscreenexit"",""9"",""30613""
","","","","","","null","<div style=""font-size:60px;"">+</div>","null","","fixation","","",""
"memory-trial","137","410083","0.0-18.0-1.46","4586","approach_avoid_sv1","""event"",""trial"",""time""
""fullscreenenter"",""1"",""2188""
""fullscreenexit"",""9"",""30613""
""blur"",""9"",""33473""
""focus"",""9"",""60291""
","""event"",""trial"",""time""
""blur"",""9"",""33473""
","""event"",""trial"",""time""
""focus"",""9"",""60291""
","""event"",""trial"",""time""
""fullscreenenter"",""1"",""2188""
","""event"",""trial"",""time""
""fullscreenexit"",""9"",""30613""
","","","","","","1310","images/rabbit6.png","","","memory_trial","4","definitely_new",""
"html-keyboard-response","138","410587","0.0-18.0-0.47","4586","approach_avoid_sv1","""event"",""trial"",""time""
""fullscreenenter"",""1"",""2188""
""fullscreenexit"",""9"",""30613""
""blur"",""9"",""33473""
""focus"",""9"",""60291""
","""event"",""trial"",""time""
""blur"",""9"",""33473""
","""event"",""trial"",""time""
""focus"",""9"",""60291""
","""event"",""trial"",""time""
""fullscreenenter"",""1"",""2188""
","""event"",""trial"",""time""
""fullscreenexit"",""9"",""30613""
","","","","","","null","<div style=""font-size:60px;"">+</div>","null","","fixation","","",""
"memory-trial","139","413123","0.0-18.0-1.47","4586","approach_avoid_sv1","""event"",""trial"",""time""
""fullscreenenter"",""1"",""2188""
""fullscreenexit"",""9"",""30613""
""blur"",""9"",""33473""
""focus"",""9"",""60291""
","""event"",""trial"",""time""
""blur"",""9"",""33473""
","""event"",""trial"",""time""
""focus"",""9"",""60291""
","""event"",""trial"",""time""
""fullscreenenter"",""1"",""2188""
","""event"",""trial"",""time""
""fullscreenexit"",""9"",""30613""
","","","","","","1533.5999999940395","images/banana1.png","","","memory_trial","2","maybe_old",""
"html-keyboard-response","140","413627","0.0-18.0-0.48","4586","approach_avoid_sv1","""event"",""trial"",""time""
""fullscreenenter"",""1"",""2188""
""fullscreenexit"",""9"",""30613""
""blur"",""9"",""33473""
""focus"",""9"",""60291""
","""event"",""trial"",""time""
""blur"",""9"",""33473""
","""event"",""trial"",""time""
""focus"",""9"",""60291""
","""event"",""trial"",""time""
""fullscreenenter"",""1"",""2188""
","""event"",""trial"",""time""
""fullscreenexit"",""9"",""30613""
","","","","","","null","<div style=""font-size:60px;"">+</div>","null","","fixation","","",""
"memory-trial","141","416067","0.0-18.0-1.48","4586","approach_avoid_sv1","""event"",""trial"",""time""
""fullscreenenter"",""1"",""2188""
""fullscreenexit"",""9"",""30613""
""blur"",""9"",""33473""
""focus"",""9"",""60291""
","""event"",""trial"",""time""
""blur"",""9"",""33473""
","""event"",""trial"",""time""
""focus"",""9"",""60291""
","""event"",""trial"",""time""
""fullscreenenter"",""1"",""2188""
","""event"",""trial"",""time""
""fullscreenexit"",""9"",""30613""
","","","","","","1436.800000011921","images/chair7.png","","","memory_trial","2","maybe_old",""
"html-keyboard-response","142","416571","0.0-18.0-0.49","4586","approach_avoid_sv1","""event"",""trial"",""time""
""fullscreenenter"",""1"",""2188""
""fullscreenexit"",""9"",""30613""
""blur"",""9"",""33473""
""focus"",""9"",""60291""
","""event"",""trial"",""time""
""blur"",""9"",""33473""
","""event"",""trial"",""time""
""focus"",""9"",""60291""
","""event"",""trial"",""time""
""fullscreenenter"",""1"",""2188""
","""event"",""trial"",""time""
""fullscreenexit"",""9"",""30613""
","","","","","","null","<div style=""font-size:60px;"">+</div>","null","","fixation","","",""
"memory-trial","143","418534","0.0-18.0-1.49","4586","approach_avoid_sv1","""event"",""trial"",""time""
""fullscreenenter"",""1"",""2188""
""fullscreenexit"",""9"",""30613""
""blur"",""9"",""33473""
""focus"",""9"",""60291""
","""event"",""trial"",""time""
""blur"",""9"",""33473""
","""event"",""trial"",""time""
""focus"",""9"",""60291""
","""event"",""trial"",""time""
""fullscreenenter"",""1"",""2188""
","""event"",""trial"",""time""
""fullscreenexit"",""9"",""30613""
","","","","","","949.5","images/sofa4.png","","","memory_trial","3","maybe_new",""
"html-keyboard-response","144","419044","0.0-18.0-0.50","4586","approach_avoid_sv1","""event"",""trial"",""time""
""fullscreenenter"",""1"",""2188""
""fullscreenexit"",""9"",""30613""
""blur"",""9"",""33473""
""focus"",""9"",""60291""
","""event"",""trial"",""time""
""blur"",""9"",""33473""
","""event"",""trial"",""time""
""focus"",""9"",""60291""
","""event"",""trial"",""time""
""fullscreenenter"",""1"",""2188""
","""event"",""trial"",""time""
""fullscreenexit"",""9"",""30613""
","","","","","","null","<div style=""font-size:60px;"">+</div>","null","","fixation","","",""
"memory-trial","145","421211","0.0-18.0-1.50","4586","approach_avoid_sv1","""event"",""trial"",""time""
""fullscreenenter"",""1"",""2188""
""fullscreenexit"",""9"",""30613""
""blur"",""9"",""33473""
""focus"",""9"",""60291""
","""event"",""trial"",""time""
""blur"",""9"",""33473""
","""event"",""trial"",""time""
""focus"",""9"",""60291""
","""event"",""trial"",""time""
""fullscreenenter"",""1"",""2188""
","""event"",""trial"",""time""
""fullscreenexit"",""9"",""30613""
","","","","","","1164.5","images/cow4.png","","","memory_trial","2","maybe_old",""
"html-keyboard-response","146","421722","0.0-18.0-0.51","4586","approach_avoid_sv1","""event"",""trial"",""time""
""fullscreenenter"",""1"",""2188""
""fullscreenexit"",""9"",""30613""
""blur"",""9"",""33473""
""focus"",""9"",""60291""
","""event"",""trial"",""time""
""blur"",""9"",""33473""
","""event"",""trial"",""time""
""focus"",""9"",""60291""
","""event"",""trial"",""time""
""fullscreenenter"",""1"",""2188""
","""event"",""trial"",""time""
""fullscreenexit"",""9"",""30613""
","","","","","","null","<div style=""font-size:60px;"">+</div>","null","","fixation","","",""
"memory-trial","147","423771","0.0-18.0-1.51","4586","approach_avoid_sv1","""event"",""trial"",""time""
""fullscreenenter"",""1"",""2188""
""fullscreenexit"",""9"",""30613""
""blur"",""9"",""33473""
""focus"",""9"",""60291""
","""event"",""trial"",""time""
""blur"",""9"",""33473""
","""event"",""trial"",""time""
""focus"",""9"",""60291""
","""event"",""trial"",""time""
""fullscreenenter"",""1"",""2188""
","""event"",""trial"",""time""
""fullscreenexit"",""9"",""30613""
","","","","","","1046.4000000059605","images/dog6.png","","","memory_trial","2","maybe_old",""
"html-keyboard-response","148","424275","0.0-18.0-0.52","4586","approach_avoid_sv1","""event"",""trial"",""time""
""fullscreenenter"",""1"",""2188""
""fullscreenexit"",""9"",""30613""
""blur"",""9"",""33473""
""focus"",""9"",""60291""
","""event"",""trial"",""time""
""blur"",""9"",""33473""
","""event"",""trial"",""time""
""focus"",""9"",""60291""
","""event"",""trial"",""time""
""fullscreenenter"",""1"",""2188""
","""event"",""trial"",""time""
""fullscreenexit"",""9"",""30613""
","","","","","","null","<div style=""font-size:60px;"">+</div>","null","","fixation","","",""
"memory-trial","149","426749","0.0-18.0-1.52","4586","approach_avoid_sv1","""event"",""trial"",""time""
""fullscreenenter"",""1"",""2188""
""fullscreenexit"",""9"",""30613""
""blur"",""9"",""33473""
""focus"",""9"",""60291""
","""event"",""trial"",""time""
""blur"",""9"",""33473""
","""event"",""trial"",""time""
""focus"",""9"",""60291""
","""event"",""trial"",""time""
""fullscreenenter"",""1"",""2188""
","""event"",""trial"",""time""
""fullscreenexit"",""9"",""30613""
","","","","","","1469.0999999940395","images/orange2.png","","","memory_trial","2","maybe_old",""
"html-keyboard-response","150","427251","0.0-18.0-0.53","4586","approach_avoid_sv1","""event"",""trial"",""time""
""fullscreenenter"",""1"",""2188""
""fullscreenexit"",""9"",""30613""
""blur"",""9"",""33473""
""focus"",""9"",""60291""
","""event"",""trial"",""time""
""blur"",""9"",""33473""
","""event"",""trial"",""time""
""focus"",""9"",""60291""
","""event"",""trial"",""time""
""fullscreenenter"",""1"",""2188""
","""event"",""trial"",""time""
""fullscreenexit"",""9"",""30613""
","","","","","","null","<div style=""font-size:60px;"">+</div>","null","","fixation","","",""
"memory-trial","151","429692","0.0-18.0-1.53","4586","approach_avoid_sv1","""event"",""trial"",""time""
""fullscreenenter"",""1"",""2188""
""fullscreenexit"",""9"",""30613""
""blur"",""9"",""33473""
""focus"",""9"",""60291""
","""event"",""trial"",""time""
""blur"",""9"",""33473""
","""event"",""trial"",""time""
""focus"",""9"",""60291""
","""event"",""trial"",""time""
""fullscreenenter"",""1"",""2188""
","""event"",""trial"",""time""
""fullscreenexit"",""9"",""30613""
","","","","","","1436.5999999940395","images/rodent1.png","","","memory_trial","3","maybe_new",""
"html-keyboard-response","152","430195","0.0-18.0-0.54","4586","approach_avoid_sv1","""event"",""trial"",""time""
""fullscreenenter"",""1"",""2188""
""fullscreenexit"",""9"",""30613""
""blur"",""9"",""33473""
""focus"",""9"",""60291""
","""event"",""trial"",""time""
""blur"",""9"",""33473""
","""event"",""trial"",""time""
""focus"",""9"",""60291""
","""event"",""trial"",""time""
""fullscreenenter"",""1"",""2188""
","""event"",""trial"",""time""
""fullscreenexit"",""9"",""30613""
","","","","","","null","<div style=""font-size:60px;"">+</div>","null","","fixation","","",""
"memory-trial","153","432611","0.0-18.0-1.54","4586","approach_avoid_sv1","""event"",""trial"",""time""
""fullscreenenter"",""1"",""2188""
""fullscreenexit"",""9"",""30613""
""blur"",""9"",""33473""
""focus"",""9"",""60291""
","""event"",""trial"",""time""
""blur"",""9"",""33473""
","""event"",""trial"",""time""
""focus"",""9"",""60291""
","""event"",""trial"",""time""
""fullscreenenter"",""1"",""2188""
","""event"",""trial"",""time""
""fullscreenexit"",""9"",""30613""
","","","","","","1405.2999999821186","images/horse1.png","","","memory_trial","1","definitely_old",""
"html-keyboard-response","154","433115","0.0-18.0-0.55","4586","approach_avoid_sv1","""event"",""trial"",""time""
""fullscreenenter"",""1"",""2188""
""fullscreenexit"",""9"",""30613""
""blur"",""9"",""33473""
""focus"",""9"",""60291""
","""event"",""trial"",""time""
""blur"",""9"",""33473""
","""event"",""trial"",""time""
""focus"",""9"",""60291""
","""event"",""trial"",""time""
""fullscreenenter"",""1"",""2188""
","""event"",""trial"",""time""
""fullscreenexit"",""9"",""30613""
","","","","","","null","<div style=""font-size:60px;"">+</div>","null","","fixation","","",""
"memory-trial","155","435451","0.0-18.0-1.55","4586","approach_avoid_sv1","""event"",""trial"",""time""
""fullscreenenter"",""1"",""2188""
""fullscreenexit"",""9"",""30613""
""blur"",""9"",""33473""
""focus"",""9"",""60291""
","""event"",""trial"",""time""
""blur"",""9"",""33473""
","""event"",""trial"",""time""
""focus"",""9"",""60291""
","""event"",""trial"",""time""
""fullscreenenter"",""1"",""2188""
","""event"",""trial"",""time""
""fullscreenexit"",""9"",""30613""
","","","","","","1333.5","images/straw7.png","","","memory_trial","2","maybe_old",""
"html-keyboard-response","156","435961","0.0-18.0-0.56","4586","approach_avoid_sv1","""event"",""trial"",""time""
""fullscreenenter"",""1"",""2188""
""fullscreenexit"",""9"",""30613""
""blur"",""9"",""33473""
""focus"",""9"",""60291""
","""event"",""trial"",""time""
""blur"",""9"",""33473""
","""event"",""trial"",""time""
""focus"",""9"",""60291""
","""event"",""trial"",""time""
""fullscreenenter"",""1"",""2188""
","""event"",""trial"",""time""
""fullscreenexit"",""9"",""30613""
","","","","","","null","<div style=""font-size:60px;"">+</div>","null","","fixation","","",""
"memory-trial","157","438035","0.0-18.0-1.56","4586","approach_avoid_sv1","""event"",""trial"",""time""
""fullscreenenter"",""1"",""2188""
""fullscreenexit"",""9"",""30613""
""blur"",""9"",""33473""
""focus"",""9"",""60291""
","""event"",""trial"",""time""
""blur"",""9"",""33473""
","""event"",""trial"",""time""
""focus"",""9"",""60291""
","""event"",""trial"",""time""
""fullscreenenter"",""1"",""2188""
","""event"",""trial"",""time""
""fullscreenexit"",""9"",""30613""
","","","","","","1071.5","images/sofa6.png","","","memory_trial","3","maybe_new",""
"html-keyboard-response","158","438547","0.0-18.0-0.57","4586","approach_avoid_sv1","""event"",""trial"",""time""
""fullscreenenter"",""1"",""2188""
""fullscreenexit"",""9"",""30613""
""blur"",""9"",""33473""
""focus"",""9"",""60291""
","""event"",""trial"",""time""
""blur"",""9"",""33473""
","""event"",""trial"",""time""
""focus"",""9"",""60291""
","""event"",""trial"",""time""
""fullscreenenter"",""1"",""2188""
","""event"",""trial"",""time""
""fullscreenexit"",""9"",""30613""
","","","","","","null","<div style=""font-size:60px;"">+</div>","null","","fixation","","",""
"memory-trial","159","440564","0.0-18.0-1.57","4586","approach_avoid_sv1","""event"",""trial"",""time""
""fullscreenenter"",""1"",""2188""
""fullscreenexit"",""9"",""30613""
""blur"",""9"",""33473""
""focus"",""9"",""60291""
","""event"",""trial"",""time""
""blur"",""9"",""33473""
","""event"",""trial"",""time""
""focus"",""9"",""60291""
","""event"",""trial"",""time""
""fullscreenenter"",""1"",""2188""
","""event"",""trial"",""time""
""fullscreenexit"",""9"",""30613""
","","","","","","1013","images/banana8.png","","","memory_trial","2","maybe_old",""
"html-keyboard-response","160","441067","0.0-18.0-0.58","4586","approach_avoid_sv1","""event"",""trial"",""time""
""fullscreenenter"",""1"",""2188""
""fullscreenexit"",""9"",""30613""
""blur"",""9"",""33473""
""focus"",""9"",""60291""
","""event"",""trial"",""time""
""blur"",""9"",""33473""
","""event"",""trial"",""time""
""focus"",""9"",""60291""
","""event"",""trial"",""time""
""fullscreenenter"",""1"",""2188""
","""event"",""trial"",""time""
""fullscreenexit"",""9"",""30613""
","","","","","","null","<div style=""font-size:60px;"">+</div>","null","","fixation","","",""
"memory-trial","161","443186","0.0-18.0-1.58","4586","approach_avoid_sv1","""event"",""trial"",""time""
""fullscreenenter"",""1"",""2188""
""fullscreenexit"",""9"",""30613""
""blur"",""9"",""33473""
""focus"",""9"",""60291""
","""event"",""trial"",""time""
""blur"",""9"",""33473""
","""event"",""trial"",""time""
""focus"",""9"",""60291""
","""event"",""trial"",""time""
""fullscreenenter"",""1"",""2188""
","""event"",""trial"",""time""
""fullscreenexit"",""9"",""30613""
","","","","","","1117.199999988079","images/horse7.png","","","memory_trial","3","maybe_new",""
"html-keyboard-response","162","443690","0.0-18.0-0.59","4586","approach_avoid_sv1","""event"",""trial"",""time""
""fullscreenenter"",""1"",""2188""
""fullscreenexit"",""9"",""30613""
""blur"",""9"",""33473""
""focus"",""9"",""60291""
","""event"",""trial"",""time""
""blur"",""9"",""33473""
","""event"",""trial"",""time""
""focus"",""9"",""60291""
","""event"",""trial"",""time""
""fullscreenenter"",""1"",""2188""
","""event"",""trial"",""time""
""fullscreenexit"",""9"",""30613""
","","","","","","null","<div style=""font-size:60px;"">+</div>","null","","fixation","","",""
"memory-trial","163","445398","0.0-18.0-1.59","4586","approach_avoid_sv1","""event"",""trial"",""time""
""fullscreenenter"",""1"",""2188""
""fullscreenexit"",""9"",""30613""
""blur"",""9"",""33473""
""focus"",""9"",""60291""
","""event"",""trial"",""time""
""blur"",""9"",""33473""
","""event"",""trial"",""time""
""focus"",""9"",""60291""
","""event"",""trial"",""time""
""fullscreenenter"",""1"",""2188""
","""event"",""trial"",""time""
""fullscreenexit"",""9"",""30613""
","","","","","","701.9000000059605","images/sheep8.png","","","memory_trial","3","maybe_new",""
"html-keyboard-response","164","445907","0.0-18.0-0.60","4586","approach_avoid_sv1","""event"",""trial"",""time""
""fullscreenenter"",""1"",""2188""
""fullscreenexit"",""9"",""30613""
""blur"",""9"",""33473""
""focus"",""9"",""60291""
","""event"",""trial"",""time""
""blur"",""9"",""33473""
","""event"",""trial"",""time""
""focus"",""9"",""60291""
","""event"",""trial"",""time""
""fullscreenenter"",""1"",""2188""
","""event"",""trial"",""time""
""fullscreenexit"",""9"",""30613""
","","","","","","null","<div style=""font-size:60px;"">+</div>","null","","fixation","","",""
"memory-trial","165","448147","0.0-18.0-1.60","4586","approach_avoid_sv1","""event"",""trial"",""time""
""fullscreenenter"",""1"",""2188""
""fullscreenexit"",""9"",""30613""
""blur"",""9"",""33473""
""focus"",""9"",""60291""
","""event"",""trial"",""time""
""blur"",""9"",""33473""
","""event"",""trial"",""time""
""focus"",""9"",""60291""
","""event"",""trial"",""time""
""fullscreenenter"",""1"",""2188""
","""event"",""trial"",""time""
""fullscreenexit"",""9"",""30613""
","","","","","","1237.5","images/tree4.png","","","memory_trial","1","definitely_old",""
"html-keyboard-response","166","448660","0.0-18.0-0.61","4586","approach_avoid_sv1","""event"",""trial"",""time""
""fullscreenenter"",""1"",""2188""
""fullscreenexit"",""9"",""30613""
""blur"",""9"",""33473""
""focus"",""9"",""60291""
","""event"",""trial"",""time""
""blur"",""9"",""33473""
","""event"",""trial"",""time""
""focus"",""9"",""60291""
","""event"",""trial"",""time""
""fullscreenenter"",""1"",""2188""
","""event"",""trial"",""time""
""fullscreenexit"",""9"",""30613""
","","","","","","null","<div style=""font-size:60px;"">+</div>","null","","fixation","","",""
"memory-trial","167","450891","0.0-18.0-1.61","4586","approach_avoid_sv1","""event"",""trial"",""time""
""fullscreenenter"",""1"",""2188""
""fullscreenexit"",""9"",""30613""
""blur"",""9"",""33473""
""focus"",""9"",""60291""
","""event"",""trial"",""time""
""blur"",""9"",""33473""
","""event"",""trial"",""time""
""focus"",""9"",""60291""
","""event"",""trial"",""time""
""fullscreenenter"",""1"",""2188""
","""event"",""trial"",""time""
""fullscreenexit"",""9"",""30613""
","","","","","","1228.7000000178814","images/sheep1.png","","","memory_trial","4","definitely_new",""
"html-keyboard-response","168","451395","0.0-18.0-0.62","4586","approach_avoid_sv1","""event"",""trial"",""time""
""fullscreenenter"",""1"",""2188""
""fullscreenexit"",""9"",""30613""
""blur"",""9"",""33473""
""focus"",""9"",""60291""
","""event"",""trial"",""time""
""blur"",""9"",""33473""
","""event"",""trial"",""time""
""focus"",""9"",""60291""
","""event"",""trial"",""time""
""fullscreenenter"",""1"",""2188""
","""event"",""trial"",""time""
""fullscreenexit"",""9"",""30613""
","","","","","","null","<div style=""font-size:60px;"">+</div>","null","","fixation","","",""
"memory-trial","169","454476","0.0-18.0-1.62","4586","approach_avoid_sv1","""event"",""trial"",""time""
""fullscreenenter"",""1"",""2188""
""fullscreenexit"",""9"",""30613""
