"trial_type","trial_index","time_elapsed","internal_node_id","subject_id","task_version","interactions","blur_events","focus_events","fullscreenenter_events","fullscreenexit_events","success","timeout","failed_images","failed_audio","failed_video","rt","stimulus","response","button_pressed","task_part","key_press","answer","correct"
"pavlovia","0","3","0.0-0.0","5858","approach_avoid_sv1","""event"",""trial"",""time""
""fullscreenenter"",""1"",""1595""
","
","
","""event"",""trial"",""time""
""fullscreenenter"",""1"",""1595""
","
","","","","","","","","","","","","",""
"fullscreen","1","2595","0.0-1.0","5858","approach_avoid_sv1","""event"",""trial"",""time""
""fullscreenenter"",""1"",""1595""
","
","
","""event"",""trial"",""time""
""fullscreenenter"",""1"",""1595""
","
","true","","","","","","","","","","","",""
"preload","2","4343","0.0-2.0","5858","approach_avoid_sv1","""event"",""trial"",""time""
""fullscreenenter"",""1"",""1595""
","
","
","""event"",""trial"",""time""
""fullscreenenter"",""1"",""1595""
","
","true","false","[]","[]","[]","","","","","","","",""
"preload","3","4909","0.0-3.0","5858","approach_avoid_sv1","""event"",""trial"",""time""
""fullscreenenter"",""1"",""1595""
","
","
","""event"",""trial"",""time""
""fullscreenenter"",""1"",""1595""
","
","true","false","[]","[]","[]","","","","","","","",""
"preload","4","5162","0.0-4.0","5858","approach_avoid_sv1","""event"",""trial"",""time""
""fullscreenenter"",""1"",""1595""
","
","
","""event"",""trial"",""time""
""fullscreenenter"",""1"",""1595""
","
","true","false","[]","[]","[]","","","","","","","",""
"audio-keyboard-response","5","7459","0.0-5.0","5858","approach_avoid_sv1","""event"",""trial"",""time""
""fullscreenenter"",""1"",""1595""
","
","
","""event"",""trial"",""time""
""fullscreenenter"",""1"",""1595""
","
","","","","","","2293.333333333333","audio/beep_loop.wav"," ","","","","",""
"audio-button-response","6","10934","0.0-6.0","5858","approach_avoid_sv1","""event"",""trial"",""time""
""fullscreenenter"",""1"",""1595""
","
","
","""event"",""trial"",""time""
""fullscreenenter"",""1"",""1595""
","
","","","","","","3472","audio/turtle.wav","3","","","","",""
"audio-button-response","7","12870","0.0-7.0","5858","approach_avoid_sv1","""event"",""trial"",""time""
""fullscreenenter"",""1"",""1595""
","
","
","""event"",""trial"",""time""
""fullscreenenter"",""1"",""1595""
","
","","","","","","928","audio/shark.wav","2","","","","",""
"preload","8","15805","0.0-8.0","5858","approach_avoid_sv1","""event"",""trial"",""time""
""fullscreenenter"",""1"",""1595""
","
","
","""event"",""trial"",""time""
""fullscreenenter"",""1"",""1595""
","
","true","false","[]","[]","[]","","","","","","","",""
"learning-instructions","9","21452","0.0-9.0-0.0","5858","approach_avoid_sv1","""event"",""trial"",""time""
""fullscreenenter"",""1"",""1595""
","
","
","""event"",""trial"",""time""
""fullscreenenter"",""1"",""1595""
","
","","","","","","1168.600000000035","<p> Welcome back! </p><p> Last week, you had to make choices about lots of different items.  </p>","","0","instructions","","",""
"learning-instructions","10","25907","0.0-9.0-0.1","5858","approach_avoid_sv1","""event"",""trial"",""time""
""fullscreenenter"",""1"",""1595""
","
","
","""event"",""trial"",""time""
""fullscreenenter"",""1"",""1595""
","
","","","","","","339.20000000001164","<p> Today, we are going to ask you to try to remember all the items. </p>","","0","instructions","","",""
"learning-instructions","11","36432","0.0-9.0-0.2","5858","approach_avoid_sv1","""event"",""trial"",""time""
""fullscreenenter"",""1"",""1595""
","
","
","""event"",""trial"",""time""
""fullscreenenter"",""1"",""1595""
","
","","","","","","384.5","<p> On every trial, you will see an image. </p><p> The image may be an OLD image you saw during the games last week or it may be a NEW image that was not presented. </p>","","0","instructions","","",""
"learning-instructions","12","45312","0.0-9.0-0.3","5858","approach_avoid_sv1","""event"",""trial"",""time""
""fullscreenenter"",""1"",""1595""
","
","
","""event"",""trial"",""time""
""fullscreenenter"",""1"",""1595""
","
","","","","","","377.3999999999651","<p> You need to select whether the image is:  </p><p>  'Definitely old', 'Maybe old', 'Maybe new', or 'Definitely new.'  </p><div class=""mem-choice-instructions-grid""><div class=""choice-option"" id=""choice-option-1"" ><img src=""images/definitely_old_1.png"" id=""choice-option-img-1"" class=""choice-option-img"" stage=""1""></div><div class=""choice-option"" id=""choice-option-2"" ><img src=""images/maybe_old_1.png"" id=""choice-option-img-2"" class=""choice-option-img"" stage=""1""></div><div class=""choice-option"" id=""choice-option-3"" ><img src=""images/maybe_new_1.png"" id=""choice-option-img-3"" class=""choice-option-img"" stage=""1""></div><div class=""choice-option"" id=""choice-option-4"" > <img src=""images/definitely_new_1.png"" id=""choice-option-img-4"" class=""choice-option-img"" stage=""1""></div></div>","","0","instructions","","",""
"learning-instructions","13","52207","0.0-9.0-0.4","5858","approach_avoid_sv1","""event"",""trial"",""time""
""fullscreenenter"",""1"",""1595""
","
","
","""event"",""trial"",""time""
""fullscreenenter"",""1"",""1595""
","
","","","","","","370.9000000000233","<p> You should use the 1, 2, 3, and 4 keys to make your responses.  </p><div class=""mem-choice-instructions-grid""><div class=""choice-option"" id=""choice-option-1"" ><img src=""images/definitely_old.png"" id=""choice-option-img-1"" class=""choice-option-img"" stage=""1""></div><div class=""choice-option"" id=""choice-option-2"" ><img src=""images/maybe_old.png"" id=""choice-option-img-2"" class=""choice-option-img"" stage=""1""></div><div class=""choice-option"" id=""choice-option-3"" ><img src=""images/maybe_new.png"" id=""choice-option-img-3"" class=""choice-option-img"" stage=""1""></div><div class=""choice-option"" id=""choice-option-4"" > <img src=""images/definitely_new.png"" id=""choice-option-img-4"" class=""choice-option-img"" stage=""1""></div></div>","","0","instructions","","",""
"learning-instructions","14","58890","0.0-9.0-0.5","5858","approach_avoid_sv1","""event"",""trial"",""time""
""fullscreenenter"",""1"",""1595""
","
","
","""event"",""trial"",""time""
""fullscreenenter"",""1"",""1595""
","
","","","","","","351.5","<p> You will have 10 seconds to make each response.  </p><p>  Make sure to respond before time runs out! </p>","","0","instructions","","",""
"learning-instructions","15","66142","0.0-9.0-0.6","5858","approach_avoid_sv1","""event"",""trial"",""time""
""fullscreenenter"",""1"",""1595""
","
","
","""event"",""trial"",""time""
""fullscreenenter"",""1"",""1595""
","
","","","","","","174","<p> Today, you will see each image ONCE only.  </p><p>  That means none of the images will repeat. </p>","","0","instructions","","",""
"learning-instructions","16","79193","0.0-9.0-0.7","5858","approach_avoid_sv1","""event"",""trial"",""time""
""fullscreenenter"",""1"",""1595""
","
","
","""event"",""trial"",""time""
""fullscreenenter"",""1"",""1595""
","
","","","","","","371.8999999999651","<p> Before you play the real game, it is time to practice. </p><p>  Just like in the real game, some of the images in the practice will be ones you have seen before. </p><p>  Others will be entirely new. </p>","","0","instructions","","",""
"html-button-response","17","80727","0.0-10.0","5858","approach_avoid_sv1","""event"",""trial"",""time""
""fullscreenenter"",""1"",""1595""
","
","
","""event"",""trial"",""time""
""fullscreenenter"",""1"",""1595""
","
","","","","","","1422.1999999999534","<p> Ready to practice? </p><p> Remember, use the 1, 2, 3, and 4 keys to make your responses. </p>","0","","instructions","","",""
"html-keyboard-response","18","81346","0.0-11.0-0.0","5858","approach_avoid_sv1","""event"",""trial"",""time""
""fullscreenenter"",""1"",""1595""
","
","
","""event"",""trial"",""time""
""fullscreenenter"",""1"",""1595""
","
","","","","","","null","<div style=""font-size:60px;"">+</div>","null","","fixation","","",""
"memory-trial","19","84635","0.0-11.0-1.0","5858","approach_avoid_sv1","""event"",""trial"",""time""
""fullscreenenter"",""1"",""1595""
","
","
","""event"",""trial"",""time""
""fullscreenenter"",""1"",""1595""
","
","","","","","","2279.5","images/racket5.png","","","practice","2","maybe_old",""
"html-keyboard-response","20","85138","0.0-11.0-0.1","5858","approach_avoid_sv1","""event"",""trial"",""time""
""fullscreenenter"",""1"",""1595""
","
","
","""event"",""trial"",""time""
""fullscreenenter"",""1"",""1595""
","
","","","","","","null","<div style=""font-size:60px;"">+</div>","null","","fixation","","",""
"memory-trial","21","87907","0.0-11.0-1.1","5858","approach_avoid_sv1","""event"",""trial"",""time""
""fullscreenenter"",""1"",""1595""
","
","
","""event"",""trial"",""time""
""fullscreenenter"",""1"",""1595""
","
","","","","","","1756.2000000000116","images/ball1.png","","","practice","1","definitely_old",""
"html-keyboard-response","22","88410","0.0-11.0-0.2","5858","approach_avoid_sv1","""event"",""trial"",""time""
""fullscreenenter"",""1"",""1595""
","
","
","""event"",""trial"",""time""
""fullscreenenter"",""1"",""1595""
","
","","","","","","null","<div style=""font-size:60px;"">+</div>","null","","fixation","","",""
"memory-trial","23","90846","0.0-11.0-1.2","5858","approach_avoid_sv1","""event"",""trial"",""time""
""fullscreenenter"",""1"",""1595""
","
","
","""event"",""trial"",""time""
""fullscreenenter"",""1"",""1595""
","
","","","","","","1427.600000000035","images/racket2.png","","","practice","2","maybe_old",""
"html-keyboard-response","24","91358","0.0-11.0-0.3","5858","approach_avoid_sv1","""event"",""trial"",""time""
""fullscreenenter"",""1"",""1595""
","
","
","""event"",""trial"",""time""
""fullscreenenter"",""1"",""1595""
","
","","","","","","null","<div style=""font-size:60px;"">+</div>","null","","fixation","","",""
"memory-trial","25","93671","0.0-11.0-1.3","5858","approach_avoid_sv1","""event"",""trial"",""time""
""fullscreenenter"",""1"",""1595""
","
","
","""event"",""trial"",""time""
""fullscreenenter"",""1"",""1595""
","
","","","","","","1300.7000000000116","images/ball3.png","","","practice","4","definitely_new",""
"html-keyboard-response","26","94178","0.0-11.0-0.4","5858","approach_avoid_sv1","""event"",""trial"",""time""
""fullscreenenter"",""1"",""1595""
","
","
","""event"",""trial"",""time""
""fullscreenenter"",""1"",""1595""
","
","","","","","","null","<div style=""font-size:60px;"">+</div>","null","","fixation","","",""
"memory-trial","27","96943","0.0-11.0-1.4","5858","approach_avoid_sv1","""event"",""trial"",""time""
""fullscreenenter"",""1"",""1595""
","
","
","""event"",""trial"",""time""
""fullscreenenter"",""1"",""1595""
","
","","","","","","1748.5","images/racket1.png","","","practice","2","maybe_old",""
"html-keyboard-response","28","97450","0.0-11.0-0.5","5858","approach_avoid_sv1","""event"",""trial"",""time""
""fullscreenenter"",""1"",""1595""
","
","
","""event"",""trial"",""time""
""fullscreenenter"",""1"",""1595""
","
","","","","","","null","<div style=""font-size:60px;"">+</div>","null","","fixation","","",""
"memory-trial","29","99917","0.0-11.0-1.5","5858","approach_avoid_sv1","""event"",""trial"",""time""
""fullscreenenter"",""1"",""1595""
","
","
","""event"",""trial"",""time""
""fullscreenenter"",""1"",""1595""
","
","","","","","","1454.399999999965","images/ball5.png","","","practice","2","maybe_old",""
"html-keyboard-response","30","100429","0.0-11.0-0.6","5858","approach_avoid_sv1","""event"",""trial"",""time""
""fullscreenenter"",""1"",""1595""
","
","
","""event"",""trial"",""time""
""fullscreenenter"",""1"",""1595""
","
","","","","","","null","<div style=""font-size:60px;"">+</div>","null","","fixation","","",""
"memory-trial","31","102171","0.0-11.0-1.6","5858","approach_avoid_sv1","""event"",""trial"",""time""
""fullscreenenter"",""1"",""1595""
","
","
","""event"",""trial"",""time""
""fullscreenenter"",""1"",""1595""
","
","","","","","","734.7999999999884","images/ball2.png","","","practice","2","maybe_old",""
"html-keyboard-response","32","102678","0.0-11.0-0.7","5858","approach_avoid_sv1","""event"",""trial"",""time""
""fullscreenenter"",""1"",""1595""
","
","
","""event"",""trial"",""time""
""fullscreenenter"",""1"",""1595""
","
","","","","","","null","<div style=""font-size:60px;"">+</div>","null","","fixation","","",""
"memory-trial","33","105151","0.0-11.0-1.7","5858","approach_avoid_sv1","""event"",""trial"",""time""
""fullscreenenter"",""1"",""1595""
","
","
","""event"",""trial"",""time""
""fullscreenenter"",""1"",""1595""
","
","","","","","","1457.2000000000116","images/racket3.png","","","practice","1","definitely_old",""
"learning-instructions","34","113476","0.0-12.0-0.0","5858","approach_avoid_sv1","""event"",""trial"",""time""
""fullscreenenter"",""1"",""1595""
","
","
","""event"",""trial"",""time""
""fullscreenenter"",""1"",""1595""
","
","","","","","","1016.3999999999651","<p> Great! You have completed the practice. </p><p> Before you start, we're going to ask you a few questions about how the game works.  </p>","","0","instructions","","",""
"preload","35","115199","0.0-13.0","5858","approach_avoid_sv1","""event"",""trial"",""time""
""fullscreenenter"",""1"",""1595""
","
","
","""event"",""trial"",""time""
""fullscreenenter"",""1"",""1595""
","
","true","false","[]","[]","[]","","","","","","","",""
"comp-q","36","121772","0.0-14.0-0.0","5858","approach_avoid_sv1","""event"",""trial"",""time""
""fullscreenenter"",""1"",""1595""
","
","
","""event"",""trial"",""time""
""fullscreenenter"",""1"",""1595""
","
","","","","","","741.2999999999884","<p> <b> True or False? </b> </p><p> In this game, you will only see each image once. </p>","","0","comp_question","","","true"
"comp-q","37","128761","0.0-14.0-1.0","5858","approach_avoid_sv1","""event"",""trial"",""time""
""fullscreenenter"",""1"",""1595""
","
","
","""event"",""trial"",""time""
""fullscreenenter"",""1"",""1595""
","
","","","","","","647.8999999999651","<p> <b> That's right! </b> You will see many different images <i> one time each </i> in this game. </p>","","0","comp_answer","","",""
"comp-q","38","134598","0.0-15.0-0.0","5858","approach_avoid_sv1","""event"",""trial"",""time""
""fullscreenenter"",""1"",""1595""
","
","
","""event"",""trial"",""time""
""fullscreenenter"",""1"",""1595""
","
","","","","","","826.1000000000349","<p> <b> True or False? </b> </p><p> You should use the mouse and click to make your response. </p>","","1","comp_question","","","true"
"comp-q","39","141844","0.0-15.0-1.0","5858","approach_avoid_sv1","""event"",""trial"",""time""
""fullscreenenter"",""1"",""1595""
","
","
","""event"",""trial"",""time""
""fullscreenenter"",""1"",""1595""
","
","","","","","","744.5999999999767","<p><b> That's right! </b> You should use the '1', '2', '3', and '4' keys to make your response. </p>","","0","comp_answer","","",""
"comp-q","40","148369","0.0-16.0-0.0","5858","approach_avoid_sv1","""event"",""trial"",""time""
""fullscreenenter"",""1"",""1595""
","
","
","""event"",""trial"",""time""
""fullscreenenter"",""1"",""1595""
","
","","","","","","847.4000000000233","<p> <b> True or False? </b> </p><p> You will have as much time as you want to make each choice. </p>","","1","comp_question","","","true"
"comp-q","41","154050","0.0-16.0-1.0","5858","approach_avoid_sv1","""event"",""trial"",""time""
""fullscreenenter"",""1"",""1595""
","
","
","""event"",""trial"",""time""
""fullscreenenter"",""1"",""1595""
","
","","","","","","976.5999999999767","<p> <b> That's right! </b> You will only have 10 seconds to make each choice. </p>","","0","comp_answer","","",""
"learning-instructions","42","163529","0.0-17.0","5858","approach_avoid_sv1","""event"",""trial"",""time""
""fullscreenenter"",""1"",""1595""
","
","
","""event"",""trial"",""time""
""fullscreenenter"",""1"",""1595""
","
","","","","","","807.3999999999651","<p> Great! You are now ready to begin the game. </p><p> Remember, use the 1, 2, 3, and 4 keys to make your responses. </p>","","0","instructions","","",""
"html-keyboard-response","43","164138","0.0-18.0-0.0","5858","approach_avoid_sv1","""event"",""trial"",""time""
""fullscreenenter"",""1"",""1595""
","
","
","""event"",""trial"",""time""
""fullscreenenter"",""1"",""1595""
","
","","","","","","null","<div style=""font-size:60px;"">+</div>","null","","fixation","","",""
"memory-trial","44","166587","0.0-18.0-1.0","5858","approach_avoid_sv1","""event"",""trial"",""time""
""fullscreenenter"",""1"",""1595""
","
","
","""event"",""trial"",""time""
""fullscreenenter"",""1"",""1595""
","
","","","","","","1442.7000000000116","images/straw6.png","","","memory_trial","2","maybe_old",""
"html-keyboard-response","45","167091","0.0-18.0-0.1","5858","approach_avoid_sv1","""event"",""trial"",""time""
""fullscreenenter"",""1"",""1595""
","
","
","""event"",""trial"",""time""
""fullscreenenter"",""1"",""1595""
","
","","","","","","null","<div style=""font-size:60px;"">+</div>","null","","fixation","","",""
"memory-trial","46","169175","0.0-18.0-1.1","5858","approach_avoid_sv1","""event"",""trial"",""time""
""fullscreenenter"",""1"",""1595""
","
","
","""event"",""trial"",""time""
""fullscreenenter"",""1"",""1595""
","
","","","","","","1074","images/truck2.png","","","memory_trial","1","definitely_old",""
"html-keyboard-response","47","169687","0.0-18.0-0.2","5858","approach_avoid_sv1","""event"",""trial"",""time""
""fullscreenenter"",""1"",""1595""
","
","
","""event"",""trial"",""time""
""fullscreenenter"",""1"",""1595""
","
","","","","","","null","<div style=""font-size:60px;"">+</div>","null","","fixation","","",""
"memory-trial","48","171691","0.0-18.0-1.2","5858","approach_avoid_sv1","""event"",""trial"",""time""
""fullscreenenter"",""1"",""1595""
","
","
","""event"",""trial"",""time""
""fullscreenenter"",""1"",""1595""
","
","","","","","","998","images/rabbit2.png","","","memory_trial","1","definitely_old",""
"html-keyboard-response","49","172198","0.0-18.0-0.3","5858","approach_avoid_sv1","""event"",""trial"",""time""
""fullscreenenter"",""1"",""1595""
","
","
","""event"",""trial"",""time""
""fullscreenenter"",""1"",""1595""
","
","","","","","","null","<div style=""font-size:60px;"">+</div>","null","","fixation","","",""
"memory-trial","50","175236","0.0-18.0-1.3","5858","approach_avoid_sv1","""event"",""trial"",""time""
""fullscreenenter"",""1"",""1595""
","
","
","""event"",""trial"",""time""
""fullscreenenter"",""1"",""1595""
","
","","","","","","2026.0999999999767","images/flower2.png","","","memory_trial","2","maybe_old",""
"html-keyboard-response","51","175739","0.0-18.0-0.4","5858","approach_avoid_sv1","""event"",""trial"",""time""
""fullscreenenter"",""1"",""1595""
","
","
","""event"",""trial"",""time""
""fullscreenenter"",""1"",""1595""
","
","","","","","","null","<div style=""font-size:60px;"">+</div>","null","","fixation","","",""
"memory-trial","52","178278","0.0-18.0-1.4","5858","approach_avoid_sv1","""event"",""trial"",""time""
""fullscreenenter"",""1"",""1595""
","
","
","""event"",""trial"",""time""
""fullscreenenter"",""1"",""1595""
","
","","","","","","1524.399999999965","images/rabbit8.png","","","memory_trial","3","maybe_new",""
"html-keyboard-response","53","178787","0.0-18.0-0.5","5858","approach_avoid_sv1","""event"",""trial"",""time""
""fullscreenenter"",""1"",""1595""
","
","
","""event"",""trial"",""time""
""fullscreenenter"",""1"",""1595""
","
","","","","","","null","<div style=""font-size:60px;"">+</div>","null","","fixation","","",""
"memory-trial","54","181311","0.0-18.0-1.5","5858","approach_avoid_sv1","""event"",""trial"",""time""
""fullscreenenter"",""1"",""1595""
","
","
","""event"",""trial"",""time""
""fullscreenenter"",""1"",""1595""
","
","","","","","","1511.4000000000233","images/sofa1.png","","","memory_trial","3","maybe_new",""
"html-keyboard-response","55","181819","0.0-18.0-0.6","5858","approach_avoid_sv1","""event"",""trial"",""time""
""fullscreenenter"",""1"",""1595""
","
","
","""event"",""trial"",""time""
""fullscreenenter"",""1"",""1595""
","
","","","","","","null","<div style=""font-size:60px;"">+</div>","null","","fixation","","",""
"memory-trial","56","184437","0.0-18.0-1.6","5858","approach_avoid_sv1","""event"",""trial"",""time""
""fullscreenenter"",""1"",""1595""
","
","
","""event"",""trial"",""time""
""fullscreenenter"",""1"",""1595""
","
","","","","","","1610.2999999999884","images/orange5.png","","","memory_trial","3","maybe_new",""
"html-keyboard-response","57","184951","0.0-18.0-0.7","5858","approach_avoid_sv1","""event"",""trial"",""time""
""fullscreenenter"",""1"",""1595""
","
","
","""event"",""trial"",""time""
""fullscreenenter"",""1"",""1595""
","
","","","","","","null","<div style=""font-size:60px;"">+</div>","null","","fixation","","",""
"memory-trial","58","187699","0.0-18.0-1.7","5858","approach_avoid_sv1","""event"",""trial"",""time""
""fullscreenenter"",""1"",""1595""
","
","
","""event"",""trial"",""time""
""fullscreenenter"",""1"",""1595""
","
","","","","","","1736.5","images/rodent3.png","","","memory_trial","2","maybe_old",""
"html-keyboard-response","59","188203","0.0-18.0-0.8","5858","approach_avoid_sv1","""event"",""trial"",""time""
""fullscreenenter"",""1"",""1595""
","
","
","""event"",""trial"",""time""
""fullscreenenter"",""1"",""1595""
","
","","","","","","null","<div style=""font-size:60px;"">+</div>","null","","fixation","","",""
"memory-trial","60","190659","0.0-18.0-1.8","5858","approach_avoid_sv1","""event"",""trial"",""time""
""fullscreenenter"",""1"",""1595""
","
","
","""event"",""trial"",""time""
""fullscreenenter"",""1"",""1595""
","
","","","","","","1448.5","images/boat8.png","","","memory_trial","4","definitely_new",""
"html-keyboard-response","61","191164","0.0-18.0-0.9","5858","approach_avoid_sv1","""event"",""trial"",""time""
""fullscreenenter"",""1"",""1595""
","
","
","""event"",""trial"",""time""
""fullscreenenter"",""1"",""1595""
","
","","","","","","null","<div style=""font-size:60px;"">+</div>","null","","fixation","","",""
"memory-trial","62","193383","0.0-18.0-1.9","5858","approach_avoid_sv1","""event"",""trial"",""time""
""fullscreenenter"",""1"",""1595""
","
","
","""event"",""trial"",""time""
""fullscreenenter"",""1"",""1595""
","
","","","","","","1207.7000000000116","images/bed6.png","","","memory_trial","4","definitely_new",""
"html-keyboard-response","63","193894","0.0-18.0-0.10","5858","approach_avoid_sv1","""event"",""trial"",""time""
""fullscreenenter"",""1"",""1595""
","
","
","""event"",""trial"",""time""
""fullscreenenter"",""1"",""1595""
","
","","","","","","null","<div style=""font-size:60px;"">+</div>","null","","fixation","","",""
"memory-trial","64","196518","0.0-18.0-1.10","5858","approach_avoid_sv1","""event"",""trial"",""time""
""fullscreenenter"",""1"",""1595""
","
","
","""event"",""trial"",""time""
""fullscreenenter"",""1"",""1595""
","
","","","","","","1614.899999999965","images/tree3.png","","","memory_trial","3","maybe_new",""
"html-keyboard-response","65","197030","0.0-18.0-0.11","5858","approach_avoid_sv1","""event"",""trial"",""time""
""fullscreenenter"",""1"",""1595""
","
","
","""event"",""trial"",""time""
""fullscreenenter"",""1"",""1595""
","
","","","","","","null","<div style=""font-size:60px;"">+</div>","null","","fixation","","",""
"memory-trial","66","199308","0.0-18.0-1.11","5858","approach_avoid_sv1","""event"",""trial"",""time""
""fullscreenenter"",""1"",""1595""
","
","
","""event"",""trial"",""time""
""fullscreenenter"",""1"",""1595""
","
","","","","","","1268","images/train1.png","","","memory_trial","1","definitely_old",""
"html-keyboard-response","67","199813","0.0-18.0-0.12","5858","approach_avoid_sv1","""event"",""trial"",""time""
""fullscreenenter"",""1"",""1595""
","
","
","""event"",""trial"",""time""
""fullscreenenter"",""1"",""1595""
","
","","","","","","null","<div style=""font-size:60px;"">+</div>","null","","fixation","","",""
"memory-trial","68","202092","0.0-18.0-1.12","5858","approach_avoid_sv1","""event"",""trial"",""time""
""fullscreenenter"",""1"",""1595""
","
","
","""event"",""trial"",""time""
""fullscreenenter"",""1"",""1595""
","
","","","","","","1272","images/boat6.png","","","memory_trial","2","maybe_old",""
"html-keyboard-response","69","202598","0.0-18.0-0.13","5858","approach_avoid_sv1","""event"",""trial"",""time""
""fullscreenenter"",""1"",""1595""
","
","
","""event"",""trial"",""time""
""fullscreenenter"",""1"",""1595""
","
","","","","","","null","<div style=""font-size:60px;"">+</div>","null","","fixation","","",""
"memory-trial","70","205095","0.0-18.0-1.13","5858","approach_avoid_sv1","""event"",""trial"",""time""
""fullscreenenter"",""1"",""1595""
","
","
","""event"",""trial"",""time""
""fullscreenenter"",""1"",""1595""
","
","","","","","","1487.2000000000116","images/truck6.png","","","memory_trial","2","maybe_old",""
"html-keyboard-response","71","205606","0.0-18.0-0.14","5858","approach_avoid_sv1","""event"",""trial"",""time""
""fullscreenenter"",""1"",""1595""
","
","
","""event"",""trial"",""time""
""fullscreenenter"",""1"",""1595""
","
","","","","","","null","<div style=""font-size:60px;"">+</div>","null","","fixation","","",""
"memory-trial","72","207703","0.0-18.0-1.14","5858","approach_avoid_sv1","""event"",""trial"",""time""
""fullscreenenter"",""1"",""1595""
","
","
","""event"",""trial"",""time""
""fullscreenenter"",""1"",""1595""
","
","","","","","","1083.600000000035","images/bush6.png","","","memory_trial","1","definitely_old",""
"html-keyboard-response","73","208214","0.0-18.0-0.15","5858","approach_avoid_sv1","""event"",""trial"",""time""
""fullscreenenter"",""1"",""1595""
","
","
","""event"",""trial"",""time""
""fullscreenenter"",""1"",""1595""
","
","","","","","","null","<div style=""font-size:60px;"">+</div>","null","","fixation","","",""
"memory-trial","74","211164","0.0-18.0-1.15","5858","approach_avoid_sv1","""event"",""trial"",""time""
""fullscreenenter"",""1"",""1595""
","
","
","""event"",""trial"",""time""
""fullscreenenter"",""1"",""1595""
","
","","","","","","1936.7999999999884","images/boat3.png","","","memory_trial","4","definitely_new",""
"html-keyboard-response","75","211670","0.0-18.0-0.16","5858","approach_avoid_sv1","""event"",""trial"",""time""
""fullscreenenter"",""1"",""1595""
","
","
","""event"",""trial"",""time""
""fullscreenenter"",""1"",""1595""
","
","","","","","","null","<div style=""font-size:60px;"">+</div>","null","","fixation","","",""
"memory-trial","76","214444","0.0-18.0-1.16","5858","approach_avoid_sv1","""event"",""trial"",""time""
""fullscreenenter"",""1"",""1595""
","
","
","""event"",""trial"",""time""
""fullscreenenter"",""1"",""1595""
","
","","","","","","1762.6999999999534","images/tree8.png","","","memory_trial","3","maybe_new",""
"html-keyboard-response","77","214950","0.0-18.0-0.17","5858","approach_avoid_sv1","""event"",""trial"",""time""
""fullscreenenter"",""1"",""1595""
","
","
","""event"",""trial"",""time""
""fullscreenenter"",""1"",""1595""
","
","","","","","","null","<div style=""font-size:60px;"">+</div>","null","","fixation","","",""
"memory-trial","78","217271","0.0-18.0-1.17","5858","approach_avoid_sv1","""event"",""trial"",""time""
""fullscreenenter"",""1"",""1595""
","
","
","""event"",""trial"",""time""
""fullscreenenter"",""1"",""1595""
","
","","","","","","1309","images/cow8.png","","","memory_trial","3","maybe_new",""
"html-keyboard-response","79","217782","0.0-18.0-0.18","5858","approach_avoid_sv1","""event"",""trial"",""time""
""fullscreenenter"",""1"",""1595""
","
","
","""event"",""trial"",""time""
""fullscreenenter"",""1"",""1595""
","
","","","","","","null","<div style=""font-size:60px;"">+</div>","null","","fixation","","",""
"memory-trial","80","220092","0.0-18.0-1.18","5858","approach_avoid_sv1","""event"",""trial"",""time""
""fullscreenenter"",""1"",""1595""
","
","
","""event"",""trial"",""time""
""fullscreenenter"",""1"",""1595""
","
","","","","","","1297.899999999965","images/bed5.png","","","memory_trial","4","definitely_new",""
"html-keyboard-response","81","220598","0.0-18.0-0.19","5858","approach_avoid_sv1","""event"",""trial"",""time""
""fullscreenenter"",""1"",""1595""
","
","
","""event"",""trial"",""time""
""fullscreenenter"",""1"",""1595""
","
","","","","","","null","<div style=""font-size:60px;"">+</div>","null","","fixation","","",""
"memory-trial","82","223239","0.0-18.0-1.19","5858","approach_avoid_sv1","""event"",""trial"",""time""
""fullscreenenter"",""1"",""1595""
","
","
","""event"",""trial"",""time""
""fullscreenenter"",""1"",""1595""
","
","","","","","","1628.9000000000233","images/straw5.png","","","memory_trial","1","definitely_old",""
"html-keyboard-response","83","223750","0.0-18.0-0.20","5858","approach_avoid_sv1","""event"",""trial"",""time""
""fullscreenenter"",""1"",""1595""
","
","
","""event"",""trial"",""time""
""fullscreenenter"",""1"",""1595""
","
","","","","","","null","<div style=""font-size:60px;"">+</div>","null","","fixation","","",""
"memory-trial","84","225799","0.0-18.0-1.20","5858","approach_avoid_sv1","""event"",""trial"",""time""
""fullscreenenter"",""1"",""1595""
","
","
","""event"",""trial"",""time""
""fullscreenenter"",""1"",""1595""
","
","","","","","","1035.2999999999884","images/train3.png","","","memory_trial","1","definitely_old",""
"html-keyboard-response","85","226310","0.0-18.0-0.21","5858","approach_avoid_sv1","""event"",""trial"",""time""
""fullscreenenter"",""1"",""1595""
","
","
","""event"",""trial"",""time""
""fullscreenenter"",""1"",""1595""
","
","","","","","","null","<div style=""font-size:60px;"">+</div>","null","","fixation","","",""
"memory-trial","86","228684","0.0-18.0-1.21","5858","approach_avoid_sv1","""event"",""trial"",""time""
""fullscreenenter"",""1"",""1595""
","
","
","""event"",""trial"",""time""
""fullscreenenter"",""1"",""1595""
","
","","","","","","1366.2000000000116","images/orange8.png","","","memory_trial","2","maybe_old",""
"html-keyboard-response","87","229190","0.0-18.0-0.22","5858","approach_avoid_sv1","""event"",""trial"",""time""
""fullscreenenter"",""1"",""1595""
","
","
","""event"",""trial"",""time""
""fullscreenenter"",""1"",""1595""
","
","","","","","","null","<div style=""font-size:60px;"">+</div>","null","","fixation","","",""
"memory-trial","88","231495","0.0-18.0-1.22","5858","approach_avoid_sv1","""event"",""trial"",""time""
""fullscreenenter"",""1"",""1595""
","
","
","""event"",""trial"",""time""
""fullscreenenter"",""1"",""1595""
","
","","","","","","1294.2999999999884","images/horse3.png","","","memory_trial","3","maybe_new",""
"html-keyboard-response","89","232006","0.0-18.0-0.23","5858","approach_avoid_sv1","""event"",""trial"",""time""
""fullscreenenter"",""1"",""1595""
","
","
","""event"",""trial"",""time""
""fullscreenenter"",""1"",""1595""
","
","","","","","","null","<div style=""font-size:60px;"">+</div>","null","","fixation","","",""
"memory-trial","90","234220","0.0-18.0-1.23","5858","approach_avoid_sv1","""event"",""trial"",""time""
""fullscreenenter"",""1"",""1595""
","
","
","""event"",""trial"",""time""
""fullscreenenter"",""1"",""1595""
","
","","","","","","1203.9000000000233","images/train5.png","","","memory_trial","4","definitely_new",""
"html-keyboard-response","91","234726","0.0-18.0-0.24","5858","approach_avoid_sv1","""event"",""trial"",""time""
""fullscreenenter"",""1"",""1595""
","
","
","""event"",""trial"",""time""
""fullscreenenter"",""1"",""1595""
","
","","","","","","null","<div style=""font-size:60px;"">+</div>","null","","fixation","","",""
"memory-trial","92","236397","0.0-18.0-1.24","5858","approach_avoid_sv1","""event"",""trial"",""time""
""fullscreenenter"",""1"",""1595""
","
","
","""event"",""trial"",""time""
""fullscreenenter"",""1"",""1595""
","
","","","","","","665","images/bed1.png","","","memory_trial","4","definitely_new",""
"html-keyboard-response","93","236908","0.0-18.0-0.25","5858","approach_avoid_sv1","""event"",""trial"",""time""
""fullscreenenter"",""1"",""1595""
","
","
","""event"",""trial"",""time""
""fullscreenenter"",""1"",""1595""
","
","","","","","","null","<div style=""font-size:60px;"">+</div>","null","","fixation","","",""
"memory-trial","94","238877","0.0-18.0-1.25","5858","approach_avoid_sv1","""event"",""trial"",""time""
""fullscreenenter"",""1"",""1595""
","
","
","""event"",""trial"",""time""
""fullscreenenter"",""1"",""1595""
","
","","","","","","961.1999999999534","images/straw1.png","","","memory_trial","2","maybe_old",""
"html-keyboard-response","95","239389","0.0-18.0-0.26","5858","approach_avoid_sv1","""event"",""trial"",""time""
""fullscreenenter"",""1"",""1595""
","
","
","""event"",""trial"",""time""
""fullscreenenter"",""1"",""1595""
","
","","","","","","null","<div style=""font-size:60px;"">+</div>","null","","fixation","","",""
"memory-trial","96","241916","0.0-18.0-1.26","5858","approach_avoid_sv1","""event"",""trial"",""time""
""fullscreenenter"",""1"",""1595""
","
","
","""event"",""trial"",""time""
""fullscreenenter"",""1"",""1595""
","
","","","","","","1518.4000000000233","images/cow3.png","","","memory_trial","2","maybe_old",""
"html-keyboard-response","97","242422","0.0-18.0-0.27","5858","approach_avoid_sv1","""event"",""trial"",""time""
""fullscreenenter"",""1"",""1595""
","
","
","""event"",""trial"",""time""
""fullscreenenter"",""1"",""1595""
","
","","","","","","null","<div style=""font-size:60px;"">+</div>","null","","fixation","","",""
"memory-trial","98","244892","0.0-18.0-1.27","5858","approach_avoid_sv1","""event"",""trial"",""time""
""fullscreenenter"",""1"",""1595""
","
","
","""event"",""trial"",""time""
""fullscreenenter"",""1"",""1595""
","
","","","","","","1458.2000000000698","images/chair4.png","","","memory_trial","2","maybe_old",""
"html-keyboard-response","99","245399","0.0-18.0-0.28","5858","approach_avoid_sv1","""event"",""trial"",""time""
""fullscreenenter"",""1"",""1595""
","
","
","""event"",""trial"",""time""
""fullscreenenter"",""1"",""1595""
","
","","","","","","null","<div style=""font-size:60px;"">+</div>","null","","fixation","","",""
"memory-trial","100","247596","0.0-18.0-1.28","5858","approach_avoid_sv1","""event"",""trial"",""time""
""fullscreenenter"",""1"",""1595""
","
","
","""event"",""trial"",""time""
""fullscreenenter"",""1"",""1595""
","
","","","","","","1185.6999999999534","images/rodent4.png","","","memory_trial","3","maybe_new",""
"html-keyboard-response","101","248102","0.0-18.0-0.29","5858","approach_avoid_sv1","""event"",""trial"",""time""
""fullscreenenter"",""1"",""1595""
","
","
","""event"",""trial"",""time""
""fullscreenenter"",""1"",""1595""
","
","","","","","","null","<div style=""font-size:60px;"">+</div>","null","","fixation","","",""
"memory-trial","102","250364","0.0-18.0-1.29","5858","approach_avoid_sv1","""event"",""trial"",""time""
""fullscreenenter"",""1"",""1595""
","
","
","""event"",""trial"",""time""
""fullscreenenter"",""1"",""1595""
","
","","","","","","1251.4000000000233","images/bush5.png","","","memory_trial","1","definitely_old",""
"html-keyboard-response","103","250871","0.0-18.0-0.30","5858","approach_avoid_sv1","""event"",""trial"",""time""
""fullscreenenter"",""1"",""1595""
","
","
","""event"",""trial"",""time""
""fullscreenenter"",""1"",""1595""
","
","","","","","","null","<div style=""font-size:60px;"">+</div>","null","","fixation","","",""
"memory-trial","104","252855","0.0-18.0-1.30","5858","approach_avoid_sv1","""event"",""trial"",""time""
""fullscreenenter"",""1"",""1595""
","
","
","""event"",""trial"",""time""
""fullscreenenter"",""1"",""1595""
","
","","","","","","969.6999999999534","images/goat7.png","","","memory_trial","2","maybe_old",""
"html-keyboard-response","105","253367","0.0-18.0-0.31","5858","approach_avoid_sv1","""event"",""trial"",""time""
""fullscreenenter"",""1"",""1595""
","
","
","""event"",""trial"",""time""
""fullscreenenter"",""1"",""1595""
","
","","","","","","null","<div style=""font-size:60px;"">+</div>","null","","fixation","","",""
"memory-trial","106","255223","0.0-18.0-1.31","5858","approach_avoid_sv1","""event"",""trial"",""time""
""fullscreenenter"",""1"",""1595""
","
","
","""event"",""trial"",""time""
""fullscreenenter"",""1"",""1595""
","
","","","","","","842.8000000000466","images/bed4.png","","","memory_trial","4","definitely_new",""
"html-keyboard-response","107","255735","0.0-18.0-0.32","5858","approach_avoid_sv1","""event"",""trial"",""time""
""fullscreenenter"",""1"",""1595""
","
","
","""event"",""trial"",""time""
""fullscreenenter"",""1"",""1595""
","
","","","","","","null","<div style=""font-size:60px;"">+</div>","null","","fixation","","",""
"memory-trial","108","257852","0.0-18.0-1.32","5858","approach_avoid_sv1","""event"",""trial"",""time""
""fullscreenenter"",""1"",""1595""
","
","
","""event"",""trial"",""time""
""fullscreenenter"",""1"",""1595""
","
","","","","","","1109.2000000000698","images/plane4.png","","","memory_trial","1","definitely_old",""
"html-keyboard-response","109","258359","0.0-18.0-0.33","5858","approach_avoid_sv1","""event"",""trial"",""time""
""fullscreenenter"",""1"",""1595""
","
","
","""event"",""trial"",""time""
""fullscreenenter"",""1"",""1595""
","
","","","","","","null","<div style=""font-size:60px;"">+</div>","null","","fixation","","",""
"memory-trial","110","260679","0.0-18.0-1.33","5858","approach_avoid_sv1","""event"",""trial"",""time""
""fullscreenenter"",""1"",""1595""
","
","
","""event"",""trial"",""time""
""fullscreenenter"",""1"",""1595""
","
","","","","","","1312.5999999999767","images/table1.png","","","memory_trial","3","maybe_new",""
"html-keyboard-response","111","261191","0.0-18.0-0.34","5858","approach_avoid_sv1","""event"",""trial"",""time""
""fullscreenenter"",""1"",""1595""
","
","
","""event"",""trial"",""time""
""fullscreenenter"",""1"",""1595""
","
","","","","","","null","<div style=""font-size:60px;"">+</div>","null","","fixation","","",""
"memory-trial","112","263319","0.0-18.0-1.34","5858","approach_avoid_sv1","""event"",""trial"",""time""
""fullscreenenter"",""1"",""1595""
","
","
","""event"",""trial"",""time""
""fullscreenenter"",""1"",""1595""
","
","","","","","","1114.5","images/cow1.png","","","memory_trial","3","maybe_new",""
"html-keyboard-response","113","263831","0.0-18.0-0.35","5858","approach_avoid_sv1","""event"",""trial"",""time""
""fullscreenenter"",""1"",""1595""
","
","
","""event"",""trial"",""time""
""fullscreenenter"",""1"",""1595""
","
","","","","","","null","<div style=""font-size:60px;"">+</div>","null","","fixation","","",""
"memory-trial","114","266060","0.0-18.0-1.35","5858","approach_avoid_sv1","""event"",""trial"",""time""
""fullscreenenter"",""1"",""1595""
","
","
","""event"",""trial"",""time""
""fullscreenenter"",""1"",""1595""
","
","","","","","","1221.3000000000466","images/cow7.png","","","memory_trial","2","maybe_old",""
"html-keyboard-response","115","266567","0.0-18.0-0.36","5858","approach_avoid_sv1","""event"",""trial"",""time""
""fullscreenenter"",""1"",""1595""
","
","
","""event"",""trial"",""time""
""fullscreenenter"",""1"",""1595""
","
","","","","","","null","<div style=""font-size:60px;"">+</div>","null","","fixation","","",""
"memory-trial","116","268796","0.0-18.0-1.36","5858","approach_avoid_sv1","""event"",""trial"",""time""
""fullscreenenter"",""1"",""1595""
","
","
","""event"",""trial"",""time""
""fullscreenenter"",""1"",""1595""
","
","","","","","","1223.4000000000233","images/truck3.png","","","memory_trial","4","definitely_new",""
"html-keyboard-response","117","269303","0.0-18.0-0.37","5858","approach_avoid_sv1","""event"",""trial"",""time""
""fullscreenenter"",""1"",""1595""
","
","
","""event"",""trial"",""time""
""fullscreenenter"",""1"",""1595""
","
","","","","","","null","<div style=""font-size:60px;"">+</div>","null","","fixation","","",""
"memory-trial","118","271372","0.0-18.0-1.37","5858","approach_avoid_sv1","""event"",""trial"",""time""
""fullscreenenter"",""1"",""1595""
","
","
","""event"",""trial"",""time""
""fullscreenenter"",""1"",""1595""
","
","","","","","","1062.1999999999534","images/cactus2.png","","","memory_trial","4","definitely_new",""
"html-keyboard-response","119","271879","0.0-18.0-0.38","5858","approach_avoid_sv1","""event"",""trial"",""time""
""fullscreenenter"",""1"",""1595""
","
","
","""event"",""trial"",""time""
""fullscreenenter"",""1"",""1595""
","
","","","","","","null","<div style=""font-size:60px;"">+</div>","null","","fixation","","",""
"memory-trial","120","273927","0.0-18.0-1.38","5858","approach_avoid_sv1","""event"",""trial"",""time""
""fullscreenenter"",""1"",""1595""
","
","
","""event"",""trial"",""time""
""fullscreenenter"",""1"",""1595""
","
","","","","","","1039","images/cat6.png","","","memory_trial","4","definitely_new",""
"html-keyboard-response","121","274439","0.0-18.0-0.39","5858","approach_avoid_sv1","""event"",""trial"",""time""
""fullscreenenter"",""1"",""1595""
","
","
","""event"",""trial"",""time""
""fullscreenenter"",""1"",""1595""
","
","","","","","","null","<div style=""font-size:60px;"">+</div>","null","","fixation","","",""
"memory-trial","122","276614","0.0-18.0-1.39","5858","approach_avoid_sv1","""event"",""trial"",""time""
""fullscreenenter"",""1"",""1595""
","
","
","""event"",""trial"",""time""
""fullscreenenter"",""1"",""1595""
","
","","","","","","1168.4000000000233","images/rodent8.png","","","memory_trial","3","maybe_new",""
"html-keyboard-response","123","277127","0.0-18.0-0.40","5858","approach_avoid_sv1","""event"",""trial"",""time""
""fullscreenenter"",""1"",""1595""
","
","
","""event"",""trial"",""time""
""fullscreenenter"",""1"",""1595""
","
","","","","","","null","<div style=""font-size:60px;"">+</div>","null","","fixation","","",""
"memory-trial","124","279566","0.0-18.0-1.40","5858","approach_avoid_sv1","""event"",""trial"",""time""
""fullscreenenter"",""1"",""1595""
","
","
","""event"",""trial"",""time""
""fullscreenenter"",""1"",""1595""
","
","","","","","","1426.2999999999302","images/cactus6.png","","","memory_trial","4","definitely_new",""
"html-keyboard-response","125","280076","0.0-18.0-0.41","5858","approach_avoid_sv1","""event"",""trial"",""time""
""fullscreenenter"",""1"",""1595""
","
","
","""event"",""trial"",""time""
""fullscreenenter"",""1"",""1595""
","
","","","","","","null","<div style=""font-size:60px;"">+</div>","null","","fixation","","",""
"memory-trial","126","282631","0.0-18.0-1.41","5858","approach_avoid_sv1","""event"",""trial"",""time""
""fullscreenenter"",""1"",""1595""
","
","
","""event"",""trial"",""time""
""fullscreenenter"",""1"",""1595""
","
","","","","","","1545.1999999999534","images/horse6.png","","","memory_trial","2","maybe_old",""
"html-button-response","127","286385","0.0-18.0-2.41-0.41","5858","approach_avoid_sv1","""event"",""trial"",""time""
""fullscreenenter"",""1"",""1595""
","
","
","""event"",""trial"",""time""
""fullscreenenter"",""1"",""1595""
","
","","","","","","3751.6999999999534","<p> Take a break! </p><p> Click the button to continue. </p>","0","","break","","",""
"html-keyboard-response","128","286892","0.0-18.0-0.42","5858","approach_avoid_sv1","""event"",""trial"",""time""
""fullscreenenter"",""1"",""1595""
","
","
","""event"",""trial"",""time""
""fullscreenenter"",""1"",""1595""
","
","","","","","","null","<div style=""font-size:60px;"">+</div>","null","","fixation","","",""
"memory-trial","129","289751","0.0-18.0-1.42","5858","approach_avoid_sv1","""event"",""trial"",""time""
""fullscreenenter"",""1"",""1595""
","
","
","""event"",""trial"",""time""
""fullscreenenter"",""1"",""1595""
","
","","","","","","1848.4000000000233","images/straw2.png","","","memory_trial","1","definitely_old",""
"html-keyboard-response","130","290263","0.0-18.0-0.43","5858","approach_avoid_sv1","""event"",""trial"",""time""
""fullscreenenter"",""1"",""1595""
","
","
","""event"",""trial"",""time""
""fullscreenenter"",""1"",""1595""
","
","","","","","","null","<div style=""font-size:60px;"">+</div>","null","","fixation","","",""
"memory-trial","131","293324","0.0-18.0-1.43","5858","approach_avoid_sv1","""event"",""trial"",""time""
""fullscreenenter"",""1"",""1595""
","
","
","""event"",""trial"",""time""
""fullscreenenter"",""1"",""1595""
","
","","","","","","2052.4000000000233","images/truck7.png","","","memory_trial","2","maybe_old",""
"html-keyboard-response","132","293831","0.0-18.0-0.44","5858","approach_avoid_sv1","""event"",""trial"",""time""
""fullscreenenter"",""1"",""1595""
","
","
","""event"",""trial"",""time""
""fullscreenenter"",""1"",""1595""
","
","","","","","","null","<div style=""font-size:60px;"">+</div>","null","","fixation","","",""
"memory-trial","133","296492","0.0-18.0-1.44","5858","approach_avoid_sv1","""event"",""trial"",""time""
""fullscreenenter"",""1"",""1595""
","
","
","""event"",""trial"",""time""
""fullscreenenter"",""1"",""1595""
","
","","","","","","1652.9000000000233","images/sheep8.png","","","memory_trial","4","definitely_new",""
"html-keyboard-response","134","296999","0.0-18.0-0.45","5858","approach_avoid_sv1","""event"",""trial"",""time""
""fullscreenenter"",""1"",""1595""
","
","
","""event"",""trial"",""time""
""fullscreenenter"",""1"",""1595""
","
","","","","","","null","<div style=""font-size:60px;"">+</div>","null","","fixation","","",""
"memory-trial","135","299303","0.0-18.0-1.45","5858","approach_avoid_sv1","""event"",""trial"",""time""
""fullscreenenter"",""1"",""1595""
","
","
","""event"",""trial"",""time""
""fullscreenenter"",""1"",""1595""
","
","","","","","","1290.5","images/table6.png","","","memory_trial","2","maybe_old",""
"html-keyboard-response","136","299815","0.0-18.0-0.46","5858","approach_avoid_sv1","""event"",""trial"",""time""
""fullscreenenter"",""1"",""1595""
","
","
","""event"",""trial"",""time""
""fullscreenenter"",""1"",""1595""
","
","","","","","","null","<div style=""font-size:60px;"">+</div>","null","","fixation","","",""
"memory-trial","137","302044","0.0-18.0-1.46","5858","approach_avoid_sv1","""event"",""trial"",""time""
""fullscreenenter"",""1"",""1595""
","
","
","""event"",""trial"",""time""
""fullscreenenter"",""1"",""1595""
","
","","","","","","1220.6999999999534","images/sheep1.png","","","memory_trial","4","definitely_new",""
"html-keyboard-response","138","302549","0.0-18.0-0.47","5858","approach_avoid_sv1","""event"",""trial"",""time""
""fullscreenenter"",""1"",""1595""
","
","
","""event"",""trial"",""time""
""fullscreenenter"",""1"",""1595""
","
","","","","","","null","<div style=""font-size:60px;"">+</div>","null","","fixation","","",""
"memory-trial","139","304956","0.0-18.0-1.47","5858","approach_avoid_sv1","""event"",""trial"",""time""
""fullscreenenter"",""1"",""1595""
","
","
","""event"",""trial"",""time""
""fullscreenenter"",""1"",""1595""
","
","","","","","","1399.8000000000466","images/table8.png","","","memory_trial","3","maybe_new",""
"html-keyboard-response","140","305463","0.0-18.0-0.48","5858","approach_avoid_sv1","""event"",""trial"",""time""
""fullscreenenter"",""1"",""1595""
","
","
","""event"",""trial"",""time""
""fullscreenenter"",""1"",""1595""
","
","","","","","","null","<div style=""font-size:60px;"">+</div>","null","","fixation","","",""
"memory-trial","141","307532","0.0-18.0-1.48","5858","approach_avoid_sv1","""event"",""trial"",""time""
""fullscreenenter"",""1"",""1595""
","
","
","""event"",""trial"",""time""
""fullscreenenter"",""1"",""1595""
","
","","","","","","1056.6999999999534","images/boat1.png","","","memory_trial","3","maybe_new",""
"html-keyboard-response","142","308039","0.0-18.0-0.49","5858","approach_avoid_sv1","""event"",""trial"",""time""
""fullscreenenter"",""1"",""1595""
","
","
","""event"",""trial"",""time""
""fullscreenenter"",""1"",""1595""
","
","","","","","","null","<div style=""font-size:60px;"">+</div>","null","","fixation","","",""
"memory-trial","143","310268","0.0-18.0-1.49","5858","approach_avoid_sv1","""event"",""trial"",""time""
""fullscreenenter"",""1"",""1595""
","
","
","""event"",""trial"",""time""
""fullscreenenter"",""1"",""1595""
","
","","","","","","1217.6000000000931","images/rabbit1.png","","","memory_trial","2","maybe_old",""
"html-keyboard-response","144","310775","0.0-18.0-0.50","5858","approach_avoid_sv1","""event"",""trial"",""time""
""fullscreenenter"",""1"",""1595""
","
","
","""event"",""trial"",""time""
""fullscreenenter"",""1"",""1595""
","
","","","","","","null","<div style=""font-size:60px;"">+</div>","null","","fixation","","",""
"memory-trial","145","313959","0.0-18.0-1.50","5858","approach_avoid_sv1","""event"",""trial"",""time""
""fullscreenenter"",""1"",""1595""
","
","
","""event"",""trial"",""time""
""fullscreenenter"",""1"",""1595""
","
","","","","","","2173.20000000007","images/table2.png","","","memory_trial","3","maybe_new",""
"html-keyboard-response","146","314471","0.0-18.0-0.51","5858","approach_avoid_sv1","""event"",""trial"",""time""
""fullscreenenter"",""1"",""1595""
","
","
","""event"",""trial"",""time""
""fullscreenenter"",""1"",""1595""
","
","","","","","","null","<div style=""font-size:60px;"">+</div>","null","","fixation","","",""
"memory-trial","147","316551","0.0-18.0-1.51","5858","approach_avoid_sv1","""event"",""trial"",""time""
""fullscreenenter"",""1"",""1595""
","
","
","""event"",""trial"",""time""
""fullscreenenter"",""1"",""1595""
","
","","","","","","1068.0999999999767","images/table4.png","","","memory_trial","2","maybe_old",""
"html-keyboard-response","148","317063","0.0-18.0-0.52","5858","approach_avoid_sv1","""event"",""trial"",""time""
""fullscreenenter"",""1"",""1595""
","
","
","""event"",""trial"",""time""
""fullscreenenter"",""1"",""1595""
","
","","","","","","null","<div style=""font-size:60px;"">+</div>","null","","fixation","","",""
"memory-trial","149","319127","0.0-18.0-1.52","5858","approach_avoid_sv1","""event"",""trial"",""time""
""fullscreenenter"",""1"",""1595""
","
","
","""event"",""trial"",""time""
""fullscreenenter"",""1"",""1595""
","
","","","","","","1054.7999999999302","images/chair8.png","","","memory_trial","1","definitely_old",""
"html-keyboard-response","150","319639","0.0-18.0-0.53","5858","approach_avoid_sv1","""event"",""trial"",""time""
""fullscreenenter"",""1"",""1595""
","
","
","""event"",""trial"",""time""
""fullscreenenter"",""1"",""1595""
","
","","","","","","null","<div style=""font-size:60px;"">+</div>","null","","fixation","","",""
"memory-trial","151","321975","0.0-18.0-1.53","5858","approach_avoid_sv1","""event"",""trial"",""time""
""fullscreenenter"",""1"",""1595""
","
","
","""event"",""trial"",""time""
""fullscreenenter"",""1"",""1595""
","
","","","","","","1322.5","images/sofa8.png","","","memory_trial","1","definitely_old",""
"html-keyboard-response","152","322487","0.0-18.0-0.54","5858","approach_avoid_sv1","""event"",""trial"",""time""
""fullscreenenter"",""1"",""1595""
","
","
","""event"",""trial"",""time""
""fullscreenenter"",""1"",""1595""
","
","","","","","","null","<div style=""font-size:60px;"">+</div>","null","","fixation","","",""
"memory-trial","153","324551","0.0-18.0-1.54","5858","approach_avoid_sv1","""event"",""trial"",""time""
""fullscreenenter"",""1"",""1595""
","
","
","""event"",""trial"",""time""
""fullscreenenter"",""1"",""1595""
","
","","","","","","1054.5999999999767","images/apple3.png","","","memory_trial","4","definitely_new",""
"html-keyboard-response","154","325061","0.0-18.0-0.55","5858","approach_avoid_sv1","""event"",""trial"",""time""
""fullscreenenter"",""1"",""1595""
","
","
","""event"",""trial"",""time""
""fullscreenenter"",""1"",""1595""
","
","","","","","","null","<div style=""font-size:60px;"">+</div>","null","","fixation","","",""
"memory-trial","155","327287","0.0-18.0-1.55","5858","approach_avoid_sv1","""event"",""trial"",""time""
""fullscreenenter"",""1"",""1595""
","
","
","""event"",""trial"",""time""
""fullscreenenter"",""1"",""1595""
","
","","","","","","1216.2999999999302","images/straw3.png","","","memory_trial","3","maybe_new",""
"html-keyboard-response","156","327799","0.0-18.0-0.56","5858","approach_avoid_sv1","""event"",""trial"",""time""
""fullscreenenter"",""1"",""1595""
","
","
","""event"",""trial"",""time""
""fullscreenenter"",""1"",""1595""
","
","","","","","","null","<div style=""font-size:60px;"">+</div>","null","","fixation","","",""
"memory-trial","157","330204","0.0-18.0-1.56","5858","approach_avoid_sv1","""event"",""trial"",""time""
""fullscreenenter"",""1"",""1595""
","
","
","""event"",""trial"",""time""
""fullscreenenter"",""1"",""1595""
","
","","","","","","1398.4000000000233","images/rabbit4.png","","","memory_trial","3","maybe_new",""
"html-keyboard-response","158","330711","0.0-18.0-0.57","5858","approach_avoid_sv1","""event"",""trial"",""time""
""fullscreenenter"",""1"",""1595""
","
","
","""event"",""trial"",""time""
""fullscreenenter"",""1"",""1595""
","
","","","","","","null","<div style=""font-size:60px;"">+</div>","null","","fixation","","",""
"memory-trial","159","333223","0.0-18.0-1.57","5858","approach_avoid_sv1","""event"",""trial"",""time""
""fullscreenenter"",""1"",""1595""
","
","
","""event"",""trial"",""time""
""fullscreenenter"",""1"",""1595""
","
","","","","","","1499","images/truck4.png","","","memory_trial","2","maybe_old",""
"html-keyboard-response","160","333735","0.0-18.0-0.58","5858","approach_avoid_sv1","""event"",""trial"",""time""
""fullscreenenter"",""1"",""1595""
","
","
","""event"",""trial"",""time""
""fullscreenenter"",""1"",""1595""
","
","","","","","","null","<div style=""font-size:60px;"">+</div>","null","","fixation","","",""
"memory-trial","161","336647","0.0-18.0-1.58","5858","approach_avoid_sv1","""event"",""trial"",""time""
""fullscreenenter"",""1"",""1595""
","
","
","""event"",""trial"",""time""
""fullscreenenter"",""1"",""1595""
","
","","","","","","1899.6000000000931","images/dog6.png","","","memory_trial","1","definitely_old",""
"html-keyboard-response","162","337159","0.0-18.0-0.59","5858","approach_avoid_sv1","""event"",""trial"",""time""
""fullscreenenter"",""1"",""1595""
","
","
","""event"",""trial"",""time""
""fullscreenenter"",""1"",""1595""
","
","","","","","","null","<div style=""font-size:60px;"">+</div>","null","","fixation","","",""
"memory-trial","163","339452","0.0-18.0-1.59","5858","approach_avoid_sv1","""event"",""trial"",""time""
""fullscreenenter"",""1"",""1595""
","
","
","""event"",""trial"",""time""
""fullscreenenter"",""1"",""1595""
","
","","","","","","1287.0999999999767","images/train4.png","","","memory_trial","1","definitely_old",""
"html-keyboard-response","164","339958","0.0-18.0-0.60","5858","approach_avoid_sv1","""event"",""trial"",""time""
""fullscreenenter"",""1"",""1595""
","
","
","""event"",""trial"",""time""
""fullscreenenter"",""1"",""1595""
","
","","","","","","null","<div style=""font-size:60px;"">+</div>","null","","fixation","","",""
"memory-trial","165","342108","0.0-18.0-1.60","5858","approach_avoid_sv1","""event"",""trial"",""time""
""fullscreenenter"",""1"",""1595""
","
","
","""event"",""trial"",""time""
""fullscreenenter"",""1"",""1595""
","
","","","","","","1140.6999999999534","images/train2.png","","","memory_trial","3","maybe_new",""
"html-keyboard-response","166","342615","0.0-18.0-0.61","5858","approach_avoid_sv1","""event"",""trial"",""time""
""fullscreenenter"",""1"",""1595""
","
","
","""event"",""trial"",""time""
""fullscreenenter"",""1"",""1595""
","
","","","","","","null","<div style=""font-size:60px;"">+</div>","null","","fixation","","",""
"memory-trial","167","344935","0.0-18.0-1.61","5858","approach_avoid_sv1","""event"",""trial"",""time""
""fullscreenenter"",""1"",""1595""
","
","
","""event"",""trial"",""time""
""fullscreenenter"",""1"",""1595""
","
","","","","","","1308.5","images/cow6.png","","","memory_trial","3","maybe_new",""
"html-keyboard-response","168","345446","0.0-18.0-0.62","5858","approach_avoid_sv1","""event"",""trial"",""time""
""fullscreenenter"",""1"",""1595""
","
","
","""event"",""trial"",""time""
""fullscreenenter"",""1"",""1595""
","
","","","","","","null","<div style=""font-size:60px;"">+</div>","null","","fixation","","",""
"memory-trial","169","347511","0.0-18.0-1.62","5858","approach_avoid_sv1","""event"",""trial"",""time""
""fullscreenenter"",""1"",""1595""
","
","
","""event"",""trial"",""time""
""fullscreenenter"",""1"",""1595""
","
","","","","","","1056.0999999999767","images/dog3.png","","","memory_trial","1","definitely_old",""
"html-keyboard-response","170","348022","0.0-18.0-0.63","5858","approach_avoid_sv1","""event"",""trial"",""time""
""fullscreenenter"",""1"",""1595""
","
","
","""event"",""trial"",""time""
""fullscreenenter"",""1"",""1595""
","
","","","","","","null","<div style=""font-size:60px;"">+</div>","null","","fixation","","",""
"memory-trial","171","350343","0.0-18.0-1.63","5858","approach_avoid_sv1","""event"",""trial"",""time""
""fullscreenenter"",""1"",""1595""
","
","
","""event"",""trial"",""time""
""fullscreenenter"",""1"",""1595""
","
","","","","","","1312.6999999999534","images/flower4.png","","","memory_trial","1","definitely_old",""
"html-keyboard-response","172","350844","0.0-18.0-0.64","5858","approach_avoid_sv1","""event"",""trial"",""time""
""fullscreenenter"",""1"",""1595""
","
","
","""event"",""trial"",""time""
""fullscreenenter"",""1"",""1595""
","
","","","","","","null","<div style=""font-size:60px;"">+</div>","null","","fixation","","",""
"memory-trial","173","352700","0.0-18.0-1.64","5858","approach_avoid_sv1","""event"",""trial"",""time""
""fullscreenenter"",""1"",""1595""
","
","
","""event"",""trial"",""time""
""fullscreenenter"",""1"",""1595""
","
","","","","","","846.5","images/sheep4.png","","","memory_trial","4","definitely_new",""
"html-keyboard-response","174","353207","0.0-18.0-0.65","5858","approach_avoid_sv1","""event"",""trial"",""time""
""fullscreenenter"",""1"",""1595""
","
","
","""event"",""trial"",""time""
""fullscreenenter"",""1"",""1595""
","
","","","","","","null","<div style=""font-size:60px;"">+</div>","null","","fixation","","",""
"memory-trial","175","355292","0.0-18.0-1.65","5858","approach_avoid_sv1","""event"",""trial"",""time""
""fullscreenenter"",""1"",""1595""
","
","
","""event"",""trial"",""time""
""fullscreenenter"",""1"",""1595""
","
","","","","","","1080.0999999999767","images/rabbit5.png","","","memory_trial","3","maybe_new",""
"html-keyboard-response","176","355798","0.0-18.0-0.66","5858","approach_avoid_sv1","""event"",""trial"",""time""
""fullscreenenter"",""1"",""1595""
","
","
","""event"",""trial"",""time""
""fullscreenenter"",""1"",""1595""
","
","","","","","","null","<div style=""font-size:60px;"">+</div>","null","","fixation","","",""
"memory-trial","177","358215","0.0-18.0-1.66","5858","approach_avoid_sv1","""event"",""trial"",""time""
""fullscreenenter"",""1"",""1595""
","
","
","""event"",""trial"",""time""
""fullscreenenter"",""1"",""1595""
","
","","","","","","1403.4000000000233","images/banana4.png","","","memory_trial","2","maybe_old",""
"html-keyboard-response","178","358727","0.0-18.0-0.67","5858","approach_avoid_sv1","""event"",""trial"",""time""
""fullscreenenter"",""1"",""1595""
","
","
","""event"",""trial"",""time""
""fullscreenenter"",""1"",""1595""
","
","","","","","","null","<div style=""font-size:60px;"">+</div>","null","","fixation","","",""
"memory-trial","179","360972","0.0-18.0-1.67","5858","approach_avoid_sv1","""event"",""trial"",""time""
""fullscreenenter"",""1"",""1595""
","
","
","""event"",""trial"",""time""
""fullscreenenter"",""1"",""1595""
","
","","","","","","1233","images/straw7.png","","","memory_trial","3","maybe_new",""
"html-keyboard-response","180","361479","0.0-18.0-0.68","5858","approach_avoid_sv1","""event"",""trial"",""time""
""fullscreenenter"",""1"",""1595""
","
","
","""event"",""trial"",""time""
""fullscreenenter"",""1"",""1595""
","
","","","","","","null","<div style=""font-size:60px;"">+</div>","null","","fixation","","",""
"memory-trial","181","363452","0.0-18.0-1.68","5858","approach_avoid_sv1","""event"",""trial"",""time""
""fullscreenenter"",""1"",""1595""
","
","
","""event"",""trial"",""time""
""fullscreenenter"",""1"",""1595""
","
","","","","","","960.5999999999767","images/plane7.png","","","memory_trial","1","definitely_old",""
"html-keyboard-response","182","363959","0.0-18.0-0.69","5858","approach_avoid_sv1","""event"",""trial"",""time""
""fullscreenenter"",""1"",""1595""
","
","
","""event"",""trial"",""time""
""fullscreenenter"",""1"",""1595""
","
","","","","","","null","<div style=""font-size:60px;"">+</div>","null","","fixation","","",""
"memory-trial","183","366151","0.0-18.0-1.69","5858","approach_avoid_sv1","""event"",""trial"",""time""
""fullscreenenter"",""1"",""1595""
","
","
","""event"",""trial"",""time""
""fullscreenenter"",""1"",""1595""
","
","","","","","","1182.4000000000233","images/plane1.png","","","memory_trial","4","definitely_new",""
"html-keyboard-response","184","366663","0.0-18.0-0.70","5858","approach_avoid_sv1","""event"",""trial"",""time""
""fullscreenenter"",""1"",""1595""
","
","
","""event"",""trial"",""time""
""fullscreenenter"",""1"",""1595""
","
","","","","","","null","<div style=""font-size:60px;"">+</div>","null","","fixation","","",""
"memory-trial","185","369863","0.0-18.0-1.70","5858","approach_avoid_sv1","""event"",""trial"",""time""
""fullscreenenter"",""1"",""1595""
","
","
","""event"",""trial"",""time""
""fullscreenenter"",""1"",""1595""
","
","","","","","","2187.899999999907","images/cactus7.png","","","memory_trial","4","definitely_new",""
"html-keyboard-response","186","370375","0.0-18.0-0.71","5858","approach_avoid_sv1","""event"",""trial"",""time""
""fullscreenenter"",""1"",""1595""
","
","
","""event"",""trial"",""time""
""fullscreenenter"",""1"",""1595""
","
","","","","","","null","<div style=""font-size:60px;"">+</div>","null","","fixation","","",""
"memory-trial","187","374151","0.0-18.0-1.71","5858","approach_avoid_sv1","""event"",""trial"",""time""
""fullscreenenter"",""1"",""1595""
","
","
","""event"",""trial"",""time""
""fullscreenenter"",""1"",""1595""
","
","","","","","","2762.9000000000233","images/dog2.png","","","memory_trial","3","maybe_new",""
"html-keyboard-response","188","374663","0.0-18.0-0.72","5858","approach_avoid_sv1","""event"",""trial"",""time""
""fullscreenenter"",""1"",""1595""
","
","
","""event"",""trial"",""time""
""fullscreenenter"",""1"",""1595""
","
","","","","","","null","<div style=""font-size:60px;"">+</div>","null","","fixation","","",""
"memory-trial","189","376503","0.0-18.0-1.72","5858","approach_avoid_sv1","""event"",""trial"",""time""
""fullscreenenter"",""1"",""1595""
","
","
","""event"",""trial"",""time""
""fullscreenenter"",""1"",""1595""
","
","","","","","","826.3000000000466","images/cat4.png","","","memory_trial","4","definitely_new",""
"html-keyboard-response","190","377015","0.0-18.0-0.73","5858","approach_avoid_sv1","""event"",""trial"",""time""
""fullscreenenter"",""1"",""1595""
","
","
","""event"",""trial"",""time""
""fullscreenenter"",""1"",""1595""
","
","","","","","","null","<div style=""font-size:60px;"">+</div>","null","","fixation","","",""
"memory-trial","191","380252","0.0-18.0-1.73","5858","approach_avoid_sv1","""event"",""trial"",""time""
""fullscreenenter"",""1"",""1595""
","
","
","""event"",""trial"",""time""
""fullscreenenter"",""1"",""1595""
","
","","","","","","2229.4000000000233","images/horse1.png","","","memory_trial","3","maybe_new",""
"html-keyboard-response","192","380759","0.0-18.0-0.74","5858","approach_avoid_sv1","""event"",""trial"",""time""
""fullscreenenter"",""1"",""1595""
","
","
","""event"",""trial"",""time""
""fullscreenenter"",""1"",""1595""
","
","","","","","","null","<div style=""font-size:60px;"">+</div>","null","","fixation","","",""
"memory-trial","193","383063","0.0-18.0-1.74","5858","approach_avoid_sv1","""event"",""trial"",""time""
""fullscreenenter"",""1"",""1595""
","
","
","""event"",""trial"",""time""
""fullscreenenter"",""1"",""1595""
","
","","","","","","1294.7999999999302","images/orange1.png","","","memory_trial","2","maybe_old",""
"html-keyboard-response","194","383575","0.0-18.0-0.75","5858","approach_avoid_sv1","""event"",""trial"",""time""
""fullscreenenter"",""1"",""1595""
","
","
","""event"",""trial"",""time""
""fullscreenenter"",""1"",""1595""
","
","","","","","","null","<div style=""font-size:60px;"">+</div>","null","","fixation","","",""
"memory-trial","195","385319","0.0-18.0-1.75","5858","approach_avoid_sv1","""event"",""trial"",""time""
""fullscreenenter"",""1"",""1595""
","
","
","""event"",""trial"",""time""
""fullscreenenter"",""1"",""1595""
","
","","","","","","730.4000000000233","images/apple6.png","","","memory_trial","4","definitely_new",""
"html-keyboard-response","196","385831","0.0-18.0-0.76","5858","approach_avoid_sv1","""event"",""trial"",""time""
""fullscreenenter"",""1"",""1595""
","
","
","""event"",""trial"",""time""
""fullscreenenter"",""1"",""1595""
","
","","","","","","null","<div style=""font-size:60px;"">+</div>","null","","fixation","","",""
"memory-trial","197","387932","0.0-18.0-1.76","5858","approach_avoid_sv1","""event"",""trial"",""time""
""fullscreenenter"",""1"",""1595""
","
","
","""event"",""trial"",""time""
""fullscreenenter"",""1"",""1595""
","
","","","","","","1094.5999999999767","images/dog5.png","","","memory_trial","1","definitely_old",""
"html-keyboard-response","198","388439","0.0-18.0-0.77","5858","approach_avoid_sv1","""event"",""trial"",""time""
""fullscreenenter"",""1"",""1595""
","
","
","""event"",""trial"",""time""
""fullscreenenter"",""1"",""1595""
","
","","","","","","null","<div style=""font-size:60px;"">+</div>","null","","fixation","","",""
"memory-trial","199","390508","0.0-18.0-1.77","5858","approach_avoid_sv1","""event"",""trial"",""time""
""fullscreenenter"",""1"",""1595""
","
","
","""event"",""trial"",""time""
""fullscreenenter"",""1"",""1595""
","
","","","","","","1060.7999999999302","images/train7.png","","","memory_trial","3","maybe_new",""
"html-keyboard-response","200","391012","0.0-18.0-0.78","5858","approach_avoid_sv1","""event"",""trial"",""time""
""fullscreenenter"",""1"",""1595""
","
","
","""event"",""trial"",""time""
""fullscreenenter"",""1"",""1595""
","
","","","","","","null","<div style=""font-size:60px;"">+</div>","null","","fixation","","",""
"memory-trial","201","393100","0.0-18.0-1.78","5858","approach_avoid_sv1","""event"",""trial"",""time""
""fullscreenenter"",""1"",""1595""
","
","
","""event"",""trial"",""time""
""fullscreenenter"",""1"",""1595""
","
","","","","","","1082.1999999999534","images/tree1.png","","","memory_trial","2","maybe_old",""
"html-keyboard-response","202","393607","0.0-18.0-0.79","5858","approach_avoid_sv1","""event"",""trial"",""time""
""fullscreenenter"",""1"",""1595""
","
","
","""event"",""trial"",""time""
""fullscreenenter"",""1"",""1595""
","
","","","","","","null","<div style=""font-size:60px;"">+</div>","null","","fixation","","",""
"memory-trial","203","395708","0.0-18.0-1.79","5858","approach_avoid_sv1","""event"",""trial"",""time""
""fullscreenenter"",""1"",""1595""
","
","
","""event"",""trial"",""time""
""fullscreenenter"",""1"",""1595""
","
","","","","","","1093.1999999999534","images/chair1.png","","","memory_trial","3","maybe_new",""
"html-keyboard-response","204","396215","0.0-18.0-0.80","5858","approach_avoid_sv1","""event"",""trial"",""time""
""fullscreenenter"",""1"",""1595""
","
","
","""event"",""trial"",""time""
""fullscreenenter"",""1"",""1595""
","
","","","","","","null","<div style=""font-size:60px;"">+</div>","null","","fixation","","",""
"memory-trial","205","398141","0.0-18.0-1.80","5858","approach_avoid_sv1","""event"",""trial"",""time""
""fullscreenenter"",""1"",""1595""
","
","
","""event"",""trial"",""time""
""fullscreenenter"",""1"",""1595""
","
","","","","","","920.1999999999534","images/chair2.png","","","memory_trial","1","definitely_old",""
"html-keyboard-response","206","398652","0.0-18.0-0.81","5858","approach_avoid_sv1","""event"",""trial"",""time""
""fullscreenenter"",""1"",""1595""
","
","
","""event"",""trial"",""time""
""fullscreenenter"",""1"",""1595""
","
","","","","","","null","<div style=""font-size:60px;"">+</div>","null","","fixation","","",""
"memory-trial","207","400871","0.0-18.0-1.81","5858","approach_avoid_sv1","""event"",""trial"",""time""
""fullscreenenter"",""1"",""1595""
","
","
","""event"",""trial"",""time""
""fullscreenenter"",""1"",""1595""
","
","","","","","","1205","images/orange2.png","","","memory_trial","3","maybe_new",""
"html-keyboard-response","208","401383","0.0-18.0-0.82","5858","approach_avoid_sv1","""event"",""trial"",""time""
""fullscreenenter"",""1"",""1595""
","
","
","""event"",""trial"",""time""
""fullscreenenter"",""1"",""1595""
","
","","","","","","null","<div style=""font-size:60px;"">+</div>","null","","fixation","","",""
"memory-trial","209","403319","0.0-18.0-1.82","5858","approach_avoid_sv1","""event"",""trial"",""time""
""fullscreenenter"",""1"",""1595""
","
","
","""event"",""trial"",""time""
""fullscreenenter"",""1"",""1595""
","
","","","","","","928.2999999999302","images/cat8.png","","","memory_trial","4","definitely_new",""
"html-keyboard-response","210","403831","0.0-18.0-0.83","5858","approach_avoid_sv1","""event"",""trial"",""time""
""fullscreenenter"",""1"",""1595""
","
","
","""event"",""trial"",""time""
""fullscreenenter"",""1"",""1595""
","
","","","","","","null","<div style=""font-size:60px;"">+</div>","null","","fixation","","",""
"memory-trial","211","405703","0.0-18.0-1.83","5858","approach_avoid_sv1","""event"",""trial"",""time""
""fullscreenenter"",""1"",""1595""
","
","
","""event"",""trial"",""time""
""fullscreenenter"",""1"",""1595""
","
","","","","","","858.1000000000931","images/sheep7.png","","","memory_trial","4","definitely_new",""
"html-keyboard-response","212","406215","0.0-18.0-0.84","5858","approach_avoid_sv1","""event"",""trial"",""time""
""fullscreenenter"",""1"",""1595""
","
","
","""event"",""trial"",""time""
""fullscreenenter"",""1"",""1595""
","
","","","","","","null","<div style=""font-size:60px;"">+</div>","null","","fixation","","",""
"memory-trial","213","408279","0.0-18.0-1.84","5858","approach_avoid_sv1","""event"",""trial"",""time""
""fullscreenenter"",""1"",""1595""
","
","
","""event"",""trial"",""time""
""fullscreenenter"",""1"",""1595""
","
","","","","","","1056.1999999999534","images/plane5.png","","","memory_trial","2","maybe_old",""
"html-keyboard-response","214","408791","0.0-18.0-0.85","5858","approach_avoid_sv1","""event"",""trial"",""time""
""fullscreenenter"",""1"",""1595""
","
","
","""event"",""trial"",""time""
""fullscreenenter"",""1"",""1595""
","
","","","","","","null","<div style=""font-size:60px;"">+</div>","null","","fixation","","",""
"memory-trial","215","410524","0.0-18.0-1.85","5858","approach_avoid_sv1","""event"",""trial"",""time""
""fullscreenenter"",""1"",""1595""
","
","
","""event"",""trial"",""time""
""fullscreenenter"",""1"",""1595""
","
","","","","","","725","images/tree7.png","","","memory_trial","2","maybe_old",""
"html-keyboard-response","216","411031","0.0-18.0-0.86","5858","approach_avoid_sv1","""event"",""trial"",""time""
""fullscreenenter"",""1"",""1595""
","
","
","""event"",""trial"",""time""
""fullscreenenter"",""1"",""1595""
","
","","","","","","null","<div style=""font-size:60px;"">+</div>","null","","fixation","","",""
"memory-trial","217","413191","0.0-18.0-1.86","5858","approach_avoid_sv1","""event"",""trial"",""time""
""fullscreenenter"",""1"",""1595""
","
","
","""event"",""trial"",""time""
""fullscreenenter"",""1"",""1595""
","
","","","","","","1149.0999999999767","images/goat2.png","","","memory_trial","4","definitely_new",""
"html-keyboard-response","218","413703","0.0-18.0-0.87","5858","approach_avoid_sv1","""event"",""trial"",""time""
""fullscreenenter"",""1"",""1595""
","
","
","""event"",""trial"",""time""
""fullscreenenter"",""1"",""1595""
","
","","","","","","null","<div style=""font-size:60px;"">+</div>","null","","fixation","","",""
"memory-trial","219","415975","0.0-18.0-1.87","5858","approach_avoid_sv1","""event"",""trial"",""time""
""fullscreenenter"",""1"",""1595""
","
","
","""event"",""trial"",""time""
""fullscreenenter"",""1"",""1595""
","
","","","","","","1264.1999999999534","images/sofa6.png","","","memory_trial","2","maybe_old",""
"html-keyboard-response","220","416487","0.0-18.0-0.88","5858","approach_avoid_sv1","""event"",""trial"",""time""
""fullscreenenter"",""1"",""1595""
","
","
","""event"",""trial"",""time""
""fullscreenenter"",""1"",""1595""
","
","","","","","","null","<div style=""font-size:60px;"">+</div>","null","","fixation","","",""
"memory-trial","221","418359","0.0-18.0-1.88","5858","approach_avoid_sv1","""event"",""trial"",""time""
""fullscreenenter"",""1"",""1595""
","
","
","""event"",""trial"",""time""
""fullscreenenter"",""1"",""1595""
","
","","","","","","859.5999999999767","images/sheep2.png","","","memory_trial","4","definitely_new",""
"html-keyboard-response","222","418871","0.0-18.0-0.89","5858","approach_avoid_sv1","""event"",""trial"",""time""
""fullscreenenter"",""1"",""1595""
","
","
","""event"",""trial"",""time""
""fullscreenenter"",""1"",""1595""
","
","","","","","","null","<div style=""font-size:60px;"">+</div>","null","","fixation","","",""
"memory-trial","223","420775","0.0-18.0-1.89","5858","approach_avoid_sv1","""event"",""trial"",""time""
""fullscreenenter"",""1"",""1595""
","
","
","""event"",""trial"",""time""
""fullscreenenter"",""1"",""1595""
","
","","","","","","895.5999999999767","images/tree2.png","","","memory_trial","1","definitely_old",""
"html-keyboard-response","224","421287","0.0-18.0-0.90","5858","approach_avoid_sv1","""event"",""trial"",""time""
""fullscreenenter"",""1"",""1595""
","
","
","""event"",""trial"",""time""
""fullscreenenter"",""1"",""1595""
","
","","","","","","null","<div style=""font-size:60px;"">+</div>","null","","fixation","","",""
"memory-trial","225","423703","0.0-18.0-1.90","5858","approach_avoid_sv1","""event"",""trial"",""time""
""fullscreenenter"",""1"",""1595""
","
","
","""event"",""trial"",""time""
""fullscreenenter"",""1"",""1595""
","
","","","","","","1406.5999999999767","images/flower5.png","","","memory_trial","2","maybe_old",""
"html-keyboard-response","226","424215","0.0-18.0-0.91","5858","approach_avoid_sv1","""event"",""trial"",""time""
""fullscreenenter"",""1"",""1595""
","
","
","""event"",""trial"",""time""
""fullscreenenter"",""1"",""1595""
","
","","","","","","null","<div style=""font-size:60px;"">+</div>","null","","fixation","","",""
"memory-trial","227","426327","0.0-18.0-1.91","5858","approach_avoid_sv1","""event"",""trial"",""time""
""fullscreenenter"",""1"",""1595""
""blur"",""228"",""556565""
""focus"",""228"",""707805""
","""event"",""trial"",""time""
""blur"",""228"",""556565""
","""event"",""trial"",""time""
""focus"",""228"",""707805""
","""event"",""trial"",""time""
""fullscreenenter"",""1"",""1595""
","
","","","","","","1098.5999999999767","images/rodent6.png","","","memory_trial","2","maybe_old",""
"html-button-response","228","709808","0.0-18.0-2.91-0.91","5858","approach_avoid_sv1","""event"",""trial"",""time""
""fullscreenenter"",""1"",""1595""
""blur"",""228"",""556565""
""focus"",""228"",""707805""
","""event"",""trial"",""time""
""blur"",""228"",""556565""
","""event"",""trial"",""time""
""focus"",""228"",""707805""
","""event"",""trial"",""time""
""fullscreenenter"",""1"",""1595""
","
","","","","","","139306.90000000002","<p> Take a break! </p><p> Click the button to continue. </p>","0","","break","","",""
"html-keyboard-response","229","710312","0.0-18.0-0.92","5858","approach_avoid_sv1","""event"",""trial"",""time""
""fullscreenenter"",""1"",""1595""
""blur"",""228"",""556565""
""focus"",""228"",""707805""
","""event"",""trial"",""time""
""blur"",""228"",""556565""
","""event"",""trial"",""time""
""focus"",""228"",""707805""
","""event"",""trial"",""time""
""fullscreenenter"",""1"",""1595""
","
","","","","","","null","<div style=""font-size:60px;"">+</div>","null","","fixation","","",""
"memory-trial","230","712755","0.0-18.0-1.92","5858","approach_avoid_sv1","""event"",""trial"",""time""
""fullscreenenter"",""1"",""1595""
""blur"",""228"",""556565""
""focus"",""228"",""707805""
","""event"",""trial"",""time""
""blur"",""228"",""556565""
","""event"",""trial"",""time""
""focus"",""228"",""707805""
","""event"",""trial"",""time""
""fullscreenenter"",""1"",""1595""
","
","","","","","","1427.5999999999767","images/truck5.png","","","memory_trial","2","maybe_old",""
"html-keyboard-response","231","713267","0.0-18.0-0.93","5858","approach_avoid_sv1","""event"",""trial"",""time""
""fullscreenenter"",""1"",""1595""
""blur"",""228"",""556565""
""focus"",""228"",""707805""
","""event"",""trial"",""time""
""blur"",""228"",""556565""
","""event"",""trial"",""time""
""focus"",""228"",""707805""
","""event"",""trial"",""time""
""fullscreenenter"",""1"",""1595""
","
","","","","","","null","<div style=""font-size:60px;"">+</div>","null","","fixation","","",""
"memory-trial","232","715219","0.0-18.0-1.93","5858","approach_avoid_sv1","""event"",""trial"",""time""
""fullscreenenter"",""1"",""1595""
""blur"",""228"",""556565""
""focus"",""228"",""707805""
","""event"",""trial"",""time""
""blur"",""228"",""556565""
","""event"",""trial"",""time""
""focus"",""228"",""707805""
","""event"",""trial"",""time""
""fullscreenenter"",""1"",""1595""
","
","","","","","","937.5999999999767","images/banana5.png","","","memory_trial","1","definitely_old",""
"html-keyboard-response","233","715731","0.0-18.0-0.94","5858","approach_avoid_sv1","""event"",""trial"",""time""
""fullscreenenter"",""1"",""1595""
""blur"",""228"",""556565""
""focus"",""228"",""707805""
","""event"",""trial"",""time""
""blur"",""228"",""556565""
","""event"",""trial"",""time""
""focus"",""228"",""707805""
","""event"",""trial"",""time""
""fullscreenenter"",""1"",""1595""
","
","","","","","","null","<div style=""font-size:60px;"">+</div>","null","","fixation","","",""
"memory-trial","234","717587","0.0-18.0-1.94","5858","approach_avoid_sv1","""event"",""trial"",""time""
""fullscreenenter"",""1"",""1595""
""blur"",""228"",""556565""
""focus"",""228"",""707805""
","""event"",""trial"",""time""
""blur"",""228"",""556565""
","""event"",""trial"",""time""
""focus"",""228"",""707805""
","""event"",""trial"",""time""
""fullscreenenter"",""1"",""1595""
","
","","","","","","846.6999999999534","images/cat7.png","","","memory_trial","4","definitely_new",""
"html-keyboard-response","235","718099","0.0-18.0-0.95","5858","approach_avoid_sv1","""event"",""trial"",""time""
""fullscreenenter"",""1"",""1595""
""blur"",""228"",""556565""
""focus"",""228"",""707805""
","""event"",""trial"",""time""
""blur"",""228"",""556565""
","""event"",""trial"",""time""
""focus"",""228"",""707805""
","""event"",""trial"",""time""
""fullscreenenter"",""1"",""1595""
","
","","","","","","null","<div style=""font-size:60px;"">+</div>","null","","fixation","","",""
"memory-trial","236","720249","0.0-18.0-1.95","5858","approach_avoid_sv1","""event"",""trial"",""time""
""fullscreenenter"",""1"",""1595""
""blur"",""228"",""556565""
""focus"",""228"",""707805""
","""event"",""trial"",""time""
""blur"",""228"",""556565""
","""event"",""trial"",""time""
""focus"",""228"",""707805""
","""event"",""trial"",""time""
""fullscreenenter"",""1"",""1595""
","
","","","","","","1143.9000000000233","images/horse5.png","","","memory_trial","3","maybe_new",""
"html-keyboard-response","237","720755","0.0-18.0-0.96","5858","approach_avoid_sv1","""event"",""trial"",""time""
""fullscreenenter"",""1"",""1595""
""blur"",""228"",""556565""
""focus"",""228"",""707805""
","""event"",""trial"",""time""
""blur"",""228"",""556565""
","""event"",""trial"",""time""
""focus"",""228"",""707805""
","""event"",""trial"",""time""
""fullscreenenter"",""1"",""1595""
","
","","","","","","null","<div style=""font-size:60px;"">+</div>","null","","fixation","","",""
"memory-trial","238","723161","0.0-18.0-1.96","5858","approach_avoid_sv1","""event"",""trial"",""time""
""fullscreenenter"",""1"",""1595""
""blur"",""228"",""556565""
""focus"",""228"",""707805""
","""event"",""trial"",""time""
""blur"",""228"",""556565""
","""event"",""trial"",""time""
""focus"",""228"",""707805""
","""event"",""trial"",""time""
""fullscreenenter"",""1"",""1595""
","
","","","","","","1393.8000000000466","images/chair5.png","","","memory_trial","3","maybe_new",""
"html-keyboard-response","239","723667","0.0-18.0-0.97","5858","approach_avoid_sv1","""event"",""trial"",""time""
""fullscreenenter"",""1"",""1595""
""blur"",""228"",""556565""
""focus"",""228"",""707805""
","""event"",""trial"",""time""
""blur"",""228"",""556565""
","""event"",""trial"",""time""
""focus"",""228"",""707805""
","""event"",""trial"",""time""
""fullscreenenter"",""1"",""1595""
","
","","","","","","null","<div style=""font-size:60px;"">+</div>","null","","fixation","","",""
"memory-trial","240","726121","0.0-18.0-1.97","5858","approach_avoid_sv1","""event"",""trial"",""time""
""fullscreenenter"",""1"",""1595""
""blur"",""228"",""556565""
""focus"",""228"",""707805""
","""event"",""trial"",""time""
""blur"",""228"",""556565""
","""event"",""trial"",""time""
""focus"",""228"",""707805""
","""event"",""trial"",""time""
""fullscreenenter"",""1"",""1595""
","
","","","","","","1445.9000000000233","images/straw8.png","","","memory_trial","2","maybe_old",""
"html-keyboard-response","241","726627","0.0-18.0-0.98","5858","approach_avoid_sv1","""event"",""trial"",""time""
""fullscreenenter"",""1"",""1595""
""blur"",""228"",""556565""
""focus"",""228"",""707805""
","""event"",""trial"",""time""
""blur"",""228"",""556565""
","""event"",""trial"",""time""
""focus"",""228"",""707805""
","""event"",""trial"",""time""
""fullscreenenter"",""1"",""1595""
","
","","","","","","null","<div style=""font-size:60px;"">+</div>","null","","fixation","","",""
"memory-trial","242","728659","0.0-18.0-1.98","5858","approach_avoid_sv1","""event"",""trial"",""time""
""fullscreenenter"",""1"",""1595""
""blur"",""228"",""556565""
""focus"",""228"",""707805""
","""event"",""trial"",""time""
""blur"",""228"",""556565""
","""event"",""trial"",""time""
""focus"",""228"",""707805""
","""event"",""trial"",""time""
""fullscreenenter"",""1"",""1595""
","
","","","","","","1024.1000000000931","images/apple1.png","","","memory_trial","4","definitely_new",""
"html-keyboard-response","243","729171","0.0-18.0-0.99","5858","approach_avoid_sv1","""event"",""trial"",""time""
""fullscreenenter"",""1"",""1595""
""blur"",""228"",""556565""
""focus"",""228"",""707805""
","""event"",""trial"",""time""
""blur"",""228"",""556565""
","""event"",""trial"",""time""
""focus"",""228"",""707805""
","""event"",""trial"",""time""
""fullscreenenter"",""1"",""1595""
","
","","","","","","null","<div style=""font-size:60px;"">+</div>","null","","fixation","","",""
"memory-trial","244","731337","0.0-18.0-1.99","5858","approach_avoid_sv1","""event"",""trial"",""time""
""fullscreenenter"",""1"",""1595""
""blur"",""228"",""556565""
""focus"",""228"",""707805""
","""event"",""trial"",""time""
""blur"",""228"",""556565""
","""event"",""trial"",""time""
""focus"",""228"",""707805""
","""event"",""trial"",""time""
""fullscreenenter"",""1"",""1595""
","
","","","","","","1154.8000000000466","images/sofa4.png","","","memory_trial","1","definitely_old",""
"html-keyboard-response","245","731843","0.0-18.0-0.100","5858","approach_avoid_sv1","""event"",""trial"",""time""
""fullscreenenter"",""1"",""1595""
""blur"",""228"",""556565""
""focus"",""228"",""707805""
","""event"",""trial"",""time""
""blur"",""228"",""556565""
","""event"",""trial"",""time""
""focus"",""228"",""707805""
","""event"",""trial"",""time""
""fullscreenenter"",""1"",""1595""
","
","","","","","","null","<div style=""font-size:60px;"">+</div>","null","","fixation","","",""
"memory-trial","246","734472","0.0-18.0-1.100","5858","approach_avoid_sv1","""event"",""trial"",""time""
""fullscreenenter"",""1"",""1595""
""blur"",""228"",""556565""
""focus"",""228"",""707805""
","""event"",""trial"",""time""
""blur"",""228"",""556565""
","""event"",""trial"",""time""
""focus"",""228"",""707805""
","""event"",""trial"",""time""
""fullscreenenter"",""1"",""1595""
","
","","","","","","1621.6999999999534","images/banana8.png","","","memory_trial","3","maybe_new",""
"html-keyboard-response","247","734979","0.0-18.0-0.101","5858","approach_avoid_sv1","""event"",""trial"",""time""
""fullscreenenter"",""1"",""1595""
""blur"",""228"",""556565""
""focus"",""228"",""707805""
","""event"",""trial"",""time""
""blur"",""228"",""556565""
","""event"",""trial"",""time""
""focus"",""228"",""707805""
","""event"",""trial"",""time""
""fullscreenenter"",""1"",""1595""
","
","","","","","","null","<div style=""font-size:60px;"">+</div>","null","","fixation","","",""
"memory-trial","248","738611","0.0-18.0-1.101","5858","approach_avoid_sv1","""event"",""trial"",""time""
""fullscreenenter"",""1"",""1595""
""blur"",""228"",""556565""
""focus"",""228"",""707805""
","""event"",""trial"",""time""
""blur"",""228"",""556565""
","""event"",""trial"",""time""
""focus"",""228"",""707805""
","""event"",""trial"",""time""
""fullscreenenter"",""1"",""1595""
","
","","","","","","2617.1999999999534","images/boat4.png","","","memory_trial","4","definitely_new",""
"html-keyboard-response","249","739123","0.0-18.0-0.102","5858","approach_avoid_sv1","""event"",""trial"",""time""
""fullscreenenter"",""1"",""1595""
""blur"",""228"",""556565""
""focus"",""228"",""707805""
","""event"",""trial"",""time""
""blur"",""228"",""556565""
","""event"",""trial"",""time""
""focus"",""228"",""707805""
","""event"",""trial"",""time""
""fullscreenenter"",""1"",""1595""
","
","","","","","","null","<div style=""font-size:60px;"">+</div>","null","","fixation","","",""
"memory-trial","250","740867","0.0-18.0-1.102","5858","approach_avoid_sv1","""event"",""trial"",""time""
""fullscreenenter"",""1"",""1595""
""blur"",""228"",""556565""
""focus"",""228"",""707805""
","""event"",""trial"",""time""
""blur"",""228"",""556565""
","""event"",""trial"",""time""
""focus"",""228"",""707805""
","""event"",""trial"",""time""
""fullscreenenter"",""1"",""1595""
","
","","","","","","731.1999999999534","images/sheep6.png","","","memory_trial","4","definitely_new",""
"html-keyboard-response","251","741379","0.0-18.0-0.103","5858","approach_avoid_sv1","""event"",""trial"",""time""
""fullscreenenter"",""1"",""1595""
""blur"",""228"",""556565""
""focus"",""228"",""707805""
","""event"",""trial"",""time""
""blur"",""228"",""556565""
","""event"",""trial"",""time""
""focus"",""228"",""707805""
","""event"",""trial"",""time""
""fullscreenenter"",""1"",""1595""
","
","","","","","","null","<div style=""font-size:60px;"">+</div>","null","","fixation","","",""
"memory-trial","252","743464","0.0-18.0-1.103","5858","approach_avoid_sv1","""event"",""trial"",""time""
""fullscreenenter"",""1"",""1595""
""blur"",""228"",""556565""
""focus"",""228"",""707805""
","""event"",""trial"",""time""
""blur"",""228"",""556565""
","""event"",""trial"",""time""
""focus"",""228"",""707805""
","""event"",""trial"",""time""
""fullscreenenter"",""1"",""1595""
","
","","","","","","1079.6999999999534","images/sofa2.png","","","memory_trial","1","definitely_old",""
"html-keyboard-response","253","743971","0.0-18.0-0.104","5858","approach_avoid_sv1","""event"",""trial"",""time""
""fullscreenenter"",""1"",""1595""
""blur"",""228"",""556565""
""focus"",""228"",""707805""
","""event"",""trial"",""time""
""blur"",""228"",""556565""
","""event"",""trial"",""time""
""focus"",""228"",""707805""
","""event"",""trial"",""time""
""fullscreenenter"",""1"",""1595""
","
","","","","","","null","<div style=""font-size:60px;"">+</div>","null","","fixation","","",""
"memory-trial","254","746248","0.0-18.0-1.104","5858","approach_avoid_sv1","""event"",""trial"",""time""
""fullscreenenter"",""1"",""1595""
""blur"",""228"",""556565""
""focus"",""228"",""707805""
","""event"",""trial"",""time""
""blur"",""228"",""556565""
","""event"",""trial"",""time""
""focus"",""228"",""707805""
","""event"",""trial"",""time""
""fullscreenenter"",""1"",""1595""
","
","","","","","","1269.5","images/goat6.png","","","memory_trial","2","maybe_old",""
"html-keyboard-response","255","746755","0.0-18.0-0.105","5858","approach_avoid_sv1","""event"",""trial"",""time""
""fullscreenenter"",""1"",""1595""
""blur"",""228"",""556565""
""focus"",""228"",""707805""
","""event"",""trial"",""time""
""blur"",""228"",""556565""
","""event"",""trial"",""time""
""focus"",""228"",""707805""
","""event"",""trial"",""time""
""fullscreenenter"",""1"",""1595""
","
","","","","","","null","<div style=""font-size:60px;"">+</div>","null","","fixation","","",""
"memory-trial","256","749688","0.0-18.0-1.105","5858","approach_avoid_sv1","""event"",""trial"",""time""
""fullscreenenter"",""1"",""1595""
""blur"",""228"",""556565""
""focus"",""228"",""707805""
","""event"",""trial"",""time""
""blur"",""228"",""556565""
","""event"",""trial"",""time""
""focus"",""228"",""707805""
","""event"",""trial"",""time""
""fullscreenenter"",""1"",""1595""
","
","","","","","","1927.4000000000233","images/bush3.png","","","memory_trial","3","maybe_new",""
"html-keyboard-response","257","750195","0.0-18.0-0.106","5858","approach_avoid_sv1","""event"",""trial"",""time""
""fullscreenenter"",""1"",""1595""
""blur"",""228"",""556565""
""focus"",""228"",""707805""
","""event"",""trial"",""time""
""blur"",""228"",""556565""
","""event"",""trial"",""time""
""focus"",""228"",""707805""
","""event"",""trial"",""time""
""fullscreenenter"",""1"",""1595""
","
","","","","","","null","<div style=""font-size:60px;"">+</div>","null","","fixation","","",""
"memory-trial","258","752475","0.0-18.0-1.106","5858","approach_avoid_sv1","""event"",""trial"",""time""
""fullscreenenter"",""1"",""1595""
""blur"",""228"",""556565""
""focus"",""228"",""707805""
","""event"",""trial"",""time""
""blur"",""228"",""556565""
","""event"",""trial"",""time""
""focus"",""228"",""707805""
","""event"",""trial"",""time""
""fullscreenenter"",""1"",""1595""
","
","","","","","","1266.3999999999069","images/horse7.png","","","memory_trial","2","maybe_old",""
"html-keyboard-response","259","752984","0.0-18.0-0.107","5858","approach_avoid_sv1","""event"",""trial"",""time""
""fullscreenenter"",""1"",""1595""
""blur"",""228"",""556565""
""focus"",""228"",""707805""
","""event"",""trial"",""time""
""blur"",""228"",""556565""
","""event"",""trial"",""time""
""focus"",""228"",""707805""
","""event"",""trial"",""time""
""fullscreenenter"",""1"",""1595""
","
","","","","","","null","<div style=""font-size:60px;"">+</div>","null","","fixation","","",""
"memory-trial","260","755363","0.0-18.0-1.107","5858","approach_avoid_sv1","""event"",""trial"",""time""
""fullscreenenter"",""1"",""1595""
""blur"",""228"",""556565""
""focus"",""228"",""707805""
","""event"",""trial"",""time""
""blur"",""228"",""556565""
","""event"",""trial"",""time""
""focus"",""228"",""707805""
","""event"",""trial"",""time""
""fullscreenenter"",""1"",""1595""
","
","","","","","","1368.5","images/plane2.png","","","memory_trial","3","maybe_new",""
"html-keyboard-response","261","755875","0.0-18.0-0.108","5858","approach_avoid_sv1","""event"",""trial"",""time""
""fullscreenenter"",""1"",""1595""
""blur"",""228"",""556565""
""focus"",""228"",""707805""
","""event"",""trial"",""time""
""blur"",""228"",""556565""
","""event"",""trial"",""time""
""focus"",""228"",""707805""
","""event"",""trial"",""time""
""fullscreenenter"",""1"",""1595""
","
","","","","","","null","<div style=""font-size:60px;"">+</div>","null","","fixation","","",""
"memory-trial","262","758771","0.0-18.0-1.108","5858","approach_avoid_sv1","""event"",""trial"",""time""
""fullscreenenter"",""1"",""1595""
""blur"",""228"",""556565""
""focus"",""228"",""707805""
","""event"",""trial"",""time""
""blur"",""228"",""556565""
","""event"",""trial"",""time""
""focus"",""228"",""707805""
","""event"",""trial"",""time""
""fullscreenenter"",""1"",""1595""
","
","","","","","","1887.0999999999767","images/table7.png","","","memory_trial","2","maybe_old",""
"html-keyboard-response","263","759283","0.0-18.0-0.109","5858","approach_avoid_sv1","""event"",""trial"",""time""
""fullscreenenter"",""1"",""1595""
""blur"",""228"",""556565""
""focus"",""228"",""707805""
","""event"",""trial"",""time""
""blur"",""228"",""556565""
","""event"",""trial"",""time""
""focus"",""228"",""707805""
","""event"",""trial"",""time""
""fullscreenenter"",""1"",""1595""
","
","","","","","","null","<div style=""font-size:60px;"">+</div>","null","","fixation","","",""
"memory-trial","264","761048","0.0-18.0-1.109","5858","approach_avoid_sv1","""event"",""trial"",""time""
""fullscreenenter"",""1"",""1595""
""blur"",""228"",""556565""
""focus"",""228"",""707805""
","""event"",""trial"",""time""
""blur"",""228"",""556565""
","""event"",""trial"",""time""
""focus"",""228"",""707805""
","""event"",""trial"",""time""
""fullscreenenter"",""1"",""1595""
","
","","","","","","758.5","images/dog8.png","","","memory_trial","4","definitely_new",""
"html-keyboard-response","265","761555","0.0-18.0-0.110","5858","approach_avoid_sv1","""event"",""trial"",""time""
""fullscreenenter"",""1"",""1595""
""blur"",""228"",""556565""
""focus"",""228"",""707805""
","""event"",""trial"",""time""
""blur"",""228"",""556565""
","""event"",""trial"",""time""
""focus"",""228"",""707805""
","""event"",""trial"",""time""
""fullscreenenter"",""1"",""1595""
","
","","","","","","null","<div style=""font-size:60px;"">+</div>","null","","fixation","","",""
"memory-trial","266","763272","0.0-18.0-1.110","5858","approach_avoid_sv1","""event"",""trial"",""time""
""fullscreenenter"",""1"",""1595""
""blur"",""228"",""556565""
""focus"",""228"",""707805""
","""event"",""trial"",""time""
""blur"",""228"",""556565""
","""event"",""trial"",""time""
""focus"",""228"",""707805""
","""event"",""trial"",""time""
""fullscreenenter"",""1"",""1595""
","
","","","","","","709.5999999999767","images/cactus5.png","","","memory_trial","4","definitely_new",""
"html-keyboard-response","267","763779","0.0-18.0-0.111","5858","approach_avoid_sv1","""event"",""trial"",""time""
""fullscreenenter"",""1"",""1595""
""blur"",""228"",""556565""
""focus"",""228"",""707805""
","""event"",""trial"",""time""
""blur"",""228"",""556565""
","""event"",""trial"",""time""
""focus"",""228"",""707805""
","""event"",""trial"",""time""
""fullscreenenter"",""1"",""1595""
","
","","","","","","null","<div style=""font-size:60px;"">+</div>","null","","fixation","","",""
"memory-trial","268","767171","0.0-18.0-1.111","5858","approach_avoid_sv1","""event"",""trial"",""time""
""fullscreenenter"",""1"",""1595""
""blur"",""228"",""556565""
""focus"",""228"",""707805""
","""event"",""trial"",""time""
""blur"",""228"",""556565""
","""event"",""trial"",""time""
""focus"",""228"",""707805""
","""event"",""trial"",""time""
""fullscreenenter"",""1"",""1595""
","
","","","","","","2379","images/cactus1.png","","","memory_trial","3","maybe_new",""
"html-keyboard-response","269","767683","0.0-18.0-0.112","5858","approach_avoid_sv1","""event"",""trial"",""time""
""fullscreenenter"",""1"",""1595""
""blur"",""228"",""556565""
""focus"",""228"",""707805""
","""event"",""trial"",""time""
""blur"",""228"",""556565""
","""event"",""trial"",""time""
""focus"",""228"",""707805""
","""event"",""trial"",""time""
""fullscreenenter"",""1"",""1595""
","
","","","","","","null","<div style=""font-size:60px;"">+</div>","null","","fixation","","",""
"memory-trial","270","770232","0.0-18.0-1.112","5858","approach_avoid_sv1","""event"",""trial"",""time""
""fullscreenenter"",""1"",""1595""
""blur"",""228"",""556565""
""focus"",""228"",""707805""
","""event"",""trial"",""time""
""blur"",""228"",""556565""
","""event"",""trial"",""time""
""focus"",""228"",""707805""
","""event"",""trial"",""time""
""fullscreenenter"",""1"",""1595""
","
","","","","","","1543.0999999999767","images/banana2.png","","","memory_trial","3","maybe_new",""
"html-keyboard-response","271","770739","0.0-18.0-0.113","5858","approach_avoid_sv1","""event"",""trial"",""time""
""fullscreenenter"",""1"",""1595""
""blur"",""228"",""556565""
""focus"",""228"",""707805""
","""event"",""trial"",""time""
""blur"",""228"",""556565""
","""event"",""trial"",""time""
""focus"",""228"",""707805""
","""event"",""trial"",""time""
""fullscreenenter"",""1"",""1595""
","
","","","","","","null","<div style=""font-size:60px;"">+</div>","null","","fixation","","",""
"memory-trial","272","772680","0.0-18.0-1.113","5858","approach_avoid_sv1","""event"",""trial"",""time""
""fullscreenenter"",""1"",""1595""
""blur"",""228"",""556565""
""focus"",""228"",""707805""
","""event"",""trial"",""time""
""blur"",""228"",""556565""
","""event"",""trial"",""time""
""focus"",""228"",""707805""
","""event"",""trial"",""time""
""fullscreenenter"",""1"",""1595""
","
","","","","","","932.9000000000233","images/horse2.png","","","memory_trial","4","definitely_new",""
"html-keyboard-response","273","773187","0.0-18.0-0.114","5858","approach_avoid_sv1","""event"",""trial"",""time""
""fullscreenenter"",""1"",""1595""
""blur"",""228"",""556565""
