"trial_type","trial_index","time_elapsed","internal_node_id","subject_id","task_version","interactions","blur_events","focus_events","fullscreenenter_events","fullscreenexit_events","success","timeout","failed_images","failed_audio","failed_video","rt","stimulus","response","button_pressed","task_part","key_press","answer","correct"
"pavlovia","0","20","0.0-0.0","6413","approach_avoid_sv1","""event"",""trial"",""time""
""focus"",""1"",""1589""
""fullscreenenter"",""1"",""2986""
","
","""event"",""trial"",""time""
""focus"",""1"",""1589""
","""event"",""trial"",""time""
""fullscreenenter"",""1"",""2986""
","
","","","","","","","","","","","","",""
"fullscreen","1","3977","0.0-1.0","6413","approach_avoid_sv1","""event"",""trial"",""time""
""focus"",""1"",""1589""
""fullscreenenter"",""1"",""2986""
","
","""event"",""trial"",""time""
""focus"",""1"",""1589""
","""event"",""trial"",""time""
""fullscreenenter"",""1"",""2986""
","
","true","","","","","","","","","","","",""
"preload","2","5993","0.0-2.0","6413","approach_avoid_sv1","""event"",""trial"",""time""
""focus"",""1"",""1589""
""fullscreenenter"",""1"",""2986""
","
","""event"",""trial"",""time""
""focus"",""1"",""1589""
","""event"",""trial"",""time""
""fullscreenenter"",""1"",""2986""
","
","true","false","[]","[]","[]","","","","","","","",""
"preload","3","7253","0.0-3.0","6413","approach_avoid_sv1","""event"",""trial"",""time""
""focus"",""1"",""1589""
""fullscreenenter"",""1"",""2986""
","
","""event"",""trial"",""time""
""focus"",""1"",""1589""
","""event"",""trial"",""time""
""fullscreenenter"",""1"",""2986""
","
","true","false","[]","[]","[]","","","","","","","",""
"preload","4","7556","0.0-4.0","6413","approach_avoid_sv1","""event"",""trial"",""time""
""focus"",""1"",""1589""
""fullscreenenter"",""1"",""2986""
","
","""event"",""trial"",""time""
""focus"",""1"",""1589""
","""event"",""trial"",""time""
""fullscreenenter"",""1"",""2986""
","
","true","false","[]","[]","[]","","","","","","","",""
"audio-keyboard-response","5","9650","0.0-5.0","6413","approach_avoid_sv1","""event"",""trial"",""time""
""focus"",""1"",""1589""
""fullscreenenter"",""1"",""2986""
","
","""event"",""trial"",""time""
""focus"",""1"",""1589""
","""event"",""trial"",""time""
""fullscreenenter"",""1"",""2986""
","
","","","","","","2090.6666666666665","audio/beep_loop.wav"," ","","","","",""
"audio-button-response","6","11045","0.0-6.0","6413","approach_avoid_sv1","""event"",""trial"",""time""
""focus"",""1"",""1589""
""fullscreenenter"",""1"",""2986""
","
","""event"",""trial"",""time""
""focus"",""1"",""1589""
","""event"",""trial"",""time""
""fullscreenenter"",""1"",""2986""
","
","","","","","","1389","audio/turtle.wav","3","","","","",""
"audio-button-response","7","12972","0.0-7.0","6413","approach_avoid_sv1","""event"",""trial"",""time""
""focus"",""1"",""1589""
""fullscreenenter"",""1"",""2986""
","
","""event"",""trial"",""time""
""focus"",""1"",""1589""
","""event"",""trial"",""time""
""fullscreenenter"",""1"",""2986""
","
","","","","","","920","audio/shark.wav","2","","","","",""
"preload","8","16282","0.0-8.0","6413","approach_avoid_sv1","""event"",""trial"",""time""
""focus"",""1"",""1589""
""fullscreenenter"",""1"",""2986""
","
","""event"",""trial"",""time""
""focus"",""1"",""1589""
","""event"",""trial"",""time""
""fullscreenenter"",""1"",""2986""
","
","true","false","[]","[]","[]","","","","","","","",""
"learning-instructions","9","22037","0.0-9.0-0.0","6413","approach_avoid_sv1","""event"",""trial"",""time""
""focus"",""1"",""1589""
""fullscreenenter"",""1"",""2986""
","
","""event"",""trial"",""time""
""focus"",""1"",""1589""
","""event"",""trial"",""time""
""fullscreenenter"",""1"",""2986""
","
","","","","","","1276.0999999940395","<p> Welcome back! </p><p> Last week, you had to make choices about lots of different items.  </p>","","0","instructions","","",""
"learning-instructions","10","26516","0.0-9.0-0.1","6413","approach_avoid_sv1","""event"",""trial"",""time""
""focus"",""1"",""1589""
""fullscreenenter"",""1"",""2986""
","
","""event"",""trial"",""time""
""focus"",""1"",""1589""
","""event"",""trial"",""time""
""fullscreenenter"",""1"",""2986""
","
","","","","","","366.09999999403954","<p> Today, we are going to ask you to try to remember all the items. </p>","","0","instructions","","",""
"learning-instructions","11","37020","0.0-9.0-0.2","6413","approach_avoid_sv1","""event"",""trial"",""time""
""focus"",""1"",""1589""
""fullscreenenter"",""1"",""2986""
","
","""event"",""trial"",""time""
""focus"",""1"",""1589""
","""event"",""trial"",""time""
""fullscreenenter"",""1"",""2986""
","
","","","","","","370.20000000298023","<p> On every trial, you will see an image. </p><p> The image may be an OLD image you saw during the games last week or it may be a NEW image that was not presented. </p>","","0","instructions","","",""
"learning-instructions","12","45892","0.0-9.0-0.3","6413","approach_avoid_sv1","""event"",""trial"",""time""
""focus"",""1"",""1589""
""fullscreenenter"",""1"",""2986""
","
","""event"",""trial"",""time""
""focus"",""1"",""1589""
","""event"",""trial"",""time""
""fullscreenenter"",""1"",""2986""
","
","","","","","","371.40000000596046","<p> You need to select whether the image is:  </p><p>  'Definitely old', 'Maybe old', 'Maybe new', or 'Definitely new.'  </p><div class=""mem-choice-instructions-grid""><div class=""choice-option"" id=""choice-option-1"" ><img src=""images/definitely_old_1.png"" id=""choice-option-img-1"" class=""choice-option-img"" stage=""1""></div><div class=""choice-option"" id=""choice-option-2"" ><img src=""images/maybe_old_1.png"" id=""choice-option-img-2"" class=""choice-option-img"" stage=""1""></div><div class=""choice-option"" id=""choice-option-3"" ><img src=""images/maybe_new_1.png"" id=""choice-option-img-3"" class=""choice-option-img"" stage=""1""></div><div class=""choice-option"" id=""choice-option-4"" > <img src=""images/definitely_new_1.png"" id=""choice-option-img-4"" class=""choice-option-img"" stage=""1""></div></div>","","0","instructions","","",""
"learning-instructions","13","52804","0.0-9.0-0.4","6413","approach_avoid_sv1","""event"",""trial"",""time""
""focus"",""1"",""1589""
""fullscreenenter"",""1"",""2986""
","
","""event"",""trial"",""time""
""focus"",""1"",""1589""
","""event"",""trial"",""time""
""fullscreenenter"",""1"",""2986""
","
","","","","","","392.70000000298023","<p> You should use the 1, 2, 3, and 4 keys to make your responses.  </p><div class=""mem-choice-instructions-grid""><div class=""choice-option"" id=""choice-option-1"" ><img src=""images/definitely_old.png"" id=""choice-option-img-1"" class=""choice-option-img"" stage=""1""></div><div class=""choice-option"" id=""choice-option-2"" ><img src=""images/maybe_old.png"" id=""choice-option-img-2"" class=""choice-option-img"" stage=""1""></div><div class=""choice-option"" id=""choice-option-3"" ><img src=""images/maybe_new.png"" id=""choice-option-img-3"" class=""choice-option-img"" stage=""1""></div><div class=""choice-option"" id=""choice-option-4"" > <img src=""images/definitely_new.png"" id=""choice-option-img-4"" class=""choice-option-img"" stage=""1""></div></div>","","0","instructions","","",""
"learning-instructions","14","59508","0.0-9.0-0.5","6413","approach_avoid_sv1","""event"",""trial"",""time""
""focus"",""1"",""1589""
""fullscreenenter"",""1"",""2986""
","
","""event"",""trial"",""time""
""focus"",""1"",""1589""
","""event"",""trial"",""time""
""fullscreenenter"",""1"",""2986""
","
","","","","","","368.29999999701977","<p> You will have 10 seconds to make each response.  </p><p>  Make sure to respond before time runs out! </p>","","0","instructions","","",""
"learning-instructions","15","66948","0.0-9.0-0.6","6413","approach_avoid_sv1","""event"",""trial"",""time""
""focus"",""1"",""1589""
""fullscreenenter"",""1"",""2986""
","
","""event"",""trial"",""time""
""focus"",""1"",""1589""
","""event"",""trial"",""time""
""fullscreenenter"",""1"",""2986""
","
","","","","","","358","<p> Today, you will see each image ONCE only.  </p><p>  That means none of the images will repeat. </p>","","0","instructions","","",""
"learning-instructions","16","80516","0.0-9.0-0.7","6413","approach_avoid_sv1","""event"",""trial"",""time""
""focus"",""1"",""1589""
""fullscreenenter"",""1"",""2986""
","
","""event"",""trial"",""time""
""focus"",""1"",""1589""
","""event"",""trial"",""time""
""fullscreenenter"",""1"",""2986""
","
","","","","","","896.2000000029802","<p> Before you play the real game, it is time to practice. </p><p>  Just like in the real game, some of the images in the practice will be ones you have seen before. </p><p>  Others will be entirely new. </p>","","0","instructions","","",""
"html-button-response","17","81788","0.0-10.0","6413","approach_avoid_sv1","""event"",""trial"",""time""
""focus"",""1"",""1589""
""fullscreenenter"",""1"",""2986""
","
","""event"",""trial"",""time""
""focus"",""1"",""1589""
","""event"",""trial"",""time""
""fullscreenenter"",""1"",""2986""
","
","","","","","","1161.2000000029802","<p> Ready to practice? </p><p> Remember, use the 1, 2, 3, and 4 keys to make your responses. </p>","0","","instructions","","",""
"html-keyboard-response","18","82402","0.0-11.0-0.0","6413","approach_avoid_sv1","""event"",""trial"",""time""
""focus"",""1"",""1589""
""fullscreenenter"",""1"",""2986""
","
","""event"",""trial"",""time""
""focus"",""1"",""1589""
","""event"",""trial"",""time""
""fullscreenenter"",""1"",""2986""
","
","","","","","","null","<div style=""font-size:60px;"">+</div>","null","","fixation","","",""
"memory-trial","19","86019","0.0-11.0-1.0","6413","approach_avoid_sv1","""event"",""trial"",""time""
""focus"",""1"",""1589""
""fullscreenenter"",""1"",""2986""
","
","""event"",""trial"",""time""
""focus"",""1"",""1589""
","""event"",""trial"",""time""
""fullscreenenter"",""1"",""2986""
","
","","","","","","2602.2000000029802","images/racket1.png","","","practice","3","maybe_new",""
"html-keyboard-response","20","86529","0.0-11.0-0.1","6413","approach_avoid_sv1","""event"",""trial"",""time""
""focus"",""1"",""1589""
""fullscreenenter"",""1"",""2986""
","
","""event"",""trial"",""time""
""focus"",""1"",""1589""
","""event"",""trial"",""time""
""fullscreenenter"",""1"",""2986""
","
","","","","","","null","<div style=""font-size:60px;"">+</div>","null","","fixation","","",""
"memory-trial","21","89145","0.0-11.0-1.1","6413","approach_avoid_sv1","""event"",""trial"",""time""
""focus"",""1"",""1589""
""fullscreenenter"",""1"",""2986""
","
","""event"",""trial"",""time""
""focus"",""1"",""1589""
","""event"",""trial"",""time""
""fullscreenenter"",""1"",""2986""
","
","","","","","","1612.4000000059605","images/ball3.png","","","practice","2","maybe_old",""
"html-keyboard-response","22","89654","0.0-11.0-0.2","6413","approach_avoid_sv1","""event"",""trial"",""time""
""focus"",""1"",""1589""
""fullscreenenter"",""1"",""2986""
","
","""event"",""trial"",""time""
""focus"",""1"",""1589""
","""event"",""trial"",""time""
""fullscreenenter"",""1"",""2986""
","
","","","","","","null","<div style=""font-size:60px;"">+</div>","null","","fixation","","",""
"memory-trial","23","92159","0.0-11.0-1.2","6413","approach_avoid_sv1","""event"",""trial"",""time""
""focus"",""1"",""1589""
""fullscreenenter"",""1"",""2986""
","
","""event"",""trial"",""time""
""focus"",""1"",""1589""
","""event"",""trial"",""time""
""fullscreenenter"",""1"",""2986""
","
","","","","","","1495.9000000059605","images/ball1.png","","","practice","3","maybe_new",""
"html-keyboard-response","24","92668","0.0-11.0-0.3","6413","approach_avoid_sv1","""event"",""trial"",""time""
""focus"",""1"",""1589""
""fullscreenenter"",""1"",""2986""
","
","""event"",""trial"",""time""
""focus"",""1"",""1589""
","""event"",""trial"",""time""
""fullscreenenter"",""1"",""2986""
","
","","","","","","null","<div style=""font-size:60px;"">+</div>","null","","fixation","","",""
"memory-trial","25","94431","0.0-11.0-1.3","6413","approach_avoid_sv1","""event"",""trial"",""time""
""focus"",""1"",""1589""
""fullscreenenter"",""1"",""2986""
","
","""event"",""trial"",""time""
""focus"",""1"",""1589""
","""event"",""trial"",""time""
""fullscreenenter"",""1"",""2986""
","
","","","","","","752.5","images/ball5.png","","","practice","3","maybe_new",""
"html-keyboard-response","26","94940","0.0-11.0-0.4","6413","approach_avoid_sv1","""event"",""trial"",""time""
""focus"",""1"",""1589""
""fullscreenenter"",""1"",""2986""
","
","""event"",""trial"",""time""
""focus"",""1"",""1589""
","""event"",""trial"",""time""
""fullscreenenter"",""1"",""2986""
","
","","","","","","null","<div style=""font-size:60px;"">+</div>","null","","fixation","","",""
"memory-trial","27","98012","0.0-11.0-1.4","6413","approach_avoid_sv1","""event"",""trial"",""time""
""focus"",""1"",""1589""
""fullscreenenter"",""1"",""2986""
","
","""event"",""trial"",""time""
""focus"",""1"",""1589""
","""event"",""trial"",""time""
""fullscreenenter"",""1"",""2986""
","
","","","","","","2057.7000000029802","images/racket3.png","","","practice","1","definitely_old",""
"html-keyboard-response","28","98518","0.0-11.0-0.5","6413","approach_avoid_sv1","""event"",""trial"",""time""
""focus"",""1"",""1589""
""fullscreenenter"",""1"",""2986""
","
","""event"",""trial"",""time""
""focus"",""1"",""1589""
","""event"",""trial"",""time""
""fullscreenenter"",""1"",""2986""
","
","","","","","","null","<div style=""font-size:60px;"">+</div>","null","","fixation","","",""
"memory-trial","29","101059","0.0-11.0-1.5","6413","approach_avoid_sv1","""event"",""trial"",""time""
""focus"",""1"",""1589""
""fullscreenenter"",""1"",""2986""
","
","""event"",""trial"",""time""
""focus"",""1"",""1589""
","""event"",""trial"",""time""
""fullscreenenter"",""1"",""2986""
","
","","","","","","1534.6000000089407","images/racket5.png","","","practice","2","maybe_old",""
"html-keyboard-response","30","101569","0.0-11.0-0.6","6413","approach_avoid_sv1","""event"",""trial"",""time""
""focus"",""1"",""1589""
""fullscreenenter"",""1"",""2986""
","
","""event"",""trial"",""time""
""focus"",""1"",""1589""
","""event"",""trial"",""time""
""fullscreenenter"",""1"",""2986""
","
","","","","","","null","<div style=""font-size:60px;"">+</div>","null","","fixation","","",""
"memory-trial","31","103949","0.0-11.0-1.6","6413","approach_avoid_sv1","""event"",""trial"",""time""
""focus"",""1"",""1589""
""fullscreenenter"",""1"",""2986""
","
","""event"",""trial"",""time""
""focus"",""1"",""1589""
","""event"",""trial"",""time""
""fullscreenenter"",""1"",""2986""
","
","","","","","","1365.7000000029802","images/racket2.png","","","practice","3","maybe_new",""
"html-keyboard-response","32","104453","0.0-11.0-0.7","6413","approach_avoid_sv1","""event"",""trial"",""time""
""focus"",""1"",""1589""
""fullscreenenter"",""1"",""2986""
","
","""event"",""trial"",""time""
""focus"",""1"",""1589""
","""event"",""trial"",""time""
""fullscreenenter"",""1"",""2986""
","
","","","","","","null","<div style=""font-size:60px;"">+</div>","null","","fixation","","",""
"memory-trial","33","106402","0.0-11.0-1.7","6413","approach_avoid_sv1","""event"",""trial"",""time""
""focus"",""1"",""1589""
""fullscreenenter"",""1"",""2986""
","
","""event"",""trial"",""time""
""focus"",""1"",""1589""
","""event"",""trial"",""time""
""fullscreenenter"",""1"",""2986""
","
","","","","","","944.2000000029802","images/ball2.png","","","practice","3","maybe_new",""
"learning-instructions","34","114307","0.0-12.0-0.0","6413","approach_avoid_sv1","""event"",""trial"",""time""
""focus"",""1"",""1589""
""fullscreenenter"",""1"",""2986""
","
","""event"",""trial"",""time""
""focus"",""1"",""1589""
","""event"",""trial"",""time""
""fullscreenenter"",""1"",""2986""
","
","","","","","","598.0999999940395","<p> Great! You have completed the practice. </p><p> Before you start, we're going to ask you a few questions about how the game works.  </p>","","0","instructions","","",""
"preload","35","116206","0.0-13.0","6413","approach_avoid_sv1","""event"",""trial"",""time""
""focus"",""1"",""1589""
""fullscreenenter"",""1"",""2986""
","
","""event"",""trial"",""time""
""focus"",""1"",""1589""
","""event"",""trial"",""time""
""fullscreenenter"",""1"",""2986""
","
","true","false","[]","[]","[]","","","","","","","",""
"comp-q","36","123748","0.0-14.0-0.0","6413","approach_avoid_sv1","""event"",""trial"",""time""
""focus"",""1"",""1589""
""fullscreenenter"",""1"",""2986""
","
","""event"",""trial"",""time""
""focus"",""1"",""1589""
","""event"",""trial"",""time""
""fullscreenenter"",""1"",""2986""
","
","","","","","","1718.0999999940395","<p> <b> True or False? </b> </p><p> In this game, you will only see each image once. </p>","","0","comp_question","","","true"
"comp-q","37","131275","0.0-14.0-1.0","6413","approach_avoid_sv1","""event"",""trial"",""time""
""focus"",""1"",""1589""
""fullscreenenter"",""1"",""2986""
","
","""event"",""trial"",""time""
""focus"",""1"",""1589""
","""event"",""trial"",""time""
""fullscreenenter"",""1"",""2986""
","
","","","","","","1186","<p> <b> That's right! </b> You will see many different images <i> one time each </i> in this game. </p>","","0","comp_answer","","",""
"comp-q","38","137059","0.0-15.0-0.0","6413","approach_avoid_sv1","""event"",""trial"",""time""
""focus"",""1"",""1589""
""fullscreenenter"",""1"",""2986""
","
","""event"",""trial"",""time""
""focus"",""1"",""1589""
","""event"",""trial"",""time""
""fullscreenenter"",""1"",""2986""
","
","","","","","","780.2000000029802","<p> <b> True or False? </b> </p><p> You should use the mouse and click to make your response. </p>","","1","comp_question","","","true"
"comp-q","39","144915","0.0-15.0-1.0","6413","approach_avoid_sv1","""event"",""trial"",""time""
""focus"",""1"",""1589""
""fullscreenenter"",""1"",""2986""
","
","""event"",""trial"",""time""
""focus"",""1"",""1589""
","""event"",""trial"",""time""
""fullscreenenter"",""1"",""2986""
","
","","","","","","1345.9000000059605","<p><b> That's right! </b> You should use the '1', '2', '3', and '4' keys to make your response. </p>","","0","comp_answer","","",""
"comp-q","40","151194","0.0-16.0-0.0","6413","approach_avoid_sv1","""event"",""trial"",""time""
""focus"",""1"",""1589""
""fullscreenenter"",""1"",""2986""
","
","""event"",""trial"",""time""
""focus"",""1"",""1589""
","""event"",""trial"",""time""
""fullscreenenter"",""1"",""2986""
","
","","","","","","606","<p> <b> True or False? </b> </p><p> You will have as much time as you want to make each choice. </p>","","1","comp_question","","","true"
"comp-q","41","156578","0.0-16.0-1.0","6413","approach_avoid_sv1","""event"",""trial"",""time""
""focus"",""1"",""1589""
""fullscreenenter"",""1"",""2986""
","
","""event"",""trial"",""time""
""focus"",""1"",""1589""
","""event"",""trial"",""time""
""fullscreenenter"",""1"",""2986""
","
","","","","","","690","<p> <b> That's right! </b> You will only have 10 seconds to make each choice. </p>","","0","comp_answer","","",""
"learning-instructions","42","175114","0.0-17.0","6413","approach_avoid_sv1","""event"",""trial"",""time""
""focus"",""1"",""1589""
""fullscreenenter"",""1"",""2986""
","
","""event"",""trial"",""time""
""focus"",""1"",""1589""
","""event"",""trial"",""time""
""fullscreenenter"",""1"",""2986""
","
","","","","","","9865.79999999702","<p> Great! You are now ready to begin the game. </p><p> Remember, use the 1, 2, 3, and 4 keys to make your responses. </p>","","0","instructions","","",""
"html-keyboard-response","43","175736","0.0-18.0-0.0","6413","approach_avoid_sv1","""event"",""trial"",""time""
""focus"",""1"",""1589""
""fullscreenenter"",""1"",""2986""
","
","""event"",""trial"",""time""
""focus"",""1"",""1589""
","""event"",""trial"",""time""
""fullscreenenter"",""1"",""2986""
","
","","","","","","null","<div style=""font-size:60px;"">+</div>","null","","fixation","","",""
"memory-trial","44","177850","0.0-18.0-1.0","6413","approach_avoid_sv1","""event"",""trial"",""time""
""focus"",""1"",""1589""
""fullscreenenter"",""1"",""2986""
","
","""event"",""trial"",""time""
""focus"",""1"",""1589""
","""event"",""trial"",""time""
""fullscreenenter"",""1"",""2986""
","
","","","","","","1098.5999999940395","images/cow1.png","","","memory_trial","1","definitely_old",""
"html-keyboard-response","45","178360","0.0-18.0-0.1","6413","approach_avoid_sv1","""event"",""trial"",""time""
""focus"",""1"",""1589""
""fullscreenenter"",""1"",""2986""
","
","""event"",""trial"",""time""
""focus"",""1"",""1589""
","""event"",""trial"",""time""
""fullscreenenter"",""1"",""2986""
","
","","","","","","null","<div style=""font-size:60px;"">+</div>","null","","fixation","","",""
"memory-trial","46","181309","0.0-18.0-1.1","6413","approach_avoid_sv1","""event"",""trial"",""time""
""focus"",""1"",""1589""
""fullscreenenter"",""1"",""2986""
","
","""event"",""trial"",""time""
""focus"",""1"",""1589""
","""event"",""trial"",""time""
""fullscreenenter"",""1"",""2986""
","
","","","","","","1931.5","images/tree8.png","","","memory_trial","2","maybe_old",""
"html-keyboard-response","47","181811","0.0-18.0-0.2","6413","approach_avoid_sv1","""event"",""trial"",""time""
""focus"",""1"",""1589""
""fullscreenenter"",""1"",""2986""
","
","""event"",""trial"",""time""
""focus"",""1"",""1589""
","""event"",""trial"",""time""
""fullscreenenter"",""1"",""2986""
","
","","","","","","null","<div style=""font-size:60px;"">+</div>","null","","fixation","","",""
"memory-trial","48","184007","0.0-18.0-1.2","6413","approach_avoid_sv1","""event"",""trial"",""time""
""focus"",""1"",""1589""
""fullscreenenter"",""1"",""2986""
","
","""event"",""trial"",""time""
""focus"",""1"",""1589""
","""event"",""trial"",""time""
""fullscreenenter"",""1"",""2986""
","
","","","","","","1192","images/goat1.png","","","memory_trial","1","definitely_old",""
"html-keyboard-response","49","184519","0.0-18.0-0.3","6413","approach_avoid_sv1","""event"",""trial"",""time""
""focus"",""1"",""1589""
""fullscreenenter"",""1"",""2986""
","
","""event"",""trial"",""time""
""focus"",""1"",""1589""
","""event"",""trial"",""time""
""fullscreenenter"",""1"",""2986""
","
","","","","","","null","<div style=""font-size:60px;"">+</div>","null","","fixation","","",""
"memory-trial","50","186511","0.0-18.0-1.3","6413","approach_avoid_sv1","""event"",""trial"",""time""
""focus"",""1"",""1589""
""fullscreenenter"",""1"",""2986""
","
","""event"",""trial"",""time""
""focus"",""1"",""1589""
","""event"",""trial"",""time""
""fullscreenenter"",""1"",""2986""
","
","","","","","","988.8000000119209","images/rodent8.png","","","memory_trial","1","definitely_old",""
"html-keyboard-response","51","187013","0.0-18.0-0.4","6413","approach_avoid_sv1","""event"",""trial"",""time""
""focus"",""1"",""1589""
""fullscreenenter"",""1"",""2986""
","
","""event"",""trial"",""time""
""focus"",""1"",""1589""
","""event"",""trial"",""time""
""fullscreenenter"",""1"",""2986""
","
","","","","","","null","<div style=""font-size:60px;"">+</div>","null","","fixation","","",""
"memory-trial","52","189798","0.0-18.0-1.4","6413","approach_avoid_sv1","""event"",""trial"",""time""
""focus"",""1"",""1589""
""fullscreenenter"",""1"",""2986""
","
","""event"",""trial"",""time""
""focus"",""1"",""1589""
","""event"",""trial"",""time""
""fullscreenenter"",""1"",""2986""
","
","","","","","","1782.4000000059605","images/chair3.png","","","memory_trial","3","maybe_new",""
"html-keyboard-response","53","190309","0.0-18.0-0.5","6413","approach_avoid_sv1","""event"",""trial"",""time""
""focus"",""1"",""1589""
""fullscreenenter"",""1"",""2986""
","
","""event"",""trial"",""time""
""focus"",""1"",""1589""
","""event"",""trial"",""time""
""fullscreenenter"",""1"",""2986""
","
","","","","","","null","<div style=""font-size:60px;"">+</div>","null","","fixation","","",""
"memory-trial","54","192548","0.0-18.0-1.5","6413","approach_avoid_sv1","""event"",""trial"",""time""
""focus"",""1"",""1589""
""fullscreenenter"",""1"",""2986""
","
","""event"",""trial"",""time""
""focus"",""1"",""1589""
","""event"",""trial"",""time""
""fullscreenenter"",""1"",""2986""
","
","","","","","","1221.5","images/straw6.png","","","memory_trial","4","definitely_new",""
"html-keyboard-response","55","193056","0.0-18.0-0.6","6413","approach_avoid_sv1","""event"",""trial"",""time""
""focus"",""1"",""1589""
""fullscreenenter"",""1"",""2986""
","
","""event"",""trial"",""time""
""focus"",""1"",""1589""
","""event"",""trial"",""time""
""fullscreenenter"",""1"",""2986""
","
","","","","","","null","<div style=""font-size:60px;"">+</div>","null","","fixation","","",""
"memory-trial","56","195351","0.0-18.0-1.6","6413","approach_avoid_sv1","""event"",""trial"",""time""
""focus"",""1"",""1589""
""fullscreenenter"",""1"",""2986""
","
","""event"",""trial"",""time""
""focus"",""1"",""1589""
","""event"",""trial"",""time""
""fullscreenenter"",""1"",""2986""
","
","","","","","","1291.3999999910593","images/apple5.png","","","memory_trial","4","definitely_new",""
"html-keyboard-response","57","195854","0.0-18.0-0.7","6413","approach_avoid_sv1","""event"",""trial"",""time""
""focus"",""1"",""1589""
""fullscreenenter"",""1"",""2986""
","
","""event"",""trial"",""time""
""focus"",""1"",""1589""
","""event"",""trial"",""time""
""fullscreenenter"",""1"",""2986""
","
","","","","","","null","<div style=""font-size:60px;"">+</div>","null","","fixation","","",""
"memory-trial","58","197944","0.0-18.0-1.7","6413","approach_avoid_sv1","""event"",""trial"",""time""
""focus"",""1"",""1589""
""fullscreenenter"",""1"",""2986""
","
","""event"",""trial"",""time""
""focus"",""1"",""1589""
","""event"",""trial"",""time""
""fullscreenenter"",""1"",""2986""
","
","","","","","","1085.5","images/truck5.png","","","memory_trial","4","definitely_new",""
"html-keyboard-response","59","198445","0.0-18.0-0.8","6413","approach_avoid_sv1","""event"",""trial"",""time""
""focus"",""1"",""1589""
""fullscreenenter"",""1"",""2986""
","
","""event"",""trial"",""time""
""focus"",""1"",""1589""
","""event"",""trial"",""time""
""fullscreenenter"",""1"",""2986""
","
","","","","","","null","<div style=""font-size:60px;"">+</div>","null","","fixation","","",""
"memory-trial","60","202079","0.0-18.0-1.8","6413","approach_avoid_sv1","""event"",""trial"",""time""
""focus"",""1"",""1589""
""fullscreenenter"",""1"",""2986""
","
","""event"",""trial"",""time""
""focus"",""1"",""1589""
","""event"",""trial"",""time""
""fullscreenenter"",""1"",""2986""
","
","","","","","","2630","images/banana2.png","","","memory_trial","2","maybe_old",""
"html-keyboard-response","61","202581","0.0-18.0-0.9","6413","approach_avoid_sv1","""event"",""trial"",""time""
""focus"",""1"",""1589""
""fullscreenenter"",""1"",""2986""
","
","""event"",""trial"",""time""
""focus"",""1"",""1589""
","""event"",""trial"",""time""
""fullscreenenter"",""1"",""2986""
","
","","","","","","null","<div style=""font-size:60px;"">+</div>","null","","fixation","","",""
"memory-trial","62","204591","0.0-18.0-1.9","6413","approach_avoid_sv1","""event"",""trial"",""time""
""focus"",""1"",""1589""
""fullscreenenter"",""1"",""2986""
","
","""event"",""trial"",""time""
""focus"",""1"",""1589""
","""event"",""trial"",""time""
""fullscreenenter"",""1"",""2986""
","
","","","","","","1006.1000000089407","images/plane1.png","","","memory_trial","1","definitely_old",""
"html-keyboard-response","63","205093","0.0-18.0-0.10","6413","approach_avoid_sv1","""event"",""trial"",""time""
""focus"",""1"",""1589""
""fullscreenenter"",""1"",""2986""
","
","""event"",""trial"",""time""
""focus"",""1"",""1589""
","""event"",""trial"",""time""
""fullscreenenter"",""1"",""2986""
","
","","","","","","null","<div style=""font-size:60px;"">+</div>","null","","fixation","","",""
"memory-trial","64","208016","0.0-18.0-1.10","6413","approach_avoid_sv1","""event"",""trial"",""time""
""focus"",""1"",""1589""
""fullscreenenter"",""1"",""2986""
","
","""event"",""trial"",""time""
""focus"",""1"",""1589""
","""event"",""trial"",""time""
""fullscreenenter"",""1"",""2986""
","
","","","","","","1918.699999988079","images/sheep7.png","","","memory_trial","3","maybe_new",""
"html-keyboard-response","65","208518","0.0-18.0-0.11","6413","approach_avoid_sv1","""event"",""trial"",""time""
""focus"",""1"",""1589""
""fullscreenenter"",""1"",""2986""
","
","""event"",""trial"",""time""
""focus"",""1"",""1589""
","""event"",""trial"",""time""
""fullscreenenter"",""1"",""2986""
","
","","","","","","null","<div style=""font-size:60px;"">+</div>","null","","fixation","","",""
"memory-trial","66","210584","0.0-18.0-1.11","6413","approach_avoid_sv1","""event"",""trial"",""time""
""focus"",""1"",""1589""
""fullscreenenter"",""1"",""2986""
","
","""event"",""trial"",""time""
""focus"",""1"",""1589""
","""event"",""trial"",""time""
""fullscreenenter"",""1"",""2986""
","
","","","","","","1061.699999988079","images/bed4.png","","","memory_trial","1","definitely_old",""
"html-keyboard-response","67","211086","0.0-18.0-0.12","6413","approach_avoid_sv1","""event"",""trial"",""time""
""focus"",""1"",""1589""
""fullscreenenter"",""1"",""2986""
","
","""event"",""trial"",""time""
""focus"",""1"",""1589""
","""event"",""trial"",""time""
""fullscreenenter"",""1"",""2986""
","
","","","","","","null","<div style=""font-size:60px;"">+</div>","null","","fixation","","",""
"memory-trial","68","212663","0.0-18.0-1.12","6413","approach_avoid_sv1","""event"",""trial"",""time""
""focus"",""1"",""1589""
""fullscreenenter"",""1"",""2986""
","
","""event"",""trial"",""time""
""focus"",""1"",""1589""
","""event"",""trial"",""time""
""fullscreenenter"",""1"",""2986""
","
","","","","","","573.8999999910593","images/bed2.png","","","memory_trial","1","definitely_old",""
"html-keyboard-response","69","213165","0.0-18.0-0.13","6413","approach_avoid_sv1","""event"",""trial"",""time""
""focus"",""1"",""1589""
""fullscreenenter"",""1"",""2986""
","
","""event"",""trial"",""time""
""focus"",""1"",""1589""
","""event"",""trial"",""time""
""fullscreenenter"",""1"",""2986""
","
","","","","","","null","<div style=""font-size:60px;"">+</div>","null","","fixation","","",""
"memory-trial","70","215404","0.0-18.0-1.13","6413","approach_avoid_sv1","""event"",""trial"",""time""
""focus"",""1"",""1589""
""fullscreenenter"",""1"",""2986""
","
","""event"",""trial"",""time""
""focus"",""1"",""1589""
","""event"",""trial"",""time""
""fullscreenenter"",""1"",""2986""
","
","","","","","","1231.199999988079","images/horse7.png","","","memory_trial","4","definitely_new",""
"html-keyboard-response","71","215905","0.0-18.0-0.14","6413","approach_avoid_sv1","""event"",""trial"",""time""
""focus"",""1"",""1589""
""fullscreenenter"",""1"",""2986""
","
","""event"",""trial"",""time""
""focus"",""1"",""1589""
","""event"",""trial"",""time""
""fullscreenenter"",""1"",""2986""
","
","","","","","","null","<div style=""font-size:60px;"">+</div>","null","","fixation","","",""
"memory-trial","72","217991","0.0-18.0-1.14","6413","approach_avoid_sv1","""event"",""trial"",""time""
""focus"",""1"",""1589""
""fullscreenenter"",""1"",""2986""
","
","""event"",""trial"",""time""
""focus"",""1"",""1589""
","""event"",""trial"",""time""
""fullscreenenter"",""1"",""2986""
","
","","","","","","1082.2000000029802","images/cow6.png","","","memory_trial","1","definitely_old",""
"html-keyboard-response","73","218493","0.0-18.0-0.15","6413","approach_avoid_sv1","""event"",""trial"",""time""
""focus"",""1"",""1589""
""fullscreenenter"",""1"",""2986""
","
","""event"",""trial"",""time""
""focus"",""1"",""1589""
","""event"",""trial"",""time""
""fullscreenenter"",""1"",""2986""
","
","","","","","","null","<div style=""font-size:60px;"">+</div>","null","","fixation","","",""
"memory-trial","74","220751","0.0-18.0-1.15","6413","approach_avoid_sv1","""event"",""trial"",""time""
""focus"",""1"",""1589""
""fullscreenenter"",""1"",""2986""
","
","""event"",""trial"",""time""
""focus"",""1"",""1589""
","""event"",""trial"",""time""
""fullscreenenter"",""1"",""2986""
","
","","","","","","1255.7000000029802","images/rabbit8.png","","","memory_trial","3","maybe_new",""
"html-keyboard-response","75","221253","0.0-18.0-0.16","6413","approach_avoid_sv1","""event"",""trial"",""time""
""focus"",""1"",""1589""
""fullscreenenter"",""1"",""2986""
","
","""event"",""trial"",""time""
""focus"",""1"",""1589""
","""event"",""trial"",""time""
""fullscreenenter"",""1"",""2986""
","
","","","","","","null","<div style=""font-size:60px;"">+</div>","null","","fixation","","",""
"memory-trial","76","223216","0.0-18.0-1.16","6413","approach_avoid_sv1","""event"",""trial"",""time""
""focus"",""1"",""1589""
""fullscreenenter"",""1"",""2986""
","
","""event"",""trial"",""time""
""focus"",""1"",""1589""
","""event"",""trial"",""time""
""fullscreenenter"",""1"",""2986""
","
","","","","","","959.2000000029802","images/cactus6.png","","","memory_trial","4","definitely_new",""
"html-keyboard-response","77","223718","0.0-18.0-0.17","6413","approach_avoid_sv1","""event"",""trial"",""time""
""focus"",""1"",""1589""
""fullscreenenter"",""1"",""2986""
","
","""event"",""trial"",""time""
""focus"",""1"",""1589""
","""event"",""trial"",""time""
""fullscreenenter"",""1"",""2986""
","
","","","","","","null","<div style=""font-size:60px;"">+</div>","null","","fixation","","",""
"memory-trial","78","225903","0.0-18.0-1.17","6413","approach_avoid_sv1","""event"",""trial"",""time""
""focus"",""1"",""1589""
""fullscreenenter"",""1"",""2986""
","
","""event"",""trial"",""time""
""focus"",""1"",""1589""
","""event"",""trial"",""time""
""fullscreenenter"",""1"",""2986""
","
","","","","","","1182.6000000089407","images/chair6.png","","","memory_trial","1","definitely_old",""
"html-keyboard-response","79","226405","0.0-18.0-0.18","6413","approach_avoid_sv1","""event"",""trial"",""time""
""focus"",""1"",""1589""
""fullscreenenter"",""1"",""2986""
","
","""event"",""trial"",""time""
""focus"",""1"",""1589""
","""event"",""trial"",""time""
""fullscreenenter"",""1"",""2986""
","
","","","","","","null","<div style=""font-size:60px;"">+</div>","null","","fixation","","",""
"memory-trial","80","229023","0.0-18.0-1.18","6413","approach_avoid_sv1","""event"",""trial"",""time""
""focus"",""1"",""1589""
""fullscreenenter"",""1"",""2986""
","
","""event"",""trial"",""time""
""focus"",""1"",""1589""
","""event"",""trial"",""time""
""fullscreenenter"",""1"",""2986""
","
","","","","","","1614.6000000089407","images/banana8.png","","","memory_trial","3","maybe_new",""
"html-keyboard-response","81","229525","0.0-18.0-0.19","6413","approach_avoid_sv1","""event"",""trial"",""time""
""focus"",""1"",""1589""
""fullscreenenter"",""1"",""2986""
","
","""event"",""trial"",""time""
""focus"",""1"",""1589""
","""event"",""trial"",""time""
""fullscreenenter"",""1"",""2986""
","
","","","","","","null","<div style=""font-size:60px;"">+</div>","null","","fixation","","",""
"memory-trial","82","231536","0.0-18.0-1.19","6413","approach_avoid_sv1","""event"",""trial"",""time""
""focus"",""1"",""1589""
""fullscreenenter"",""1"",""2986""
","
","""event"",""trial"",""time""
""focus"",""1"",""1589""
","""event"",""trial"",""time""
""fullscreenenter"",""1"",""2986""
","
","","","","","","1007.5","images/goat5.png","","","memory_trial","1","definitely_old",""
"html-keyboard-response","83","232037","0.0-18.0-0.20","6413","approach_avoid_sv1","""event"",""trial"",""time""
""focus"",""1"",""1589""
""fullscreenenter"",""1"",""2986""
","
","""event"",""trial"",""time""
""focus"",""1"",""1589""
","""event"",""trial"",""time""
""fullscreenenter"",""1"",""2986""
","
","","","","","","null","<div style=""font-size:60px;"">+</div>","null","","fixation","","",""
"memory-trial","84","234071","0.0-18.0-1.20","6413","approach_avoid_sv1","""event"",""trial"",""time""
""focus"",""1"",""1589""
""fullscreenenter"",""1"",""2986""
","
","""event"",""trial"",""time""
""focus"",""1"",""1589""
","""event"",""trial"",""time""
""fullscreenenter"",""1"",""2986""
","
","","","","","","1029.8999999910593","images/flower6.png","","","memory_trial","1","definitely_old",""
"html-keyboard-response","85","234573","0.0-18.0-0.21","6413","approach_avoid_sv1","""event"",""trial"",""time""
""focus"",""1"",""1589""
""fullscreenenter"",""1"",""2986""
","
","""event"",""trial"",""time""
""focus"",""1"",""1589""
","""event"",""trial"",""time""
""fullscreenenter"",""1"",""2986""
","
","","","","","","null","<div style=""font-size:60px;"">+</div>","null","","fixation","","",""
"memory-trial","86","236447","0.0-18.0-1.21","6413","approach_avoid_sv1","""event"",""trial"",""time""
""focus"",""1"",""1589""
""fullscreenenter"",""1"",""2986""
","
","""event"",""trial"",""time""
""focus"",""1"",""1589""
","""event"",""trial"",""time""
""fullscreenenter"",""1"",""2986""
","
","","","","","","871.8999999910593","images/horse8.png","","","memory_trial","1","definitely_old",""
"html-keyboard-response","87","236948","0.0-18.0-0.22","6413","approach_avoid_sv1","""event"",""trial"",""time""
""focus"",""1"",""1589""
""fullscreenenter"",""1"",""2986""
","
","""event"",""trial"",""time""
""focus"",""1"",""1589""
","""event"",""trial"",""time""
""fullscreenenter"",""1"",""2986""
","
","","","","","","null","<div style=""font-size:60px;"">+</div>","null","","fixation","","",""
"memory-trial","88","238887","0.0-18.0-1.22","6413","approach_avoid_sv1","""event"",""trial"",""time""
""focus"",""1"",""1589""
""fullscreenenter"",""1"",""2986""
","
","""event"",""trial"",""time""
""focus"",""1"",""1589""
","""event"",""trial"",""time""
""fullscreenenter"",""1"",""2986""
","
","","","","","","935.7000000029802","images/cat7.png","","","memory_trial","1","definitely_old",""
"html-keyboard-response","89","239389","0.0-18.0-0.23","6413","approach_avoid_sv1","""event"",""trial"",""time""
""focus"",""1"",""1589""
""fullscreenenter"",""1"",""2986""
","
","""event"",""trial"",""time""
""focus"",""1"",""1589""
","""event"",""trial"",""time""
""fullscreenenter"",""1"",""2986""
","
","","","","","","null","<div style=""font-size:60px;"">+</div>","null","","fixation","","",""
"memory-trial","90","241255","0.0-18.0-1.23","6413","approach_avoid_sv1","""event"",""trial"",""time""
""focus"",""1"",""1589""
""fullscreenenter"",""1"",""2986""
","
","""event"",""trial"",""time""
""focus"",""1"",""1589""
","""event"",""trial"",""time""
""fullscreenenter"",""1"",""2986""
","
","","","","","","863.7999999970198","images/banana3.png","","","memory_trial","1","definitely_old",""
"html-keyboard-response","91","241756","0.0-18.0-0.24","6413","approach_avoid_sv1","""event"",""trial"",""time""
""focus"",""1"",""1589""
""fullscreenenter"",""1"",""2986""
","
","""event"",""trial"",""time""
""focus"",""1"",""1589""
","""event"",""trial"",""time""
""fullscreenenter"",""1"",""2986""
","
","","","","","","null","<div style=""font-size:60px;"">+</div>","null","","fixation","","",""
"memory-trial","92","243543","0.0-18.0-1.24","6413","approach_avoid_sv1","""event"",""trial"",""time""
""focus"",""1"",""1589""
""fullscreenenter"",""1"",""2986""
","
","""event"",""trial"",""time""
""focus"",""1"",""1589""
","""event"",""trial"",""time""
""fullscreenenter"",""1"",""2986""
","
","","","","","","784.0999999940395","images/straw1.png","","","memory_trial","4","definitely_new",""
"html-keyboard-response","93","244046","0.0-18.0-0.25","6413","approach_avoid_sv1","""event"",""trial"",""time""
""focus"",""1"",""1589""
""fullscreenenter"",""1"",""2986""
","
","""event"",""trial"",""time""
""focus"",""1"",""1589""
","""event"",""trial"",""time""
""fullscreenenter"",""1"",""2986""
","
","","","","","","null","<div style=""font-size:60px;"">+</div>","null","","fixation","","",""
"memory-trial","94","245991","0.0-18.0-1.25","6413","approach_avoid_sv1","""event"",""trial"",""time""
""focus"",""1"",""1589""
""fullscreenenter"",""1"",""2986""
","
","""event"",""trial"",""time""
""focus"",""1"",""1589""
","""event"",""trial"",""time""
""fullscreenenter"",""1"",""2986""
","
","","","","","","941.2999999970198","images/table5.png","","","memory_trial","4","definitely_new",""
"html-keyboard-response","95","246492","0.0-18.0-0.26","6413","approach_avoid_sv1","""event"",""trial"",""time""
""focus"",""1"",""1589""
""fullscreenenter"",""1"",""2986""
","
","""event"",""trial"",""time""
""focus"",""1"",""1589""
","""event"",""trial"",""time""
""fullscreenenter"",""1"",""2986""
","
","","","","","","null","<div style=""font-size:60px;"">+</div>","null","","fixation","","",""
"memory-trial","96","248135","0.0-18.0-1.26","6413","approach_avoid_sv1","""event"",""trial"",""time""
""focus"",""1"",""1589""
""fullscreenenter"",""1"",""2986""
","
","""event"",""trial"",""time""
""focus"",""1"",""1589""
","""event"",""trial"",""time""
""fullscreenenter"",""1"",""2986""
","
","","","","","","639","images/truck4.png","","","memory_trial","4","definitely_new",""
"html-keyboard-response","97","248637","0.0-18.0-0.27","6413","approach_avoid_sv1","""event"",""trial"",""time""
""focus"",""1"",""1589""
""fullscreenenter"",""1"",""2986""
","
","""event"",""trial"",""time""
""focus"",""1"",""1589""
","""event"",""trial"",""time""
""fullscreenenter"",""1"",""2986""
","
","","","","","","null","<div style=""font-size:60px;"">+</div>","null","","fixation","","",""
"memory-trial","98","250263","0.0-18.0-1.27","6413","approach_avoid_sv1","""event"",""trial"",""time""
""focus"",""1"",""1589""
""fullscreenenter"",""1"",""2986""
","
","""event"",""trial"",""time""
""focus"",""1"",""1589""
","""event"",""trial"",""time""
""fullscreenenter"",""1"",""2986""
","
","","","","","","622.7999999970198","images/straw5.png","","","memory_trial","4","definitely_new",""
"html-keyboard-response","99","250765","0.0-18.0-0.28","6413","approach_avoid_sv1","""event"",""trial"",""time""
""focus"",""1"",""1589""
""fullscreenenter"",""1"",""2986""
","
","""event"",""trial"",""time""
""focus"",""1"",""1589""
","""event"",""trial"",""time""
""fullscreenenter"",""1"",""2986""
","
","","","","","","null","<div style=""font-size:60px;"">+</div>","null","","fixation","","",""
"memory-trial","100","252527","0.0-18.0-1.28","6413","approach_avoid_sv1","""event"",""trial"",""time""
""focus"",""1"",""1589""
""fullscreenenter"",""1"",""2986""
","
","""event"",""trial"",""time""
""focus"",""1"",""1589""
","""event"",""trial"",""time""
""fullscreenenter"",""1"",""2986""
","
","","","","","","759.2000000029802","images/apple8.png","","","memory_trial","1","definitely_old",""
"html-keyboard-response","101","253029","0.0-18.0-0.29","6413","approach_avoid_sv1","""event"",""trial"",""time""
""focus"",""1"",""1589""
""fullscreenenter"",""1"",""2986""
","
","""event"",""trial"",""time""
""focus"",""1"",""1589""
","""event"",""trial"",""time""
""fullscreenenter"",""1"",""2986""
","
","","","","","","null","<div style=""font-size:60px;"">+</div>","null","","fixation","","",""
"memory-trial","102","255111","0.0-18.0-1.29","6413","approach_avoid_sv1","""event"",""trial"",""time""
""focus"",""1"",""1589""
""fullscreenenter"",""1"",""2986""
","
","""event"",""trial"",""time""
""focus"",""1"",""1589""
","""event"",""trial"",""time""
""fullscreenenter"",""1"",""2986""
","
","","","","","","1078.9000000059605","images/sheep2.png","","","memory_trial","4","definitely_new",""
"html-keyboard-response","103","255613","0.0-18.0-0.30","6413","approach_avoid_sv1","""event"",""trial"",""time""
""focus"",""1"",""1589""
""fullscreenenter"",""1"",""2986""
","
","""event"",""trial"",""time""
""focus"",""1"",""1589""
","""event"",""trial"",""time""
""fullscreenenter"",""1"",""2986""
","
","","","","","","null","<div style=""font-size:60px;"">+</div>","null","","fixation","","",""
"memory-trial","104","257703","0.0-18.0-1.30","6413","approach_avoid_sv1","""event"",""trial"",""time""
""focus"",""1"",""1589""
""fullscreenenter"",""1"",""2986""
","
","""event"",""trial"",""time""
""focus"",""1"",""1589""
","""event"",""trial"",""time""
""fullscreenenter"",""1"",""2986""
","
","","","","","","1086.9000000059605","images/tree1.png","","","memory_trial","1","definitely_old",""
"html-keyboard-response","105","258204","0.0-18.0-0.31","6413","approach_avoid_sv1","""event"",""trial"",""time""
""focus"",""1"",""1589""
""fullscreenenter"",""1"",""2986""
","
","""event"",""trial"",""time""
""focus"",""1"",""1589""
","""event"",""trial"",""time""
""fullscreenenter"",""1"",""2986""
","
","","","","","","null","<div style=""font-size:60px;"">+</div>","null","","fixation","","",""
"memory-trial","106","260031","0.0-18.0-1.31","6413","approach_avoid_sv1","""event"",""trial"",""time""
""focus"",""1"",""1589""
""fullscreenenter"",""1"",""2986""
","
","""event"",""trial"",""time""
""focus"",""1"",""1589""
","""event"",""trial"",""time""
""fullscreenenter"",""1"",""2986""
","
","","","","","","822.9000000059605","images/boat1.png","","","memory_trial","1","definitely_old",""
"html-keyboard-response","107","260533","0.0-18.0-0.32","6413","approach_avoid_sv1","""event"",""trial"",""time""
""focus"",""1"",""1589""
""fullscreenenter"",""1"",""2986""
","
","""event"",""trial"",""time""
""focus"",""1"",""1589""
","""event"",""trial"",""time""
""fullscreenenter"",""1"",""2986""
","
","","","","","","null","<div style=""font-size:60px;"">+</div>","null","","fixation","","",""
"memory-trial","108","262135","0.0-18.0-1.32","6413","approach_avoid_sv1","""event"",""trial"",""time""
""focus"",""1"",""1589""
""fullscreenenter"",""1"",""2986""
","
","""event"",""trial"",""time""
""focus"",""1"",""1589""
","""event"",""trial"",""time""
""fullscreenenter"",""1"",""2986""
","
","","","","","","598.9000000059605","images/plane2.png","","","memory_trial","1","definitely_old",""
"html-keyboard-response","109","262636","0.0-18.0-0.33","6413","approach_avoid_sv1","""event"",""trial"",""time""
""focus"",""1"",""1589""
""fullscreenenter"",""1"",""2986""
","
","""event"",""trial"",""time""
""focus"",""1"",""1589""
","""event"",""trial"",""time""
""fullscreenenter"",""1"",""2986""
","
","","","","","","null","<div style=""font-size:60px;"">+</div>","null","","fixation","","",""
"memory-trial","110","264302","0.0-18.0-1.33","6413","approach_avoid_sv1","""event"",""trial"",""time""
""focus"",""1"",""1589""
""fullscreenenter"",""1"",""2986""
","
","""event"",""trial"",""time""
""focus"",""1"",""1589""
","""event"",""trial"",""time""
""fullscreenenter"",""1"",""2986""
","
","","","","","","663.2000000029802","images/cow7.png","","","memory_trial","1","definitely_old",""
"html-keyboard-response","111","264804","0.0-18.0-0.34","6413","approach_avoid_sv1","""event"",""trial"",""time""
""focus"",""1"",""1589""
""fullscreenenter"",""1"",""2986""
","
","""event"",""trial"",""time""
""focus"",""1"",""1589""
","""event"",""trial"",""time""
""fullscreenenter"",""1"",""2986""
","
","","","","","","null","<div style=""font-size:60px;"">+</div>","null","","fixation","","",""
"memory-trial","112","266615","0.0-18.0-1.34","6413","approach_avoid_sv1","""event"",""trial"",""time""
""focus"",""1"",""1589""
""fullscreenenter"",""1"",""2986""
","
","""event"",""trial"",""time""
""focus"",""1"",""1589""
","""event"",""trial"",""time""
""fullscreenenter"",""1"",""2986""
","
","","","","","","808","images/train6.png","","","memory_trial","1","definitely_old",""
"html-keyboard-response","113","267117","0.0-18.0-0.35","6413","approach_avoid_sv1","""event"",""trial"",""time""
""focus"",""1"",""1589""
""fullscreenenter"",""1"",""2986""
","
","""event"",""trial"",""time""
""focus"",""1"",""1589""
","""event"",""trial"",""time""
""fullscreenenter"",""1"",""2986""
","
","","","","","","null","<div style=""font-size:60px;"">+</div>","null","","fixation","","",""
"memory-trial","114","268871","0.0-18.0-1.35","6413","approach_avoid_sv1","""event"",""trial"",""time""
""focus"",""1"",""1589""
""fullscreenenter"",""1"",""2986""
","
","""event"",""trial"",""time""
""focus"",""1"",""1589""
","""event"",""trial"",""time""
""fullscreenenter"",""1"",""2986""
","
","","","","","","751","images/cactus2.png","","","memory_trial","4","definitely_new",""
"html-keyboard-response","115","269380","0.0-18.0-0.36","6413","approach_avoid_sv1","""event"",""trial"",""time""
""focus"",""1"",""1589""
""fullscreenenter"",""1"",""2986""
","
","""event"",""trial"",""time""
""focus"",""1"",""1589""
","""event"",""trial"",""time""
""fullscreenenter"",""1"",""2986""
","
","","","","","","null","<div style=""font-size:60px;"">+</div>","null","","fixation","","",""
"memory-trial","116","271567","0.0-18.0-1.36","6413","approach_avoid_sv1","""event"",""trial"",""time""
""focus"",""1"",""1589""
""fullscreenenter"",""1"",""2986""
","
","""event"",""trial"",""time""
""focus"",""1"",""1589""
","""event"",""trial"",""time""
""fullscreenenter"",""1"",""2986""
","
","","","","","","1183.4000000059605","images/dog4.png","","","memory_trial","4","definitely_new",""
"html-keyboard-response","117","272068","0.0-18.0-0.37","6413","approach_avoid_sv1","""event"",""trial"",""time""
""focus"",""1"",""1589""
""fullscreenenter"",""1"",""2986""
","
","""event"",""trial"",""time""
""focus"",""1"",""1589""
","""event"",""trial"",""time""
""fullscreenenter"",""1"",""2986""
","
","","","","","","null","<div style=""font-size:60px;"">+</div>","null","","fixation","","",""
"memory-trial","118","274318","0.0-18.0-1.37","6413","approach_avoid_sv1","""event"",""trial"",""time""
""focus"",""1"",""1589""
""fullscreenenter"",""1"",""2986""
","
","""event"",""trial"",""time""
""focus"",""1"",""1589""
","""event"",""trial"",""time""
""fullscreenenter"",""1"",""2986""
","
","","","","","","1246.2000000029802","images/bed7.png","","","memory_trial","4","definitely_new",""
"html-keyboard-response","119","274820","0.0-18.0-0.38","6413","approach_avoid_sv1","""event"",""trial"",""time""
""focus"",""1"",""1589""
""fullscreenenter"",""1"",""2986""
","
","""event"",""trial"",""time""
""focus"",""1"",""1589""
","""event"",""trial"",""time""
""fullscreenenter"",""1"",""2986""
","
","","","","","","null","<div style=""font-size:60px;"">+</div>","null","","fixation","","",""
"memory-trial","120","277167","0.0-18.0-1.38","6413","approach_avoid_sv1","""event"",""trial"",""time""
""focus"",""1"",""1589""
""fullscreenenter"",""1"",""2986""
","
","""event"",""trial"",""time""
""focus"",""1"",""1589""
","""event"",""trial"",""time""
""fullscreenenter"",""1"",""2986""
","
","","","","","","1344.2000000029802","images/banana4.png","","","memory_trial","3","maybe_new",""
"html-keyboard-response","121","277669","0.0-18.0-0.39","6413","approach_avoid_sv1","""event"",""trial"",""time""
""focus"",""1"",""1589""
""fullscreenenter"",""1"",""2986""
","
","""event"",""trial"",""time""
""focus"",""1"",""1589""
","""event"",""trial"",""time""
""fullscreenenter"",""1"",""2986""
","
","","","","","","null","<div style=""font-size:60px;"">+</div>","null","","fixation","","",""
"memory-trial","122","279911","0.0-18.0-1.39","6413","approach_avoid_sv1","""event"",""trial"",""time""
""focus"",""1"",""1589""
""fullscreenenter"",""1"",""2986""
","
","""event"",""trial"",""time""
""focus"",""1"",""1589""
","""event"",""trial"",""time""
""fullscreenenter"",""1"",""2986""
","
","","","","","","1238.2999999970198","images/boat2.png","","","memory_trial","1","definitely_old",""
"html-keyboard-response","123","280412","0.0-18.0-0.40","6413","approach_avoid_sv1","""event"",""trial"",""time""
""focus"",""1"",""1589""
""fullscreenenter"",""1"",""2986""
","
","""event"",""trial"",""time""
""focus"",""1"",""1589""
","""event"",""trial"",""time""
""fullscreenenter"",""1"",""2986""
","
","","","","","","null","<div style=""font-size:60px;"">+</div>","null","","fixation","","",""
"memory-trial","124","282262","0.0-18.0-1.40","6413","approach_avoid_sv1","""event"",""trial"",""time""
""focus"",""1"",""1589""
""fullscreenenter"",""1"",""2986""
","
","""event"",""trial"",""time""
""focus"",""1"",""1589""
","""event"",""trial"",""time""
""fullscreenenter"",""1"",""2986""
","
","","","","","","846.5","images/truck2.png","","","memory_trial","4","definitely_new",""
"html-keyboard-response","125","282765","0.0-18.0-0.41","6413","approach_avoid_sv1","""event"",""trial"",""time""
""focus"",""1"",""1589""
""fullscreenenter"",""1"",""2986""
","
","""event"",""trial"",""time""
""focus"",""1"",""1589""
","""event"",""trial"",""time""
""fullscreenenter"",""1"",""2986""
","
","","","","","","null","<div style=""font-size:60px;"">+</div>","null","","fixation","","",""
"memory-trial","126","285879","0.0-18.0-1.41","6413","approach_avoid_sv1","""event"",""trial"",""time""
""focus"",""1"",""1589""
""fullscreenenter"",""1"",""2986""
","
","""event"",""trial"",""time""
""focus"",""1"",""1589""
","""event"",""trial"",""time""
""fullscreenenter"",""1"",""2986""
","
","","","","","","2110.5","images/orange2.png","","","memory_trial","1","definitely_old",""
"html-button-response","127","288465","0.0-18.0-2.41-0.41","6413","approach_avoid_sv1","""event"",""trial"",""time""
""focus"",""1"",""1589""
""fullscreenenter"",""1"",""2986""
","
","""event"",""trial"",""time""
""focus"",""1"",""1589""
","""event"",""trial"",""time""
""fullscreenenter"",""1"",""2986""
","
","","","","","","2585.4000000059605","<p> Take a break! </p><p> Click the button to continue. </p>","0","","break","","",""
"html-keyboard-response","128","288967","0.0-18.0-0.42","6413","approach_avoid_sv1","""event"",""trial"",""time""
""focus"",""1"",""1589""
""fullscreenenter"",""1"",""2986""
","
","""event"",""trial"",""time""
""focus"",""1"",""1589""
","""event"",""trial"",""time""
""fullscreenenter"",""1"",""2986""
","
","","","","","","null","<div style=""font-size:60px;"">+</div>","null","","fixation","","",""
"memory-trial","129","290983","0.0-18.0-1.42","6413","approach_avoid_sv1","""event"",""trial"",""time""
""focus"",""1"",""1589""
""fullscreenenter"",""1"",""2986""
","
","""event"",""trial"",""time""
""focus"",""1"",""1589""
","""event"",""trial"",""time""
""fullscreenenter"",""1"",""2986""
","
","","","","","","1012.2000000029802","images/boat3.png","","","memory_trial","4","definitely_new",""
"html-keyboard-response","130","291484","0.0-18.0-0.43","6413","approach_avoid_sv1","""event"",""trial"",""time""
""focus"",""1"",""1589""
""fullscreenenter"",""1"",""2986""
","
","""event"",""trial"",""time""
""focus"",""1"",""1589""
","""event"",""trial"",""time""
""fullscreenenter"",""1"",""2986""
","
","","","","","","null","<div style=""font-size:60px;"">+</div>","null","","fixation","","",""
"memory-trial","131","293966","0.0-18.0-1.43","6413","approach_avoid_sv1","""event"",""trial"",""time""
""focus"",""1"",""1589""
""fullscreenenter"",""1"",""2986""
","
","""event"",""trial"",""time""
""focus"",""1"",""1589""
","""event"",""trial"",""time""
""fullscreenenter"",""1"",""2986""
","
","","","","","","1478.699999988079","images/cat6.png","","","memory_trial","3","maybe_new",""
"html-keyboard-response","132","294468","0.0-18.0-0.44","6413","approach_avoid_sv1","""event"",""trial"",""time""
""focus"",""1"",""1589""
""fullscreenenter"",""1"",""2986""
","
","""event"",""trial"",""time""
""focus"",""1"",""1589""
","""event"",""trial"",""time""
""fullscreenenter"",""1"",""2986""
","
","","","","","","null","<div style=""font-size:60px;"">+</div>","null","","fixation","","",""
"memory-trial","133","296255","0.0-18.0-1.44","6413","approach_avoid_sv1","""event"",""trial"",""time""
""focus"",""1"",""1589""
""fullscreenenter"",""1"",""2986""
","
","""event"",""trial"",""time""
""focus"",""1"",""1589""
","""event"",""trial"",""time""
""fullscreenenter"",""1"",""2986""
","
","","","","","","783","images/dog2.png","","","memory_trial","1","definitely_old",""
"html-keyboard-response","134","296756","0.0-18.0-0.45","6413","approach_avoid_sv1","""event"",""trial"",""time""
""focus"",""1"",""1589""
""fullscreenenter"",""1"",""2986""
","
","""event"",""trial"",""time""
""focus"",""1"",""1589""
","""event"",""trial"",""time""
""fullscreenenter"",""1"",""2986""
","
","","","","","","null","<div style=""font-size:60px;"">+</div>","null","","fixation","","",""
"memory-trial","135","298502","0.0-18.0-1.45","6413","approach_avoid_sv1","""event"",""trial"",""time""
""focus"",""1"",""1589""
""fullscreenenter"",""1"",""2986""
","
","""event"",""trial"",""time""
""focus"",""1"",""1589""
","""event"",""trial"",""time""
""fullscreenenter"",""1"",""2986""
","
","","","","","","743","images/rabbit3.png","","","memory_trial","4","definitely_new",""
"html-keyboard-response","136","299005","0.0-18.0-0.46","6413","approach_avoid_sv1","""event"",""trial"",""time""
""focus"",""1"",""1589""
""fullscreenenter"",""1"",""2986""
","
","""event"",""trial"",""time""
""focus"",""1"",""1589""
","""event"",""trial"",""time""
""fullscreenenter"",""1"",""2986""
","
","","","","","","null","<div style=""font-size:60px;"">+</div>","null","","fixation","","",""
"memory-trial","137","300669","0.0-18.0-1.46","6413","approach_avoid_sv1","""event"",""trial"",""time""
""focus"",""1"",""1589""
""fullscreenenter"",""1"",""2986""
","
","""event"",""trial"",""time""
""focus"",""1"",""1589""
","""event"",""trial"",""time""
""fullscreenenter"",""1"",""2986""
","
","","","","","","646.7999999970198","images/cat5.png","","","memory_trial","1","definitely_old",""
"html-keyboard-response","138","301171","0.0-18.0-0.47","6413","approach_avoid_sv1","""event"",""trial"",""time""
""focus"",""1"",""1589""
""fullscreenenter"",""1"",""2986""
","
","""event"",""trial"",""time""
""focus"",""1"",""1589""
","""event"",""trial"",""time""
""fullscreenenter"",""1"",""2986""
","
","","","","","","null","<div style=""font-size:60px;"">+</div>","null","","fixation","","",""
"memory-trial","139","302990","0.0-18.0-1.47","6413","approach_avoid_sv1","""event"",""trial"",""time""
""focus"",""1"",""1589""
""fullscreenenter"",""1"",""2986""
","
","""event"",""trial"",""time""
""focus"",""1"",""1589""
","""event"",""trial"",""time""
""fullscreenenter"",""1"",""2986""
","
","","","","","","815.7000000029802","images/tree4.png","","","memory_trial","4","definitely_new",""
"html-keyboard-response","140","303492","0.0-18.0-0.48","6413","approach_avoid_sv1","""event"",""trial"",""time""
""focus"",""1"",""1589""
""fullscreenenter"",""1"",""2986""
","
","""event"",""trial"",""time""
""focus"",""1"",""1589""
","""event"",""trial"",""time""
""fullscreenenter"",""1"",""2986""
","
","","","","","","null","<div style=""font-size:60px;"">+</div>","null","","fixation","","",""
"memory-trial","141","305257","0.0-18.0-1.48","6413","approach_avoid_sv1","""event"",""trial"",""time""
""focus"",""1"",""1589""
""fullscreenenter"",""1"",""2986""
","
","""event"",""trial"",""time""
""focus"",""1"",""1589""
","""event"",""trial"",""time""
""fullscreenenter"",""1"",""2986""
","
","","","","","","759","images/plane4.png","","","memory_trial","1","definitely_old",""
"html-keyboard-response","142","305759","0.0-18.0-0.49","6413","approach_avoid_sv1","""event"",""trial"",""time""
""focus"",""1"",""1589""
""fullscreenenter"",""1"",""2986""
","
","""event"",""trial"",""time""
""focus"",""1"",""1589""
","""event"",""trial"",""time""
""fullscreenenter"",""1"",""2986""
","
","","","","","","null","<div style=""font-size:60px;"">+</div>","null","","fixation","","",""
"memory-trial","143","307998","0.0-18.0-1.49","6413","approach_avoid_sv1","""event"",""trial"",""time""
""focus"",""1"",""1589""
""fullscreenenter"",""1"",""2986""
","
","""event"",""trial"",""time""
""focus"",""1"",""1589""
","""event"",""trial"",""time""
""fullscreenenter"",""1"",""2986""
","
","","","","","","1236.4000000059605","images/boat8.png","","","memory_trial","4","definitely_new",""
"html-keyboard-response","144","308500","0.0-18.0-0.50","6413","approach_avoid_sv1","""event"",""trial"",""time""
""focus"",""1"",""1589""
""fullscreenenter"",""1"",""2986""
","
","""event"",""trial"",""time""
""focus"",""1"",""1589""
","""event"",""trial"",""time""
""fullscreenenter"",""1"",""2986""
","
","","","","","","null","<div style=""font-size:60px;"">+</div>","null","","fixation","","",""
"memory-trial","145","310478","0.0-18.0-1.50","6413","approach_avoid_sv1","""event"",""trial"",""time""
""focus"",""1"",""1589""
""fullscreenenter"",""1"",""2986""
","
","""event"",""trial"",""time""
""focus"",""1"",""1589""
","""event"",""trial"",""time""
""fullscreenenter"",""1"",""2986""
","
","","","","","","974.3000000119209","images/orange5.png","","","memory_trial","1","definitely_old",""
"html-keyboard-response","146","310979","0.0-18.0-0.51","6413","approach_avoid_sv1","""event"",""trial"",""time""
""focus"",""1"",""1589""
""fullscreenenter"",""1"",""2986""
","
","""event"",""trial"",""time""
""focus"",""1"",""1589""
","""event"",""trial"",""time""
""fullscreenenter"",""1"",""2986""
","
","","","","","","null","<div style=""font-size:60px;"">+</div>","null","","fixation","","",""
"memory-trial","147","313054","0.0-18.0-1.51","6413","approach_avoid_sv1","""event"",""trial"",""time""
""focus"",""1"",""1589""
""fullscreenenter"",""1"",""2986""
","
","""event"",""trial"",""time""
""focus"",""1"",""1589""
","""event"",""trial"",""time""
""fullscreenenter"",""1"",""2986""
","
","","","","","","1072.1000000089407","images/tree5.png","","","memory_trial","3","maybe_new",""
"html-keyboard-response","148","313556","0.0-18.0-0.52","6413","approach_avoid_sv1","""event"",""trial"",""time""
""focus"",""1"",""1589""
""fullscreenenter"",""1"",""2986""
","
","""event"",""trial"",""time""
""focus"",""1"",""1589""
","""event"",""trial"",""time""
""fullscreenenter"",""1"",""2986""
","
","","","","","","null","<div style=""font-size:60px;"">+</div>","null","","fixation","","",""
"memory-trial","149","315460","0.0-18.0-1.52","6413","approach_avoid_sv1","""event"",""trial"",""time""
""focus"",""1"",""1589""
""fullscreenenter"",""1"",""2986""
","
","""event"",""trial"",""time""
""focus"",""1"",""1589""
","""event"",""trial"",""time""
""fullscreenenter"",""1"",""2986""
","
","","","","","","895.3000000119209","images/dog5.png","","","memory_trial","1","definitely_old",""
"html-keyboard-response","150","315962","0.0-18.0-0.53","6413","approach_avoid_sv1","""event"",""trial"",""time""
""focus"",""1"",""1589""
""fullscreenenter"",""1"",""2986""
","
","""event"",""trial"",""time""
""focus"",""1"",""1589""
","""event"",""trial"",""time""
""fullscreenenter"",""1"",""2986""
","
","","","","","","null","<div style=""font-size:60px;"">+</div>","null","","fixation","","",""
"memory-trial","151","317926","0.0-18.0-1.53","6413","approach_avoid_sv1","""event"",""trial"",""time""
""focus"",""1"",""1589""
""fullscreenenter"",""1"",""2986""
","
","""event"",""trial"",""time""
""focus"",""1"",""1589""
","""event"",""trial"",""time""
""fullscreenenter"",""1"",""2986""
","
","","","","","","960","images/cow5.png","","","memory_trial","1","definitely_old",""
"html-keyboard-response","152","318428","0.0-18.0-0.54","6413","approach_avoid_sv1","""event"",""trial"",""time""
""focus"",""1"",""1589""
""fullscreenenter"",""1"",""2986""
","
","""event"",""trial"",""time""
""focus"",""1"",""1589""
","""event"",""trial"",""time""
""fullscreenenter"",""1"",""2986""
","
","","","","","","null","<div style=""font-size:60px;"">+</div>","null","","fixation","","",""
"memory-trial","153","320431","0.0-18.0-1.54","6413","approach_avoid_sv1","""event"",""trial"",""time""
""focus"",""1"",""1589""
""fullscreenenter"",""1"",""2986""
","
","""event"",""trial"",""time""
""focus"",""1"",""1589""
","""event"",""trial"",""time""
""fullscreenenter"",""1"",""2986""
","
","","","","","","999","images/train3.png","","","memory_trial","3","maybe_new",""
"html-keyboard-response","154","320932","0.0-18.0-0.55","6413","approach_avoid_sv1","""event"",""trial"",""time""
""focus"",""1"",""1589""
""fullscreenenter"",""1"",""2986""
","
","""event"",""trial"",""time""
""focus"",""1"",""1589""
","""event"",""trial"",""time""
""fullscreenenter"",""1"",""2986""
","
","","","","","","null","<div style=""font-size:60px;"">+</div>","null","","fixation","","",""
"memory-trial","155","322846","0.0-18.0-1.55","6413","approach_avoid_sv1","""event"",""trial"",""time""
""focus"",""1"",""1589""
""fullscreenenter"",""1"",""2986""
","
","""event"",""trial"",""time""
""focus"",""1"",""1589""
","""event"",""trial"",""time""
""fullscreenenter"",""1"",""2986""
","
","","","","","","910.8000000119209","images/dog8.png","","","memory_trial","3","maybe_new",""
"html-keyboard-response","156","323349","0.0-18.0-0.56","6413","approach_avoid_sv1","""event"",""trial"",""time""
""focus"",""1"",""1589""
""fullscreenenter"",""1"",""2986""
","
","""event"",""trial"",""time""
""focus"",""1"",""1589""
","""event"",""trial"",""time""
""fullscreenenter"",""1"",""2986""
","
","","","","","","null","<div style=""font-size:60px;"">+</div>","null","","fixation","","",""
"memory-trial","157","325159","0.0-18.0-1.56","6413","approach_avoid_sv1","""event"",""trial"",""time""
""focus"",""1"",""1589""
""fullscreenenter"",""1"",""2986""
","
","""event"",""trial"",""time""
""focus"",""1"",""1589""
","""event"",""trial"",""time""
""fullscreenenter"",""1"",""2986""
","
","","","","","","806.5999999940395","images/bed5.png","","","memory_trial","1","definitely_old",""
"html-keyboard-response","158","325660","0.0-18.0-0.57","6413","approach_avoid_sv1","""event"",""trial"",""time""
""focus"",""1"",""1589""
""fullscreenenter"",""1"",""2986""
","
","""event"",""trial"",""time""
""focus"",""1"",""1589""
","""event"",""trial"",""time""
""fullscreenenter"",""1"",""2986""
","
","","","","","","null","<div style=""font-size:60px;"">+</div>","null","","fixation","","",""
"memory-trial","159","327430","0.0-18.0-1.57","6413","approach_avoid_sv1","""event"",""trial"",""time""
""focus"",""1"",""1589""
""fullscreenenter"",""1"",""2986""
","
","""event"",""trial"",""time""
""focus"",""1"",""1589""
","""event"",""trial"",""time""
""fullscreenenter"",""1"",""2986""
","
","","","","","","766.4000000059605","images/dog6.png","","","memory_trial","1","definitely_old",""
"html-keyboard-response","160","327933","0.0-18.0-0.58","6413","approach_avoid_sv1","""event"",""trial"",""time""
""focus"",""1"",""1589""
""fullscreenenter"",""1"",""2986""
","
","""event"",""trial"",""time""
""focus"",""1"",""1589""
","""event"",""trial"",""time""
""fullscreenenter"",""1"",""2986""
","
","","","","","","null","<div style=""font-size:60px;"">+</div>","null","","fixation","","",""
"memory-trial","161","330270","0.0-18.0-1.58","6413","approach_avoid_sv1","""event"",""trial"",""time""
""focus"",""1"",""1589""
""fullscreenenter"",""1"",""2986""
","
","""event"",""trial"",""time""
""focus"",""1"",""1589""
","""event"",""trial"",""time""
""fullscreenenter"",""1"",""2986""
","
","","","","","","1333.2000000029802","images/rabbit7.png","","","memory_trial","2","maybe_old",""
"html-keyboard-response","162","330772","0.0-18.0-0.59","6413","approach_avoid_sv1","""event"",""trial"",""time""
""focus"",""1"",""1589""
""fullscreenenter"",""1"",""2986""
","
","""event"",""trial"",""time""
""focus"",""1"",""1589""
","""event"",""trial"",""time""
""fullscreenenter"",""1"",""2986""
","
","","","","","","null","<div style=""font-size:60px;"">+</div>","null","","fixation","","",""
"memory-trial","163","332894","0.0-18.0-1.59","6413","approach_avoid_sv1","""event"",""trial"",""time""
""focus"",""1"",""1589""
""fullscreenenter"",""1"",""2986""
","
","""event"",""trial"",""time""
""focus"",""1"",""1589""
","""event"",""trial"",""time""
""fullscreenenter"",""1"",""2986""
","
","","","","","","1118.7000000029802","images/chair5.png","","","memory_trial","3","maybe_new",""
"html-keyboard-response","164","333396","0.0-18.0-0.60","6413","approach_avoid_sv1","""event"",""trial"",""time""
""focus"",""1"",""1589""
""fullscreenenter"",""1"",""2986""
","
","""event"",""trial"",""time""
""focus"",""1"",""1589""
","""event"",""trial"",""time""
""fullscreenenter"",""1"",""2986""
","
","","","","","","null","<div style=""font-size:60px;"">+</div>","null","","fixation","","",""
"memory-trial","165","335294","0.0-18.0-1.60","6413","approach_avoid_sv1","""event"",""trial"",""time""
""focus"",""1"",""1589""
""fullscreenenter"",""1"",""2986""
","
","""event"",""trial"",""time""
""focus"",""1"",""1589""
","""event"",""trial"",""time""
""fullscreenenter"",""1"",""2986""
","
","","","","","","894.6999999880791","images/chair8.png","","","memory_trial","1","definitely_old",""
"html-keyboard-response","166","335796","0.0-18.0-0.61","6413","approach_avoid_sv1","""event"",""trial"",""time""
""focus"",""1"",""1589""
""fullscreenenter"",""1"",""2986""
","
","""event"",""trial"",""time""
""focus"",""1"",""1589""
","""event"",""trial"",""time""
""fullscreenenter"",""1"",""2986""
","
","","","","","","null","<div style=""font-size:60px;"">+</div>","null","","fixation","","",""
"memory-trial","167","338341","0.0-18.0-1.61","6413","approach_avoid_sv1","""event"",""trial"",""time""
""focus"",""1"",""1589""
""fullscreenenter"",""1"",""2986""
","
","""event"",""trial"",""time""
""focus"",""1"",""1589""
","""event"",""trial"",""time""
""fullscreenenter"",""1"",""2986""
","
","","","","","","1542.5999999940395","images/boat6.png","","","memory_trial","2","maybe_old",""
"html-keyboard-response","168","338843","0.0-18.0-0.62","6413","approach_avoid_sv1","""event"",""trial"",""time""
""focus"",""1"",""1589""
""fullscreenenter"",""1"",""2986""
","
","""event"",""trial"",""time""
""focus"",""1"",""1589""
","""event"",""trial"",""time""
""fullscreenenter"",""1"",""2986""
","
","","","","","","null","<div style=""font-size:60px;"">+</div>","null","","fixation","","",""
"memory-trial","169","341094","0.0-18.0-1.62","6413","approach_avoid_sv1","""event"",""trial"",""time""
""focus"",""1"",""1589""
""fullscreenenter"",""1"",""2986""
","
","""event"",""trial"",""time""
""focus"",""1"",""1589""
","""event"",""trial"",""time""
""fullscreenenter"",""1"",""2986""
","
","","","","","","1246.7999999970198","images/truck8.png","","","memory_trial","3","maybe_new",""
"html-keyboard-response","170","341596","0.0-18.0-0.63","6413","approach_avoid_sv1","""event"",""trial"",""time""
""focus"",""1"",""1589""
""fullscreenenter"",""1"",""2986""
","
","""event"",""trial"",""time""
""focus"",""1"",""1589""
","""event"",""trial"",""time""
""fullscreenenter"",""1"",""2986""
","
","","","","","","null","<div style=""font-size:60px;"">+</div>","null","","fixation","","",""
"memory-trial","171","343542","0.0-18.0-1.63","6413","approach_avoid_sv1","""event"",""trial"",""time""
""focus"",""1"",""1589""
""fullscreenenter"",""1"",""2986""
","
","""event"",""trial"",""time""
""focus"",""1"",""1589""
","""event"",""trial"",""time""
""fullscreenenter"",""1"",""2986""
","
","","","","","","942.2999999970198","images/chair2.png","","","memory_trial","1","definitely_old",""
"html-keyboard-response","172","344045","0.0-18.0-0.64","6413","approach_avoid_sv1","""event"",""trial"",""time""
""focus"",""1"",""1589""
""fullscreenenter"",""1"",""2986""
","
","""event"",""trial"",""time""
""focus"",""1"",""1589""
","""event"",""trial"",""time""
""fullscreenenter"",""1"",""2986""
","
","","","","","","null","<div style=""font-size:60px;"">+</div>","null","","fixation","","",""
"memory-trial","173","346087","0.0-18.0-1.64","6413","approach_avoid_sv1","""event"",""trial"",""time""
""focus"",""1"",""1589""
""fullscreenenter"",""1"",""2986""
","
","""event"",""trial"",""time""
""focus"",""1"",""1589""
","""event"",""trial"",""time""
""fullscreenenter"",""1"",""2986""
","
","","","","","","1037.5999999940395","images/boat4.png","","","memory_trial","3","maybe_new",""
"html-keyboard-response","174","346588","0.0-18.0-0.65","6413","approach_avoid_sv1","""event"",""trial"",""time""
""focus"",""1"",""1589""
""fullscreenenter"",""1"",""2986""
","
","""event"",""trial"",""time""
""focus"",""1"",""1589""
","""event"",""trial"",""time""
""fullscreenenter"",""1"",""2986""
","
","","","","","","null","<div style=""font-size:60px;"">+</div>","null","","fixation","","",""
"memory-trial","175","348667","0.0-18.0-1.65","6413","approach_avoid_sv1","""event"",""trial"",""time""
""focus"",""1"",""1589""
""fullscreenenter"",""1"",""2986""
","
","""event"",""trial"",""time""
""focus"",""1"",""1589""
","""event"",""trial"",""time""
""fullscreenenter"",""1"",""2986""
","
","","","","","","1070.3999999910593","images/apple3.png","","","memory_trial","1","definitely_old",""
"html-keyboard-response","176","349170","0.0-18.0-0.66","6413","approach_avoid_sv1","""event"",""trial"",""time""
""focus"",""1"",""1589""
""fullscreenenter"",""1"",""2986""
","
","""event"",""trial"",""time""
""focus"",""1"",""1589""
","""event"",""trial"",""time""
""fullscreenenter"",""1"",""2986""
","
","","","","","","null","<div style=""font-size:60px;"">+</div>","null","","fixation","","",""
"memory-trial","177","350966","0.0-18.0-1.66","6413","approach_avoid_sv1","""event"",""trial"",""time""
""focus"",""1"",""1589""
""fullscreenenter"",""1"",""2986""
","
","""event"",""trial"",""time""
""focus"",""1"",""1589""
","""event"",""trial"",""time""
""fullscreenenter"",""1"",""2986""
","
","","","","","","792.7999999970198","images/sofa3.png","","","memory_trial","1","definitely_old",""
"html-keyboard-response","178","351467","0.0-18.0-0.67","6413","approach_avoid_sv1","""event"",""trial"",""time""
""focus"",""1"",""1589""
""fullscreenenter"",""1"",""2986""
","
","""event"",""trial"",""time""
""focus"",""1"",""1589""
","""event"",""trial"",""time""
""fullscreenenter"",""1"",""2986""
","
","","","","","","null","<div style=""font-size:60px;"">+</div>","null","","fixation","","",""
"memory-trial","179","353382","0.0-18.0-1.67","6413","approach_avoid_sv1","""event"",""trial"",""time""
""focus"",""1"",""1589""
""fullscreenenter"",""1"",""2986""
","
","""event"",""trial"",""time""
""focus"",""1"",""1589""
","""event"",""trial"",""time""
""fullscreenenter"",""1"",""2986""
","
","","","","","","911.2999999970198","images/flower8.png","","","memory_trial","1","definitely_old",""
"html-keyboard-response","180","353884","0.0-18.0-0.68","6413","approach_avoid_sv1","""event"",""trial"",""time""
""focus"",""1"",""1589""
""fullscreenenter"",""1"",""2986""
","
","""event"",""trial"",""time""
""focus"",""1"",""1589""
","""event"",""trial"",""time""
""fullscreenenter"",""1"",""2986""
","
","","","","","","null","<div style=""font-size:60px;"">+</div>","null","","fixation","","",""
"memory-trial","181","355726","0.0-18.0-1.68","6413","approach_avoid_sv1","""event"",""trial"",""time""
""focus"",""1"",""1589""
""fullscreenenter"",""1"",""2986""
","
","""event"",""trial"",""time""
""focus"",""1"",""1589""
","""event"",""trial"",""time""
""fullscreenenter"",""1"",""2986""
","
","","","","","","838.6000000089407","images/sheep1.png","","","memory_trial","3","maybe_new",""
"html-keyboard-response","182","356227","0.0-18.0-0.69","6413","approach_avoid_sv1","""event"",""trial"",""time""
""focus"",""1"",""1589""
""fullscreenenter"",""1"",""2986""
","
","""event"",""trial"",""time""
""focus"",""1"",""1589""
","""event"",""trial"",""time""
""fullscreenenter"",""1"",""2986""
","
","","","","","","null","<div style=""font-size:60px;"">+</div>","null","","fixation","","",""
"memory-trial","183","358430","0.0-18.0-1.69","6413","approach_avoid_sv1","""event"",""trial"",""time""
""focus"",""1"",""1589""
""fullscreenenter"",""1"",""2986""
","
","""event"",""trial"",""time""
""focus"",""1"",""1589""
","""event"",""trial"",""time""
""fullscreenenter"",""1"",""2986""
","
","","","","","","1198.800000011921","images/orange7.png","","","memory_trial","3","maybe_new",""
"html-keyboard-response","184","358932","0.0-18.0-0.70","6413","approach_avoid_sv1","""event"",""trial"",""time""
""focus"",""1"",""1589""
""fullscreenenter"",""1"",""2986""
","
","""event"",""trial"",""time""
""focus"",""1"",""1589""
","""event"",""trial"",""time""
""fullscreenenter"",""1"",""2986""
","
","","","","","","null","<div style=""font-size:60px;"">+</div>","null","","fixation","","",""
"memory-trial","185","361350","0.0-18.0-1.70","6413","approach_avoid_sv1","""event"",""trial"",""time""
""focus"",""1"",""1589""
""fullscreenenter"",""1"",""2986""
","
","""event"",""trial"",""time""
""focus"",""1"",""1589""
","""event"",""trial"",""time""
""fullscreenenter"",""1"",""2986""
","
","","","","","","1414.800000011921","images/train5.png","","","memory_trial","1","definitely_old",""
"html-keyboard-response","186","361852","0.0-18.0-0.71","6413","approach_avoid_sv1","""event"",""trial"",""time""
""focus"",""1"",""1589""
""fullscreenenter"",""1"",""2986""
","
","""event"",""trial"",""time""
""focus"",""1"",""1589""
","""event"",""trial"",""time""
""fullscreenenter"",""1"",""2986""
","
","","","","","","null","<div style=""font-size:60px;"">+</div>","null","","fixation","","",""
"memory-trial","187","363750","0.0-18.0-1.71","6413","approach_avoid_sv1","""event"",""trial"",""time""
""focus"",""1"",""1589""
""fullscreenenter"",""1"",""2986""
","
","""event"",""trial"",""time""
""focus"",""1"",""1589""
","""event"",""trial"",""time""
""fullscreenenter"",""1"",""2986""
","
","","","","","","894.7000000029802","images/rodent2.png","","","memory_trial","1","definitely_old",""
"html-keyboard-response","188","364251","0.0-18.0-0.72","6413","approach_avoid_sv1","""event"",""trial"",""time""
""focus"",""1"",""1589""
""fullscreenenter"",""1"",""2986""
","
","""event"",""trial"",""time""
""focus"",""1"",""1589""
","""event"",""trial"",""time""
""fullscreenenter"",""1"",""2986""
","
","","","","","","null","<div style=""font-size:60px;"">+</div>","null","","fixation","","",""
"memory-trial","189","365973","0.0-18.0-1.72","6413","approach_avoid_sv1","""event"",""trial"",""time""
""focus"",""1"",""1589""
""fullscreenenter"",""1"",""2986""
","
","""event"",""trial"",""time""
""focus"",""1"",""1589""
","""event"",""trial"",""time""
""fullscreenenter"",""1"",""2986""
","
","","","","","","719.0999999940395","images/cow8.png","","","memory_trial","1","definitely_old",""
"html-keyboard-response","190","366476","0.0-18.0-0.73","6413","approach_avoid_sv1","""event"",""trial"",""time""
""focus"",""1"",""1589""
""fullscreenenter"",""1"",""2986""
","
","""event"",""trial"",""time""
""focus"",""1"",""1589""
","""event"",""trial"",""time""
""fullscreenenter"",""1"",""2986""
","
","","","","","","null","<div style=""font-size:60px;"">+</div>","null","","fixation","","",""
"memory-trial","191","368406","0.0-18.0-1.73","6413","approach_avoid_sv1","""event"",""trial"",""time""
""focus"",""1"",""1589""
""fullscreenenter"",""1"",""2986""
","
","""event"",""trial"",""time""
""focus"",""1"",""1589""
","""event"",""trial"",""time""
""fullscreenenter"",""1"",""2986""
","
","","","","","","926.0999999940395","images/cactus4.png","","","memory_trial","4","definitely_new",""
"html-keyboard-response","192","368907","0.0-18.0-0.74","6413","approach_avoid_sv1","""event"",""trial"",""time""
""focus"",""1"",""1589""
""fullscreenenter"",""1"",""2986""
","
","""event"",""trial"",""time""
""focus"",""1"",""1589""
","""event"",""trial"",""time""
""fullscreenenter"",""1"",""2986""
","
","","","","","","null","<div style=""font-size:60px;"">+</div>","null","","fixation","","",""
"memory-trial","193","370830","0.0-18.0-1.74","6413","approach_avoid_sv1","""event"",""trial"",""time""
""focus"",""1"",""1589""
""fullscreenenter"",""1"",""2986""
","
","""event"",""trial"",""time""
""focus"",""1"",""1589""
","""event"",""trial"",""time""
""fullscreenenter"",""1"",""2986""
","
","","","","","","919.2999999970198","images/horse6.png","","","memory_trial","1","definitely_old",""
"html-keyboard-response","194","371332","0.0-18.0-0.75","6413","approach_avoid_sv1","""event"",""trial"",""time""
""focus"",""1"",""1589""
""fullscreenenter"",""1"",""2986""
","
","""event"",""trial"",""time""
""focus"",""1"",""1589""
","""event"",""trial"",""time""
""fullscreenenter"",""1"",""2986""
","
","","","","","","null","<div style=""font-size:60px;"">+</div>","null","","fixation","","",""
"memory-trial","195","373630","0.0-18.0-1.75","6413","approach_avoid_sv1","""event"",""trial"",""time""
""focus"",""1"",""1589""
""fullscreenenter"",""1"",""2986""
","
","""event"",""trial"",""time""
""focus"",""1"",""1589""
","""event"",""trial"",""time""
""fullscreenenter"",""1"",""2986""
","
","","","","","","1294.5999999940395","images/cow3.png","","","memory_trial","3","maybe_new",""
"html-keyboard-response","196","374132","0.0-18.0-0.76","6413","approach_avoid_sv1","""event"",""trial"",""time""
""focus"",""1"",""1589""
""fullscreenenter"",""1"",""2986""
","
","""event"",""trial"",""time""
""focus"",""1"",""1589""
","""event"",""trial"",""time""
""fullscreenenter"",""1"",""2986""
","
","","","","","","null","<div style=""font-size:60px;"">+</div>","null","","fixation","","",""
"memory-trial","197","376333","0.0-18.0-1.76","6413","approach_avoid_sv1","""event"",""trial"",""time""
""focus"",""1"",""1589""
""fullscreenenter"",""1"",""2986""
","
","""event"",""trial"",""time""
""focus"",""1"",""1589""
","""event"",""trial"",""time""
""fullscreenenter"",""1"",""2986""
","
","","","","","","1197.4000000059605","images/straw4.png","","","memory_trial","3","maybe_new",""
"html-keyboard-response","198","376835","0.0-18.0-0.77","6413","approach_avoid_sv1","""event"",""trial"",""time""
""focus"",""1"",""1589""
""fullscreenenter"",""1"",""2986""
","
","""event"",""trial"",""time""
""focus"",""1"",""1589""
","""event"",""trial"",""time""
""fullscreenenter"",""1"",""2986""
","
","","","","","","null","<div style=""font-size:60px;"">+</div>","null","","fixation","","",""
"memory-trial","199","378614","0.0-18.0-1.77","6413","approach_avoid_sv1","""event"",""trial"",""time""
""focus"",""1"",""1589""
""fullscreenenter"",""1"",""2986""
","
","""event"",""trial"",""time""
""focus"",""1"",""1589""
","""event"",""trial"",""time""
""fullscreenenter"",""1"",""2986""
","
","","","","","","775.7000000029802","images/cactus5.png","","","memory_trial","4","definitely_new",""
"html-keyboard-response","200","379116","0.0-18.0-0.78","6413","approach_avoid_sv1","""event"",""trial"",""time""
""focus"",""1"",""1589""
""fullscreenenter"",""1"",""2986""
","
","""event"",""trial"",""time""
""focus"",""1"",""1589""
","""event"",""trial"",""time""
""fullscreenenter"",""1"",""2986""
","
","","","","","","null","<div style=""font-size:60px;"">+</div>","null","","fixation","","",""
"memory-trial","201","381037","0.0-18.0-1.78","6413","approach_avoid_sv1","""event"",""trial"",""time""
""focus"",""1"",""1589""
""fullscreenenter"",""1"",""2986""
","
","""event"",""trial"",""time""
""focus"",""1"",""1589""
","""event"",""trial"",""time""
""fullscreenenter"",""1"",""2986""
","
","","","","","","918","images/flower5.png","","","memory_trial","1","definitely_old",""
"html-keyboard-response","202","381540","0.0-18.0-0.79","6413","approach_avoid_sv1","""event"",""trial"",""time""
""focus"",""1"",""1589""
""fullscreenenter"",""1"",""2986""
","
","""event"",""trial"",""time""
""focus"",""1"",""1589""
","""event"",""trial"",""time""
""fullscreenenter"",""1"",""2986""
","
","","","","","","null","<div style=""font-size:60px;"">+</div>","null","","fixation","","",""
"memory-trial","203","383326","0.0-18.0-1.79","6413","approach_avoid_sv1","""event"",""trial"",""time""
""focus"",""1"",""1589""
""fullscreenenter"",""1"",""2986""
","
","""event"",""trial"",""time""
""focus"",""1"",""1589""
","""event"",""trial"",""time""
""fullscreenenter"",""1"",""2986""
","
","","","","","","782.3999999910593","images/horse1.png","","","memory_trial","1","definitely_old",""
"html-keyboard-response","204","383827","0.0-18.0-0.80","6413","approach_avoid_sv1","""event"",""trial"",""time""
""focus"",""1"",""1589""
""fullscreenenter"",""1"",""2986""
","
","""event"",""trial"",""time""
""focus"",""1"",""1589""
","""event"",""trial"",""time""
""fullscreenenter"",""1"",""2986""
","
","","","","","","null","<div style=""font-size:60px;"">+</div>","null","","fixation","","",""
"memory-trial","205","385885","0.0-18.0-1.80","6413","approach_avoid_sv1","""event"",""trial"",""time""
""focus"",""1"",""1589""
""fullscreenenter"",""1"",""2986""
","
","""event"",""trial"",""time""
""focus"",""1"",""1589""
","""event"",""trial"",""time""
""fullscreenenter"",""1"",""2986""
","
","","","","","","1054.7999999970198","images/bed3.png","","","memory_trial","1","definitely_old",""
"html-keyboard-response","206","386388","0.0-18.0-0.81","6413","approach_avoid_sv1","""event"",""trial"",""time""
""focus"",""1"",""1589""
""fullscreenenter"",""1"",""2986""
","
","""event"",""trial"",""time""
""focus"",""1"",""1589""
","""event"",""trial"",""time""
""fullscreenenter"",""1"",""2986""
","
","","","","","","null","<div style=""font-size:60px;"">+</div>","null","","fixation","","",""
"memory-trial","207","388565","0.0-18.0-1.81","6413","approach_avoid_sv1","""event"",""trial"",""time""
""focus"",""1"",""1589""
""fullscreenenter"",""1"",""2986""
","
","""event"",""trial"",""time""
""focus"",""1"",""1589""
","""event"",""trial"",""time""
""fullscreenenter"",""1"",""2986""
","
","","","","","","1173.7000000029802","images/tree3.png","","","memory_trial","1","definitely_old",""
"html-keyboard-response","208","389068","0.0-18.0-0.82","6413","approach_avoid_sv1","""event"",""trial"",""time""
""focus"",""1"",""1589""
""fullscreenenter"",""1"",""2986""
","
","""event"",""trial"",""time""
""focus"",""1"",""1589""
","""event"",""trial"",""time""
""fullscreenenter"",""1"",""2986""
","
","","","","","","null","<div style=""font-size:60px;"">+</div>","null","","fixation","","",""
"memory-trial","209","391157","0.0-18.0-1.82","6413","approach_avoid_sv1","""event"",""trial"",""time""
""focus"",""1"",""1589""
""fullscreenenter"",""1"",""2986""
","
","""event"",""trial"",""time""
""focus"",""1"",""1589""
","""event"",""trial"",""time""
""fullscreenenter"",""1"",""2986""
","
","","","","","","1086.5","images/bed8.png","","","memory_trial","3","maybe_new",""
"html-keyboard-response","210","391659","0.0-18.0-0.83","6413","approach_avoid_sv1","""event"",""trial"",""time""
""focus"",""1"",""1589""
""fullscreenenter"",""1"",""2986""
","
","""event"",""trial"",""time""
""focus"",""1"",""1589""
","""event"",""trial"",""time""
""fullscreenenter"",""1"",""2986""
","
","","","","","","null","<div style=""font-size:60px;"">+</div>","null","","fixation","","",""
"memory-trial","211","393645","0.0-18.0-1.83","6413","approach_avoid_sv1","""event"",""trial"",""time""
""focus"",""1"",""1589""
""fullscreenenter"",""1"",""2986""
","
","""event"",""trial"",""time""
""focus"",""1"",""1589""
","""event"",""trial"",""time""
""fullscreenenter"",""1"",""2986""
","
","","","","","","982.5","images/goat6.png","","","memory_trial","1","definitely_old",""
"html-keyboard-response","212","394147","0.0-18.0-0.84","6413","approach_avoid_sv1","""event"",""trial"",""time""
""focus"",""1"",""1589""
""fullscreenenter"",""1"",""2986""
","
","""event"",""trial"",""time""
""focus"",""1"",""1589""
","""event"",""trial"",""time""
""fullscreenenter"",""1"",""2986""
","
","","","","","","null","<div style=""font-size:60px;"">+</div>","null","","fixation","","",""
"memory-trial","213","397029","0.0-18.0-1.84","6413","approach_avoid_sv1","""event"",""trial"",""time""
""focus"",""1"",""1589""
""fullscreenenter"",""1"",""2986""
","
","""event"",""trial"",""time""
""focus"",""1"",""1589""
","""event"",""trial"",""time""
""fullscreenenter"",""1"",""2986""
","
","","","","","","1877.5999999940395","images/cow4.png","","","memory_trial","4","definitely_new",""
"html-keyboard-response","214","397530","0.0-18.0-0.85","6413","approach_avoid_sv1","""event"",""trial"",""time""
""focus"",""1"",""1589""
""fullscreenenter"",""1"",""2986""
","
","""event"",""trial"",""time""
""focus"",""1"",""1589""
","""event"",""trial"",""time""
""fullscreenenter"",""1"",""2986""
","
","","","","","","null","<div style=""font-size:60px;"">+</div>","null","","fixation","","",""
"memory-trial","215","399774","0.0-18.0-1.85","6413","approach_avoid_sv1","""event"",""trial"",""time""
""focus"",""1"",""1589""
""fullscreenenter"",""1"",""2986""
","
","""event"",""trial"",""time""
""focus"",""1"",""1589""
","""event"",""trial"",""time""
""fullscreenenter"",""1"",""2986""
","
","","","","","","1231.2999999970198","images/cow2.png","","","memory_trial","4","definitely_new",""
"html-keyboard-response","216","400276","0.0-18.0-0.86","6413","approach_avoid_sv1","""event"",""trial"",""time""
""focus"",""1"",""1589""
""fullscreenenter"",""1"",""2986""
","
","""event"",""trial"",""time""
""focus"",""1"",""1589""
","""event"",""trial"",""time""
""fullscreenenter"",""1"",""2986""
","
","","","","","","null","<div style=""font-size:60px;"">+</div>","null","","fixation","","",""
"memory-trial","217","402190","0.0-18.0-1.86","6413","approach_avoid_sv1","""event"",""trial"",""time""
""focus"",""1"",""1589""
""fullscreenenter"",""1"",""2986""
","
","""event"",""trial"",""time""
""focus"",""1"",""1589""
","""event"",""trial"",""time""
""fullscreenenter"",""1"",""2986""
","
","","","","","","909.4000000059605","images/sheep8.png","","","memory_trial","4","definitely_new",""
"html-keyboard-response","218","402691","0.0-18.0-0.87","6413","approach_avoid_sv1","""event"",""trial"",""time""
""focus"",""1"",""1589""
""fullscreenenter"",""1"",""2986""
","
","""event"",""trial"",""time""
""focus"",""1"",""1589""
","""event"",""trial"",""time""
""fullscreenenter"",""1"",""2986""
","
","","","","","","null","<div style=""font-size:60px;"">+</div>","null","","fixation","","",""
"memory-trial","219","404973","0.0-18.0-1.87","6413","approach_avoid_sv1","""event"",""trial"",""time""
""focus"",""1"",""1589""
""fullscreenenter"",""1"",""2986""
","
","""event"",""trial"",""time""
""focus"",""1"",""1589""
","""event"",""trial"",""time""
""fullscreenenter"",""1"",""2986""
","
","","","","","","1278.2999999970198","images/sofa8.png","","","memory_trial","1","definitely_old",""
"html-keyboard-response","220","405475","0.0-18.0-0.88","6413","approach_avoid_sv1","""event"",""trial"",""time""
""focus"",""1"",""1589""
""fullscreenenter"",""1"",""2986""
","
","""event"",""trial"",""time""
""focus"",""1"",""1589""
","""event"",""trial"",""time""
""fullscreenenter"",""1"",""2986""
","
","","","","","","null","<div style=""font-size:60px;"">+</div>","null","","fixation","","",""
"memory-trial","221","407475","0.0-18.0-1.88","6413","approach_avoid_sv1","""event"",""trial"",""time""
""focus"",""1"",""1589""
""fullscreenenter"",""1"",""2986""
","
","""event"",""trial"",""time""
""focus"",""1"",""1589""
","""event"",""trial"",""time""
""fullscreenenter"",""1"",""2986""
","
","","","","","","990","images/truck1.png","","","memory_trial","4","definitely_new",""
"html-keyboard-response","222","407978","0.0-18.0-0.89","6413","approach_avoid_sv1","""event"",""trial"",""time""
""focus"",""1"",""1589""
""fullscreenenter"",""1"",""2986""
","
","""event"",""trial"",""time""
""focus"",""1"",""1589""
","""event"",""trial"",""time""
""fullscreenenter"",""1"",""2986""
","
","","","","","","null","<div style=""font-size:60px;"">+</div>","null","","fixation","","",""
"memory-trial","223","410221","0.0-18.0-1.89","6413","approach_avoid_sv1","""event"",""trial"",""time""
""focus"",""1"",""1589""
""fullscreenenter"",""1"",""2986""
","
","""event"",""trial"",""time""
""focus"",""1"",""1589""
","""event"",""trial"",""time""
""fullscreenenter"",""1"",""2986""
","
","","","","","","1238.8999999910593","images/tree2.png","","","memory_trial","4","definitely_new",""
"html-keyboard-response","224","410722","0.0-18.0-0.90","6413","approach_avoid_sv1","""event"",""trial"",""time""
""focus"",""1"",""1589""
""fullscreenenter"",""1"",""2986""
","
","""event"",""trial"",""time""
""focus"",""1"",""1589""
","""event"",""trial"",""time""
""fullscreenenter"",""1"",""2986""
","
","","","","","","null","<div style=""font-size:60px;"">+</div>","null","","fixation","","",""
"memory-trial","225","412517","0.0-18.0-1.90","6413","approach_avoid_sv1","""event"",""trial"",""time""
""focus"",""1"",""1589""
""fullscreenenter"",""1"",""2986""
","
","""event"",""trial"",""time""
""focus"",""1"",""1589""
","""event"",""trial"",""time""
""fullscreenenter"",""1"",""2986""
","
","","","","","","791.6000000089407","images/flower4.png","","","memory_trial","1","definitely_old",""
"html-keyboard-response","226","413020","0.0-18.0-0.91","6413","approach_avoid_sv1","""event"",""trial"",""time""
""focus"",""1"",""1589""
""fullscreenenter"",""1"",""2986""
","
","""event"",""trial"",""time""
""focus"",""1"",""1589""
","""event"",""trial"",""time""
""fullscreenenter"",""1"",""2986""
","
","","","","","","null","<div style=""font-size:60px;"">+</div>","null","","fixation","","",""
"memory-trial","227","414941","0.0-18.0-1.91","6413","approach_avoid_sv1","""event"",""trial"",""time""
""focus"",""1"",""1589""
""fullscreenenter"",""1"",""2986""
","
","""event"",""trial"",""time""
""focus"",""1"",""1589""
","""event"",""trial"",""time""
""fullscreenenter"",""1"",""2986""
","
","","","","","","917.7000000029802","images/sheep5.png","","","memory_trial","4","definitely_new",""
"html-button-response","228","416824","0.0-18.0-2.91-0.91","6413","approach_avoid_sv1","""event"",""trial"",""time""
""focus"",""1"",""1589""
""fullscreenenter"",""1"",""2986""
","
","""event"",""trial"",""time""
""focus"",""1"",""1589""
","""event"",""trial"",""time""
""fullscreenenter"",""1"",""2986""
","
","","","","","","1882.2000000029802","<p> Take a break! </p><p> Click the button to continue. </p>","0","","break","","",""
"html-keyboard-response","229","417324","0.0-18.0-0.92","6413","approach_avoid_sv1","""event"",""trial"",""time""
""focus"",""1"",""1589""
""fullscreenenter"",""1"",""2986""
","
","""event"",""trial"",""time""
""focus"",""1"",""1589""
","""event"",""trial"",""time""
""fullscreenenter"",""1"",""2986""
","
","","","","","","null","<div style=""font-size:60px;"">+</div>","null","","fixation","","",""
"memory-trial","230","419020","0.0-18.0-1.92","6413","approach_avoid_sv1","""event"",""trial"",""time""
""focus"",""1"",""1589""
""fullscreenenter"",""1"",""2986""
","
","""event"",""trial"",""time""
""focus"",""1"",""1589""
","""event"",""trial"",""time""
""fullscreenenter"",""1"",""2986""
","
","","","","","","692.2000000029802","images/truck7.png","","","memory_trial","4","definitely_new",""
"html-keyboard-response","231","419522","0.0-18.0-0.93","6413","approach_avoid_sv1","""event"",""trial"",""time""
""focus"",""1"",""1589""
""fullscreenenter"",""1"",""2986""
","
","""event"",""trial"",""time""
""focus"",""1"",""1589""
","""event"",""trial"",""time""
""fullscreenenter"",""1"",""2986""
","
","","","","","","null","<div style=""font-size:60px;"">+</div>","null","","fixation","","",""
"memory-trial","232","421660","0.0-18.0-1.93","6413","approach_avoid_sv1","""event"",""trial"",""time""
""focus"",""1"",""1589""
""fullscreenenter"",""1"",""2986""
","
","""event"",""trial"",""time""
""focus"",""1"",""1589""
","""event"",""trial"",""time""
""fullscreenenter"",""1"",""2986""
","
","","","","","","1135.7999999970198","images/orange3.png","","","memory_trial","4","definitely_new",""
"html-keyboard-response","233","422163","0.0-18.0-0.94","6413","approach_avoid_sv1","""event"",""trial"",""time""
""focus"",""1"",""1589""
""fullscreenenter"",""1"",""2986""
","
","""event"",""trial"",""time""
""focus"",""1"",""1589""
","""event"",""trial"",""time""
""fullscreenenter"",""1"",""2986""
","
","","","","","","null","<div style=""font-size:60px;"">+</div>","null","","fixation","","",""
"memory-trial","234","423877","0.0-18.0-1.94","6413","approach_avoid_sv1","""event"",""trial"",""time""
""focus"",""1"",""1589""
""fullscreenenter"",""1"",""2986""
","
","""event"",""trial"",""time""
""focus"",""1"",""1589""
","""event"",""trial"",""time""
""fullscreenenter"",""1"",""2986""
","
","","","","","","710.1000000089407","images/flower2.png","","","memory_trial","1","definitely_old",""
"html-keyboard-response","235","424379","0.0-18.0-0.95","6413","approach_avoid_sv1","""event"",""trial"",""time""
""focus"",""1"",""1589""
""fullscreenenter"",""1"",""2986""
","
","""event"",""trial"",""time""
""focus"",""1"",""1589""
","""event"",""trial"",""time""
""fullscreenenter"",""1"",""2986""
","
","","","","","","null","<div style=""font-size:60px;"">+</div>","null","","fixation","","",""
"memory-trial","236","426421","0.0-18.0-1.95","6413","approach_avoid_sv1","""event"",""trial"",""time""
""focus"",""1"",""1589""
""fullscreenenter"",""1"",""2986""
","
","""event"",""trial"",""time""
""focus"",""1"",""1589""
","""event"",""trial"",""time""
""fullscreenenter"",""1"",""2986""
","
","","","","","","1038.5","images/bush1.png","","","memory_trial","1","definitely_old",""
"html-keyboard-response","237","426922","0.0-18.0-0.96","6413","approach_avoid_sv1","""event"",""trial"",""time""
""focus"",""1"",""1589""
""fullscreenenter"",""1"",""2986""
","
","""event"",""trial"",""time""
""focus"",""1"",""1589""
","""event"",""trial"",""time""
""fullscreenenter"",""1"",""2986""
","
","","","","","","null","<div style=""font-size:60px;"">+</div>","null","","fixation","","",""
"memory-trial","238","429629","0.0-18.0-1.96","6413","approach_avoid_sv1","""event"",""trial"",""time""
""focus"",""1"",""1589""
""fullscreenenter"",""1"",""2986""
","
","""event"",""trial"",""time""
""focus"",""1"",""1589""
","""event"",""trial"",""time""
""fullscreenenter"",""1"",""2986""
","
","","","","","","1703.0999999940395","images/bush6.png","","","memory_trial","3","maybe_new",""
"html-keyboard-response","239","430131","0.0-18.0-0.97","6413","approach_avoid_sv1","""event"",""trial"",""time""
""focus"",""1"",""1589""
