"trial_type","trial_index","time_elapsed","internal_node_id","subject_id","task_version","interactions","blur_events","focus_events","fullscreenenter_events","fullscreenexit_events","success","timeout","failed_images","failed_audio","failed_video","rt","stimulus","response","button_pressed","task_part","key_press","answer","correct"
"pavlovia","0","5","0.0-0.0","7720","approach_avoid_sv1","""event"",""trial"",""time""
""fullscreenenter"",""1"",""2229""
","
","
","""event"",""trial"",""time""
""fullscreenenter"",""1"",""2229""
","
","","","","","","","","","","","","",""
"fullscreen","1","3197","0.0-1.0","7720","approach_avoid_sv1","""event"",""trial"",""time""
""fullscreenenter"",""1"",""2229""
","
","
","""event"",""trial"",""time""
""fullscreenenter"",""1"",""2229""
","
","true","","","","","","","","","","","",""
"preload","2","11916","0.0-2.0","7720","approach_avoid_sv1","""event"",""trial"",""time""
""fullscreenenter"",""1"",""2229""
","
","
","""event"",""trial"",""time""
""fullscreenenter"",""1"",""2229""
","
","true","false","[]","[]","[]","","","","","","","",""
"preload","3","28223","0.0-3.0","7720","approach_avoid_sv1","""event"",""trial"",""time""
""fullscreenenter"",""1"",""2229""
","
","
","""event"",""trial"",""time""
""fullscreenenter"",""1"",""2229""
","
","true","false","[]","[]","[]","","","","","","","",""
"preload","4","29650","0.0-4.0","7720","approach_avoid_sv1","""event"",""trial"",""time""
""fullscreenenter"",""1"",""2229""
","
","
","""event"",""trial"",""time""
""fullscreenenter"",""1"",""2229""
","
","true","false","[]","[]","[]","","","","","","","",""
"audio-keyboard-response","5","31107","0.0-5.0","7720","approach_avoid_sv1","""event"",""trial"",""time""
""fullscreenenter"",""1"",""2229""
","
","
","""event"",""trial"",""time""
""fullscreenenter"",""1"",""2229""
","
","","","","","","1450.6666666666667","audio/beep_loop.wav","audiovolumedown","","","","",""
"audio-button-response","6","33307","0.0-6.0","7720","approach_avoid_sv1","""event"",""trial"",""time""
""fullscreenenter"",""1"",""2229""
","
","
","""event"",""trial"",""time""
""fullscreenenter"",""1"",""2229""
","
","","","","","","2197","audio/turtle.wav","3","","","","",""
"audio-button-response","7","36327","0.0-7.0","7720","approach_avoid_sv1","""event"",""trial"",""time""
""fullscreenenter"",""1"",""2229""
","
","
","""event"",""trial"",""time""
""fullscreenenter"",""1"",""2229""
","
","","","","","","2005","audio/shark.wav","2","","","","",""
"preload","8","44424","0.0-8.0","7720","approach_avoid_sv1","""event"",""trial"",""time""
""fullscreenenter"",""1"",""2229""
","
","
","""event"",""trial"",""time""
""fullscreenenter"",""1"",""2229""
","
","true","false","[]","[]","[]","","","","","","","",""
"learning-instructions","9","50806","0.0-9.0-0.0","7720","approach_avoid_sv1","""event"",""trial"",""time""
""fullscreenenter"",""1"",""2229""
","
","
","""event"",""trial"",""time""
""fullscreenenter"",""1"",""2229""
","
","","","","","","1901","<p> Welcome back! </p><p> Last week, you had to make choices about lots of different items.  </p>","","0","instructions","","",""
"learning-instructions","10","55403","0.0-9.0-0.1","7720","approach_avoid_sv1","""event"",""trial"",""time""
""fullscreenenter"",""1"",""2229""
","
","
","""event"",""trial"",""time""
""fullscreenenter"",""1"",""2229""
","
","","","","","","482.10000014305115","<p> Today, we are going to ask you to try to remember all the items. </p>","","0","instructions","","",""
"learning-instructions","11","65969","0.0-9.0-0.2","7720","approach_avoid_sv1","""event"",""trial"",""time""
""fullscreenenter"",""1"",""2229""
","
","
","""event"",""trial"",""time""
""fullscreenenter"",""1"",""2229""
","
","","","","","","435.5","<p> On every trial, you will see an image. </p><p> The image may be an OLD image you saw during the games last week or it may be a NEW image that was not presented. </p>","","0","instructions","","",""
"learning-instructions","12","74908","0.0-9.0-0.3","7720","approach_avoid_sv1","""event"",""trial"",""time""
""fullscreenenter"",""1"",""2229""
","
","
","""event"",""trial"",""time""
""fullscreenenter"",""1"",""2229""
","
","","","","","","433.2999999523163","<p> You need to select whether the image is:  </p><p>  'Definitely old', 'Maybe old', 'Maybe new', or 'Definitely new.'  </p><div class=""mem-choice-instructions-grid""><div class=""choice-option"" id=""choice-option-1"" ><img src=""images/definitely_old_1.png"" id=""choice-option-img-1"" class=""choice-option-img"" stage=""1""></div><div class=""choice-option"" id=""choice-option-2"" ><img src=""images/maybe_old_1.png"" id=""choice-option-img-2"" class=""choice-option-img"" stage=""1""></div><div class=""choice-option"" id=""choice-option-3"" ><img src=""images/maybe_new_1.png"" id=""choice-option-img-3"" class=""choice-option-img"" stage=""1""></div><div class=""choice-option"" id=""choice-option-4"" > <img src=""images/definitely_new_1.png"" id=""choice-option-img-4"" class=""choice-option-img"" stage=""1""></div></div>","","0","instructions","","",""
"learning-instructions","13","81900","0.0-9.0-0.4","7720","approach_avoid_sv1","""event"",""trial"",""time""
""fullscreenenter"",""1"",""2229""
","
","
","""event"",""trial"",""time""
""fullscreenenter"",""1"",""2229""
","
","","","","","","470.7000000476837","<p> You should use the 1, 2, 3, and 4 keys to make your responses.  </p><div class=""mem-choice-instructions-grid""><div class=""choice-option"" id=""choice-option-1"" ><img src=""images/definitely_old.png"" id=""choice-option-img-1"" class=""choice-option-img"" stage=""1""></div><div class=""choice-option"" id=""choice-option-2"" ><img src=""images/maybe_old.png"" id=""choice-option-img-2"" class=""choice-option-img"" stage=""1""></div><div class=""choice-option"" id=""choice-option-3"" ><img src=""images/maybe_new.png"" id=""choice-option-img-3"" class=""choice-option-img"" stage=""1""></div><div class=""choice-option"" id=""choice-option-4"" > <img src=""images/definitely_new.png"" id=""choice-option-img-4"" class=""choice-option-img"" stage=""1""></div></div>","","0","instructions","","",""
"learning-instructions","14","88970","0.0-9.0-0.5","7720","approach_avoid_sv1","""event"",""trial"",""time""
""fullscreenenter"",""1"",""2229""
","
","
","""event"",""trial"",""time""
""fullscreenenter"",""1"",""2229""
","
","","","","","","736.1000001430511","<p> You will have 10 seconds to make each response.  </p><p>  Make sure to respond before time runs out! </p>","","0","instructions","","",""
"learning-instructions","15","96915","0.0-9.0-0.6","7720","approach_avoid_sv1","""event"",""trial"",""time""
""fullscreenenter"",""1"",""2229""
","
","
","""event"",""trial"",""time""
""fullscreenenter"",""1"",""2229""
","
","","","","","","862.5","<p> Today, you will see each image ONCE only.  </p><p>  That means none of the images will repeat. </p>","","0","instructions","","",""
"learning-instructions","16","110044","0.0-9.0-0.7","7720","approach_avoid_sv1","""event"",""trial"",""time""
""fullscreenenter"",""1"",""2229""
","
","
","""event"",""trial"",""time""
""fullscreenenter"",""1"",""2229""
","
","","","","","","465.2000000476837","<p> Before you play the real game, it is time to practice. </p><p>  Just like in the real game, some of the images in the practice will be ones you have seen before. </p><p>  Others will be entirely new. </p>","","0","instructions","","",""
"html-button-response","17","111425","0.0-10.0","7720","approach_avoid_sv1","""event"",""trial"",""time""
""fullscreenenter"",""1"",""2229""
","
","
","""event"",""trial"",""time""
""fullscreenenter"",""1"",""2229""
","
","","","","","","1272.7000000476837","<p> Ready to practice? </p><p> Remember, use the 1, 2, 3, and 4 keys to make your responses. </p>","0","","instructions","","",""
"html-keyboard-response","18","112040","0.0-11.0-0.0","7720","approach_avoid_sv1","""event"",""trial"",""time""
""fullscreenenter"",""1"",""2229""
","
","
","""event"",""trial"",""time""
""fullscreenenter"",""1"",""2229""
","
","","","","","","null","<div style=""font-size:60px;"">+</div>","null","","fixation","","",""
"memory-trial","19","116148","0.0-11.0-1.0","7720","approach_avoid_sv1","""event"",""trial"",""time""
""fullscreenenter"",""1"",""2229""
","
","
","""event"",""trial"",""time""
""fullscreenenter"",""1"",""2229""
","
","","","","","","3099","images/racket5.png","","","practice","3","maybe_new",""
"html-keyboard-response","20","116658","0.0-11.0-0.1","7720","approach_avoid_sv1","""event"",""trial"",""time""
""fullscreenenter"",""1"",""2229""
","
","
","""event"",""trial"",""time""
""fullscreenenter"",""1"",""2229""
","
","","","","","","null","<div style=""font-size:60px;"">+</div>","null","","fixation","","",""
"memory-trial","21","120062","0.0-11.0-1.1","7720","approach_avoid_sv1","""event"",""trial"",""time""
""fullscreenenter"",""1"",""2229""
","
","
","""event"",""trial"",""time""
""fullscreenenter"",""1"",""2229""
","
","","","","","","2400.2999999523163","images/ball3.png","","","practice","2","maybe_old",""
"html-keyboard-response","22","120568","0.0-11.0-0.2","7720","approach_avoid_sv1","""event"",""trial"",""time""
""fullscreenenter"",""1"",""2229""
","
","
","""event"",""trial"",""time""
""fullscreenenter"",""1"",""2229""
","
","","","","","","null","<div style=""font-size:60px;"">+</div>","null","","fixation","","",""
"memory-trial","23","122824","0.0-11.0-1.2","7720","approach_avoid_sv1","""event"",""trial"",""time""
""fullscreenenter"",""1"",""2229""
","
","
","""event"",""trial"",""time""
""fullscreenenter"",""1"",""2229""
","
","","","","","","1242.7999999523163","images/ball5.png","","","practice","2","maybe_old",""
"html-keyboard-response","24","123332","0.0-11.0-0.3","7720","approach_avoid_sv1","""event"",""trial"",""time""
""fullscreenenter"",""1"",""2229""
","
","
","""event"",""trial"",""time""
""fullscreenenter"",""1"",""2229""
","
","","","","","","null","<div style=""font-size:60px;"">+</div>","null","","fixation","","",""
"memory-trial","25","125542","0.0-11.0-1.3","7720","approach_avoid_sv1","""event"",""trial"",""time""
""fullscreenenter"",""1"",""2229""
","
","
","""event"",""trial"",""time""
""fullscreenenter"",""1"",""2229""
","
","","","","","","1205","images/ball1.png","","","practice","1","definitely_old",""
"html-keyboard-response","26","126046","0.0-11.0-0.4","7720","approach_avoid_sv1","""event"",""trial"",""time""
""fullscreenenter"",""1"",""2229""
","
","
","""event"",""trial"",""time""
""fullscreenenter"",""1"",""2229""
","
","","","","","","null","<div style=""font-size:60px;"">+</div>","null","","fixation","","",""
"memory-trial","27","128455","0.0-11.0-1.4","7720","approach_avoid_sv1","""event"",""trial"",""time""
""fullscreenenter"",""1"",""2229""
","
","
","""event"",""trial"",""time""
""fullscreenenter"",""1"",""2229""
","
","","","","","","1400.5","images/ball2.png","","","practice","1","definitely_old",""
"html-keyboard-response","28","128958","0.0-11.0-0.5","7720","approach_avoid_sv1","""event"",""trial"",""time""
""fullscreenenter"",""1"",""2229""
","
","
","""event"",""trial"",""time""
""fullscreenenter"",""1"",""2229""
","
","","","","","","null","<div style=""font-size:60px;"">+</div>","null","","fixation","","",""
"memory-trial","29","131193","0.0-11.0-1.5","7720","approach_avoid_sv1","""event"",""trial"",""time""
""fullscreenenter"",""1"",""2229""
","
","
","""event"",""trial"",""time""
""fullscreenenter"",""1"",""2229""
","
","","","","","","1231.2000000476837","images/racket2.png","","","practice","1","definitely_old",""
"html-keyboard-response","30","131702","0.0-11.0-0.6","7720","approach_avoid_sv1","""event"",""trial"",""time""
""fullscreenenter"",""1"",""2229""
","
","
","""event"",""trial"",""time""
""fullscreenenter"",""1"",""2229""
","
","","","","","","null","<div style=""font-size:60px;"">+</div>","null","","fixation","","",""
"memory-trial","31","133585","0.0-11.0-1.6","7720","approach_avoid_sv1","""event"",""trial"",""time""
""fullscreenenter"",""1"",""2229""
","
","
","""event"",""trial"",""time""
""fullscreenenter"",""1"",""2229""
","
","","","","","","872.9000000953674","images/racket1.png","","","practice","1","definitely_old",""
"html-keyboard-response","32","134088","0.0-11.0-0.7","7720","approach_avoid_sv1","""event"",""trial"",""time""
""fullscreenenter"",""1"",""2229""
","
","
","""event"",""trial"",""time""
""fullscreenenter"",""1"",""2229""
","
","","","","","","null","<div style=""font-size:60px;"">+</div>","null","","fixation","","",""
"memory-trial","33","137431","0.0-11.0-1.7","7720","approach_avoid_sv1","""event"",""trial"",""time""
""fullscreenenter"",""1"",""2229""
","
","
","""event"",""trial"",""time""
""fullscreenenter"",""1"",""2229""
","
","","","","","","2340.100000143051","images/racket3.png","","","practice","4","definitely_new",""
"learning-instructions","34","145219","0.0-12.0-0.0","7720","approach_avoid_sv1","""event"",""trial"",""time""
""fullscreenenter"",""1"",""2229""
","
","
","""event"",""trial"",""time""
""fullscreenenter"",""1"",""2229""
","
","","","","","","482","<p> Great! You have completed the practice. </p><p> Before you start, we're going to ask you a few questions about how the game works.  </p>","","0","instructions","","",""
"preload","35","152736","0.0-13.0","7720","approach_avoid_sv1","""event"",""trial"",""time""
""fullscreenenter"",""1"",""2229""
","
","
","""event"",""trial"",""time""
""fullscreenenter"",""1"",""2229""
","
","true","false","[]","[]","[]","","","","","","","",""
"comp-q","36","160074","0.0-14.0-0.0","7720","approach_avoid_sv1","""event"",""trial"",""time""
""fullscreenenter"",""1"",""2229""
","
","
","""event"",""trial"",""time""
""fullscreenenter"",""1"",""2229""
","
","","","","","","1503.2999999523163","<p> <b> True or False? </b> </p><p> In this game, you will only see each image once. </p>","","0","comp_question","","","true"
"comp-q","37","167223","0.0-14.0-1.0","7720","approach_avoid_sv1","""event"",""trial"",""time""
""fullscreenenter"",""1"",""2229""
","
","
","""event"",""trial"",""time""
""fullscreenenter"",""1"",""2229""
","
","","","","","","812.4000000953674","<p> <b> That's right! </b> You will see many different images <i> one time each </i> in this game. </p>","","0","comp_answer","","",""
"comp-q","38","172766","0.0-15.0-0.0","7720","approach_avoid_sv1","""event"",""trial"",""time""
""fullscreenenter"",""1"",""2229""
","
","
","""event"",""trial"",""time""
""fullscreenenter"",""1"",""2229""
","
","","","","","","530.5","<p> <b> True or False? </b> </p><p> You should use the mouse and click to make your response. </p>","","1","comp_question","","","true"
"comp-q","39","179865","0.0-15.0-1.0","7720","approach_avoid_sv1","""event"",""trial"",""time""
""fullscreenenter"",""1"",""2229""
","
","
","""event"",""trial"",""time""
""fullscreenenter"",""1"",""2229""
","
","","","","","","601.2999999523163","<p><b> That's right! </b> You should use the '1', '2', '3', and '4' keys to make your response. </p>","","0","comp_answer","","",""
"comp-q","40","186012","0.0-16.0-0.0","7720","approach_avoid_sv1","""event"",""trial"",""time""
""fullscreenenter"",""1"",""2229""
","
","
","""event"",""trial"",""time""
""fullscreenenter"",""1"",""2229""
","
","","","","","","464.40000009536743","<p> <b> True or False? </b> </p><p> You will have as much time as you want to make each choice. </p>","","1","comp_question","","","true"
"comp-q","41","191187","0.0-16.0-1.0","7720","approach_avoid_sv1","""event"",""trial"",""time""
""fullscreenenter"",""1"",""2229""
","
","
","""event"",""trial"",""time""
""fullscreenenter"",""1"",""2229""
","
","","","","","","476.40000009536743","<p> <b> That's right! </b> You will only have 10 seconds to make each choice. </p>","","0","comp_answer","","",""
"learning-instructions","42","200661","0.0-17.0","7720","approach_avoid_sv1","""event"",""trial"",""time""
""fullscreenenter"",""1"",""2229""
","
","
","""event"",""trial"",""time""
""fullscreenenter"",""1"",""2229""
","
","","","","","","797.7000000476837","<p> Great! You are now ready to begin the game. </p><p> Remember, use the 1, 2, 3, and 4 keys to make your responses. </p>","","0","instructions","","",""
"html-keyboard-response","43","201268","0.0-18.0-0.0","7720","approach_avoid_sv1","""event"",""trial"",""time""
""fullscreenenter"",""1"",""2229""
","
","
","""event"",""trial"",""time""
""fullscreenenter"",""1"",""2229""
","
","","","","","","null","<div style=""font-size:60px;"">+</div>","null","","fixation","","",""
"memory-trial","44","204562","0.0-18.0-1.0","7720","approach_avoid_sv1","""event"",""trial"",""time""
""fullscreenenter"",""1"",""2229""
","
","
","""event"",""trial"",""time""
""fullscreenenter"",""1"",""2229""
","
","","","","","","2287.0999999046326","images/tree2.png","","","memory_trial","2","maybe_old",""
"html-keyboard-response","45","205073","0.0-18.0-0.1","7720","approach_avoid_sv1","""event"",""trial"",""time""
""fullscreenenter"",""1"",""2229""
","
","
","""event"",""trial"",""time""
""fullscreenenter"",""1"",""2229""
","
","","","","","","null","<div style=""font-size:60px;"">+</div>","null","","fixation","","",""
"memory-trial","46","207293","0.0-18.0-1.1","7720","approach_avoid_sv1","""event"",""trial"",""time""
""fullscreenenter"",""1"",""2229""
","
","
","""event"",""trial"",""time""
""fullscreenenter"",""1"",""2229""
","
","","","","","","1215.7999999523163","images/horse1.png","","","memory_trial","1","definitely_old",""
"html-keyboard-response","47","207797","0.0-18.0-0.2","7720","approach_avoid_sv1","""event"",""trial"",""time""
""fullscreenenter"",""1"",""2229""
","
","
","""event"",""trial"",""time""
""fullscreenenter"",""1"",""2229""
","
","","","","","","null","<div style=""font-size:60px;"">+</div>","null","","fixation","","",""
"memory-trial","48","209878","0.0-18.0-1.2","7720","approach_avoid_sv1","""event"",""trial"",""time""
""fullscreenenter"",""1"",""2229""
","
","
","""event"",""trial"",""time""
""fullscreenenter"",""1"",""2229""
","
","","","","","","1078.2999999523163","images/rabbit7.png","","","memory_trial","1","definitely_old",""
"html-keyboard-response","49","210387","0.0-18.0-0.3","7720","approach_avoid_sv1","""event"",""trial"",""time""
""fullscreenenter"",""1"",""2229""
","
","
","""event"",""trial"",""time""
""fullscreenenter"",""1"",""2229""
","
","","","","","","null","<div style=""font-size:60px;"">+</div>","null","","fixation","","",""
"memory-trial","50","212541","0.0-18.0-1.3","7720","approach_avoid_sv1","""event"",""trial"",""time""
""fullscreenenter"",""1"",""2229""
","
","
","""event"",""trial"",""time""
""fullscreenenter"",""1"",""2229""
","
","","","","","","1151.2000000476837","images/banana1.png","","","memory_trial","1","definitely_old",""
"html-keyboard-response","51","213048","0.0-18.0-0.4","7720","approach_avoid_sv1","""event"",""trial"",""time""
""fullscreenenter"",""1"",""2229""
","
","
","""event"",""trial"",""time""
""fullscreenenter"",""1"",""2229""
","
","","","","","","null","<div style=""font-size:60px;"">+</div>","null","","fixation","","",""
"memory-trial","52","215568","0.0-18.0-1.4","7720","approach_avoid_sv1","""event"",""trial"",""time""
""fullscreenenter"",""1"",""2229""
","
","
","""event"",""trial"",""time""
""fullscreenenter"",""1"",""2229""
","
","","","","","","1515.7000000476837","images/bush6.png","","","memory_trial","3","maybe_new",""
"html-keyboard-response","53","216072","0.0-18.0-0.5","7720","approach_avoid_sv1","""event"",""trial"",""time""
""fullscreenenter"",""1"",""2229""
","
","
","""event"",""trial"",""time""
""fullscreenenter"",""1"",""2229""
","
","","","","","","null","<div style=""font-size:60px;"">+</div>","null","","fixation","","",""
"memory-trial","54","218493","0.0-18.0-1.5","7720","approach_avoid_sv1","""event"",""trial"",""time""
""fullscreenenter"",""1"",""2229""
","
","
","""event"",""trial"",""time""
""fullscreenenter"",""1"",""2229""
","
","","","","","","1417.8000001907349","images/cat7.png","","","memory_trial","4","definitely_new",""
"html-keyboard-response","55","218996","0.0-18.0-0.6","7720","approach_avoid_sv1","""event"",""trial"",""time""
""fullscreenenter"",""1"",""2229""
","
","
","""event"",""trial"",""time""
""fullscreenenter"",""1"",""2229""
","
","","","","","","null","<div style=""font-size:60px;"">+</div>","null","","fixation","","",""
"memory-trial","56","221084","0.0-18.0-1.6","7720","approach_avoid_sv1","""event"",""trial"",""time""
""fullscreenenter"",""1"",""2229""
","
","
","""event"",""trial"",""time""
""fullscreenenter"",""1"",""2229""
","
","","","","","","1076.9000000953674","images/plane1.png","","","memory_trial","4","definitely_new",""
"html-keyboard-response","57","221588","0.0-18.0-0.7","7720","approach_avoid_sv1","""event"",""trial"",""time""
""fullscreenenter"",""1"",""2229""
","
","
","""event"",""trial"",""time""
""fullscreenenter"",""1"",""2229""
","
","","","","","","null","<div style=""font-size:60px;"">+</div>","null","","fixation","","",""
"memory-trial","58","225326","0.0-18.0-1.7","7720","approach_avoid_sv1","""event"",""trial"",""time""
""fullscreenenter"",""1"",""2229""
","
","
","""event"",""trial"",""time""
""fullscreenenter"",""1"",""2229""
","
","","","","","","2731.2999999523163","images/table3.png","","","memory_trial","3","maybe_new",""
"html-keyboard-response","59","225830","0.0-18.0-0.8","7720","approach_avoid_sv1","""event"",""trial"",""time""
""fullscreenenter"",""1"",""2229""
","
","
","""event"",""trial"",""time""
""fullscreenenter"",""1"",""2229""
","
","","","","","","null","<div style=""font-size:60px;"">+</div>","null","","fixation","","",""
"memory-trial","60","228297","0.0-18.0-1.8","7720","approach_avoid_sv1","""event"",""trial"",""time""
""fullscreenenter"",""1"",""2229""
","
","
","""event"",""trial"",""time""
""fullscreenenter"",""1"",""2229""
","
","","","","","","1457.5","images/banana8.png","","","memory_trial","2","maybe_old",""
"html-keyboard-response","61","228802","0.0-18.0-0.9","7720","approach_avoid_sv1","""event"",""trial"",""time""
""fullscreenenter"",""1"",""2229""
","
","
","""event"",""trial"",""time""
""fullscreenenter"",""1"",""2229""
","
","","","","","","null","<div style=""font-size:60px;"">+</div>","null","","fixation","","",""
"memory-trial","62","231313","0.0-18.0-1.9","7720","approach_avoid_sv1","""event"",""trial"",""time""
""fullscreenenter"",""1"",""2229""
","
","
","""event"",""trial"",""time""
""fullscreenenter"",""1"",""2229""
","
","","","","","","1504.6000001430511","images/orange1.png","","","memory_trial","3","maybe_new",""
"html-keyboard-response","63","231818","0.0-18.0-0.10","7720","approach_avoid_sv1","""event"",""trial"",""time""
""fullscreenenter"",""1"",""2229""
","
","
","""event"",""trial"",""time""
""fullscreenenter"",""1"",""2229""
","
","","","","","","null","<div style=""font-size:60px;"">+</div>","null","","fixation","","",""
"memory-trial","64","233956","0.0-18.0-1.10","7720","approach_avoid_sv1","""event"",""trial"",""time""
""fullscreenenter"",""1"",""2229""
","
","
","""event"",""trial"",""time""
""fullscreenenter"",""1"",""2229""
","
","","","","","","1129.4000000953674","images/table4.png","","","memory_trial","4","definitely_new",""
"html-keyboard-response","65","234464","0.0-18.0-0.11","7720","approach_avoid_sv1","""event"",""trial"",""time""
""fullscreenenter"",""1"",""2229""
","
","
","""event"",""trial"",""time""
""fullscreenenter"",""1"",""2229""
","
","","","","","","null","<div style=""font-size:60px;"">+</div>","null","","fixation","","",""
"memory-trial","66","236699","0.0-18.0-1.11","7720","approach_avoid_sv1","""event"",""trial"",""time""
""fullscreenenter"",""1"",""2229""
","
","
","""event"",""trial"",""time""
""fullscreenenter"",""1"",""2229""
","
","","","","","","1222.2999999523163","images/sheep7.png","","","memory_trial","4","definitely_new",""
"html-keyboard-response","67","237205","0.0-18.0-0.12","7720","approach_avoid_sv1","""event"",""trial"",""time""
""fullscreenenter"",""1"",""2229""
","
","
","""event"",""trial"",""time""
""fullscreenenter"",""1"",""2229""
","
","","","","","","null","<div style=""font-size:60px;"">+</div>","null","","fixation","","",""
"memory-trial","68","239523","0.0-18.0-1.12","7720","approach_avoid_sv1","""event"",""trial"",""time""
""fullscreenenter"",""1"",""2229""
","
","
","""event"",""trial"",""time""
""fullscreenenter"",""1"",""2229""
","
","","","","","","1308.5","images/apple2.png","","","memory_trial","1","definitely_old",""
"html-keyboard-response","69","240030","0.0-18.0-0.13","7720","approach_avoid_sv1","""event"",""trial"",""time""
""fullscreenenter"",""1"",""2229""
","
","
","""event"",""trial"",""time""
""fullscreenenter"",""1"",""2229""
","
","","","","","","null","<div style=""font-size:60px;"">+</div>","null","","fixation","","",""
"memory-trial","70","242502","0.0-18.0-1.13","7720","approach_avoid_sv1","""event"",""trial"",""time""
""fullscreenenter"",""1"",""2229""
","
","
","""event"",""trial"",""time""
""fullscreenenter"",""1"",""2229""
","
","","","","","","1465.2000000476837","images/apple3.png","","","memory_trial","4","definitely_new",""
"html-keyboard-response","71","243005","0.0-18.0-0.14","7720","approach_avoid_sv1","""event"",""trial"",""time""
""fullscreenenter"",""1"",""2229""
","
","
","""event"",""trial"",""time""
""fullscreenenter"",""1"",""2229""
","
","","","","","","null","<div style=""font-size:60px;"">+</div>","null","","fixation","","",""
"memory-trial","72","244861","0.0-18.0-1.14","7720","approach_avoid_sv1","""event"",""trial"",""time""
""fullscreenenter"",""1"",""2229""
","
","
","""event"",""trial"",""time""
""fullscreenenter"",""1"",""2229""
","
","","","","","","846.0999999046326","images/flower6.png","","","memory_trial","4","definitely_new",""
"html-keyboard-response","73","245367","0.0-18.0-0.15","7720","approach_avoid_sv1","""event"",""trial"",""time""
""fullscreenenter"",""1"",""2229""
","
","
","""event"",""trial"",""time""
""fullscreenenter"",""1"",""2229""
","
","","","","","","null","<div style=""font-size:60px;"">+</div>","null","","fixation","","",""
"memory-trial","74","247385","0.0-18.0-1.15","7720","approach_avoid_sv1","""event"",""trial"",""time""
""fullscreenenter"",""1"",""2229""
","
","
","""event"",""trial"",""time""
""fullscreenenter"",""1"",""2229""
","
","","","","","","1010.8999998569489","images/dog7.png","","","memory_trial","4","definitely_new",""
"html-keyboard-response","75","247889","0.0-18.0-0.16","7720","approach_avoid_sv1","""event"",""trial"",""time""
""fullscreenenter"",""1"",""2229""
","
","
","""event"",""trial"",""time""
""fullscreenenter"",""1"",""2229""
","
","","","","","","null","<div style=""font-size:60px;"">+</div>","null","","fixation","","",""
"memory-trial","76","249810","0.0-18.0-1.16","7720","approach_avoid_sv1","""event"",""trial"",""time""
""fullscreenenter"",""1"",""2229""
","
","
","""event"",""trial"",""time""
""fullscreenenter"",""1"",""2229""
","
","","","","","","911.9000000953674","images/truck5.png","","","memory_trial","4","definitely_new",""
"html-keyboard-response","77","250318","0.0-18.0-0.17","7720","approach_avoid_sv1","""event"",""trial"",""time""
""fullscreenenter"",""1"",""2229""
","
","
","""event"",""trial"",""time""
""fullscreenenter"",""1"",""2229""
","
","","","","","","null","<div style=""font-size:60px;"">+</div>","null","","fixation","","",""
"memory-trial","78","253697","0.0-18.0-1.17","7720","approach_avoid_sv1","""event"",""trial"",""time""
""fullscreenenter"",""1"",""2229""
","
","
","""event"",""trial"",""time""
""fullscreenenter"",""1"",""2229""
","
","","","","","","2369.7999999523163","images/bush1.png","","","memory_trial","2","maybe_old",""
"html-keyboard-response","79","254205","0.0-18.0-0.18","7720","approach_avoid_sv1","""event"",""trial"",""time""
""fullscreenenter"",""1"",""2229""
","
","
","""event"",""trial"",""time""
""fullscreenenter"",""1"",""2229""
","
","","","","","","null","<div style=""font-size:60px;"">+</div>","null","","fixation","","",""
"memory-trial","80","256139","0.0-18.0-1.18","7720","approach_avoid_sv1","""event"",""trial"",""time""
""fullscreenenter"",""1"",""2229""
","
","
","""event"",""trial"",""time""
""fullscreenenter"",""1"",""2229""
","
","","","","","","923.7999999523163","images/truck2.png","","","memory_trial","4","definitely_new",""
"html-keyboard-response","81","256644","0.0-18.0-0.19","7720","approach_avoid_sv1","""event"",""trial"",""time""
""fullscreenenter"",""1"",""2229""
","
","
","""event"",""trial"",""time""
""fullscreenenter"",""1"",""2229""
","
","","","","","","null","<div style=""font-size:60px;"">+</div>","null","","fixation","","",""
"memory-trial","82","258615","0.0-18.0-1.19","7720","approach_avoid_sv1","""event"",""trial"",""time""
""fullscreenenter"",""1"",""2229""
","
","
","""event"",""trial"",""time""
""fullscreenenter"",""1"",""2229""
","
","","","","","","963.5","images/table2.png","","","memory_trial","1","definitely_old",""
"html-keyboard-response","83","259123","0.0-18.0-0.20","7720","approach_avoid_sv1","""event"",""trial"",""time""
""fullscreenenter"",""1"",""2229""
","
","
","""event"",""trial"",""time""
""fullscreenenter"",""1"",""2229""
","
","","","","","","null","<div style=""font-size:60px;"">+</div>","null","","fixation","","",""
"memory-trial","84","261246","0.0-18.0-1.20","7720","approach_avoid_sv1","""event"",""trial"",""time""
""fullscreenenter"",""1"",""2229""
","
","
","""event"",""trial"",""time""
""fullscreenenter"",""1"",""2229""
","
","","","","","","1119.5","images/boat4.png","","","memory_trial","4","definitely_new",""
"html-keyboard-response","85","261753","0.0-18.0-0.21","7720","approach_avoid_sv1","""event"",""trial"",""time""
""fullscreenenter"",""1"",""2229""
","
","
","""event"",""trial"",""time""
""fullscreenenter"",""1"",""2229""
","
","","","","","","null","<div style=""font-size:60px;"">+</div>","null","","fixation","","",""
"memory-trial","86","263589","0.0-18.0-1.21","7720","approach_avoid_sv1","""event"",""trial"",""time""
""fullscreenenter"",""1"",""2229""
","
","
","""event"",""trial"",""time""
""fullscreenenter"",""1"",""2229""
","
","","","","","","828","images/boat7.png","","","memory_trial","4","definitely_new",""
"html-keyboard-response","87","264092","0.0-18.0-0.22","7720","approach_avoid_sv1","""event"",""trial"",""time""
""fullscreenenter"",""1"",""2229""
","
","
","""event"",""trial"",""time""
""fullscreenenter"",""1"",""2229""
","
","","","","","","null","<div style=""font-size:60px;"">+</div>","null","","fixation","","",""
"memory-trial","88","267138","0.0-18.0-1.22","7720","approach_avoid_sv1","""event"",""trial"",""time""
""fullscreenenter"",""1"",""2229""
","
","
","""event"",""trial"",""time""
""fullscreenenter"",""1"",""2229""
","
","","","","","","2037.6000001430511","images/chair8.png","","","memory_trial","3","maybe_new",""
"html-keyboard-response","89","267647","0.0-18.0-0.23","7720","approach_avoid_sv1","""event"",""trial"",""time""
""fullscreenenter"",""1"",""2229""
","
","
","""event"",""trial"",""time""
""fullscreenenter"",""1"",""2229""
","
","","","","","","null","<div style=""font-size:60px;"">+</div>","null","","fixation","","",""
"memory-trial","90","270105","0.0-18.0-1.23","7720","approach_avoid_sv1","""event"",""trial"",""time""
""fullscreenenter"",""1"",""2229""
","
","
","""event"",""trial"",""time""
""fullscreenenter"",""1"",""2229""
","
","","","","","","1452.7000000476837","images/plane6.png","","","memory_trial","2","maybe_old",""
"html-keyboard-response","91","270611","0.0-18.0-0.24","7720","approach_avoid_sv1","""event"",""trial"",""time""
""fullscreenenter"",""1"",""2229""
","
","
","""event"",""trial"",""time""
""fullscreenenter"",""1"",""2229""
","
","","","","","","null","<div style=""font-size:60px;"">+</div>","null","","fixation","","",""
"memory-trial","92","274673","0.0-18.0-1.24","7720","approach_avoid_sv1","""event"",""trial"",""time""
""fullscreenenter"",""1"",""2229""
","
","
","""event"",""trial"",""time""
""fullscreenenter"",""1"",""2229""
","
","","","","","","3057.4000000953674","images/cow8.png","","","memory_trial","2","maybe_old",""
"html-keyboard-response","93","275181","0.0-18.0-0.25","7720","approach_avoid_sv1","""event"",""trial"",""time""
""fullscreenenter"",""1"",""2229""
","
","
","""event"",""trial"",""time""
""fullscreenenter"",""1"",""2229""
","
","","","","","","null","<div style=""font-size:60px;"">+</div>","null","","fixation","","",""
"memory-trial","94","277531","0.0-18.0-1.25","7720","approach_avoid_sv1","""event"",""trial"",""time""
""fullscreenenter"",""1"",""2229""
","
","
","""event"",""trial"",""time""
""fullscreenenter"",""1"",""2229""
","
","","","","","","1342.8999998569489","images/table7.png","","","memory_trial","3","maybe_new",""
"html-keyboard-response","95","278033","0.0-18.0-0.26","7720","approach_avoid_sv1","""event"",""trial"",""time""
""fullscreenenter"",""1"",""2229""
","
","
","""event"",""trial"",""time""
""fullscreenenter"",""1"",""2229""
","
","","","","","","null","<div style=""font-size:60px;"">+</div>","null","","fixation","","",""
"memory-trial","96","280342","0.0-18.0-1.26","7720","approach_avoid_sv1","""event"",""trial"",""time""
""fullscreenenter"",""1"",""2229""
","
","
","""event"",""trial"",""time""
""fullscreenenter"",""1"",""2229""
","
","","","","","","1303.9000000953674","images/sofa7.png","","","memory_trial","1","definitely_old",""
"html-keyboard-response","97","280846","0.0-18.0-0.27","7720","approach_avoid_sv1","""event"",""trial"",""time""
""fullscreenenter"",""1"",""2229""
","
","
","""event"",""trial"",""time""
""fullscreenenter"",""1"",""2229""
","
","","","","","","null","<div style=""font-size:60px;"">+</div>","null","","fixation","","",""
"memory-trial","98","283573","0.0-18.0-1.27","7720","approach_avoid_sv1","""event"",""trial"",""time""
""fullscreenenter"",""1"",""2229""
","
","
","""event"",""trial"",""time""
""fullscreenenter"",""1"",""2229""
","
","","","","","","1724.4000000953674","images/dog5.png","","","memory_trial","4","definitely_new",""
"html-keyboard-response","99","284075","0.0-18.0-0.28","7720","approach_avoid_sv1","""event"",""trial"",""time""
""fullscreenenter"",""1"",""2229""
","
","
","""event"",""trial"",""time""
""fullscreenenter"",""1"",""2229""
","
","","","","","","null","<div style=""font-size:60px;"">+</div>","null","","fixation","","",""
"memory-trial","100","286941","0.0-18.0-1.28","7720","approach_avoid_sv1","""event"",""trial"",""time""
""fullscreenenter"",""1"",""2229""
","
","
","""event"",""trial"",""time""
""fullscreenenter"",""1"",""2229""
","
","","","","","","1857.2999999523163","images/truck7.png","","","memory_trial","4","definitely_new",""
"html-keyboard-response","101","287444","0.0-18.0-0.29","7720","approach_avoid_sv1","""event"",""trial"",""time""
""fullscreenenter"",""1"",""2229""
","
","
","""event"",""trial"",""time""
""fullscreenenter"",""1"",""2229""
","
","","","","","","null","<div style=""font-size:60px;"">+</div>","null","","fixation","","",""
"memory-trial","102","290795","0.0-18.0-1.29","7720","approach_avoid_sv1","""event"",""trial"",""time""
""fullscreenenter"",""1"",""2229""
","
","
","""event"",""trial"",""time""
""fullscreenenter"",""1"",""2229""
","
","","","","","","2347.5","images/boat6.png","","","memory_trial","2","maybe_old",""
"html-keyboard-response","103","291303","0.0-18.0-0.30","7720","approach_avoid_sv1","""event"",""trial"",""time""
""fullscreenenter"",""1"",""2229""
","
","
","""event"",""trial"",""time""
""fullscreenenter"",""1"",""2229""
","
","","","","","","null","<div style=""font-size:60px;"">+</div>","null","","fixation","","",""
"memory-trial","104","293489","0.0-18.0-1.30","7720","approach_avoid_sv1","""event"",""trial"",""time""
""fullscreenenter"",""1"",""2229""
","
","
","""event"",""trial"",""time""
""fullscreenenter"",""1"",""2229""
","
","","","","","","1177.6000001430511","images/straw7.png","","","memory_trial","2","maybe_old",""
"html-keyboard-response","105","293991","0.0-18.0-0.31","7720","approach_avoid_sv1","""event"",""trial"",""time""
""fullscreenenter"",""1"",""2229""
","
","
","""event"",""trial"",""time""
""fullscreenenter"",""1"",""2229""
","
","","","","","","null","<div style=""font-size:60px;"">+</div>","null","","fixation","","",""
"memory-trial","106","296223","0.0-18.0-1.31","7720","approach_avoid_sv1","""event"",""trial"",""time""
""fullscreenenter"",""1"",""2229""
","
","
","""event"",""trial"",""time""
""fullscreenenter"",""1"",""2229""
","
","","","","","","1225.6999998092651","images/tree3.png","","","memory_trial","2","maybe_old",""
"html-keyboard-response","107","296726","0.0-18.0-0.32","7720","approach_avoid_sv1","""event"",""trial"",""time""
""fullscreenenter"",""1"",""2229""
","
","
","""event"",""trial"",""time""
""fullscreenenter"",""1"",""2229""
","
","","","","","","null","<div style=""font-size:60px;"">+</div>","null","","fixation","","",""
"memory-trial","108","298838","0.0-18.0-1.32","7720","approach_avoid_sv1","""event"",""trial"",""time""
""fullscreenenter"",""1"",""2229""
","
","
","""event"",""trial"",""time""
""fullscreenenter"",""1"",""2229""
","
","","","","","","1109.5999999046326","images/bed3.png","","","memory_trial","4","definitely_new",""
"html-keyboard-response","109","299346","0.0-18.0-0.33","7720","approach_avoid_sv1","""event"",""trial"",""time""
""fullscreenenter"",""1"",""2229""
","
","
","""event"",""trial"",""time""
""fullscreenenter"",""1"",""2229""
","
","","","","","","null","<div style=""font-size:60px;"">+</div>","null","","fixation","","",""
"memory-trial","110","301989","0.0-18.0-1.33","7720","approach_avoid_sv1","""event"",""trial"",""time""
""fullscreenenter"",""1"",""2229""
","
","
","""event"",""trial"",""time""
""fullscreenenter"",""1"",""2229""
","
","","","","","","1638.4000000953674","images/cat4.png","","","memory_trial","4","definitely_new",""
"html-keyboard-response","111","302499","0.0-18.0-0.34","7720","approach_avoid_sv1","""event"",""trial"",""time""
""fullscreenenter"",""1"",""2229""
","
","
","""event"",""trial"",""time""
""fullscreenenter"",""1"",""2229""
","
","","","","","","null","<div style=""font-size:60px;"">+</div>","null","","fixation","","",""
"memory-trial","112","305182","0.0-18.0-1.34","7720","approach_avoid_sv1","""event"",""trial"",""time""
""fullscreenenter"",""1"",""2229""
","
","
","""event"",""trial"",""time""
""fullscreenenter"",""1"",""2229""
","
","","","","","","1680.8000001907349","images/train5.png","","","memory_trial","2","maybe_old",""
"html-keyboard-response","113","305689","0.0-18.0-0.35","7720","approach_avoid_sv1","""event"",""trial"",""time""
""fullscreenenter"",""1"",""2229""
","
","
","""event"",""trial"",""time""
""fullscreenenter"",""1"",""2229""
","
","","","","","","null","<div style=""font-size:60px;"">+</div>","null","","fixation","","",""
"memory-trial","114","308471","0.0-18.0-1.35","7720","approach_avoid_sv1","""event"",""trial"",""time""
""fullscreenenter"",""1"",""2229""
","
","
","""event"",""trial"",""time""
""fullscreenenter"",""1"",""2229""
","
","","","","","","1774.5999999046326","images/chair3.png","","","memory_trial","1","definitely_old",""
"html-keyboard-response","115","308984","0.0-18.0-0.36","7720","approach_avoid_sv1","""event"",""trial"",""time""
""fullscreenenter"",""1"",""2229""
","
","
","""event"",""trial"",""time""
""fullscreenenter"",""1"",""2229""
","
","","","","","","null","<div style=""font-size:60px;"">+</div>","null","","fixation","","",""
"memory-trial","116","311150","0.0-18.0-1.36","7720","approach_avoid_sv1","""event"",""trial"",""time""
""fullscreenenter"",""1"",""2229""
","
","
","""event"",""trial"",""time""
""fullscreenenter"",""1"",""2229""
","
","","","","","","1164.5","images/flower8.png","","","memory_trial","4","definitely_new",""
"html-keyboard-response","117","311654","0.0-18.0-0.37","7720","approach_avoid_sv1","""event"",""trial"",""time""
""fullscreenenter"",""1"",""2229""
","
","
","""event"",""trial"",""time""
""fullscreenenter"",""1"",""2229""
","
","","","","","","null","<div style=""font-size:60px;"">+</div>","null","","fixation","","",""
"memory-trial","118","315289","0.0-18.0-1.37","7720","approach_avoid_sv1","""event"",""trial"",""time""
""fullscreenenter"",""1"",""2229""
","
","
","""event"",""trial"",""time""
""fullscreenenter"",""1"",""2229""
","
","","","","","","2627.0999999046326","images/straw4.png","","","memory_trial","4","definitely_new",""
"html-keyboard-response","119","315798","0.0-18.0-0.38","7720","approach_avoid_sv1","""event"",""trial"",""time""
""fullscreenenter"",""1"",""2229""
","
","
","""event"",""trial"",""time""
""fullscreenenter"",""1"",""2229""
","
","","","","","","null","<div style=""font-size:60px;"">+</div>","null","","fixation","","",""
"memory-trial","120","318016","0.0-18.0-1.38","7720","approach_avoid_sv1","""event"",""trial"",""time""
""fullscreenenter"",""1"",""2229""
","
","
","""event"",""trial"",""time""
""fullscreenenter"",""1"",""2229""
","
","","","","","","1214.4000000953674","images/rabbit8.png","","","memory_trial","1","definitely_old",""
"html-keyboard-response","121","318522","0.0-18.0-0.39","7720","approach_avoid_sv1","""event"",""trial"",""time""
""fullscreenenter"",""1"",""2229""
","
","
","""event"",""trial"",""time""
""fullscreenenter"",""1"",""2229""
","
","","","","","","null","<div style=""font-size:60px;"">+</div>","null","","fixation","","",""
"memory-trial","122","321218","0.0-18.0-1.39","7720","approach_avoid_sv1","""event"",""trial"",""time""
""fullscreenenter"",""1"",""2229""
","
","
","""event"",""trial"",""time""
""fullscreenenter"",""1"",""2229""
","
","","","","","","1689","images/bush3.png","","","memory_trial","1","definitely_old",""
"html-keyboard-response","123","321722","0.0-18.0-0.40","7720","approach_avoid_sv1","""event"",""trial"",""time""
""fullscreenenter"",""1"",""2229""
","
","
","""event"",""trial"",""time""
""fullscreenenter"",""1"",""2229""
","
","","","","","","null","<div style=""font-size:60px;"">+</div>","null","","fixation","","",""
"memory-trial","124","324038","0.0-18.0-1.40","7720","approach_avoid_sv1","""event"",""trial"",""time""
""fullscreenenter"",""1"",""2229""
","
","
","""event"",""trial"",""time""
""fullscreenenter"",""1"",""2229""
","
","","","","","","1310.1000001430511","images/tree6.png","","","memory_trial","2","maybe_old",""
"html-keyboard-response","125","324547","0.0-18.0-0.41","7720","approach_avoid_sv1","""event"",""trial"",""time""
""fullscreenenter"",""1"",""2229""
","
","
","""event"",""trial"",""time""
""fullscreenenter"",""1"",""2229""
","
","","","","","","null","<div style=""font-size:60px;"">+</div>","null","","fixation","","",""
"memory-trial","126","326779","0.0-18.0-1.41","7720","approach_avoid_sv1","""event"",""trial"",""time""
""fullscreenenter"",""1"",""2229""
","
","
","""event"",""trial"",""time""
""fullscreenenter"",""1"",""2229""
","
","","","","","","1222.2999999523163","images/boat5.png","","","memory_trial","1","definitely_old",""
"html-button-response","127","332962","0.0-18.0-2.41-0.41","7720","approach_avoid_sv1","""event"",""trial"",""time""
""fullscreenenter"",""1"",""2229""
","
","
","""event"",""trial"",""time""
""fullscreenenter"",""1"",""2229""
","
","","","","","","6182.399999856949","<p> Take a break! </p><p> Click the button to continue. </p>","0","","break","","",""
"html-keyboard-response","128","333469","0.0-18.0-0.42","7720","approach_avoid_sv1","""event"",""trial"",""time""
""fullscreenenter"",""1"",""2229""
","
","
","""event"",""trial"",""time""
""fullscreenenter"",""1"",""2229""
","
","","","","","","null","<div style=""font-size:60px;"">+</div>","null","","fixation","","",""
"memory-trial","129","335488","0.0-18.0-1.42","7720","approach_avoid_sv1","""event"",""trial"",""time""
""fullscreenenter"",""1"",""2229""
","
","
","""event"",""trial"",""time""
""fullscreenenter"",""1"",""2229""
","
","","","","","","1014.2999999523163","images/straw5.png","","","memory_trial","1","definitely_old",""
"html-keyboard-response","130","335991","0.0-18.0-0.43","7720","approach_avoid_sv1","""event"",""trial"",""time""
""fullscreenenter"",""1"",""2229""
","
","
","""event"",""trial"",""time""
""fullscreenenter"",""1"",""2229""
","
","","","","","","null","<div style=""font-size:60px;"">+</div>","null","","fixation","","",""
"memory-trial","131","338544","0.0-18.0-1.43","7720","approach_avoid_sv1","""event"",""trial"",""time""
""fullscreenenter"",""1"",""2229""
","
","
","""event"",""trial"",""time""
""fullscreenenter"",""1"",""2229""
","
","","","","","","1550.8999998569489","images/bed1.png","","","memory_trial","4","definitely_new",""
"html-keyboard-response","132","339049","0.0-18.0-0.44","7720","approach_avoid_sv1","""event"",""trial"",""time""
""fullscreenenter"",""1"",""2229""
","
","
","""event"",""trial"",""time""
""fullscreenenter"",""1"",""2229""
","
","","","","","","null","<div style=""font-size:60px;"">+</div>","null","","fixation","","",""
"memory-trial","133","341560","0.0-18.0-1.44","7720","approach_avoid_sv1","""event"",""trial"",""time""
""fullscreenenter"",""1"",""2229""
","
","
","""event"",""trial"",""time""
""fullscreenenter"",""1"",""2229""
","
","","","","","","1501.2999999523163","images/cow6.png","","","memory_trial","2","maybe_old",""
"html-keyboard-response","134","342065","0.0-18.0-0.45","7720","approach_avoid_sv1","""event"",""trial"",""time""
""fullscreenenter"",""1"",""2229""
","
","
","""event"",""trial"",""time""
""fullscreenenter"",""1"",""2229""
","
","","","","","","null","<div style=""font-size:60px;"">+</div>","null","","fixation","","",""
"memory-trial","135","344283","0.0-18.0-1.45","7720","approach_avoid_sv1","""event"",""trial"",""time""
""fullscreenenter"",""1"",""2229""
","
","
","""event"",""trial"",""time""
""fullscreenenter"",""1"",""2229""
","
","","","","","","1211.9000000953674","images/goat4.png","","","memory_trial","1","definitely_old",""
"html-keyboard-response","136","344787","0.0-18.0-0.46","7720","approach_avoid_sv1","""event"",""trial"",""time""
""fullscreenenter"",""1"",""2229""
","
","
","""event"",""trial"",""time""
""fullscreenenter"",""1"",""2229""
","
","","","","","","null","<div style=""font-size:60px;"">+</div>","null","","fixation","","",""
"memory-trial","137","346686","0.0-18.0-1.46","7720","approach_avoid_sv1","""event"",""trial"",""time""
""fullscreenenter"",""1"",""2229""
","
","
","""event"",""trial"",""time""
""fullscreenenter"",""1"",""2229""
","
","","","","","","894.5999999046326","images/rodent1.png","","","memory_trial","1","definitely_old",""
"html-keyboard-response","138","347190","0.0-18.0-0.47","7720","approach_avoid_sv1","""event"",""trial"",""time""
""fullscreenenter"",""1"",""2229""
","
","
","""event"",""trial"",""time""
""fullscreenenter"",""1"",""2229""
","
","","","","","","null","<div style=""font-size:60px;"">+</div>","null","","fixation","","",""
"memory-trial","139","350549","0.0-18.0-1.47","7720","approach_avoid_sv1","""event"",""trial"",""time""
""fullscreenenter"",""1"",""2229""
","
","
","""event"",""trial"",""time""
""fullscreenenter"",""1"",""2229""
","
","","","","","","2352.4000000953674","images/apple5.png","","","memory_trial","4","definitely_new",""
"html-keyboard-response","140","351053","0.0-18.0-0.48","7720","approach_avoid_sv1","""event"",""trial"",""time""
""fullscreenenter"",""1"",""2229""
","
","
","""event"",""trial"",""time""
""fullscreenenter"",""1"",""2229""
","
","","","","","","null","<div style=""font-size:60px;"">+</div>","null","","fixation","","",""
"memory-trial","141","353262","0.0-18.0-1.48","7720","approach_avoid_sv1","""event"",""trial"",""time""
""fullscreenenter"",""1"",""2229""
","
","
","""event"",""trial"",""time""
""fullscreenenter"",""1"",""2229""
","
","","","","","","1201.7999999523163","images/horse4.png","","","memory_trial","2","maybe_old",""
"html-keyboard-response","142","353769","0.0-18.0-0.49","7720","approach_avoid_sv1","""event"",""trial"",""time""
""fullscreenenter"",""1"",""2229""
","
","
","""event"",""trial"",""time""
""fullscreenenter"",""1"",""2229""
","
","","","","","","null","<div style=""font-size:60px;"">+</div>","null","","fixation","","",""
"memory-trial","143","356246","0.0-18.0-1.49","7720","approach_avoid_sv1","""event"",""trial"",""time""
""fullscreenenter"",""1"",""2229""
","
","
","""event"",""trial"",""time""
""fullscreenenter"",""1"",""2229""
","
","","","","","","1471.4000000953674","images/sheep2.png","","","memory_trial","3","maybe_new",""
"html-keyboard-response","144","356749","0.0-18.0-0.50","7720","approach_avoid_sv1","""event"",""trial"",""time""
""fullscreenenter"",""1"",""2229""
","
","
","""event"",""trial"",""time""
""fullscreenenter"",""1"",""2229""
","
","","","","","","null","<div style=""font-size:60px;"">+</div>","null","","fixation","","",""
"memory-trial","145","358802","0.0-18.0-1.50","7720","approach_avoid_sv1","""event"",""trial"",""time""
""fullscreenenter"",""1"",""2229""
","
","
","""event"",""trial"",""time""
""fullscreenenter"",""1"",""2229""
","
","","","","","","1047.7000000476837","images/goat8.png","","","memory_trial","1","definitely_old",""
"html-keyboard-response","146","359308","0.0-18.0-0.51","7720","approach_avoid_sv1","""event"",""trial"",""time""
""fullscreenenter"",""1"",""2229""
","
","
","""event"",""trial"",""time""
""fullscreenenter"",""1"",""2229""
","
","","","","","","null","<div style=""font-size:60px;"">+</div>","null","","fixation","","",""
"memory-trial","147","362083","0.0-18.0-1.51","7720","approach_avoid_sv1","""event"",""trial"",""time""
""fullscreenenter"",""1"",""2229""
","
","
","""event"",""trial"",""time""
""fullscreenenter"",""1"",""2229""
","
","","","","","","1766.5999999046326","images/boat8.png","","","memory_trial","1","definitely_old",""
"html-keyboard-response","148","362587","0.0-18.0-0.52","7720","approach_avoid_sv1","""event"",""trial"",""time""
""fullscreenenter"",""1"",""2229""
","
","
","""event"",""trial"",""time""
""fullscreenenter"",""1"",""2229""
","
","","","","","","null","<div style=""font-size:60px;"">+</div>","null","","fixation","","",""
"memory-trial","149","364799","0.0-18.0-1.52","7720","approach_avoid_sv1","""event"",""trial"",""time""
""fullscreenenter"",""1"",""2229""
","
","
","""event"",""trial"",""time""
""fullscreenenter"",""1"",""2229""
","
","","","","","","1203.9000000953674","images/sheep6.png","","","memory_trial","4","definitely_new",""
"html-keyboard-response","150","365300","0.0-18.0-0.53","7720","approach_avoid_sv1","""event"",""trial"",""time""
""fullscreenenter"",""1"",""2229""
","
","
","""event"",""trial"",""time""
""fullscreenenter"",""1"",""2229""
","
","","","","","","null","<div style=""font-size:60px;"">+</div>","null","","fixation","","",""
"memory-trial","151","367226","0.0-18.0-1.53","7720","approach_avoid_sv1","""event"",""trial"",""time""
""fullscreenenter"",""1"",""2229""
","
","
","""event"",""trial"",""time""
""fullscreenenter"",""1"",""2229""
","
","","","","","","919.5999999046326","images/dog4.png","","","memory_trial","1","definitely_old",""
"html-keyboard-response","152","367729","0.0-18.0-0.54","7720","approach_avoid_sv1","""event"",""trial"",""time""
""fullscreenenter"",""1"",""2229""
","
","
","""event"",""trial"",""time""
""fullscreenenter"",""1"",""2229""
","
","","","","","","null","<div style=""font-size:60px;"">+</div>","null","","fixation","","",""
"memory-trial","153","370123","0.0-18.0-1.54","7720","approach_avoid_sv1","""event"",""trial"",""time""
""fullscreenenter"",""1"",""2229""
","
","
","""event"",""trial"",""time""
""fullscreenenter"",""1"",""2229""
","
","","","","","","1384","images/table1.png","","","memory_trial","3","maybe_new",""
"html-keyboard-response","154","370625","0.0-18.0-0.55","7720","approach_avoid_sv1","""event"",""trial"",""time""
""fullscreenenter"",""1"",""2229""
","
","
","""event"",""trial"",""time""
""fullscreenenter"",""1"",""2229""
","
","","","","","","null","<div style=""font-size:60px;"">+</div>","null","","fixation","","",""
"memory-trial","155","373913","0.0-18.0-1.55","7720","approach_avoid_sv1","""event"",""trial"",""time""
""fullscreenenter"",""1"",""2229""
","
","
","""event"",""trial"",""time""
""fullscreenenter"",""1"",""2229""
","
","","","","","","2280.100000143051","images/horse5.png","","","memory_trial","2","maybe_old",""
"html-keyboard-response","156","374416","0.0-18.0-0.56","7720","approach_avoid_sv1","""event"",""trial"",""time""
""fullscreenenter"",""1"",""2229""
","
","
","""event"",""trial"",""time""
""fullscreenenter"",""1"",""2229""
","
","","","","","","null","<div style=""font-size:60px;"">+</div>","null","","fixation","","",""
"memory-trial","157","376890","0.0-18.0-1.56","7720","approach_avoid_sv1","""event"",""trial"",""time""
""fullscreenenter"",""1"",""2229""
","
","
","""event"",""trial"",""time""
""fullscreenenter"",""1"",""2229""
","
","","","","","","1465.2000000476837","images/train4.png","","","memory_trial","1","definitely_old",""
"html-keyboard-response","158","377391","0.0-18.0-0.57","7720","approach_avoid_sv1","""event"",""trial"",""time""
""fullscreenenter"",""1"",""2229""
","
","
","""event"",""trial"",""time""
""fullscreenenter"",""1"",""2229""
","
","","","","","","null","<div style=""font-size:60px;"">+</div>","null","","fixation","","",""
"memory-trial","159","382176","0.0-18.0-1.57","7720","approach_avoid_sv1","""event"",""trial"",""time""
""fullscreenenter"",""1"",""2229""
","
","
","""event"",""trial"",""time""
""fullscreenenter"",""1"",""2229""
","
","","","","","","3777.2999999523163","images/bed6.png","","","memory_trial","4","definitely_new",""
"html-keyboard-response","160","382685","0.0-18.0-0.58","7720","approach_avoid_sv1","""event"",""trial"",""time""
""fullscreenenter"",""1"",""2229""
","
","
","""event"",""trial"",""time""
""fullscreenenter"",""1"",""2229""
","
","","","","","","null","<div style=""font-size:60px;"">+</div>","null","","fixation","","",""
"memory-trial","161","385621","0.0-18.0-1.58","7720","approach_avoid_sv1","""event"",""trial"",""time""
""fullscreenenter"",""1"",""2229""
","
","
","""event"",""trial"",""time""
""fullscreenenter"",""1"",""2229""
","
","","","","","","1928.7999999523163","images/goat5.png","","","memory_trial","3","maybe_new",""
"html-keyboard-response","162","386138","0.0-18.0-0.59","7720","approach_avoid_sv1","""event"",""trial"",""time""
""fullscreenenter"",""1"",""2229""
","
","
","""event"",""trial"",""time""
""fullscreenenter"",""1"",""2229""
","
","","","","","","null","<div style=""font-size:60px;"">+</div>","null","","fixation","","",""
"memory-trial","163","391629","0.0-18.0-1.59","7720","approach_avoid_sv1","""event"",""trial"",""time""
""fullscreenenter"",""1"",""2229""
","
","
","""event"",""trial"",""time""
""fullscreenenter"",""1"",""2229""
","
","","","","","","4486.299999952316","images/cow5.png","","","memory_trial","4","definitely_new",""
"html-keyboard-response","164","392129","0.0-18.0-0.60","7720","approach_avoid_sv1","""event"",""trial"",""time""
""fullscreenenter"",""1"",""2229""
","
","
","""event"",""trial"",""time""
""fullscreenenter"",""1"",""2229""
","
","","","","","","null","<div style=""font-size:60px;"">+</div>","null","","fixation","","",""
"memory-trial","165","395208","0.0-18.0-1.60","7720","approach_avoid_sv1","""event"",""trial"",""time""
""fullscreenenter"",""1"",""2229""
","
","
","""event"",""trial"",""time""
""fullscreenenter"",""1"",""2229""
","
","","","","","","2070.899999856949","images/bush5.png","","","memory_trial","1","definitely_old",""
"html-keyboard-response","166","395710","0.0-18.0-0.61","7720","approach_avoid_sv1","""event"",""trial"",""time""
""fullscreenenter"",""1"",""2229""
","
","
","""event"",""trial"",""time""
""fullscreenenter"",""1"",""2229""
","
","","","","","","null","<div style=""font-size:60px;"">+</div>","null","","fixation","","",""
"memory-trial","167","399739","0.0-18.0-1.61","7720","approach_avoid_sv1","""event"",""trial"",""time""
""fullscreenenter"",""1"",""2229""
","
","
","""event"",""trial"",""time""
""fullscreenenter"",""1"",""2229""
","
","","","","","","3024","images/orange3.png","","","memory_trial","4","definitely_new",""
"html-keyboard-response","168","400254","0.0-18.0-0.62","7720","approach_avoid_sv1","""event"",""trial"",""time""
""fullscreenenter"",""1"",""2229""
","
","
","""event"",""trial"",""time""
""fullscreenenter"",""1"",""2229""
","
","","","","","","null","<div style=""font-size:60px;"">+</div>","null","","fixation","","",""
"memory-trial","169","404219","0.0-18.0-1.62","7720","approach_avoid_sv1","""event"",""trial"",""time""
""fullscreenenter"",""1"",""2229""
","
","
","""event"",""trial"",""time""
""fullscreenenter"",""1"",""2229""
","
","","","","","","2958.7000000476837","images/cat3.png","","","memory_trial","2","maybe_old",""
"html-keyboard-response","170","404724","0.0-18.0-0.63","7720","approach_avoid_sv1","""event"",""trial"",""time""
""fullscreenenter"",""1"",""2229""
","
","
","""event"",""trial"",""time""
""fullscreenenter"",""1"",""2229""
","
","","","","","","null","<div style=""font-size:60px;"">+</div>","null","","fixation","","",""
"memory-trial","171","407747","0.0-18.0-1.63","7720","approach_avoid_sv1","""event"",""trial"",""time""
""fullscreenenter"",""1"",""2229""
","
","
","""event"",""trial"",""time""
""fullscreenenter"",""1"",""2229""
","
","","","","","","2019.6999998092651","images/sheep1.png","","","memory_trial","3","maybe_new",""
"html-keyboard-response","172","408255","0.0-18.0-0.64","7720","approach_avoid_sv1","""event"",""trial"",""time""
""fullscreenenter"",""1"",""2229""
","
","
","""event"",""trial"",""time""
""fullscreenenter"",""1"",""2229""
","
","","","","","","null","<div style=""font-size:60px;"">+</div>","null","","fixation","","",""
"memory-trial","173","410058","0.0-18.0-1.64","7720","approach_avoid_sv1","""event"",""trial"",""time""
""fullscreenenter"",""1"",""2229""
","
","
","""event"",""trial"",""time""
""fullscreenenter"",""1"",""2229""
","
","","","","","","800.8999998569489","images/rabbit2.png","","","memory_trial","1","definitely_old",""
"html-keyboard-response","174","410566","0.0-18.0-0.65","7720","approach_avoid_sv1","""event"",""trial"",""time""
""fullscreenenter"",""1"",""2229""
","
","
","""event"",""trial"",""time""
""fullscreenenter"",""1"",""2229""
","
","","","","","","null","<div style=""font-size:60px;"">+</div>","null","","fixation","","",""
"memory-trial","175","412490","0.0-18.0-1.65","7720","approach_avoid_sv1","""event"",""trial"",""time""
""fullscreenenter"",""1"",""2229""
","
","
","""event"",""trial"",""time""
""fullscreenenter"",""1"",""2229""
","
","","","","","","916.2000000476837","images/dog2.png","","","memory_trial","1","definitely_old",""
"html-keyboard-response","176","412992","0.0-18.0-0.66","7720","approach_avoid_sv1","""event"",""trial"",""time""
""fullscreenenter"",""1"",""2229""
","
","
","""event"",""trial"",""time""
""fullscreenenter"",""1"",""2229""
","
","","","","","","null","<div style=""font-size:60px;"">+</div>","null","","fixation","","",""
"memory-trial","177","415117","0.0-18.0-1.66","7720","approach_avoid_sv1","""event"",""trial"",""time""
""fullscreenenter"",""1"",""2229""
","
","
","""event"",""trial"",""time""
""fullscreenenter"",""1"",""2229""
","
","","","","","","1120.5","images/bed2.png","","","memory_trial","3","maybe_new",""
"html-keyboard-response","178","415621","0.0-18.0-0.67","7720","approach_avoid_sv1","""event"",""trial"",""time""
""fullscreenenter"",""1"",""2229""
","
","
","""event"",""trial"",""time""
""fullscreenenter"",""1"",""2229""
","
","","","","","","null","<div style=""font-size:60px;"">+</div>","null","","fixation","","",""
"memory-trial","179","417754","0.0-18.0-1.67","7720","approach_avoid_sv1","""event"",""trial"",""time""
""fullscreenenter"",""1"",""2229""
","
","
","""event"",""trial"",""time""
""fullscreenenter"",""1"",""2229""
","
","","","","","","1124.0999999046326","images/sheep4.png","","","memory_trial","3","maybe_new",""
"html-keyboard-response","180","418258","0.0-18.0-0.68","7720","approach_avoid_sv1","""event"",""trial"",""time""
""fullscreenenter"",""1"",""2229""
","
","
","""event"",""trial"",""time""
""fullscreenenter"",""1"",""2229""
","
","","","","","","null","<div style=""font-size:60px;"">+</div>","null","","fixation","","",""
"memory-trial","181","420793","0.0-18.0-1.68","7720","approach_avoid_sv1","""event"",""trial"",""time""
""fullscreenenter"",""1"",""2229""
","
","
","""event"",""trial"",""time""
""fullscreenenter"",""1"",""2229""
","
","","","","","","1524.4000000953674","images/chair5.png","","","memory_trial","1","definitely_old",""
"html-keyboard-response","182","421297","0.0-18.0-0.69","7720","approach_avoid_sv1","""event"",""trial"",""time""
""fullscreenenter"",""1"",""2229""
","
","
","""event"",""trial"",""time""
""fullscreenenter"",""1"",""2229""
","
","","","","","","null","<div style=""font-size:60px;"">+</div>","null","","fixation","","",""
"memory-trial","183","423606","0.0-18.0-1.69","7720","approach_avoid_sv1","""event"",""trial"",""time""
""fullscreenenter"",""1"",""2229""
","
","
","""event"",""trial"",""time""
""fullscreenenter"",""1"",""2229""
","
","","","","","","1292.5999999046326","images/tree1.png","","","memory_trial","2","maybe_old",""
"html-keyboard-response","184","424117","0.0-18.0-0.70","7720","approach_avoid_sv1","""event"",""trial"",""time""
""fullscreenenter"",""1"",""2229""
","
","
","""event"",""trial"",""time""
""fullscreenenter"",""1"",""2229""
","
","","","","","","null","<div style=""font-size:60px;"">+</div>","null","","fixation","","",""
"memory-trial","185","426765","0.0-18.0-1.70","7720","approach_avoid_sv1","""event"",""trial"",""time""
""fullscreenenter"",""1"",""2229""
","
","
","""event"",""trial"",""time""
""fullscreenenter"",""1"",""2229""
","
","","","","","","1637.9000000953674","images/cow3.png","","","memory_trial","4","definitely_new",""
"html-keyboard-response","186","427268","0.0-18.0-0.71","7720","approach_avoid_sv1","""event"",""trial"",""time""
""fullscreenenter"",""1"",""2229""
","
","
","""event"",""trial"",""time""
""fullscreenenter"",""1"",""2229""
","
","","","","","","null","<div style=""font-size:60px;"">+</div>","null","","fixation","","",""
"memory-trial","187","429560","0.0-18.0-1.71","7720","approach_avoid_sv1","""event"",""trial"",""time""
""fullscreenenter"",""1"",""2229""
","
","
","""event"",""trial"",""time""
""fullscreenenter"",""1"",""2229""
","
","","","","","","1289.0999999046326","images/banana2.png","","","memory_trial","1","definitely_old",""
"html-keyboard-response","188","430063","0.0-18.0-0.72","7720","approach_avoid_sv1","""event"",""trial"",""time""
""fullscreenenter"",""1"",""2229""
","
","
","""event"",""trial"",""time""
""fullscreenenter"",""1"",""2229""
","
","","","","","","null","<div style=""font-size:60px;"">+</div>","null","","fixation","","",""
"memory-trial","189","432493","0.0-18.0-1.72","7720","approach_avoid_sv1","""event"",""trial"",""time""
""fullscreenenter"",""1"",""2229""
","
","
","""event"",""trial"",""time""
""fullscreenenter"",""1"",""2229""
","
","","","","","","1419.8999998569489","images/flower2.png","","","memory_trial","4","definitely_new",""
"html-keyboard-response","190","432994","0.0-18.0-0.73","7720","approach_avoid_sv1","""event"",""trial"",""time""
""fullscreenenter"",""1"",""2229""
","
","
","""event"",""trial"",""time""
""fullscreenenter"",""1"",""2229""
","
","","","","","","null","<div style=""font-size:60px;"">+</div>","null","","fixation","","",""
"memory-trial","191","435686","0.0-18.0-1.73","7720","approach_avoid_sv1","""event"",""trial"",""time""
""fullscreenenter"",""1"",""2229""
","
","
","""event"",""trial"",""time""
""fullscreenenter"",""1"",""2229""
","
","","","","","","1688.8000001907349","images/truck6.png","","","memory_trial","4","definitely_new",""
"html-keyboard-response","192","436192","0.0-18.0-0.74","7720","approach_avoid_sv1","""event"",""trial"",""time""
""fullscreenenter"",""1"",""2229""
","
","
","""event"",""trial"",""time""
""fullscreenenter"",""1"",""2229""
","
","","","","","","null","<div style=""font-size:60px;"">+</div>","null","","fixation","","",""
"memory-trial","193","439778","0.0-18.0-1.74","7720","approach_avoid_sv1","""event"",""trial"",""time""
""fullscreenenter"",""1"",""2229""
","
","
","""event"",""trial"",""time""
""fullscreenenter"",""1"",""2229""
","
","","","","","","2575.9000000953674","images/goat6.png","","","memory_trial","3","maybe_new",""
"html-keyboard-response","194","440282","0.0-18.0-0.75","7720","approach_avoid_sv1","""event"",""trial"",""time""
""fullscreenenter"",""1"",""2229""
","
","
","""event"",""trial"",""time""
""fullscreenenter"",""1"",""2229""
","
","","","","","","null","<div style=""font-size:60px;"">+</div>","null","","fixation","","",""
"memory-trial","195","443481","0.0-18.0-1.75","7720","approach_avoid_sv1","""event"",""trial"",""time""
""fullscreenenter"",""1"",""2229""
","
","
","""event"",""trial"",""time""
""fullscreenenter"",""1"",""2229""
","
","","","","","","2189.899999856949","images/dog6.png","","","memory_trial","3","maybe_new",""
"html-keyboard-response","196","443987","0.0-18.0-0.76","7720","approach_avoid_sv1","""event"",""trial"",""time""
""fullscreenenter"",""1"",""2229""
","
","
","""event"",""trial"",""time""
""fullscreenenter"",""1"",""2229""
","
","","","","","","null","<div style=""font-size:60px;"">+</div>","null","","fixation","","",""
"memory-trial","197","446800","0.0-18.0-1.76","7720","approach_avoid_sv1","""event"",""trial"",""time""
""fullscreenenter"",""1"",""2229""
","
","
","""event"",""trial"",""time""
""fullscreenenter"",""1"",""2229""
","
","","","","","","1805","images/rodent7.png","","","memory_trial","2","maybe_old",""
"html-keyboard-response","198","447315","0.0-18.0-0.77","7720","approach_avoid_sv1","""event"",""trial"",""time""
""fullscreenenter"",""1"",""2229""
","
","
","""event"",""trial"",""time""
""fullscreenenter"",""1"",""2229""
","
","","","","","","null","<div style=""font-size:60px;"">+</div>","null","","fixation","","",""
"memory-trial","199","449559","0.0-18.0-1.77","7720","approach_avoid_sv1","""event"",""trial"",""time""
""fullscreenenter"",""1"",""2229""
","
","
","""event"",""trial"",""time""
""fullscreenenter"",""1"",""2229""
","
","","","","","","1233.1000001430511","images/truck3.png","","","memory_trial","4","definitely_new",""
"html-keyboard-response","200","450065","0.0-18.0-0.78","7720","approach_avoid_sv1","""event"",""trial"",""time""
""fullscreenenter"",""1"",""2229""
","
","
","""event"",""trial"",""time""
""fullscreenenter"",""1"",""2229""
","
","","","","","","null","<div style=""font-size:60px;"">+</div>","null","","fixation","","",""
"memory-trial","201","451873","0.0-18.0-1.78","7720","approach_avoid_sv1","""event"",""trial"",""time""
""fullscreenenter"",""1"",""2229""
","
","
","""event"",""trial"",""time""
""fullscreenenter"",""1"",""2229""
","
","","","","","","799.7000000476837","images/rodent6.png","","","memory_trial","1","definitely_old",""
"html-keyboard-response","202","452378","0.0-18.0-0.79","7720","approach_avoid_sv1","""event"",""trial"",""time""
""fullscreenenter"",""1"",""2229""
","
","
","""event"",""trial"",""time""
""fullscreenenter"",""1"",""2229""
","
","","","","","","null","<div style=""font-size:60px;"">+</div>","null","","fixation","","",""
"memory-trial","203","454447","0.0-18.0-1.79","7720","approach_avoid_sv1","""event"",""trial"",""time""
""fullscreenenter"",""1"",""2229""
","
","
","""event"",""trial"",""time""
""fullscreenenter"",""1"",""2229""
","
","","","","","","1063.8999998569489","images/banana5.png","","","memory_trial","4","definitely_new",""
"html-keyboard-response","204","454949","0.0-18.0-0.80","7720","approach_avoid_sv1","""event"",""trial"",""time""
""fullscreenenter"",""1"",""2229""
","
","
","""event"",""trial"",""time""
""fullscreenenter"",""1"",""2229""
","
","","","","","","null","<div style=""font-size:60px;"">+</div>","null","","fixation","","",""
"memory-trial","205","456815","0.0-18.0-1.80","7720","approach_avoid_sv1","""event"",""trial"",""time""
""fullscreenenter"",""1"",""2229""
","
","
","""event"",""trial"",""time""
""fullscreenenter"",""1"",""2229""
","
","","","","","","860.8999998569489","images/tree4.png","","","memory_trial","4","definitely_new",""
"html-keyboard-response","206","457321","0.0-18.0-0.81","7720","approach_avoid_sv1","""event"",""trial"",""time""
""fullscreenenter"",""1"",""2229""
","
","
","""event"",""trial"",""time""
""fullscreenenter"",""1"",""2229""
","
","","","","","","null","<div style=""font-size:60px;"">+</div>","null","","fixation","","",""
"memory-trial","207","459441","0.0-18.0-1.81","7720","approach_avoid_sv1","""event"",""trial"",""time""
""fullscreenenter"",""1"",""2229""
","
","
","""event"",""trial"",""time""
""fullscreenenter"",""1"",""2229""
","
","","","","","","1111.2000000476837","images/boat1.png","","","memory_trial","1","definitely_old",""
"html-keyboard-response","208","459943","0.0-18.0-0.82","7720","approach_avoid_sv1","""event"",""trial"",""time""
""fullscreenenter"",""1"",""2229""
","
","
","""event"",""trial"",""time""
""fullscreenenter"",""1"",""2229""
","
","","","","","","null","<div style=""font-size:60px;"">+</div>","null","","fixation","","",""
"memory-trial","209","462555","0.0-18.0-1.82","7720","approach_avoid_sv1","""event"",""trial"",""time""
""fullscreenenter"",""1"",""2229""
","
","
","""event"",""trial"",""time""
""fullscreenenter"",""1"",""2229""
","
","","","","","","1605.7000000476837","images/bush8.png","","","memory_trial","3","maybe_new",""
"html-keyboard-response","210","463061","0.0-18.0-0.83","7720","approach_avoid_sv1","""event"",""trial"",""time""
""fullscreenenter"",""1"",""2229""
","
","
","""event"",""trial"",""time""
""fullscreenenter"",""1"",""2229""
","
","","","","","","null","<div style=""font-size:60px;"">+</div>","null","","fixation","","",""
"memory-trial","211","466345","0.0-18.0-1.83","7720","approach_avoid_sv1","""event"",""trial"",""time""
""fullscreenenter"",""1"",""2229""
","
","
","""event"",""trial"",""time""
""fullscreenenter"",""1"",""2229""
","
","","","","","","2279.199999809265","images/rabbit5.png","","","memory_trial","3","maybe_new",""
"html-keyboard-response","212","466847","0.0-18.0-0.84","7720","approach_avoid_sv1","""event"",""trial"",""time""
""fullscreenenter"",""1"",""2229""
","
","
","""event"",""trial"",""time""
""fullscreenenter"",""1"",""2229""
","
","","","","","","null","<div style=""font-size:60px;"">+</div>","null","","fixation","","",""
"memory-trial","213","470997","0.0-18.0-1.84","7720","approach_avoid_sv1","""event"",""trial"",""time""
""fullscreenenter"",""1"",""2229""
","
","
","""event"",""trial"",""time""
""fullscreenenter"",""1"",""2229""
","
","","","","","","3140.899999856949","images/truck8.png","","","memory_trial","4","definitely_new",""
"html-keyboard-response","214","471499","0.0-18.0-0.85","7720","approach_avoid_sv1","""event"",""trial"",""time""
""fullscreenenter"",""1"",""2229""
","
","
","""event"",""trial"",""time""
""fullscreenenter"",""1"",""2229""
","
","","","","","","null","<div style=""font-size:60px;"">+</div>","null","","fixation","","",""
"memory-trial","215","474865","0.0-18.0-1.85","7720","approach_avoid_sv1","""event"",""trial"",""time""
""fullscreenenter"",""1"",""2229""
","
","
","""event"",""trial"",""time""
""fullscreenenter"",""1"",""2229""
","
","","","","","","2360.100000143051","images/banana3.png","","","memory_trial","3","maybe_new",""
"html-keyboard-response","216","475373","0.0-18.0-0.86","7720","approach_avoid_sv1","""event"",""trial"",""time""
""fullscreenenter"",""1"",""2229""
","
","
","""event"",""trial"",""time""
""fullscreenenter"",""1"",""2229""
","
","","","","","","null","<div style=""font-size:60px;"">+</div>","null","","fixation","","",""
"memory-trial","217","477618","0.0-18.0-1.86","7720","approach_avoid_sv1","""event"",""trial"",""time""
""fullscreenenter"",""1"",""2229""
","
","
","""event"",""trial"",""time""
""fullscreenenter"",""1"",""2229""
","
","","","","","","1237.5","images/bed8.png","","","memory_trial","4","definitely_new",""
"html-keyboard-response","218","478121","0.0-18.0-0.87","7720","approach_avoid_sv1","""event"",""trial"",""time""
""fullscreenenter"",""1"",""2229""
","
","
","""event"",""trial"",""time""
""fullscreenenter"",""1"",""2229""
","
","","","","","","null","<div style=""font-size:60px;"">+</div>","null","","fixation","","",""
"memory-trial","219","480103","0.0-18.0-1.87","7720","approach_avoid_sv1","""event"",""trial"",""time""
""fullscreenenter"",""1"",""2229""
","
","
","""event"",""trial"",""time""
""fullscreenenter"",""1"",""2229""
","
","","","","","","974","images/sofa2.png","","","memory_trial","1","definitely_old",""
"html-keyboard-response","220","480609","0.0-18.0-0.88","7720","approach_avoid_sv1","""event"",""trial"",""time""
""fullscreenenter"",""1"",""2229""
","
","
","""event"",""trial"",""time""
""fullscreenenter"",""1"",""2229""
","
","","","","","","null","<div style=""font-size:60px;"">+</div>","null","","fixation","","",""
"memory-trial","221","482623","0.0-18.0-1.88","7720","approach_avoid_sv1","""event"",""trial"",""time""
""fullscreenenter"",""1"",""2229""
","
","
","""event"",""trial"",""time""
""fullscreenenter"",""1"",""2229""
","
","","","","","","1009.5999999046326","images/plane2.png","","","memory_trial","4","definitely_new",""
"html-keyboard-response","222","483132","0.0-18.0-0.89","7720","approach_avoid_sv1","""event"",""trial"",""time""
""fullscreenenter"",""1"",""2229""
","
","
","""event"",""trial"",""time""
""fullscreenenter"",""1"",""2229""
","
","","","","","","null","<div style=""font-size:60px;"">+</div>","null","","fixation","","",""
"memory-trial","223","484912","0.0-18.0-1.89","7720","approach_avoid_sv1","""event"",""trial"",""time""
""fullscreenenter"",""1"",""2229""
","
","
","""event"",""trial"",""time""
""fullscreenenter"",""1"",""2229""
","
","","","","","","773.7000000476837","images/bed5.png","","","memory_trial","4","definitely_new",""
"html-keyboard-response","224","485421","0.0-18.0-0.90","7720","approach_avoid_sv1","""event"",""trial"",""time""
""fullscreenenter"",""1"",""2229""
","
","
","""event"",""trial"",""time""
""fullscreenenter"",""1"",""2229""
","
","","","","","","null","<div style=""font-size:60px;"">+</div>","null","","fixation","","",""
"memory-trial","225","488172","0.0-18.0-1.90","7720","approach_avoid_sv1","""event"",""trial"",""time""
""fullscreenenter"",""1"",""2229""
","
","
","""event"",""trial"",""time""
""fullscreenenter"",""1"",""2229""
","
","","","","","","1734.5","images/chair2.png","","","memory_trial","3","maybe_new",""
"html-keyboard-response","226","488680","0.0-18.0-0.91","7720","approach_avoid_sv1","""event"",""trial"",""time""
""fullscreenenter"",""1"",""2229""
","
","
","""event"",""trial"",""time""
""fullscreenenter"",""1"",""2229""
","
","","","","","","null","<div style=""font-size:60px;"">+</div>","null","","fixation","","",""
"memory-trial","227","491148","0.0-18.0-1.91","7720","approach_avoid_sv1","""event"",""trial"",""time""
""fullscreenenter"",""1"",""2229""
","
","
","""event"",""trial"",""time""
""fullscreenenter"",""1"",""2229""
","
","","","","","","1463.7000000476837","images/dog8.png","","","memory_trial","2","maybe_old",""
"html-button-response","228","502349","0.0-18.0-2.91-0.91","7720","approach_avoid_sv1","""event"",""trial"",""time""
""fullscreenenter"",""1"",""2229""
","
","
","""event"",""trial"",""time""
""fullscreenenter"",""1"",""2229""
","
","","","","","","11199.299999952316","<p> Take a break! </p><p> Click the button to continue. </p>","0","","break","","",""
"html-keyboard-response","229","502854","0.0-18.0-0.92","7720","approach_avoid_sv1","""event"",""trial"",""time""
""fullscreenenter"",""1"",""2229""
","
","
","""event"",""trial"",""time""
""fullscreenenter"",""1"",""2229""
","
","","","","","","null","<div style=""font-size:60px;"">+</div>","null","","fixation","","",""
"memory-trial","230","506283","0.0-18.0-1.92","7720","approach_avoid_sv1","""event"",""trial"",""time""
""fullscreenenter"",""1"",""2229""
","
","
","""event"",""trial"",""time""
""fullscreenenter"",""1"",""2229""
","
","","","","","","2424.5","images/rabbit1.png","","","memory_trial","3","maybe_new",""
"html-keyboard-response","231","506788","0.0-18.0-0.93","7720","approach_avoid_sv1","""event"",""trial"",""time""
""fullscreenenter"",""1"",""2229""
","
","
","""event"",""trial"",""time""
""fullscreenenter"",""1"",""2229""
","
","","","","","","null","<div style=""font-size:60px;"">+</div>","null","","fixation","","",""
"memory-trial","232","508876","0.0-18.0-1.93","7720","approach_avoid_sv1","""event"",""trial"",""time""
""fullscreenenter"",""1"",""2229""
","
","
","""event"",""trial"",""time""
""fullscreenenter"",""1"",""2229""
","
","","","","","","1076.7999999523163","images/rodent5.png","","","memory_trial","1","definitely_old",""
"html-keyboard-response","233","509382","0.0-18.0-0.94","7720","approach_avoid_sv1","""event"",""trial"",""time""
""fullscreenenter"",""1"",""2229""
","
","
","""event"",""trial"",""time""
""fullscreenenter"",""1"",""2229""
","
","","","","","","null","<div style=""font-size:60px;"">+</div>","null","","fixation","","",""
"memory-trial","234","512598","0.0-18.0-1.94","7720","approach_avoid_sv1","""event"",""trial"",""time""
""fullscreenenter"",""1"",""2229""
","
","
","""event"",""trial"",""time""
""fullscreenenter"",""1"",""2229""
","
","","","","","","2209.7000000476837","images/truck1.png","","","memory_trial","3","maybe_new",""
"html-keyboard-response","235","513103","0.0-18.0-0.95","7720","approach_avoid_sv1","""event"",""trial"",""time""
""fullscreenenter"",""1"",""2229""
","
","
","""event"",""trial"",""time""
""fullscreenenter"",""1"",""2229""
","
","","","","","","null","<div style=""font-size:60px;"">+</div>","null","","fixation","","",""
"memory-trial","236","515562","0.0-18.0-1.95","7720","approach_avoid_sv1","""event"",""trial"",""time""
""fullscreenenter"",""1"",""2229""
","
","
","""event"",""trial"",""time""
""fullscreenenter"",""1"",""2229""
","
","","","","","","1452.5","images/sofa5.png","","","memory_trial","4","definitely_new",""
"html-keyboard-response","237","516069","0.0-18.0-0.96","7720","approach_avoid_sv1","""event"",""trial"",""time""
""fullscreenenter"",""1"",""2229""
","
","
","""event"",""trial"",""time""
""fullscreenenter"",""1"",""2229""
","
","","","","","","null","<div style=""font-size:60px;"">+</div>","null","","fixation","","",""
"memory-trial","238","518955","0.0-18.0-1.96","7720","approach_avoid_sv1","""event"",""trial"",""time""
""fullscreenenter"",""1"",""2229""
","
","
","""event"",""trial"",""time""
""fullscreenenter"",""1"",""2229""
","
","","","","","","1878.2000000476837","images/rabbit3.png","","","memory_trial","4","definitely_new",""
"html-keyboard-response","239","519459","0.0-18.0-0.97","7720","approach_avoid_sv1","""event"",""trial"",""time""
""fullscreenenter"",""1"",""2229""
","
","
","""event"",""trial"",""time""
""fullscreenenter"",""1"",""2229""
","
","","","","","","null","<div style=""font-size:60px;"">+</div>","null","","fixation","","",""
"memory-trial","240","521930","0.0-18.0-1.97","7720","approach_avoid_sv1","""event"",""trial"",""time""
""fullscreenenter"",""1"",""2229""
","
","
","""event"",""trial"",""time""
""fullscreenenter"",""1"",""2229""
","
","","","","","","1467.4000000953674","images/orange7.png","","","memory_trial","4","definitely_new",""
"html-keyboard-response","241","522435","0.0-18.0-0.98","7720","approach_avoid_sv1","""event"",""trial"",""time""
""fullscreenenter"",""1"",""2229""
","
","
","""event"",""trial"",""time""
""fullscreenenter"",""1"",""2229""
","
","","","","","","null","<div style=""font-size:60px;"">+</div>","null","","fixation","","",""
"memory-trial","242","525080","0.0-18.0-1.98","7720","approach_avoid_sv1","""event"",""trial"",""time""
""fullscreenenter"",""1"",""2229""
","
","
","""event"",""trial"",""time""
""fullscreenenter"",""1"",""2229""
","
","","","","","","1636.6000001430511","images/cow4.png","","","memory_trial","2","maybe_old",""
"html-keyboard-response","243","525587","0.0-18.0-0.99","7720","approach_avoid_sv1","""event"",""trial"",""time""
""fullscreenenter"",""1"",""2229""
","
","
","""event"",""trial"",""time""
""fullscreenenter"",""1"",""2229""
","
","","","","","","null","<div style=""font-size:60px;"">+</div>","null","","fixation","","",""
"memory-trial","244","529233","0.0-18.0-1.99","7720","approach_avoid_sv1","""event"",""trial"",""time""
""fullscreenenter"",""1"",""2229""
","
","
","""event"",""trial"",""time""
""fullscreenenter"",""1"",""2229""
","
","","","","","","2638.2000000476837","images/train7.png","","","memory_trial","4","definitely_new",""
"html-keyboard-response","245","529737","0.0-18.0-0.100","7720","approach_avoid_sv1","""event"",""trial"",""time""
""fullscreenenter"",""1"",""2229""
","
","
","""event"",""trial"",""time""
""fullscreenenter"",""1"",""2229""
","
","","","","","","null","<div style=""font-size:60px;"">+</div>","null","","fixation","","",""
"memory-trial","246","532975","0.0-18.0-1.100","7720","approach_avoid_sv1","""event"",""trial"",""time""
""fullscreenenter"",""1"",""2229""
","
","
","""event"",""trial"",""time""
""fullscreenenter"",""1"",""2229""
","
","","","","","","2218.5","images/flower3.png","","","memory_trial","2","maybe_old",""
"html-keyboard-response","247","533490","0.0-18.0-0.101","7720","approach_avoid_sv1","""event"",""trial"",""time""
""fullscreenenter"",""1"",""2229""
","
","
","""event"",""trial"",""time""
""fullscreenenter"",""1"",""2229""
","
","","","","","","null","<div style=""font-size:60px;"">+</div>","null","","fixation","","",""
"memory-trial","248","536533","0.0-18.0-1.101","7720","approach_avoid_sv1","""event"",""trial"",""time""
""fullscreenenter"",""1"",""2229""
","
","
","""event"",""trial"",""time""
""fullscreenenter"",""1"",""2229""
","
","","","","","","2037.2000000476837","images/apple6.png","","","memory_trial","3","maybe_new",""
"html-keyboard-response","249","537040","0.0-18.0-0.102","7720","approach_avoid_sv1","""event"",""trial"",""time""
""fullscreenenter"",""1"",""2229""
","
","
","""event"",""trial"",""time""
""fullscreenenter"",""1"",""2229""
","
","","","","","","null","<div style=""font-size:60px;"">+</div>","null","","fixation","","",""
"memory-trial","250","539355","0.0-18.0-1.102","7720","approach_avoid_sv1","""event"",""trial"",""time""
""fullscreenenter"",""1"",""2229""
","
","
","""event"",""trial"",""time""
""fullscreenenter"",""1"",""2229""
","
","","","","","","1310.5","images/rabbit4.png","","","memory_trial","4","definitely_new",""
"html-keyboard-response","251","539864","0.0-18.0-0.103","7720","approach_avoid_sv1","""event"",""trial"",""time""
""fullscreenenter"",""1"",""2229""
","
","
","""event"",""trial"",""time""
""fullscreenenter"",""1"",""2229""
","
","","","","","","null","<div style=""font-size:60px;"">+</div>","null","","fixation","","",""
"memory-trial","252","542192","0.0-18.0-1.103","7720","approach_avoid_sv1","""event"",""trial"",""time""
""fullscreenenter"",""1"",""2229""
","
","
","""event"",""trial"",""time""
""fullscreenenter"",""1"",""2229""
","
","","","","","","1325.7000000476837","images/orange6.png","","","memory_trial","2","maybe_old",""
"html-keyboard-response","253","542699","0.0-18.0-0.104","7720","approach_avoid_sv1","""event"",""trial"",""time""
""fullscreenenter"",""1"",""2229""
","
","
","""event"",""trial"",""time""
""fullscreenenter"",""1"",""2229""
","
","","","","","","null","<div style=""font-size:60px;"">+</div>","null","","fixation","","",""
"memory-trial","254","545706","0.0-18.0-1.104","7720","approach_avoid_sv1","""event"",""trial"",""time""
""fullscreenenter"",""1"",""2229""
","
","
","""event"",""trial"",""time""
""fullscreenenter"",""1"",""2229""
","
","","","","","","2002.5999999046326","images/train2.png","","","memory_trial","1","definitely_old",""
"html-keyboard-response","255","546208","0.0-18.0-0.105","7720","approach_avoid_sv1","""event"",""trial"",""time""
""fullscreenenter"",""1"",""2229""
","
","
","""event"",""trial"",""time""
""fullscreenenter"",""1"",""2229""
","
","","","","","","null","<div style=""font-size:60px;"">+</div>","null","","fixation","","",""
"memory-trial","256","549597","0.0-18.0-1.105","7720","approach_avoid_sv1","""event"",""trial"",""time""
""fullscreenenter"",""1"",""2229""
","
","
","""event"",""trial"",""time""
""fullscreenenter"",""1"",""2229""
","
","","","","","","2377.2000000476837","images/tree7.png","","","memory_trial","2","maybe_old",""
"html-keyboard-response","257","550114","0.0-18.0-0.106","7720","approach_avoid_sv1","""event"",""trial"",""time""
""fullscreenenter"",""1"",""2229""
","
","
","""event"",""trial"",""time""
""fullscreenenter"",""1"",""2229""
","
","","","","","","null","<div style=""font-size:60px;"">+</div>","null","","fixation","","",""
"memory-trial","258","552293","0.0-18.0-1.106","7720","approach_avoid_sv1","""event"",""trial"",""time""
""fullscreenenter"",""1"",""2229""
","
","
","""event"",""trial"",""time""
""fullscreenenter"",""1"",""2229""
","
","","","","","","1175.6000001430511","images/rodent8.png","","","memory_trial","1","definitely_old",""
"html-keyboard-response","259","552794","0.0-18.0-0.107","7720","approach_avoid_sv1","""event"",""trial"",""time""
""fullscreenenter"",""1"",""2229""
","
","
","""event"",""trial"",""time""
""fullscreenenter"",""1"",""2229""
","
","","","","","","null","<div style=""font-size:60px;"">+</div>","null","","fixation","","",""
"memory-trial","260","555952","0.0-18.0-1.107","7720","approach_avoid_sv1","""event"",""trial"",""time""
""fullscreenenter"",""1"",""2229""
","
","
","""event"",""trial"",""time""
""fullscreenenter"",""1"",""2229""
","
","","","","","","2141.800000190735","images/horse2.png","","","memory_trial","4","definitely_new",""
"html-keyboard-response","261","556459","0.0-18.0-0.108","7720","approach_avoid_sv1","""event"",""trial"",""time""
""fullscreenenter"",""1"",""2229""
","
","
","""event"",""trial"",""time""
""fullscreenenter"",""1"",""2229""
","
","","","","","","null","<div style=""font-size:60px;"">+</div>","null","","fixation","","",""
"memory-trial","262","559119","0.0-18.0-1.108","7720","approach_avoid_sv1","""event"",""trial"",""time""
""fullscreenenter"",""1"",""2229""
","
","
","""event"",""trial"",""time""
""fullscreenenter"",""1"",""2229""
","
","","","","","","1653.5999999046326","images/straw1.png","","","memory_trial","1","definitely_old",""
"html-keyboard-response","263","559628","0.0-18.0-0.109","7720","approach_avoid_sv1","""event"",""trial"",""time""
""fullscreenenter"",""1"",""2229""
","
","
","""event"",""trial"",""time""
""fullscreenenter"",""1"",""2229""
","
","","","","","","null","<div style=""font-size:60px;"">+</div>","null","","fixation","","",""
"memory-trial","264","564164","0.0-18.0-1.109","7720","approach_avoid_sv1","""event"",""trial"",""time""
""fullscreenenter"",""1"",""2229""
","
","
","""event"",""trial"",""time""
""fullscreenenter"",""1"",""2229""
","
","","","","","","3529.7000000476837","images/cow7.png","","","memory_trial","4","definitely_new",""
"html-keyboard-response","265","564669","0.0-18.0-0.110","7720","approach_avoid_sv1","""event"",""trial"",""time""
""fullscreenenter"",""1"",""2229""
","
","
","""event"",""trial"",""time""
""fullscreenenter"",""1"",""2229""
","
","","","","","","null","<div style=""font-size:60px;"">+</div>","null","","fixation","","",""
"memory-trial","266","566728","0.0-18.0-1.110","7720","approach_avoid_sv1","""event"",""trial"",""time""
""fullscreenenter"",""1"",""2229""
","
","
","""event"",""trial"",""time""
""fullscreenenter"",""1"",""2229""
","
","","","","","","1050.1000001430511","images/orange4.png","","","memory_trial","4","definitely_new",""
"html-keyboard-response","267","567231","0.0-18.0-0.111","7720","approach_avoid_sv1","""event"",""trial"",""time""
""fullscreenenter"",""1"",""2229""
","
","
","""event"",""trial"",""time""
""fullscreenenter"",""1"",""2229""
","
","","","","","","null","<div style=""font-size:60px;"">+</div>","null","","fixation","","",""
"memory-trial","268","569805","0.0-18.0-1.111","7720","approach_avoid_sv1","""event"",""trial"",""time""
""fullscreenenter"",""1"",""2229""
","
","
","""event"",""trial"",""time""
""fullscreenenter"",""1"",""2229""
","
","","","","","","1567.5","images/plane5.png","","","memory_trial","2","maybe_old",""
"html-keyboard-response","269","570308","0.0-18.0-0.112","7720","approach_avoid_sv1","""event"",""trial"",""time""
""fullscreenenter"",""1"",""2229""
","
","
","""event"",""trial"",""time""
""fullscreenenter"",""1"",""2229""
","
","","","","","","null","<div style=""font-size:60px;"">+</div>","null","","fixation","","",""
"memory-trial","270","572718","0.0-18.0-1.112","7720","approach_avoid_sv1","""event"",""trial"",""time""
""fullscreenenter"",""1"",""2229""
","
","
","""event"",""trial"",""time""
""fullscreenenter"",""1"",""2229""
","
","","","","","","1403.2000000476837","images/flower4.png","","","memory_trial","4","definitely_new",""
"html-keyboard-response","271","573224","0.0-18.0-0.113","7720","approach_avoid_sv1","""event"",""trial"",""time""
""fullscreenenter"",""1"",""2229""
","
","
","""event"",""trial"",""time""
""fullscreenenter"",""1"",""2229""
","
","","","","","","null","<div style=""font-size:60px;"">+</div>","null","","fixation","","",""
"memory-trial","272","575472","0.0-18.0-1.113","7720","approach_avoid_sv1","""event"",""trial"",""time""
""fullscreenenter"",""1"",""2229""
","
","
","""event"",""trial"",""time""
""fullscreenenter"",""1"",""2229""
","
","","","","","","1230.8999998569489","images/cactus4.png","","","memory_trial","1","definitely_old",""
"html-keyboard-response","273","575980","0.0-18.0-0.114","7720","approach_avoid_sv1","""event"",""trial"",""time""
""fullscreenenter"",""1"",""2229""
","
","
","""event"",""trial"",""time""
""fullscreenenter"",""1"",""2229""
","
","","","","","","null","<div style=""font-size:60px;"">+</div>","null","","fixation","","",""
"memory-trial","274","579110","0.0-18.0-1.114","7720","approach_avoid_sv1","""event"",""trial"",""time""
""fullscreenenter"",""1"",""2229""
","
","
","""event"",""trial"",""time""
""fullscreenenter"",""1"",""2229""
","
","","","","","","2123","images/apple7.png","","","memory_trial","1","definitely_old",""
"html-keyboard-response","275","579611","0.0-18.0-0.115","7720","approach_avoid_sv1","""event"",""trial"",""time""
""fullscreenenter"",""1"",""2229""
","
","
","""event"",""trial"",""time""
""fullscreenenter"",""1"",""2229""
","
","","","","","","null","<div style=""font-size:60px;"">+</div>","null","","fixation","","",""
"memory-trial","276","581877","0.0-18.0-1.115","7720","approach_avoid_sv1","""event"",""trial"",""time""
""fullscreenenter"",""1"",""2229""
","
","
","""event"",""trial"",""time""
""fullscreenenter"",""1"",""2229""
","
","","","","","","1258.5","images/cat2.png","","","memory_trial","4","definitely_new",""
"html-keyboard-response","277","582383","0.0-18.0-0.116","7720","approach_avoid_sv1","""event"",""trial"",""time""
""fullscreenenter"",""1"",""2229""
","
","
","""event"",""trial"",""time""
""fullscreenenter"",""1"",""2229""
","
","","","","","","null","<div style=""font-size:60px;"">+</div>","null","","fixation","","",""
"memory-trial","278","584307","0.0-18.0-1.116","7720","approach_avoid_sv1","""event"",""trial"",""time""
""fullscreenenter"",""1"",""2229""
","
","
","""event"",""trial"",""time""
""fullscreenenter"",""1"",""2229""
","
","","","","","","917.4000000953674","images/truck4.png","","","memory_trial","4","definitely_new",""
"html-keyboard-response","279","584811","0.0-18.0-0.117","7720","approach_avoid_sv1","""event"",""trial"",""time""
""fullscreenenter"",""1"",""2229""
","
","
","""event"",""trial"",""time""
""fullscreenenter"",""1"",""2229""
","
","","","","","","null","<div style=""font-size:60px;"">+</div>","null","","fixation","","",""
"memory-trial","280","588328","0.0-18.0-1.117","7720","approach_avoid_sv1","""event"",""trial"",""time""
""fullscreenenter"",""1"",""2229""
","
","
","""event"",""trial"",""time""
""fullscreenenter"",""1"",""2229""
","
","","","","","","2509.699999809265","images/sofa8.png","","","memory_trial","3","maybe_new",""
"html-keyboard-response","281","588830","0.0-18.0-0.118","7720","approach_avoid_sv1","""event"",""trial"",""time""
""fullscreenenter"",""1"",""2229""
","
","
","""event"",""trial"",""time""
""fullscreenenter"",""1"",""2229""
","
","","","","","","null","<div style=""font-size:60px;"">+</div>","null","","fixation","","",""
"memory-trial","282","590882","0.0-18.0-1.118","7720","approach_avoid_sv1","""event"",""trial"",""time""
""fullscreenenter"",""1"",""2229""
","
","
","""event"",""trial"",""time""
""fullscreenenter"",""1"",""2229""
","
","","","","","","1040.2999999523163","images/rodent4.png","","","memory_trial","4","definitely_new",""
"html-keyboard-response","283","591387","0.0-18.0-0.119","7720","approach_avoid_sv1","""event"",""trial"",""time""
""fullscreenenter"",""1"",""2229""
","
","
","""event"",""trial"",""time""
""fullscreenenter"",""1"",""2229""
","
","","","","","","null","<div style=""font-size:60px;"">+</div>","null","","fixation","","",""
"memory-trial","284","594424","0.0-18.0-1.119","7720","approach_avoid_sv1","""event"",""trial"",""time""
""fullscreenenter"",""1"",""2229""
","
","
","""event"",""trial"",""time""
""fullscreenenter"",""1"",""2229""
","
","","","","","","2033","images/plane7.png","","","memory_trial","2","maybe_old",""
"html-keyboard-response","285","594929","0.0-18.0-0.120","7720","approach_avoid_sv1","""event"",""trial"",""time""
""fullscreenenter"",""1"",""2229""
","
","
","""event"",""trial"",""time""
""fullscreenenter"",""1"",""2229""
","
","","","","","","null","<div style=""font-size:60px;"">+</div>","null","","fixation","","",""
"memory-trial","286","597484","0.0-18.0-1.120","7720","approach_avoid_sv1","""event"",""trial"",""time""
""fullscreenenter"",""1"",""2229""
","
","
","""event"",""trial"",""time""
""fullscreenenter"",""1"",""2229""
","
","","","","","","1546","images/boat2.png","","","memory_trial","4","definitely_new",""
"html-keyboard-response","287","597992","0.0-18.0-0.121","7720","approach_avoid_sv1","""event"",""trial"",""time""
""fullscreenenter"",""1"",""2229""
","
","
","""event"",""trial"",""time""
""fullscreenenter"",""1"",""2229""
","
","","","","","","null","<div style=""font-size:60px;"">+</div>","null","","fixation","","",""
"memory-trial","288","600244","0.0-18.0-1.121","7720","approach_avoid_sv1","""event"",""trial"",""time""
""fullscreenenter"",""1"",""2229""
","
","
","""event"",""trial"",""time""
""fullscreenenter"",""1"",""2229""
","
","","","","","","1243.2999999523163","images/flower1.png","","","memory_trial","4","definitely_new",""
"html-keyboard-response","289","600745","0.0-18.0-0.122","7720","approach_avoid_sv1","""event"",""trial"",""time""
""fullscreenenter"",""1"",""2229""
","
","
","""event"",""trial"",""time""
""fullscreenenter"",""1"",""2229""
","
","","","","","","null","<div style=""font-size:60px;"">+</div>","null","","fixation","","",""
"memory-trial","290","604016","0.0-18.0-1.122","7720","approach_avoid_sv1","""event"",""trial"",""time""
""fullscreenenter"",""1"",""2229""
","
","
","""event"",""trial"",""time""
""fullscreenenter"",""1"",""2229""
","
","","","","","","2267.2000000476837","images/cow2.png","","","memory_trial","2","maybe_old",""
"html-keyboard-response","291","604522","0.0-18.0-0.123","7720","approach_avoid_sv1","""event"",""trial"",""time""
""fullscreenenter"",""1"",""2229""
","
","
","""event"",""trial"",""time""
""fullscreenenter"",""1"",""2229""
","
","","","","","","null","<div style=""font-size:60px;"">+</div>","null","","fixation","","",""
"memory-trial","292","606869","0.0-18.0-1.123","7720","approach_avoid_sv1","""event"",""trial"",""time""
""fullscreenenter"",""1"",""2229""
","
","
","""event"",""trial"",""time""
""fullscreenenter"",""1"",""2229""
","
","","","","","","1338.7999999523163","images/horse6.png","","","memory_trial","2","maybe_old",""
"html-keyboard-response","293","607376","0.0-18.0-0.124","7720","approach_avoid_sv1","""event"",""trial"",""time""
""fullscreenenter"",""1"",""2229""
","
","
","""event"",""trial"",""time""
""fullscreenenter"",""1"",""2229""
","
","","","","","","null","<div style=""font-size:60px;"">+</div>","null","","fixation","","",""
"memory-trial","294","609547","0.0-18.0-1.124","7720","approach_avoid_sv1","""event"",""trial"",""time""
""fullscreenenter"",""1"",""2229""
","
","
","""event"",""trial"",""time""
""fullscreenenter"",""1"",""2229""
","
","","","","","","1166.6000001430511","images/banana7.png","","","memory_trial","2","maybe_old",""
"html-keyboard-response","295","610050","0.0-18.0-0.125","7720","approach_avoid_sv1","""event"",""trial"",""time""
""fullscreenenter"",""1"",""2229""
","
","
","""event"",""trial"",""time""
""fullscreenenter"",""1"",""2229""
","
","","","","","","null","<div style=""font-size:60px;"">+</div>","null","","fixation","","",""
"memory-trial","296","612417","0.0-18.0-1.125","7720","approach_avoid_sv1","""event"",""trial"",""time""
""fullscreenenter"",""1"",""2229""
","
","
","""event"",""trial"",""time""
""fullscreenenter"",""1"",""2229""
","
","","","","","","1361.9000000953674","images/horse7.png","","","memory_trial","4","definitely_new",""
"html-keyboard-response","297","612923","0.0-18.0-0.126","7720","approach_avoid_sv1","""event"",""trial"",""time""
""fullscreenenter"",""1"",""2229""
","
","
","""event"",""trial"",""time""
