"trial_type","trial_index","time_elapsed","internal_node_id","subject_id","task_version","interactions","blur_events","focus_events","fullscreenenter_events","fullscreenexit_events","success","timeout","failed_images","failed_audio","failed_video","rt","stimulus","response","button_pressed","task_part","key_press","answer","correct"
"pavlovia","0","3","0.0-0.0","7589","approach_avoid_sv1","""event"",""trial"",""time""
""fullscreenenter"",""1"",""1251""
","
","
","""event"",""trial"",""time""
""fullscreenenter"",""1"",""1251""
","
","","","","","","","","","","","","",""
"fullscreen","1","2240","0.0-1.0","7589","approach_avoid_sv1","""event"",""trial"",""time""
""fullscreenenter"",""1"",""1251""
","
","
","""event"",""trial"",""time""
""fullscreenenter"",""1"",""1251""
","
","true","","","","","","","","","","","",""
"preload","2","4090","0.0-2.0","7589","approach_avoid_sv1","""event"",""trial"",""time""
""fullscreenenter"",""1"",""1251""
","
","
","""event"",""trial"",""time""
""fullscreenenter"",""1"",""1251""
","
","true","false","[]","[]","[]","","","","","","","",""
"preload","3","4768","0.0-3.0","7589","approach_avoid_sv1","""event"",""trial"",""time""
""fullscreenenter"",""1"",""1251""
","
","
","""event"",""trial"",""time""
""fullscreenenter"",""1"",""1251""
","
","true","false","[]","[]","[]","","","","","","","",""
"preload","4","5039","0.0-4.0","7589","approach_avoid_sv1","""event"",""trial"",""time""
""fullscreenenter"",""1"",""1251""
","
","
","""event"",""trial"",""time""
""fullscreenenter"",""1"",""1251""
","
","true","false","[]","[]","[]","","","","","","","",""
"audio-keyboard-response","5","5265","0.0-5.0","7589","approach_avoid_sv1","""event"",""trial"",""time""
""fullscreenenter"",""1"",""1251""
","
","
","""event"",""trial"",""time""
""fullscreenenter"",""1"",""1251""
","
","","","","","","232","audio/beep_loop.wav","audiovolumedown","","","","",""
"audio-button-response","6","6676","0.0-6.0","7589","approach_avoid_sv1","""event"",""trial"",""time""
""fullscreenenter"",""1"",""1251""
","
","
","""event"",""trial"",""time""
""fullscreenenter"",""1"",""1251""
","
","","","","","","1408","audio/turtle.wav","3","","","","",""
"audio-button-response","7","8661","0.0-7.0","7589","approach_avoid_sv1","""event"",""trial"",""time""
""fullscreenenter"",""1"",""1251""
","
","
","""event"",""trial"",""time""
""fullscreenenter"",""1"",""1251""
","
","","","","","","971","audio/shark.wav","2","","","","",""
"preload","8","11645","0.0-8.0","7589","approach_avoid_sv1","""event"",""trial"",""time""
""fullscreenenter"",""1"",""1251""
","
","
","""event"",""trial"",""time""
""fullscreenenter"",""1"",""1251""
","
","true","false","[]","[]","[]","","","","","","","",""
"learning-instructions","9","19733","0.0-9.0-0.0","7589","approach_avoid_sv1","""event"",""trial"",""time""
""fullscreenenter"",""1"",""1251""
","
","
","""event"",""trial"",""time""
""fullscreenenter"",""1"",""1251""
","
","","","","","","3606.699999988079","<p> Welcome back! </p><p> Last week, you had to make choices about lots of different items.  </p>","","0","instructions","","",""
"learning-instructions","10","26653","0.0-9.0-0.1","7589","approach_avoid_sv1","""event"",""trial"",""time""
""fullscreenenter"",""1"",""1251""
","
","
","""event"",""trial"",""time""
""fullscreenenter"",""1"",""1251""
","
","","","","","","2807.300000011921","<p> Today, we are going to ask you to try to remember all the items. </p>","","0","instructions","","",""
"learning-instructions","11","38364","0.0-9.0-0.2","7589","approach_avoid_sv1","""event"",""trial"",""time""
""fullscreenenter"",""1"",""1251""
","
","
","""event"",""trial"",""time""
""fullscreenenter"",""1"",""1251""
","
","","","","","","1578.5","<p> On every trial, you will see an image. </p><p> The image may be an OLD image you saw during the games last week or it may be a NEW image that was not presented. </p>","","0","instructions","","",""
"learning-instructions","12","48164","0.0-9.0-0.3","7589","approach_avoid_sv1","""event"",""trial"",""time""
""fullscreenenter"",""1"",""1251""
","
","
","""event"",""trial"",""time""
""fullscreenenter"",""1"",""1251""
","
","","","","","","1297","<p> You need to select whether the image is:  </p><p>  'Definitely old', 'Maybe old', 'Maybe new', or 'Definitely new.'  </p><div class=""mem-choice-instructions-grid""><div class=""choice-option"" id=""choice-option-1"" ><img src=""images/definitely_old_1.png"" id=""choice-option-img-1"" class=""choice-option-img"" stage=""1""></div><div class=""choice-option"" id=""choice-option-2"" ><img src=""images/maybe_old_1.png"" id=""choice-option-img-2"" class=""choice-option-img"" stage=""1""></div><div class=""choice-option"" id=""choice-option-3"" ><img src=""images/maybe_new_1.png"" id=""choice-option-img-3"" class=""choice-option-img"" stage=""1""></div><div class=""choice-option"" id=""choice-option-4"" > <img src=""images/definitely_new_1.png"" id=""choice-option-img-4"" class=""choice-option-img"" stage=""1""></div></div>","","0","instructions","","",""
"learning-instructions","13","63887","0.0-9.0-0.4","7589","approach_avoid_sv1","""event"",""trial"",""time""
""fullscreenenter"",""1"",""1251""
","
","
","""event"",""trial"",""time""
""fullscreenenter"",""1"",""1251""
","
","","","","","","9211.199999988079","<p> You should use the 1, 2, 3, and 4 keys to make your responses.  </p><div class=""mem-choice-instructions-grid""><div class=""choice-option"" id=""choice-option-1"" ><img src=""images/definitely_old.png"" id=""choice-option-img-1"" class=""choice-option-img"" stage=""1""></div><div class=""choice-option"" id=""choice-option-2"" ><img src=""images/maybe_old.png"" id=""choice-option-img-2"" class=""choice-option-img"" stage=""1""></div><div class=""choice-option"" id=""choice-option-3"" ><img src=""images/maybe_new.png"" id=""choice-option-img-3"" class=""choice-option-img"" stage=""1""></div><div class=""choice-option"" id=""choice-option-4"" > <img src=""images/definitely_new.png"" id=""choice-option-img-4"" class=""choice-option-img"" stage=""1""></div></div>","","0","instructions","","",""
"learning-instructions","14","71708","0.0-9.0-0.5","7589","approach_avoid_sv1","""event"",""trial"",""time""
""fullscreenenter"",""1"",""1251""
","
","
","""event"",""trial"",""time""
""fullscreenenter"",""1"",""1251""
","
","","","","","","1484.6000000238419","<p> You will have 10 seconds to make each response.  </p><p>  Make sure to respond before time runs out! </p>","","0","instructions","","",""
"learning-instructions","15","79644","0.0-9.0-0.6","7589","approach_avoid_sv1","""event"",""trial"",""time""
""fullscreenenter"",""1"",""1251""
","
","
","""event"",""trial"",""time""
""fullscreenenter"",""1"",""1251""
","
","","","","","","870.3000000119209","<p> Today, you will see each image ONCE only.  </p><p>  That means none of the images will repeat. </p>","","0","instructions","","",""
"learning-instructions","16","94028","0.0-9.0-0.7","7589","approach_avoid_sv1","""event"",""trial"",""time""
""fullscreenenter"",""1"",""1251""
","
","
","""event"",""trial"",""time""
""fullscreenenter"",""1"",""1251""
","
","","","","","","1713","<p> Before you play the real game, it is time to practice. </p><p>  Just like in the real game, some of the images in the practice will be ones you have seen before. </p><p>  Others will be entirely new. </p>","","0","instructions","","",""
"html-button-response","17","95708","0.0-10.0","7589","approach_avoid_sv1","""event"",""trial"",""time""
""fullscreenenter"",""1"",""1251""
","
","
","""event"",""trial"",""time""
""fullscreenenter"",""1"",""1251""
","
","","","","","","1578.1000000238419","<p> Ready to practice? </p><p> Remember, use the 1, 2, 3, and 4 keys to make your responses. </p>","0","","instructions","","",""
"html-keyboard-response","18","96315","0.0-11.0-0.0","7589","approach_avoid_sv1","""event"",""trial"",""time""
""fullscreenenter"",""1"",""1251""
","
","
","""event"",""trial"",""time""
""fullscreenenter"",""1"",""1251""
","
","","","","","","null","<div style=""font-size:60px;"">+</div>","null","","fixation","","",""
"memory-trial","19","100242","0.0-11.0-1.0","7589","approach_avoid_sv1","""event"",""trial"",""time""
""fullscreenenter"",""1"",""1251""
","
","
","""event"",""trial"",""time""
""fullscreenenter"",""1"",""1251""
","
","","","","","","2914.900000035763","images/racket5.png","","","practice","1","definitely_old",""
"html-keyboard-response","20","100758","0.0-11.0-0.1","7589","approach_avoid_sv1","""event"",""trial"",""time""
""fullscreenenter"",""1"",""1251""
","
","
","""event"",""trial"",""time""
""fullscreenenter"",""1"",""1251""
","
","","","","","","null","<div style=""font-size:60px;"">+</div>","null","","fixation","","",""
"memory-trial","21","104385","0.0-11.0-1.1","7589","approach_avoid_sv1","""event"",""trial"",""time""
""fullscreenenter"",""1"",""1251""
","
","
","""event"",""trial"",""time""
""fullscreenenter"",""1"",""1251""
","
","","","","","","2624.5","images/racket2.png","","","practice","3","maybe_new",""
"html-keyboard-response","22","104890","0.0-11.0-0.2","7589","approach_avoid_sv1","""event"",""trial"",""time""
""fullscreenenter"",""1"",""1251""
","
","
","""event"",""trial"",""time""
""fullscreenenter"",""1"",""1251""
","
","","","","","","null","<div style=""font-size:60px;"">+</div>","null","","fixation","","",""
"memory-trial","23","107290","0.0-11.0-1.2","7589","approach_avoid_sv1","""event"",""trial"",""time""
""fullscreenenter"",""1"",""1251""
","
","
","""event"",""trial"",""time""
""fullscreenenter"",""1"",""1251""
","
","","","","","","1387.199999988079","images/ball3.png","","","practice","1","definitely_old",""
"html-keyboard-response","24","107803","0.0-11.0-0.3","7589","approach_avoid_sv1","""event"",""trial"",""time""
""fullscreenenter"",""1"",""1251""
","
","
","""event"",""trial"",""time""
""fullscreenenter"",""1"",""1251""
","
","","","","","","null","<div style=""font-size:60px;"">+</div>","null","","fixation","","",""
"memory-trial","25","110625","0.0-11.0-1.3","7589","approach_avoid_sv1","""event"",""trial"",""time""
""fullscreenenter"",""1"",""1251""
","
","
","""event"",""trial"",""time""
""fullscreenenter"",""1"",""1251""
","
","","","","","","1804.8999999761581","images/ball2.png","","","practice","1","definitely_old",""
"html-keyboard-response","26","111140","0.0-11.0-0.4","7589","approach_avoid_sv1","""event"",""trial"",""time""
""fullscreenenter"",""1"",""1251""
","
","
","""event"",""trial"",""time""
""fullscreenenter"",""1"",""1251""
","
","","","","","","null","<div style=""font-size:60px;"">+</div>","null","","fixation","","",""
"memory-trial","27","114696","0.0-11.0-1.4","7589","approach_avoid_sv1","""event"",""trial"",""time""
""fullscreenenter"",""1"",""1251""
","
","
","""event"",""trial"",""time""
""fullscreenenter"",""1"",""1251""
","
","","","","","","2550.100000023842","images/racket3.png","","","practice","3","maybe_new",""
"html-keyboard-response","28","115210","0.0-11.0-0.5","7589","approach_avoid_sv1","""event"",""trial"",""time""
""fullscreenenter"",""1"",""1251""
","
","
","""event"",""trial"",""time""
""fullscreenenter"",""1"",""1251""
","
","","","","","","null","<div style=""font-size:60px;"">+</div>","null","","fixation","","",""
"memory-trial","29","117863","0.0-11.0-1.5","7589","approach_avoid_sv1","""event"",""trial"",""time""
""fullscreenenter"",""1"",""1251""
","
","
","""event"",""trial"",""time""
""fullscreenenter"",""1"",""1251""
","
","","","","","","1637.800000011921","images/racket1.png","","","practice","4","definitely_new",""
"html-keyboard-response","30","118377","0.0-11.0-0.6","7589","approach_avoid_sv1","""event"",""trial"",""time""
""fullscreenenter"",""1"",""1251""
","
","
","""event"",""trial"",""time""
""fullscreenenter"",""1"",""1251""
","
","","","","","","null","<div style=""font-size:60px;"">+</div>","null","","fixation","","",""
"memory-trial","31","122005","0.0-11.0-1.6","7589","approach_avoid_sv1","""event"",""trial"",""time""
""fullscreenenter"",""1"",""1251""
","
","
","""event"",""trial"",""time""
""fullscreenenter"",""1"",""1251""
","
","","","","","","2619","images/ball5.png","","","practice","3","maybe_new",""
"html-keyboard-response","32","122506","0.0-11.0-0.7","7589","approach_avoid_sv1","""event"",""trial"",""time""
""fullscreenenter"",""1"",""1251""
","
","
","""event"",""trial"",""time""
""fullscreenenter"",""1"",""1251""
","
","","","","","","null","<div style=""font-size:60px;"">+</div>","null","","fixation","","",""
"memory-trial","33","124567","0.0-11.0-1.7","7589","approach_avoid_sv1","""event"",""trial"",""time""
""fullscreenenter"",""1"",""1251""
","
","
","""event"",""trial"",""time""
""fullscreenenter"",""1"",""1251""
","
","","","","","","1055.5","images/ball1.png","","","practice","1","definitely_old",""
"learning-instructions","34","132748","0.0-12.0-0.0","7589","approach_avoid_sv1","""event"",""trial"",""time""
""fullscreenenter"",""1"",""1251""
","
","
","""event"",""trial"",""time""
""fullscreenenter"",""1"",""1251""
","
","","","","","","880.1000000238419","<p> Great! You have completed the practice. </p><p> Before you start, we're going to ask you a few questions about how the game works.  </p>","","0","instructions","","",""
"preload","35","134451","0.0-13.0","7589","approach_avoid_sv1","""event"",""trial"",""time""
""fullscreenenter"",""1"",""1251""
","
","
","""event"",""trial"",""time""
""fullscreenenter"",""1"",""1251""
","
","true","false","[]","[]","[]","","","","","","","",""
"comp-q","36","142069","0.0-14.0-0.0","7589","approach_avoid_sv1","""event"",""trial"",""time""
""fullscreenenter"",""1"",""1251""
","
","
","""event"",""trial"",""time""
""fullscreenenter"",""1"",""1251""
","
","","","","","","1789.199999988079","<p> <b> True or False? </b> </p><p> In this game, you will only see each image once. </p>","","0","comp_question","","","true"
"comp-q","37","149220","0.0-14.0-1.0","7589","approach_avoid_sv1","""event"",""trial"",""time""
""fullscreenenter"",""1"",""1251""
","
","
","""event"",""trial"",""time""
""fullscreenenter"",""1"",""1251""
","
","","","","","","810.4000000357628","<p> <b> That's right! </b> You will see many different images <i> one time each </i> in this game. </p>","","0","comp_answer","","",""
"comp-q","38","155644","0.0-15.0-0.0","7589","approach_avoid_sv1","""event"",""trial"",""time""
""fullscreenenter"",""1"",""1251""
","
","
","""event"",""trial"",""time""
""fullscreenenter"",""1"",""1251""
","
","","","","","","1414.800000011921","<p> <b> True or False? </b> </p><p> You should use the mouse and click to make your response. </p>","","1","comp_question","","","true"
"comp-q","39","163389","0.0-15.0-1.0","7589","approach_avoid_sv1","""event"",""trial"",""time""
""fullscreenenter"",""1"",""1251""
","
","
","""event"",""trial"",""time""
""fullscreenenter"",""1"",""1251""
","
","","","","","","1229.5","<p><b> That's right! </b> You should use the '1', '2', '3', and '4' keys to make your response. </p>","","0","comp_answer","","",""
"comp-q","40","169764","0.0-16.0-0.0","7589","approach_avoid_sv1","""event"",""trial"",""time""
""fullscreenenter"",""1"",""1251""
","
","
","""event"",""trial"",""time""
""fullscreenenter"",""1"",""1251""
","
","","","","","","695.1999999880791","<p> <b> True or False? </b> </p><p> You will have as much time as you want to make each choice. </p>","","1","comp_question","","","true"
"comp-q","41","175164","0.0-16.0-1.0","7589","approach_avoid_sv1","""event"",""trial"",""time""
""fullscreenenter"",""1"",""1251""
","
","
","""event"",""trial"",""time""
""fullscreenenter"",""1"",""1251""
","
","","","","","","684.6999999880791","<p> <b> That's right! </b> You will only have 10 seconds to make each choice. </p>","","0","comp_answer","","",""
"learning-instructions","42","185516","0.0-17.0","7589","approach_avoid_sv1","""event"",""trial"",""time""
""fullscreenenter"",""1"",""1251""
","
","
","""event"",""trial"",""time""
""fullscreenenter"",""1"",""1251""
","
","","","","","","1676.9000000357628","<p> Great! You are now ready to begin the game. </p><p> Remember, use the 1, 2, 3, and 4 keys to make your responses. </p>","","0","instructions","","",""
"html-keyboard-response","43","186120","0.0-18.0-0.0","7589","approach_avoid_sv1","""event"",""trial"",""time""
""fullscreenenter"",""1"",""1251""
","
","
","""event"",""trial"",""time""
""fullscreenenter"",""1"",""1251""
","
","","","","","","null","<div style=""font-size:60px;"">+</div>","null","","fixation","","",""
"memory-trial","44","189729","0.0-18.0-1.0","7589","approach_avoid_sv1","""event"",""trial"",""time""
""fullscreenenter"",""1"",""1251""
","
","
","""event"",""trial"",""time""
""fullscreenenter"",""1"",""1251""
","
","","","","","","2605.300000011921","images/goat3.png","","","memory_trial","4","definitely_new",""
"html-keyboard-response","45","190232","0.0-18.0-0.1","7589","approach_avoid_sv1","""event"",""trial"",""time""
""fullscreenenter"",""1"",""1251""
","
","
","""event"",""trial"",""time""
""fullscreenenter"",""1"",""1251""
","
","","","","","","null","<div style=""font-size:60px;"">+</div>","null","","fixation","","",""
"memory-trial","46","194551","0.0-18.0-1.1","7589","approach_avoid_sv1","""event"",""trial"",""time""
""fullscreenenter"",""1"",""1251""
","
","
","""event"",""trial"",""time""
""fullscreenenter"",""1"",""1251""
","
","","","","","","3305.5","images/goat2.png","","","memory_trial","2","maybe_old",""
"html-keyboard-response","47","195064","0.0-18.0-0.2","7589","approach_avoid_sv1","""event"",""trial"",""time""
""fullscreenenter"",""1"",""1251""
","
","
","""event"",""trial"",""time""
""fullscreenenter"",""1"",""1251""
","
","","","","","","null","<div style=""font-size:60px;"">+</div>","null","","fixation","","",""
"memory-trial","48","198010","0.0-18.0-1.2","7589","approach_avoid_sv1","""event"",""trial"",""time""
""fullscreenenter"",""1"",""1251""
","
","
","""event"",""trial"",""time""
""fullscreenenter"",""1"",""1251""
","
","","","","","","1939.1000000238419","images/chair3.png","","","memory_trial","1","definitely_old",""
"html-keyboard-response","49","198523","0.0-18.0-0.3","7589","approach_avoid_sv1","""event"",""trial"",""time""
""fullscreenenter"",""1"",""1251""
","
","
","""event"",""trial"",""time""
""fullscreenenter"",""1"",""1251""
","
","","","","","","null","<div style=""font-size:60px;"">+</div>","null","","fixation","","",""
"memory-trial","50","201531","0.0-18.0-1.3","7589","approach_avoid_sv1","""event"",""trial"",""time""
""fullscreenenter"",""1"",""1251""
","
","
","""event"",""trial"",""time""
""fullscreenenter"",""1"",""1251""
","
","","","","","","1989.6000000238419","images/orange2.png","","","memory_trial","4","definitely_new",""
"html-keyboard-response","51","202032","0.0-18.0-0.4","7589","approach_avoid_sv1","""event"",""trial"",""time""
""fullscreenenter"",""1"",""1251""
","
","
","""event"",""trial"",""time""
""fullscreenenter"",""1"",""1251""
","
","","","","","","null","<div style=""font-size:60px;"">+</div>","null","","fixation","","",""
"memory-trial","52","204474","0.0-18.0-1.4","7589","approach_avoid_sv1","""event"",""trial"",""time""
""fullscreenenter"",""1"",""1251""
","
","
","""event"",""trial"",""time""
""fullscreenenter"",""1"",""1251""
","
","","","","","","1424.0999999642372","images/straw3.png","","","memory_trial","1","definitely_old",""
"html-keyboard-response","53","204990","0.0-18.0-0.5","7589","approach_avoid_sv1","""event"",""trial"",""time""
""fullscreenenter"",""1"",""1251""
","
","
","""event"",""trial"",""time""
""fullscreenenter"",""1"",""1251""
","
","","","","","","null","<div style=""font-size:60px;"">+</div>","null","","fixation","","",""
"memory-trial","54","209712","0.0-18.0-1.5","7589","approach_avoid_sv1","""event"",""trial"",""time""
""fullscreenenter"",""1"",""1251""
","
","
","""event"",""trial"",""time""
""fullscreenenter"",""1"",""1251""
","
","","","","","","3711.300000011921","images/sofa4.png","","","memory_trial","2","maybe_old",""
"html-keyboard-response","55","210227","0.0-18.0-0.6","7589","approach_avoid_sv1","""event"",""trial"",""time""
""fullscreenenter"",""1"",""1251""
","
","
","""event"",""trial"",""time""
""fullscreenenter"",""1"",""1251""
","
","","","","","","null","<div style=""font-size:60px;"">+</div>","null","","fixation","","",""
"memory-trial","56","213102","0.0-18.0-1.6","7589","approach_avoid_sv1","""event"",""trial"",""time""
""fullscreenenter"",""1"",""1251""
","
","
","""event"",""trial"",""time""
""fullscreenenter"",""1"",""1251""
","
","","","","","","1856.199999988079","images/orange7.png","","","memory_trial","4","definitely_new",""
"html-keyboard-response","57","213605","0.0-18.0-0.7","7589","approach_avoid_sv1","""event"",""trial"",""time""
""fullscreenenter"",""1"",""1251""
","
","
","""event"",""trial"",""time""
""fullscreenenter"",""1"",""1251""
","
","","","","","","null","<div style=""font-size:60px;"">+</div>","null","","fixation","","",""
"memory-trial","58","215851","0.0-18.0-1.7","7589","approach_avoid_sv1","""event"",""trial"",""time""
""fullscreenenter"",""1"",""1251""
","
","
","""event"",""trial"",""time""
""fullscreenenter"",""1"",""1251""
","
","","","","","","1243.5999999642372","images/flower4.png","","","memory_trial","1","definitely_old",""
"html-keyboard-response","59","216367","0.0-18.0-0.8","7589","approach_avoid_sv1","""event"",""trial"",""time""
""fullscreenenter"",""1"",""1251""
","
","
","""event"",""trial"",""time""
""fullscreenenter"",""1"",""1251""
","
","","","","","","null","<div style=""font-size:60px;"">+</div>","null","","fixation","","",""
"memory-trial","60","218848","0.0-18.0-1.8","7589","approach_avoid_sv1","""event"",""trial"",""time""
""fullscreenenter"",""1"",""1251""
","
","
","""event"",""trial"",""time""
""fullscreenenter"",""1"",""1251""
","
","","","","","","1475.9000000357628","images/rodent4.png","","","memory_trial","4","definitely_new",""
"html-keyboard-response","61","219360","0.0-18.0-0.9","7589","approach_avoid_sv1","""event"",""trial"",""time""
""fullscreenenter"",""1"",""1251""
","
","
","""event"",""trial"",""time""
""fullscreenenter"",""1"",""1251""
","
","","","","","","null","<div style=""font-size:60px;"">+</div>","null","","fixation","","",""
"memory-trial","62","221504","0.0-18.0-1.9","7589","approach_avoid_sv1","""event"",""trial"",""time""
""fullscreenenter"",""1"",""1251""
","
","
","""event"",""trial"",""time""
""fullscreenenter"",""1"",""1251""
","
","","","","","","1140.0999999642372","images/rodent3.png","","","memory_trial","4","definitely_new",""
"html-keyboard-response","63","222006","0.0-18.0-0.10","7589","approach_avoid_sv1","""event"",""trial"",""time""
""fullscreenenter"",""1"",""1251""
","
","
","""event"",""trial"",""time""
""fullscreenenter"",""1"",""1251""
","
","","","","","","null","<div style=""font-size:60px;"">+</div>","null","","fixation","","",""
"memory-trial","64","225132","0.0-18.0-1.10","7589","approach_avoid_sv1","""event"",""trial"",""time""
""fullscreenenter"",""1"",""1251""
","
","
","""event"",""trial"",""time""
""fullscreenenter"",""1"",""1251""
","
","","","","","","2122.600000023842","images/cat7.png","","","memory_trial","2","maybe_old",""
"html-keyboard-response","65","225634","0.0-18.0-0.11","7589","approach_avoid_sv1","""event"",""trial"",""time""
""fullscreenenter"",""1"",""1251""
","
","
","""event"",""trial"",""time""
""fullscreenenter"",""1"",""1251""
","
","","","","","","null","<div style=""font-size:60px;"">+</div>","null","","fixation","","",""
"memory-trial","66","230263","0.0-18.0-1.11","7589","approach_avoid_sv1","""event"",""trial"",""time""
""fullscreenenter"",""1"",""1251""
","
","
","""event"",""trial"",""time""
""fullscreenenter"",""1"",""1251""
","
","","","","","","3623.599999964237","images/rodent2.png","","","memory_trial","3","maybe_new",""
"html-keyboard-response","67","230765","0.0-18.0-0.12","7589","approach_avoid_sv1","""event"",""trial"",""time""
""fullscreenenter"",""1"",""1251""
","
","
","""event"",""trial"",""time""
""fullscreenenter"",""1"",""1251""
","
","","","","","","null","<div style=""font-size:60px;"">+</div>","null","","fixation","","",""
"memory-trial","68","233510","0.0-18.0-1.12","7589","approach_avoid_sv1","""event"",""trial"",""time""
""fullscreenenter"",""1"",""1251""
","
","
","""event"",""trial"",""time""
""fullscreenenter"",""1"",""1251""
","
","","","","","","1741.5","images/cat6.png","","","memory_trial","4","definitely_new",""
"html-keyboard-response","69","234011","0.0-18.0-0.13","7589","approach_avoid_sv1","""event"",""trial"",""time""
""fullscreenenter"",""1"",""1251""
","
","
","""event"",""trial"",""time""
""fullscreenenter"",""1"",""1251""
","
","","","","","","null","<div style=""font-size:60px;"">+</div>","null","","fixation","","",""
"memory-trial","70","238616","0.0-18.0-1.13","7589","approach_avoid_sv1","""event"",""trial"",""time""
""fullscreenenter"",""1"",""1251""
","
","
","""event"",""trial"",""time""
""fullscreenenter"",""1"",""1251""
","
","","","","","","3600.099999964237","images/horse7.png","","","memory_trial","2","maybe_old",""
"html-keyboard-response","71","239118","0.0-18.0-0.14","7589","approach_avoid_sv1","""event"",""trial"",""time""
""fullscreenenter"",""1"",""1251""
","
","
","""event"",""trial"",""time""
""fullscreenenter"",""1"",""1251""
","
","","","","","","null","<div style=""font-size:60px;"">+</div>","null","","fixation","","",""
"memory-trial","72","241616","0.0-18.0-1.14","7589","approach_avoid_sv1","""event"",""trial"",""time""
""fullscreenenter"",""1"",""1251""
","
","
","""event"",""trial"",""time""
""fullscreenenter"",""1"",""1251""
","
","","","","","","1494.7000000476837","images/goat8.png","","","memory_trial","2","maybe_old",""
"html-keyboard-response","73","242118","0.0-18.0-0.15","7589","approach_avoid_sv1","""event"",""trial"",""time""
""fullscreenenter"",""1"",""1251""
","
","
","""event"",""trial"",""time""
""fullscreenenter"",""1"",""1251""
","
","","","","","","null","<div style=""font-size:60px;"">+</div>","null","","fixation","","",""
"memory-trial","74","244538","0.0-18.0-1.15","7589","approach_avoid_sv1","""event"",""trial"",""time""
""fullscreenenter"",""1"",""1251""
","
","
","""event"",""trial"",""time""
""fullscreenenter"",""1"",""1251""
","
","","","","","","1416.2999999523163","images/train3.png","","","memory_trial","4","definitely_new",""
"html-keyboard-response","75","245040","0.0-18.0-0.16","7589","approach_avoid_sv1","""event"",""trial"",""time""
""fullscreenenter"",""1"",""1251""
","
","
","""event"",""trial"",""time""
""fullscreenenter"",""1"",""1251""
","
","","","","","","null","<div style=""font-size:60px;"">+</div>","null","","fixation","","",""
"memory-trial","76","247869","0.0-18.0-1.16","7589","approach_avoid_sv1","""event"",""trial"",""time""
""fullscreenenter"",""1"",""1251""
","
","
","""event"",""trial"",""time""
""fullscreenenter"",""1"",""1251""
","
","","","","","","1822.1000000238419","images/banana2.png","","","memory_trial","2","maybe_old",""
"html-keyboard-response","77","248371","0.0-18.0-0.17","7589","approach_avoid_sv1","""event"",""trial"",""time""
""fullscreenenter"",""1"",""1251""
","
","
","""event"",""trial"",""time""
""fullscreenenter"",""1"",""1251""
","
","","","","","","null","<div style=""font-size:60px;"">+</div>","null","","fixation","","",""
"memory-trial","78","250712","0.0-18.0-1.17","7589","approach_avoid_sv1","""event"",""trial"",""time""
""fullscreenenter"",""1"",""1251""
","
","
","""event"",""trial"",""time""
""fullscreenenter"",""1"",""1251""
","
","","","","","","1335.300000011921","images/boat8.png","","","memory_trial","4","definitely_new",""
"html-keyboard-response","79","251214","0.0-18.0-0.18","7589","approach_avoid_sv1","""event"",""trial"",""time""
""fullscreenenter"",""1"",""1251""
","
","
","""event"",""trial"",""time""
""fullscreenenter"",""1"",""1251""
","
","","","","","","null","<div style=""font-size:60px;"">+</div>","null","","fixation","","",""
"memory-trial","80","254320","0.0-18.0-1.18","7589","approach_avoid_sv1","""event"",""trial"",""time""
""fullscreenenter"",""1"",""1251""
","
","
","""event"",""trial"",""time""
""fullscreenenter"",""1"",""1251""
","
","","","","","","2102.099999964237","images/horse1.png","","","memory_trial","3","maybe_new",""
"html-keyboard-response","81","254821","0.0-18.0-0.19","7589","approach_avoid_sv1","""event"",""trial"",""time""
""fullscreenenter"",""1"",""1251""
","
","
","""event"",""trial"",""time""
""fullscreenenter"",""1"",""1251""
","
","","","","","","null","<div style=""font-size:60px;"">+</div>","null","","fixation","","",""
"memory-trial","82","257080","0.0-18.0-1.19","7589","approach_avoid_sv1","""event"",""trial"",""time""
""fullscreenenter"",""1"",""1251""
","
","
","""event"",""trial"",""time""
""fullscreenenter"",""1"",""1251""
","
","","","","","","1255","images/goat4.png","","","memory_trial","3","maybe_new",""
"html-keyboard-response","83","257581","0.0-18.0-0.20","7589","approach_avoid_sv1","""event"",""trial"",""time""
""fullscreenenter"",""1"",""1251""
","
","
","""event"",""trial"",""time""
""fullscreenenter"",""1"",""1251""
","
","","","","","","null","<div style=""font-size:60px;"">+</div>","null","","fixation","","",""
"memory-trial","84","259697","0.0-18.0-1.20","7589","approach_avoid_sv1","""event"",""trial"",""time""
""fullscreenenter"",""1"",""1251""
","
","
","""event"",""trial"",""time""
""fullscreenenter"",""1"",""1251""
","
","","","","","","1112.7000000476837","images/truck2.png","","","memory_trial","1","definitely_old",""
"html-keyboard-response","85","260199","0.0-18.0-0.21","7589","approach_avoid_sv1","""event"",""trial"",""time""
""fullscreenenter"",""1"",""1251""
","
","
","""event"",""trial"",""time""
""fullscreenenter"",""1"",""1251""
","
","","","","","","null","<div style=""font-size:60px;"">+</div>","null","","fixation","","",""
"memory-trial","86","262766","0.0-18.0-1.21","7589","approach_avoid_sv1","""event"",""trial"",""time""
""fullscreenenter"",""1"",""1251""
","
","
","""event"",""trial"",""time""
""fullscreenenter"",""1"",""1251""
","
","","","","","","1564.1000000238419","images/sofa7.png","","","memory_trial","2","maybe_old",""
"html-keyboard-response","87","263277","0.0-18.0-0.22","7589","approach_avoid_sv1","""event"",""trial"",""time""
""fullscreenenter"",""1"",""1251""
","
","
","""event"",""trial"",""time""
""fullscreenenter"",""1"",""1251""
","
","","","","","","null","<div style=""font-size:60px;"">+</div>","null","","fixation","","",""
"memory-trial","88","265987","0.0-18.0-1.22","7589","approach_avoid_sv1","""event"",""trial"",""time""
""fullscreenenter"",""1"",""1251""
","
","
","""event"",""trial"",""time""
""fullscreenenter"",""1"",""1251""
","
","","","","","","1707.1000000238419","images/sofa6.png","","","memory_trial","2","maybe_old",""
"html-keyboard-response","89","266488","0.0-18.0-0.23","7589","approach_avoid_sv1","""event"",""trial"",""time""
""fullscreenenter"",""1"",""1251""
","
","
","""event"",""trial"",""time""
""fullscreenenter"",""1"",""1251""
","
","","","","","","null","<div style=""font-size:60px;"">+</div>","null","","fixation","","",""
"memory-trial","90","269977","0.0-18.0-1.23","7589","approach_avoid_sv1","""event"",""trial"",""time""
""fullscreenenter"",""1"",""1251""
","
","
","""event"",""trial"",""time""
""fullscreenenter"",""1"",""1251""
","
","","","","","","2483.099999964237","images/horse8.png","","","memory_trial","3","maybe_new",""
"html-keyboard-response","91","270478","0.0-18.0-0.24","7589","approach_avoid_sv1","""event"",""trial"",""time""
""fullscreenenter"",""1"",""1251""
","
","
","""event"",""trial"",""time""
""fullscreenenter"",""1"",""1251""
","
","","","","","","null","<div style=""font-size:60px;"">+</div>","null","","fixation","","",""
"memory-trial","92","273602","0.0-18.0-1.24","7589","approach_avoid_sv1","""event"",""trial"",""time""
""fullscreenenter"",""1"",""1251""
","
","
","""event"",""trial"",""time""
""fullscreenenter"",""1"",""1251""
","
","","","","","","2119.399999976158","images/cow5.png","","","memory_trial","4","definitely_new",""
"html-keyboard-response","93","274104","0.0-18.0-0.25","7589","approach_avoid_sv1","""event"",""trial"",""time""
""fullscreenenter"",""1"",""1251""
","
","
","""event"",""trial"",""time""
""fullscreenenter"",""1"",""1251""
","
","","","","","","null","<div style=""font-size:60px;"">+</div>","null","","fixation","","",""
"memory-trial","94","276717","0.0-18.0-1.25","7589","approach_avoid_sv1","""event"",""trial"",""time""
""fullscreenenter"",""1"",""1251""
","
","
","""event"",""trial"",""time""
""fullscreenenter"",""1"",""1251""
","
","","","","","","1611.199999988079","images/table4.png","","","memory_trial","3","maybe_new",""
"html-keyboard-response","95","277218","0.0-18.0-0.26","7589","approach_avoid_sv1","""event"",""trial"",""time""
""fullscreenenter"",""1"",""1251""
","
","
","""event"",""trial"",""time""
""fullscreenenter"",""1"",""1251""
","
","","","","","","null","<div style=""font-size:60px;"">+</div>","null","","fixation","","",""
"memory-trial","96","279385","0.0-18.0-1.26","7589","approach_avoid_sv1","""event"",""trial"",""time""
""fullscreenenter"",""1"",""1251""
","
","
","""event"",""trial"",""time""
""fullscreenenter"",""1"",""1251""
","
","","","","","","1162.8999999761581","images/apple1.png","","","memory_trial","4","definitely_new",""
"html-keyboard-response","97","279887","0.0-18.0-0.27","7589","approach_avoid_sv1","""event"",""trial"",""time""
""fullscreenenter"",""1"",""1251""
","
","
","""event"",""trial"",""time""
""fullscreenenter"",""1"",""1251""
","
","","","","","","null","<div style=""font-size:60px;"">+</div>","null","","fixation","","",""
"memory-trial","98","283982","0.0-18.0-1.27","7589","approach_avoid_sv1","""event"",""trial"",""time""
""fullscreenenter"",""1"",""1251""
","
","
","""event"",""trial"",""time""
""fullscreenenter"",""1"",""1251""
","
","","","","","","3092.300000011921","images/sofa2.png","","","memory_trial","3","maybe_new",""
"html-keyboard-response","99","284487","0.0-18.0-0.28","7589","approach_avoid_sv1","""event"",""trial"",""time""
""fullscreenenter"",""1"",""1251""
","
","
","""event"",""trial"",""time""
""fullscreenenter"",""1"",""1251""
","
","","","","","","null","<div style=""font-size:60px;"">+</div>","null","","fixation","","",""
"memory-trial","100","286781","0.0-18.0-1.28","7589","approach_avoid_sv1","""event"",""trial"",""time""
""fullscreenenter"",""1"",""1251""
","
","
","""event"",""trial"",""time""
""fullscreenenter"",""1"",""1251""
","
","","","","","","1285.3999999761581","images/boat7.png","","","memory_trial","3","maybe_new",""
"html-keyboard-response","101","287282","0.0-18.0-0.29","7589","approach_avoid_sv1","""event"",""trial"",""time""
""fullscreenenter"",""1"",""1251""
","
","
","""event"",""trial"",""time""
""fullscreenenter"",""1"",""1251""
","
","","","","","","null","<div style=""font-size:60px;"">+</div>","null","","fixation","","",""
"memory-trial","102","289270","0.0-18.0-1.29","7589","approach_avoid_sv1","""event"",""trial"",""time""
""fullscreenenter"",""1"",""1251""
","
","
","""event"",""trial"",""time""
""fullscreenenter"",""1"",""1251""
","
","","","","","","985.6999999880791","images/cactus5.png","","","memory_trial","1","definitely_old",""
"html-keyboard-response","103","289783","0.0-18.0-0.30","7589","approach_avoid_sv1","""event"",""trial"",""time""
""fullscreenenter"",""1"",""1251""
","
","
","""event"",""trial"",""time""
""fullscreenenter"",""1"",""1251""
","
","","","","","","null","<div style=""font-size:60px;"">+</div>","null","","fixation","","",""
"memory-trial","104","292223","0.0-18.0-1.30","7589","approach_avoid_sv1","""event"",""trial"",""time""
""fullscreenenter"",""1"",""1251""
","
","
","""event"",""trial"",""time""
""fullscreenenter"",""1"",""1251""
","
","","","","","","1437","images/truck7.png","","","memory_trial","2","maybe_old",""
"html-keyboard-response","105","292724","0.0-18.0-0.31","7589","approach_avoid_sv1","""event"",""trial"",""time""
""fullscreenenter"",""1"",""1251""
","
","
","""event"",""trial"",""time""
""fullscreenenter"",""1"",""1251""
","
","","","","","","null","<div style=""font-size:60px;"">+</div>","null","","fixation","","",""
"memory-trial","106","294803","0.0-18.0-1.31","7589","approach_avoid_sv1","""event"",""trial"",""time""
""fullscreenenter"",""1"",""1251""
","
","
","""event"",""trial"",""time""
""fullscreenenter"",""1"",""1251""
","
","","","","","","1075.699999988079","images/plane6.png","","","memory_trial","2","maybe_old",""
"html-keyboard-response","107","295304","0.0-18.0-0.32","7589","approach_avoid_sv1","""event"",""trial"",""time""
""fullscreenenter"",""1"",""1251""
","
","
","""event"",""trial"",""time""
""fullscreenenter"",""1"",""1251""
","
","","","","","","null","<div style=""font-size:60px;"">+</div>","null","","fixation","","",""
"memory-trial","108","297282","0.0-18.0-1.32","7589","approach_avoid_sv1","""event"",""trial"",""time""
""fullscreenenter"",""1"",""1251""
","
","
","""event"",""trial"",""time""
""fullscreenenter"",""1"",""1251""
","
","","","","","","975","images/cactus2.png","","","memory_trial","1","definitely_old",""
"html-keyboard-response","109","297784","0.0-18.0-0.33","7589","approach_avoid_sv1","""event"",""trial"",""time""
""fullscreenenter"",""1"",""1251""
","
","
","""event"",""trial"",""time""
""fullscreenenter"",""1"",""1251""
","
","","","","","","null","<div style=""font-size:60px;"">+</div>","null","","fixation","","",""
"memory-trial","110","301068","0.0-18.0-1.33","7589","approach_avoid_sv1","""event"",""trial"",""time""
""fullscreenenter"",""1"",""1251""
","
","
","""event"",""trial"",""time""
""fullscreenenter"",""1"",""1251""
","
","","","","","","2278.2999999523163","images/rodent6.png","","","memory_trial","3","maybe_new",""
"html-keyboard-response","111","301569","0.0-18.0-0.34","7589","approach_avoid_sv1","""event"",""trial"",""time""
""fullscreenenter"",""1"",""1251""
","
","
","""event"",""trial"",""time""
""fullscreenenter"",""1"",""1251""
","
","","","","","","null","<div style=""font-size:60px;"">+</div>","null","","fixation","","",""
"memory-trial","112","303798","0.0-18.0-1.34","7589","approach_avoid_sv1","""event"",""trial"",""time""
""fullscreenenter"",""1"",""1251""
","
","
","""event"",""trial"",""time""
""fullscreenenter"",""1"",""1251""
","
","","","","","","1224.5999999642372","images/rodent7.png","","","memory_trial","3","maybe_new",""
"html-keyboard-response","113","304301","0.0-18.0-0.35","7589","approach_avoid_sv1","""event"",""trial"",""time""
""fullscreenenter"",""1"",""1251""
","
","
","""event"",""trial"",""time""
""fullscreenenter"",""1"",""1251""
","
","","","","","","null","<div style=""font-size:60px;"">+</div>","null","","fixation","","",""
"memory-trial","114","306462","0.0-18.0-1.35","7589","approach_avoid_sv1","""event"",""trial"",""time""
""fullscreenenter"",""1"",""1251""
","
","
","""event"",""trial"",""time""
""fullscreenenter"",""1"",""1251""
","
","","","","","","1157.5","images/sofa1.png","","","memory_trial","2","maybe_old",""
"html-keyboard-response","115","306968","0.0-18.0-0.36","7589","approach_avoid_sv1","""event"",""trial"",""time""
""fullscreenenter"",""1"",""1251""
","
","
","""event"",""trial"",""time""
""fullscreenenter"",""1"",""1251""
","
","","","","","","null","<div style=""font-size:60px;"">+</div>","null","","fixation","","",""
"memory-trial","116","309430","0.0-18.0-1.36","7589","approach_avoid_sv1","""event"",""trial"",""time""
""fullscreenenter"",""1"",""1251""
","
","
","""event"",""trial"",""time""
""fullscreenenter"",""1"",""1251""
","
","","","","","","1457.699999988079","images/boat4.png","","","memory_trial","1","definitely_old",""
"html-keyboard-response","117","309932","0.0-18.0-0.37","7589","approach_avoid_sv1","""event"",""trial"",""time""
""fullscreenenter"",""1"",""1251""
","
","
","""event"",""trial"",""time""
""fullscreenenter"",""1"",""1251""
","
","","","","","","null","<div style=""font-size:60px;"">+</div>","null","","fixation","","",""
"memory-trial","118","311880","0.0-18.0-1.37","7589","approach_avoid_sv1","""event"",""trial"",""time""
""fullscreenenter"",""1"",""1251""
","
","
","""event"",""trial"",""time""
""fullscreenenter"",""1"",""1251""
","
","","","","","","944.1000000238419","images/rabbit7.png","","","memory_trial","1","definitely_old",""
"html-keyboard-response","119","312382","0.0-18.0-0.38","7589","approach_avoid_sv1","""event"",""trial"",""time""
""fullscreenenter"",""1"",""1251""
","
","
","""event"",""trial"",""time""
""fullscreenenter"",""1"",""1251""
","
","","","","","","null","<div style=""font-size:60px;"">+</div>","null","","fixation","","",""
"memory-trial","120","314685","0.0-18.0-1.38","7589","approach_avoid_sv1","""event"",""trial"",""time""
""fullscreenenter"",""1"",""1251""
","
","
","""event"",""trial"",""time""
""fullscreenenter"",""1"",""1251""
","
","","","","","","1290.3999999761581","images/bed8.png","","","memory_trial","4","definitely_new",""
"html-keyboard-response","121","315187","0.0-18.0-0.39","7589","approach_avoid_sv1","""event"",""trial"",""time""
""fullscreenenter"",""1"",""1251""
","
","
","""event"",""trial"",""time""
""fullscreenenter"",""1"",""1251""
","
","","","","","","null","<div style=""font-size:60px;"">+</div>","null","","fixation","","",""
"memory-trial","122","317440","0.0-18.0-1.39","7589","approach_avoid_sv1","""event"",""trial"",""time""
""fullscreenenter"",""1"",""1251""
","
","
","""event"",""trial"",""time""
""fullscreenenter"",""1"",""1251""
","
","","","","","","1248.6000000238419","images/bush5.png","","","memory_trial","4","definitely_new",""
"html-keyboard-response","123","317946","0.0-18.0-0.40","7589","approach_avoid_sv1","""event"",""trial"",""time""
""fullscreenenter"",""1"",""1251""
","
","
","""event"",""trial"",""time""
""fullscreenenter"",""1"",""1251""
","
","","","","","","null","<div style=""font-size:60px;"">+</div>","null","","fixation","","",""
"memory-trial","124","320841","0.0-18.0-1.40","7589","approach_avoid_sv1","""event"",""trial"",""time""
""fullscreenenter"",""1"",""1251""
","
","
","""event"",""trial"",""time""
""fullscreenenter"",""1"",""1251""
","
","","","","","","1891.0999999642372","images/flower2.png","","","memory_trial","3","maybe_new",""
"html-keyboard-response","125","321356","0.0-18.0-0.41","7589","approach_avoid_sv1","""event"",""trial"",""time""
""fullscreenenter"",""1"",""1251""
","
","
","""event"",""trial"",""time""
""fullscreenenter"",""1"",""1251""
","
","","","","","","null","<div style=""font-size:60px;"">+</div>","null","","fixation","","",""
"memory-trial","126","324140","0.0-18.0-1.41","7589","approach_avoid_sv1","""event"",""trial"",""time""
""fullscreenenter"",""1"",""1251""
","
","
","""event"",""trial"",""time""
""fullscreenenter"",""1"",""1251""
","
","","","","","","1782.7000000476837","images/sheep3.png","","","memory_trial","2","maybe_old",""
"html-button-response","127","326261","0.0-18.0-2.41-0.41","7589","approach_avoid_sv1","""event"",""trial"",""time""
""fullscreenenter"",""1"",""1251""
","
","
","""event"",""trial"",""time""
""fullscreenenter"",""1"",""1251""
","
","","","","","","2118.899999976158","<p> Take a break! </p><p> Click the button to continue. </p>","0","","break","","",""
"html-keyboard-response","128","326766","0.0-18.0-0.42","7589","approach_avoid_sv1","""event"",""trial"",""time""
""fullscreenenter"",""1"",""1251""
","
","
","""event"",""trial"",""time""
""fullscreenenter"",""1"",""1251""
","
","","","","","","null","<div style=""font-size:60px;"">+</div>","null","","fixation","","",""
"memory-trial","129","329957","0.0-18.0-1.42","7589","approach_avoid_sv1","""event"",""trial"",""time""
""fullscreenenter"",""1"",""1251""
","
","
","""event"",""trial"",""time""
""fullscreenenter"",""1"",""1251""
","
","","","","","","2185.5","images/sofa5.png","","","memory_trial","3","maybe_new",""
"html-keyboard-response","130","330459","0.0-18.0-0.43","7589","approach_avoid_sv1","""event"",""trial"",""time""
""fullscreenenter"",""1"",""1251""
","
","
","""event"",""trial"",""time""
""fullscreenenter"",""1"",""1251""
","
","","","","","","null","<div style=""font-size:60px;"">+</div>","null","","fixation","","",""
"memory-trial","131","333487","0.0-18.0-1.43","7589","approach_avoid_sv1","""event"",""trial"",""time""
""fullscreenenter"",""1"",""1251""
","
","
","""event"",""trial"",""time""
""fullscreenenter"",""1"",""1251""
","
","","","","","","2023.199999988079","images/orange3.png","","","memory_trial","4","definitely_new",""
"html-keyboard-response","132","333988","0.0-18.0-0.44","7589","approach_avoid_sv1","""event"",""trial"",""time""
""fullscreenenter"",""1"",""1251""
","
","
","""event"",""trial"",""time""
""fullscreenenter"",""1"",""1251""
","
","","","","","","null","<div style=""font-size:60px;"">+</div>","null","","fixation","","",""
"memory-trial","133","336012","0.0-18.0-1.44","7589","approach_avoid_sv1","""event"",""trial"",""time""
""fullscreenenter"",""1"",""1251""
","
","
","""event"",""trial"",""time""
""fullscreenenter"",""1"",""1251""
","
","","","","","","1021.0999999642372","images/chair4.png","","","memory_trial","4","definitely_new",""
"html-keyboard-response","134","336514","0.0-18.0-0.45","7589","approach_avoid_sv1","""event"",""trial"",""time""
""fullscreenenter"",""1"",""1251""
","
","
","""event"",""trial"",""time""
""fullscreenenter"",""1"",""1251""
","
","","","","","","null","<div style=""font-size:60px;"">+</div>","null","","fixation","","",""
"memory-trial","135","338568","0.0-18.0-1.45","7589","approach_avoid_sv1","""event"",""trial"",""time""
""fullscreenenter"",""1"",""1251""
","
","
","""event"",""trial"",""time""
""fullscreenenter"",""1"",""1251""
","
","","","","","","1050.0999999642372","images/chair8.png","","","memory_trial","1","definitely_old",""
"html-keyboard-response","136","339072","0.0-18.0-0.46","7589","approach_avoid_sv1","""event"",""trial"",""time""
""fullscreenenter"",""1"",""1251""
","
","
","""event"",""trial"",""time""
""fullscreenenter"",""1"",""1251""
","
","","","","","","null","<div style=""font-size:60px;"">+</div>","null","","fixation","","",""
"memory-trial","137","341110","0.0-18.0-1.46","7589","approach_avoid_sv1","""event"",""trial"",""time""
""fullscreenenter"",""1"",""1251""
","
","
","""event"",""trial"",""time""
""fullscreenenter"",""1"",""1251""
","
","","","","","","1034.300000011921","images/plane1.png","","","memory_trial","4","definitely_new",""
"html-keyboard-response","138","341611","0.0-18.0-0.47","7589","approach_avoid_sv1","""event"",""trial"",""time""
""fullscreenenter"",""1"",""1251""
","
","
","""event"",""trial"",""time""
""fullscreenenter"",""1"",""1251""
","
","","","","","","null","<div style=""font-size:60px;"">+</div>","null","","fixation","","",""
"memory-trial","139","344721","0.0-18.0-1.47","7589","approach_avoid_sv1","""event"",""trial"",""time""
""fullscreenenter"",""1"",""1251""
","
","
","""event"",""trial"",""time""
""fullscreenenter"",""1"",""1251""
","
","","","","","","2107.800000011921","images/banana1.png","","","memory_trial","2","maybe_old",""
"html-keyboard-response","140","345222","0.0-18.0-0.48","7589","approach_avoid_sv1","""event"",""trial"",""time""
""fullscreenenter"",""1"",""1251""
","
","
","""event"",""trial"",""time""
""fullscreenenter"",""1"",""1251""
","
","","","","","","null","<div style=""font-size:60px;"">+</div>","null","","fixation","","",""
"memory-trial","141","348200","0.0-18.0-1.48","7589","approach_avoid_sv1","""event"",""trial"",""time""
""fullscreenenter"",""1"",""1251""
","
","
","""event"",""trial"",""time""
""fullscreenenter"",""1"",""1251""
","
","","","","","","1973.699999988079","images/sheep6.png","","","memory_trial","3","maybe_new",""
"html-keyboard-response","142","348711","0.0-18.0-0.49","7589","approach_avoid_sv1","""event"",""trial"",""time""
""fullscreenenter"",""1"",""1251""
","
","
","""event"",""trial"",""time""
""fullscreenenter"",""1"",""1251""
","
","","","","","","null","<div style=""font-size:60px;"">+</div>","null","","fixation","","",""
"memory-trial","143","350967","0.0-18.0-1.49","7589","approach_avoid_sv1","""event"",""trial"",""time""
""fullscreenenter"",""1"",""1251""
","
","
","""event"",""trial"",""time""
""fullscreenenter"",""1"",""1251""
","
","","","","","","1252.199999988079","images/orange5.png","","","memory_trial","4","definitely_new",""
"html-keyboard-response","144","351469","0.0-18.0-0.50","7589","approach_avoid_sv1","""event"",""trial"",""time""
""fullscreenenter"",""1"",""1251""
","
","
","""event"",""trial"",""time""
""fullscreenenter"",""1"",""1251""
","
","","","","","","null","<div style=""font-size:60px;"">+</div>","null","","fixation","","",""
"memory-trial","145","353905","0.0-18.0-1.50","7589","approach_avoid_sv1","""event"",""trial"",""time""
""fullscreenenter"",""1"",""1251""
","
","
","""event"",""trial"",""time""
""fullscreenenter"",""1"",""1251""
","
","","","","","","1433.7000000476837","images/cat3.png","","","memory_trial","4","definitely_new",""
"html-keyboard-response","146","354408","0.0-18.0-0.51","7589","approach_avoid_sv1","""event"",""trial"",""time""
""fullscreenenter"",""1"",""1251""
","
","
","""event"",""trial"",""time""
""fullscreenenter"",""1"",""1251""
","
","","","","","","null","<div style=""font-size:60px;"">+</div>","null","","fixation","","",""
"memory-trial","147","356487","0.0-18.0-1.51","7589","approach_avoid_sv1","""event"",""trial"",""time""
""fullscreenenter"",""1"",""1251""
","
","
","""event"",""trial"",""time""
""fullscreenenter"",""1"",""1251""
","
","","","","","","1075.8999999761581","images/bed4.png","","","memory_trial","4","definitely_new",""
"html-keyboard-response","148","356988","0.0-18.0-0.52","7589","approach_avoid_sv1","""event"",""trial"",""time""
""fullscreenenter"",""1"",""1251""
","
","
","""event"",""trial"",""time""
""fullscreenenter"",""1"",""1251""
","
","","","","","","null","<div style=""font-size:60px;"">+</div>","null","","fixation","","",""
"memory-trial","149","359243","0.0-18.0-1.52","7589","approach_avoid_sv1","""event"",""trial"",""time""
""fullscreenenter"",""1"",""1251""
","
","
","""event"",""trial"",""time""
""fullscreenenter"",""1"",""1251""
","
","","","","","","1252.9000000357628","images/table6.png","","","memory_trial","1","definitely_old",""
"html-keyboard-response","150","359744","0.0-18.0-0.53","7589","approach_avoid_sv1","""event"",""trial"",""time""
""fullscreenenter"",""1"",""1251""
","
","
","""event"",""trial"",""time""
""fullscreenenter"",""1"",""1251""
","
","","","","","","null","<div style=""font-size:60px;"">+</div>","null","","fixation","","",""
"memory-trial","151","362116","0.0-18.0-1.53","7589","approach_avoid_sv1","""event"",""trial"",""time""
""fullscreenenter"",""1"",""1251""
","
","
","""event"",""trial"",""time""
""fullscreenenter"",""1"",""1251""
","
","","","","","","1369.6000000238419","images/banana4.png","","","memory_trial","4","definitely_new",""
"html-keyboard-response","152","362618","0.0-18.0-0.54","7589","approach_avoid_sv1","""event"",""trial"",""time""
""fullscreenenter"",""1"",""1251""
","
","
","""event"",""trial"",""time""
""fullscreenenter"",""1"",""1251""
","
","","","","","","null","<div style=""font-size:60px;"">+</div>","null","","fixation","","",""
"memory-trial","153","364775","0.0-18.0-1.54","7589","approach_avoid_sv1","""event"",""trial"",""time""
""fullscreenenter"",""1"",""1251""
","
","
","""event"",""trial"",""time""
""fullscreenenter"",""1"",""1251""
","
","","","","","","1154.6000000238419","images/orange4.png","","","memory_trial","4","definitely_new",""
"html-keyboard-response","154","365277","0.0-18.0-0.55","7589","approach_avoid_sv1","""event"",""trial"",""time""
""fullscreenenter"",""1"",""1251""
","
","
","""event"",""trial"",""time""
""fullscreenenter"",""1"",""1251""
","
","","","","","","null","<div style=""font-size:60px;"">+</div>","null","","fixation","","",""
"memory-trial","155","367280","0.0-18.0-1.55","7589","approach_avoid_sv1","""event"",""trial"",""time""
""fullscreenenter"",""1"",""1251""
","
","
","""event"",""trial"",""time""
""fullscreenenter"",""1"",""1251""
","
","","","","","","1000.5999999642372","images/bed7.png","","","memory_trial","4","definitely_new",""
"html-keyboard-response","156","367783","0.0-18.0-0.56","7589","approach_avoid_sv1","""event"",""trial"",""time""
""fullscreenenter"",""1"",""1251""
","
","
","""event"",""trial"",""time""
""fullscreenenter"",""1"",""1251""
","
","","","","","","null","<div style=""font-size:60px;"">+</div>","null","","fixation","","",""
"memory-trial","157","371579","0.0-18.0-1.56","7589","approach_avoid_sv1","""event"",""trial"",""time""
""fullscreenenter"",""1"",""1251""
","
","
","""event"",""trial"",""time""
""fullscreenenter"",""1"",""1251""
","
","","","","","","2794.900000035763","images/cow7.png","","","memory_trial","2","maybe_old",""
"html-keyboard-response","158","372081","0.0-18.0-0.57","7589","approach_avoid_sv1","""event"",""trial"",""time""
""fullscreenenter"",""1"",""1251""
","
","
","""event"",""trial"",""time""
""fullscreenenter"",""1"",""1251""
","
","","","","","","null","<div style=""font-size:60px;"">+</div>","null","","fixation","","",""
"memory-trial","159","375410","0.0-18.0-1.57","7589","approach_avoid_sv1","""event"",""trial"",""time""
""fullscreenenter"",""1"",""1251""
","
","
","""event"",""trial"",""time""
""fullscreenenter"",""1"",""1251""
","
","","","","","","2326.100000023842","images/rabbit2.png","","","memory_trial","4","definitely_new",""
"html-keyboard-response","160","375911","0.0-18.0-0.58","7589","approach_avoid_sv1","""event"",""trial"",""time""
""fullscreenenter"",""1"",""1251""
","
","
","""event"",""trial"",""time""
""fullscreenenter"",""1"",""1251""
","
","","","","","","null","<div style=""font-size:60px;"">+</div>","null","","fixation","","",""
"memory-trial","161","378137","0.0-18.0-1.58","7589","approach_avoid_sv1","""event"",""trial"",""time""
""fullscreenenter"",""1"",""1251""
","
","
","""event"",""trial"",""time""
""fullscreenenter"",""1"",""1251""
","
","","","","","","1223.3999999761581","images/rabbit1.png","","","memory_trial","1","definitely_old",""
"html-keyboard-response","162","378638","0.0-18.0-0.59","7589","approach_avoid_sv1","""event"",""trial"",""time""
""fullscreenenter"",""1"",""1251""
","
","
","""event"",""trial"",""time""
""fullscreenenter"",""1"",""1251""
","
","","","","","","null","<div style=""font-size:60px;"">+</div>","null","","fixation","","",""
"memory-trial","163","380580","0.0-18.0-1.59","7589","approach_avoid_sv1","""event"",""trial"",""time""
""fullscreenenter"",""1"",""1251""
","
","
","""event"",""trial"",""time""
""fullscreenenter"",""1"",""1251""
","
","","","","","","939.5","images/bed2.png","","","memory_trial","4","definitely_new",""
"html-keyboard-response","164","381081","0.0-18.0-0.60","7589","approach_avoid_sv1","""event"",""trial"",""time""
""fullscreenenter"",""1"",""1251""
","
","
","""event"",""trial"",""time""
""fullscreenenter"",""1"",""1251""
","
","","","","","","null","<div style=""font-size:60px;"">+</div>","null","","fixation","","",""
"memory-trial","165","383534","0.0-18.0-1.60","7589","approach_avoid_sv1","""event"",""trial"",""time""
""fullscreenenter"",""1"",""1251""
","
","
","""event"",""trial"",""time""
""fullscreenenter"",""1"",""1251""
","
","","","","","","1450.5","images/sheep8.png","","","memory_trial","2","maybe_old",""
"html-keyboard-response","166","384035","0.0-18.0-0.61","7589","approach_avoid_sv1","""event"",""trial"",""time""
""fullscreenenter"",""1"",""1251""
","
","
","""event"",""trial"",""time""
""fullscreenenter"",""1"",""1251""
","
","","","","","","null","<div style=""font-size:60px;"">+</div>","null","","fixation","","",""
"memory-trial","167","386386","0.0-18.0-1.61","7589","approach_avoid_sv1","""event"",""trial"",""time""
""fullscreenenter"",""1"",""1251""
","
","
","""event"",""trial"",""time""
""fullscreenenter"",""1"",""1251""
","
","","","","","","1349.5","images/cactus6.png","","","memory_trial","3","maybe_new",""
"html-keyboard-response","168","386888","0.0-18.0-0.62","7589","approach_avoid_sv1","""event"",""trial"",""time""
""fullscreenenter"",""1"",""1251""
","
","
","""event"",""trial"",""time""
""fullscreenenter"",""1"",""1251""
","
","","","","","","null","<div style=""font-size:60px;"">+</div>","null","","fixation","","",""
"memory-trial","169","389578","0.0-18.0-1.62","7589","approach_avoid_sv1","""event"",""trial"",""time""
""fullscreenenter"",""1"",""1251""
","
","
","""event"",""trial"",""time""
""fullscreenenter"",""1"",""1251""
","
","","","","","","1687","images/table8.png","","","memory_trial","2","maybe_old",""
"html-keyboard-response","170","390079","0.0-18.0-0.63","7589","approach_avoid_sv1","""event"",""trial"",""time""
""fullscreenenter"",""1"",""1251""
","
","
","""event"",""trial"",""time""
""fullscreenenter"",""1"",""1251""
","
","","","","","","null","<div style=""font-size:60px;"">+</div>","null","","fixation","","",""
"memory-trial","171","392720","0.0-18.0-1.63","7589","approach_avoid_sv1","""event"",""trial"",""time""
""fullscreenenter"",""1"",""1251""
","
","
","""event"",""trial"",""time""
""fullscreenenter"",""1"",""1251""
","
","","","","","","1638.6000000238419","images/cow4.png","","","memory_trial","3","maybe_new",""
"html-keyboard-response","172","393222","0.0-18.0-0.64","7589","approach_avoid_sv1","""event"",""trial"",""time""
""fullscreenenter"",""1"",""1251""
","
","
","""event"",""trial"",""time""
""fullscreenenter"",""1"",""1251""
","
","","","","","","null","<div style=""font-size:60px;"">+</div>","null","","fixation","","",""
"memory-trial","173","395358","0.0-18.0-1.64","7589","approach_avoid_sv1","""event"",""trial"",""time""
""fullscreenenter"",""1"",""1251""
","
","
","""event"",""trial"",""time""
""fullscreenenter"",""1"",""1251""
","
","","","","","","1132","images/sheep5.png","","","memory_trial","3","maybe_new",""
"html-keyboard-response","174","395860","0.0-18.0-0.65","7589","approach_avoid_sv1","""event"",""trial"",""time""
""fullscreenenter"",""1"",""1251""
","
","
","""event"",""trial"",""time""
""fullscreenenter"",""1"",""1251""
","
","","","","","","null","<div style=""font-size:60px;"">+</div>","null","","fixation","","",""
"memory-trial","175","397783","0.0-18.0-1.65","7589","approach_avoid_sv1","""event"",""trial"",""time""
""fullscreenenter"",""1"",""1251""
","
","
","""event"",""trial"",""time""
""fullscreenenter"",""1"",""1251""
","
","","","","","","919.1999999880791","images/dog2.png","","","memory_trial","1","definitely_old",""
"html-keyboard-response","176","398285","0.0-18.0-0.66","7589","approach_avoid_sv1","""event"",""trial"",""time""
""fullscreenenter"",""1"",""1251""
","
","
","""event"",""trial"",""time""
""fullscreenenter"",""1"",""1251""
","
","","","","","","null","<div style=""font-size:60px;"">+</div>","null","","fixation","","",""
"memory-trial","177","400612","0.0-18.0-1.66","7589","approach_avoid_sv1","""event"",""trial"",""time""
""fullscreenenter"",""1"",""1251""
","
","
","""event"",""trial"",""time""
""fullscreenenter"",""1"",""1251""
","
","","","","","","1325.0999999642372","images/rodent8.png","","","memory_trial","3","maybe_new",""
"html-keyboard-response","178","401114","0.0-18.0-0.67","7589","approach_avoid_sv1","""event"",""trial"",""time""
""fullscreenenter"",""1"",""1251""
","
","
","""event"",""trial"",""time""
""fullscreenenter"",""1"",""1251""
","
","","","","","","null","<div style=""font-size:60px;"">+</div>","null","","fixation","","",""
"memory-trial","179","403937","0.0-18.0-1.67","7589","approach_avoid_sv1","""event"",""trial"",""time""
""fullscreenenter"",""1"",""1251""
","
","
","""event"",""trial"",""time""
""fullscreenenter"",""1"",""1251""
","
","","","","","","1819.4000000357628","images/tree5.png","","","memory_trial","4","definitely_new",""
"html-keyboard-response","180","404438","0.0-18.0-0.68","7589","approach_avoid_sv1","""event"",""trial"",""time""
""fullscreenenter"",""1"",""1251""
","
","
","""event"",""trial"",""time""
""fullscreenenter"",""1"",""1251""
","
","","","","","","null","<div style=""font-size:60px;"">+</div>","null","","fixation","","",""
"memory-trial","181","406746","0.0-18.0-1.68","7589","approach_avoid_sv1","""event"",""trial"",""time""
""fullscreenenter"",""1"",""1251""
","
","
","""event"",""trial"",""time""
""fullscreenenter"",""1"",""1251""
","
","","","","","","1304.199999988079","images/plane8.png","","","memory_trial","2","maybe_old",""
"html-keyboard-response","182","407257","0.0-18.0-0.69","7589","approach_avoid_sv1","""event"",""trial"",""time""
""fullscreenenter"",""1"",""1251""
","
","
","""event"",""trial"",""time""
""fullscreenenter"",""1"",""1251""
","
","","","","","","null","<div style=""font-size:60px;"">+</div>","null","","fixation","","",""
"memory-trial","183","409569","0.0-18.0-1.69","7589","approach_avoid_sv1","""event"",""trial"",""time""
""fullscreenenter"",""1"",""1251""
","
","
","""event"",""trial"",""time""
""fullscreenenter"",""1"",""1251""
","
","","","","","","1308","images/cactus7.png","","","memory_trial","3","maybe_new",""
"html-keyboard-response","184","410072","0.0-18.0-0.70","7589","approach_avoid_sv1","""event"",""trial"",""time""
""fullscreenenter"",""1"",""1251""
","
","
","""event"",""trial"",""time""
""fullscreenenter"",""1"",""1251""
","
","","","","","","null","<div style=""font-size:60px;"">+</div>","null","","fixation","","",""
"memory-trial","185","412547","0.0-18.0-1.70","7589","approach_avoid_sv1","""event"",""trial"",""time""
""fullscreenenter"",""1"",""1251""
","
","
","""event"",""trial"",""time""
""fullscreenenter"",""1"",""1251""
","
","","","","","","1472.3999999761581","images/flower5.png","","","memory_trial","4","definitely_new",""
"html-keyboard-response","186","413050","0.0-18.0-0.71","7589","approach_avoid_sv1","""event"",""trial"",""time""
""fullscreenenter"",""1"",""1251""
","
","
","""event"",""trial"",""time""
""fullscreenenter"",""1"",""1251""
","
","","","","","","null","<div style=""font-size:60px;"">+</div>","null","","fixation","","",""
"memory-trial","187","415557","0.0-18.0-1.71","7589","approach_avoid_sv1","""event"",""trial"",""time""
""fullscreenenter"",""1"",""1251""
","
","
","""event"",""trial"",""time""
""fullscreenenter"",""1"",""1251""
","
","","","","","","1503.699999988079","images/rabbit8.png","","","memory_trial","3","maybe_new",""
"html-keyboard-response","188","416059","0.0-18.0-0.72","7589","approach_avoid_sv1","""event"",""trial"",""time""
""fullscreenenter"",""1"",""1251""
","
","
","""event"",""trial"",""time""
""fullscreenenter"",""1"",""1251""
","
","","","","","","null","<div style=""font-size:60px;"">+</div>","null","","fixation","","",""
"memory-trial","189","418473","0.0-18.0-1.72","7589","approach_avoid_sv1","""event"",""trial"",""time""
""fullscreenenter"",""1"",""1251""
","
","
","""event"",""trial"",""time""
""fullscreenenter"",""1"",""1251""
","
","","","","","","1411.300000011921","images/dog5.png","","","memory_trial","3","maybe_new",""
"html-keyboard-response","190","418975","0.0-18.0-0.73","7589","approach_avoid_sv1","""event"",""trial"",""time""
""fullscreenenter"",""1"",""1251""
","
","
","""event"",""trial"",""time""
""fullscreenenter"",""1"",""1251""
","
","","","","","","null","<div style=""font-size:60px;"">+</div>","null","","fixation","","",""
"memory-trial","191","422307","0.0-18.0-1.73","7589","approach_avoid_sv1","""event"",""trial"",""time""
""fullscreenenter"",""1"",""1251""
","
","
","""event"",""trial"",""time""
""fullscreenenter"",""1"",""1251""
","
","","","","","","2327.300000011921","images/sofa3.png","","","memory_trial","2","maybe_old",""
"html-keyboard-response","192","422809","0.0-18.0-0.74","7589","approach_avoid_sv1","""event"",""trial"",""time""
""fullscreenenter"",""1"",""1251""
","
","
","""event"",""trial"",""time""
""fullscreenenter"",""1"",""1251""
","
","","","","","","null","<div style=""font-size:60px;"">+</div>","null","","fixation","","",""
"memory-trial","193","425095","0.0-18.0-1.74","7589","approach_avoid_sv1","""event"",""trial"",""time""
""fullscreenenter"",""1"",""1251""
","
","
","""event"",""trial"",""time""
""fullscreenenter"",""1"",""1251""
","
","","","","","","1281.8999999761581","images/cow2.png","","","memory_trial","3","maybe_new",""
"html-keyboard-response","194","425597","0.0-18.0-0.75","7589","approach_avoid_sv1","""event"",""trial"",""time""
""fullscreenenter"",""1"",""1251""
","
","
","""event"",""trial"",""time""
""fullscreenenter"",""1"",""1251""
","
","","","","","","null","<div style=""font-size:60px;"">+</div>","null","","fixation","","",""
"memory-trial","195","428408","0.0-18.0-1.75","7589","approach_avoid_sv1","""event"",""trial"",""time""
""fullscreenenter"",""1"",""1251""
","
","
","""event"",""trial"",""time""
""fullscreenenter"",""1"",""1251""
","
","","","","","","1808","images/dog8.png","","","memory_trial","3","maybe_new",""
"html-keyboard-response","196","428911","0.0-18.0-0.76","7589","approach_avoid_sv1","""event"",""trial"",""time""
""fullscreenenter"",""1"",""1251""
","
","
","""event"",""trial"",""time""
""fullscreenenter"",""1"",""1251""
","
","","","","","","null","<div style=""font-size:60px;"">+</div>","null","","fixation","","",""
"memory-trial","197","431011","0.0-18.0-1.76","7589","approach_avoid_sv1","""event"",""trial"",""time""
""fullscreenenter"",""1"",""1251""
","
","
","""event"",""trial"",""time""
""fullscreenenter"",""1"",""1251""
","
","","","","","","1095.699999988079","images/cat5.png","","","memory_trial","1","definitely_old",""
"html-keyboard-response","198","431512","0.0-18.0-0.77","7589","approach_avoid_sv1","""event"",""trial"",""time""
""fullscreenenter"",""1"",""1251""
","
","
","""event"",""trial"",""time""
""fullscreenenter"",""1"",""1251""
","
","","","","","","null","<div style=""font-size:60px;"">+</div>","null","","fixation","","",""
"memory-trial","199","433377","0.0-18.0-1.77","7589","approach_avoid_sv1","""event"",""trial"",""time""
""fullscreenenter"",""1"",""1251""
","
","
","""event"",""trial"",""time""
""fullscreenenter"",""1"",""1251""
","
","","","","","","863","images/chair6.png","","","memory_trial","1","definitely_old",""
"html-keyboard-response","200","433879","0.0-18.0-0.78","7589","approach_avoid_sv1","""event"",""trial"",""time""
""fullscreenenter"",""1"",""1251""
","
","
","""event"",""trial"",""time""
""fullscreenenter"",""1"",""1251""
","
","","","","","","null","<div style=""font-size:60px;"">+</div>","null","","fixation","","",""
"memory-trial","201","437490","0.0-18.0-1.78","7589","approach_avoid_sv1","""event"",""trial"",""time""
""fullscreenenter"",""1"",""1251""
","
","
","""event"",""trial"",""time""
""fullscreenenter"",""1"",""1251""
","
","","","","","","2607.099999964237","images/truck4.png","","","memory_trial","2","maybe_old",""
"html-keyboard-response","202","437992","0.0-18.0-0.79","7589","approach_avoid_sv1","""event"",""trial"",""time""
""fullscreenenter"",""1"",""1251""
","
","
","""event"",""trial"",""time""
""fullscreenenter"",""1"",""1251""
","
","","","","","","null","<div style=""font-size:60px;"">+</div>","null","","fixation","","",""
"memory-trial","203","440668","0.0-18.0-1.79","7589","approach_avoid_sv1","""event"",""trial"",""time""
""fullscreenenter"",""1"",""1251""
","
","
","""event"",""trial"",""time""
""fullscreenenter"",""1"",""1251""
","
","","","","","","1664.5","images/apple7.png","","","memory_trial","2","maybe_old",""
"html-keyboard-response","204","441183","0.0-18.0-0.80","7589","approach_avoid_sv1","""event"",""trial"",""time""
""fullscreenenter"",""1"",""1251""
","
","
","""event"",""trial"",""time""
""fullscreenenter"",""1"",""1251""
","
","","","","","","null","<div style=""font-size:60px;"">+</div>","null","","fixation","","",""
"memory-trial","205","443321","0.0-18.0-1.80","7589","approach_avoid_sv1","""event"",""trial"",""time""
""fullscreenenter"",""1"",""1251""
","
","
","""event"",""trial"",""time""
""fullscreenenter"",""1"",""1251""
","
","","","","","","1134.5","images/truck5.png","","","memory_trial","1","definitely_old",""
"html-keyboard-response","206","443824","0.0-18.0-0.81","7589","approach_avoid_sv1","""event"",""trial"",""time""
""fullscreenenter"",""1"",""1251""
","
","
","""event"",""trial"",""time""
""fullscreenenter"",""1"",""1251""
","
","","","","","","null","<div style=""font-size:60px;"">+</div>","null","","fixation","","",""
"memory-trial","207","446162","0.0-18.0-1.81","7589","approach_avoid_sv1","""event"",""trial"",""time""
""fullscreenenter"",""1"",""1251""
","
","
","""event"",""trial"",""time""
""fullscreenenter"",""1"",""1251""
","
","","","","","","1334.8999999761581","images/sheep1.png","","","memory_trial","2","maybe_old",""
"html-keyboard-response","208","446664","0.0-18.0-0.82","7589","approach_avoid_sv1","""event"",""trial"",""time""
""fullscreenenter"",""1"",""1251""
","
","
","""event"",""trial"",""time""
""fullscreenenter"",""1"",""1251""
","
","","","","","","null","<div style=""font-size:60px;"">+</div>","null","","fixation","","",""
"memory-trial","209","448644","0.0-18.0-1.82","7589","approach_avoid_sv1","""event"",""trial"",""time""
""fullscreenenter"",""1"",""1251""
","
","
","""event"",""trial"",""time""
""fullscreenenter"",""1"",""1251""
","
","","","","","","977.4000000357628","images/table2.png","","","memory_trial","1","definitely_old",""
"html-keyboard-response","210","449146","0.0-18.0-0.83","7589","approach_avoid_sv1","""event"",""trial"",""time""
""fullscreenenter"",""1"",""1251""
","
","
","""event"",""trial"",""time""
""fullscreenenter"",""1"",""1251""
","
","","","","","","null","<div style=""font-size:60px;"">+</div>","null","","fixation","","",""
"memory-trial","211","451067","0.0-18.0-1.83","7589","approach_avoid_sv1","""event"",""trial"",""time""
""fullscreenenter"",""1"",""1251""
","
","
","""event"",""trial"",""time""
""fullscreenenter"",""1"",""1251""
","
","","","","","","902.8000000119209","images/dog4.png","","","memory_trial","1","definitely_old",""
"html-keyboard-response","212","451569","0.0-18.0-0.84","7589","approach_avoid_sv1","""event"",""trial"",""time""
""fullscreenenter"",""1"",""1251""
","
","
","""event"",""trial"",""time""
""fullscreenenter"",""1"",""1251""
","
","","","","","","null","<div style=""font-size:60px;"">+</div>","null","","fixation","","",""
"memory-trial","213","453862","0.0-18.0-1.84","7589","approach_avoid_sv1","""event"",""trial"",""time""
""fullscreenenter"",""1"",""1251""
","
","
","""event"",""trial"",""time""
""fullscreenenter"",""1"",""1251""
","
","","","","","","1290.2999999523163","images/bed6.png","","","memory_trial","4","definitely_new",""
"html-keyboard-response","214","454363","0.0-18.0-0.85","7589","approach_avoid_sv1","""event"",""trial"",""time""
""fullscreenenter"",""1"",""1251""
","
","
","""event"",""trial"",""time""
""fullscreenenter"",""1"",""1251""
","
","","","","","","null","<div style=""font-size:60px;"">+</div>","null","","fixation","","",""
"memory-trial","215","457127","0.0-18.0-1.85","7589","approach_avoid_sv1","""event"",""trial"",""time""
""fullscreenenter"",""1"",""1251""
","
","
","""event"",""trial"",""time""
""fullscreenenter"",""1"",""1251""
","
","","","","","","1761.4000000357628","images/truck6.png","","","memory_trial","3","maybe_new",""
"html-keyboard-response","216","457628","0.0-18.0-0.86","7589","approach_avoid_sv1","""event"",""trial"",""time""
""fullscreenenter"",""1"",""1251""
","
","
","""event"",""trial"",""time""
""fullscreenenter"",""1"",""1251""
","
","","","","","","null","<div style=""font-size:60px;"">+</div>","null","","fixation","","",""
"memory-trial","217","459784","0.0-18.0-1.86","7589","approach_avoid_sv1","""event"",""trial"",""time""
""fullscreenenter"",""1"",""1251""
","
","
","""event"",""trial"",""time""
""fullscreenenter"",""1"",""1251""
","
","","","","","","1152","images/straw1.png","","","memory_trial","1","definitely_old",""
"html-keyboard-response","218","460287","0.0-18.0-0.87","7589","approach_avoid_sv1","""event"",""trial"",""time""
""fullscreenenter"",""1"",""1251""
","
","
","""event"",""trial"",""time""
""fullscreenenter"",""1"",""1251""
","
","","","","","","null","<div style=""font-size:60px;"">+</div>","null","","fixation","","",""
"memory-trial","219","462645","0.0-18.0-1.87","7589","approach_avoid_sv1","""event"",""trial"",""time""
""fullscreenenter"",""1"",""1251""
","
","
","""event"",""trial"",""time""
""fullscreenenter"",""1"",""1251""
","
","","","","","","1354.5","images/orange1.png","","","memory_trial","4","definitely_new",""
"html-keyboard-response","220","463150","0.0-18.0-0.88","7589","approach_avoid_sv1","""event"",""trial"",""time""
""fullscreenenter"",""1"",""1251""
","
","
","""event"",""trial"",""time""
""fullscreenenter"",""1"",""1251""
","
","","","","","","null","<div style=""font-size:60px;"">+</div>","null","","fixation","","",""
"memory-trial","221","465609","0.0-18.0-1.88","7589","approach_avoid_sv1","""event"",""trial"",""time""
""fullscreenenter"",""1"",""1251""
","
","
","""event"",""trial"",""time""
""fullscreenenter"",""1"",""1251""
","
","","","","","","1455.3999999761581","images/flower6.png","","","memory_trial","4","definitely_new",""
"html-keyboard-response","222","466111","0.0-18.0-0.89","7589","approach_avoid_sv1","""event"",""trial"",""time""
""fullscreenenter"",""1"",""1251""
","
","
","""event"",""trial"",""time""
""fullscreenenter"",""1"",""1251""
","
","","","","","","null","<div style=""font-size:60px;"">+</div>","null","","fixation","","",""
"memory-trial","223","468776","0.0-18.0-1.89","7589","approach_avoid_sv1","""event"",""trial"",""time""
""fullscreenenter"",""1"",""1251""
","
","
","""event"",""trial"",""time""
""fullscreenenter"",""1"",""1251""
","
","","","","","","1662.0999999642372","images/truck8.png","","","memory_trial","2","maybe_old",""
"html-keyboard-response","224","469277","0.0-18.0-0.90","7589","approach_avoid_sv1","""event"",""trial"",""time""
""fullscreenenter"",""1"",""1251""
","
","
","""event"",""trial"",""time""
""fullscreenenter"",""1"",""1251""
","
","","","","","","null","<div style=""font-size:60px;"">+</div>","null","","fixation","","",""
"memory-trial","225","471391","0.0-18.0-1.90","7589","approach_avoid_sv1","""event"",""trial"",""time""
""fullscreenenter"",""1"",""1251""
","
","
","""event"",""trial"",""time""
""fullscreenenter"",""1"",""1251""
","
","","","","","","1110.5","images/flower7.png","","","memory_trial","4","definitely_new",""
"html-keyboard-response","226","471892","0.0-18.0-0.91","7589","approach_avoid_sv1","""event"",""trial"",""time""
""fullscreenenter"",""1"",""1251""
","
","
","""event"",""trial"",""time""
""fullscreenenter"",""1"",""1251""
","
","","","","","","null","<div style=""font-size:60px;"">+</div>","null","","fixation","","",""
"memory-trial","227","474542","0.0-18.0-1.91","7589","approach_avoid_sv1","""event"",""trial"",""time""
""fullscreenenter"",""1"",""1251""
","
","
","""event"",""trial"",""time""
""fullscreenenter"",""1"",""1251""
","
","","","","","","1646.699999988079","images/dog6.png","","","memory_trial","3","maybe_new",""
"html-button-response","228","476371","0.0-18.0-2.91-0.91","7589","approach_avoid_sv1","""event"",""trial"",""time""
""fullscreenenter"",""1"",""1251""
","
","
","""event"",""trial"",""time""
""fullscreenenter"",""1"",""1251""
","
","","","","","","1827.4000000357628","<p> Take a break! </p><p> Click the button to continue. </p>","0","","break","","",""
"html-keyboard-response","229","476874","0.0-18.0-0.92","7589","approach_avoid_sv1","""event"",""trial"",""time""
""fullscreenenter"",""1"",""1251""
","
","
","""event"",""trial"",""time""
""fullscreenenter"",""1"",""1251""
","
","","","","","","null","<div style=""font-size:60px;"">+</div>","null","","fixation","","",""
"memory-trial","230","480238","0.0-18.0-1.92","7589","approach_avoid_sv1","""event"",""trial"",""time""
""fullscreenenter"",""1"",""1251""
","
","
","""event"",""trial"",""time""
""fullscreenenter"",""1"",""1251""
","
","","","","","","2360.2999999523163","images/cactus8.png","","","memory_trial","1","definitely_old",""
"html-keyboard-response","231","480740","0.0-18.0-0.93","7589","approach_avoid_sv1","""event"",""trial"",""time""
""fullscreenenter"",""1"",""1251""
","
","
","""event"",""trial"",""time""
""fullscreenenter"",""1"",""1251""
","
","","","","","","null","<div style=""font-size:60px;"">+</div>","null","","fixation","","",""
"memory-trial","232","482941","0.0-18.0-1.93","7589","approach_avoid_sv1","""event"",""trial"",""time""
""fullscreenenter"",""1"",""1251""
","
","
","""event"",""trial"",""time""
""fullscreenenter"",""1"",""1251""
","
","","","","","","1196.1000000238419","images/boat1.png","","","memory_trial","1","definitely_old",""
"html-keyboard-response","233","483455","0.0-18.0-0.94","7589","approach_avoid_sv1","""event"",""trial"",""time""
""fullscreenenter"",""1"",""1251""
","
","
","""event"",""trial"",""time""
""fullscreenenter"",""1"",""1251""
","
","","","","","","null","<div style=""font-size:60px;"">+</div>","null","","fixation","","",""
"memory-trial","234","486075","0.0-18.0-1.94","7589","approach_avoid_sv1","""event"",""trial"",""time""
""fullscreenenter"",""1"",""1251""
","
","
","""event"",""trial"",""time""
""fullscreenenter"",""1"",""1251""
","
","","","","","","1603.5","images/chair7.png","","","memory_trial","4","definitely_new",""
"html-keyboard-response","235","486577","0.0-18.0-0.95","7589","approach_avoid_sv1","""event"",""trial"",""time""
""fullscreenenter"",""1"",""1251""
","
","
","""event"",""trial"",""time""
""fullscreenenter"",""1"",""1251""
","
","","","","","","null","<div style=""font-size:60px;"">+</div>","null","","fixation","","",""
"memory-trial","236","488821","0.0-18.0-1.95","7589","approach_avoid_sv1","""event"",""trial"",""time""
""fullscreenenter"",""1"",""1251""
","
","
","""event"",""trial"",""time""
""fullscreenenter"",""1"",""1251""
","
","","","","","","1239.800000011921","images/straw4.png","","","memory_trial","2","maybe_old",""
"html-keyboard-response","237","489322","0.0-18.0-0.96","7589","approach_avoid_sv1","""event"",""trial"",""time""
""fullscreenenter"",""1"",""1251""
","
","
","""event"",""trial"",""time""
""fullscreenenter"",""1"",""1251""
","
","","","","","","null","<div style=""font-size:60px;"">+</div>","null","","fixation","","",""
"memory-trial","238","491567","0.0-18.0-1.96","7589","approach_avoid_sv1","""event"",""trial"",""time""
""fullscreenenter"",""1"",""1251""
","
","
","""event"",""trial"",""time""
""fullscreenenter"",""1"",""1251""
","
","","","","","","1238.199999988079","images/cat4.png","","","memory_trial","2","maybe_old",""
"html-keyboard-response","239","492069","0.0-18.0-0.97","7589","approach_avoid_sv1","""event"",""trial"",""time""
""fullscreenenter"",""1"",""1251""
","
","
","""event"",""trial"",""time""
""fullscreenenter"",""1"",""1251""
","
","","","","","","null","<div style=""font-size:60px;"">+</div>","null","","fixation","","",""
"memory-trial","240","494286","0.0-18.0-1.97","7589","approach_avoid_sv1","""event"",""trial"",""time""
""fullscreenenter"",""1"",""1251""
","
","
","""event"",""trial"",""time""
""fullscreenenter"",""1"",""1251""
","
","","","","","","1213.5","images/goat6.png","","","memory_trial","2","maybe_old",""
"html-keyboard-response","241","494787","0.0-18.0-0.98","7589","approach_avoid_sv1","""event"",""trial"",""time""
""fullscreenenter"",""1"",""1251""
","
","
","""event"",""trial"",""time""
""fullscreenenter"",""1"",""1251""
","
","","","","","","null","<div style=""font-size:60px;"">+</div>","null","","fixation","","",""
"memory-trial","242","496686","0.0-18.0-1.98","7589","approach_avoid_sv1","""event"",""trial"",""time""
""fullscreenenter"",""1"",""1251""
","
","
","""event"",""trial"",""time""
""fullscreenenter"",""1"",""1251""
","
","","","","","","895","images/tree1.png","","","memory_trial","1","definitely_old",""
"html-keyboard-response","243","497188","0.0-18.0-0.99","7589","approach_avoid_sv1","""event"",""trial"",""time""
""fullscreenenter"",""1"",""1251""
","
","
","""event"",""trial"",""time""
""fullscreenenter"",""1"",""1251""
","
","","","","","","null","<div style=""font-size:60px;"">+</div>","null","","fixation","","",""
"memory-trial","244","498896","0.0-18.0-1.99","7589","approach_avoid_sv1","""event"",""trial"",""time""
""fullscreenenter"",""1"",""1251""
","
","
","""event"",""trial"",""time""
""fullscreenenter"",""1"",""1251""
","
","","","","","","705.8000000119209","images/boat3.png","","","memory_trial","1","definitely_old",""
"html-keyboard-response","245","499398","0.0-18.0-0.100","7589","approach_avoid_sv1","""event"",""trial"",""time""
""fullscreenenter"",""1"",""1251""
","
","
","""event"",""trial"",""time""
""fullscreenenter"",""1"",""1251""
","
","","","","","","null","<div style=""font-size:60px;"">+</div>","null","","fixation","","",""
"memory-trial","246","501272","0.0-18.0-1.100","7589","approach_avoid_sv1","""event"",""trial"",""time""
""fullscreenenter"",""1"",""1251""
","
","
","""event"",""trial"",""time""
""fullscreenenter"",""1"",""1251""
","
","","","","","","870.2000000476837","images/plane7.png","","","memory_trial","1","definitely_old",""
"html-keyboard-response","247","501774","0.0-18.0-0.101","7589","approach_avoid_sv1","""event"",""trial"",""time""
""fullscreenenter"",""1"",""1251""
","
","
","""event"",""trial"",""time""
""fullscreenenter"",""1"",""1251""
","
","","","","","","null","<div style=""font-size:60px;"">+</div>","null","","fixation","","",""
"memory-trial","248","503625","0.0-18.0-1.101","7589","approach_avoid_sv1","""event"",""trial"",""time""
""fullscreenenter"",""1"",""1251""
","
","
","""event"",""trial"",""time""
""fullscreenenter"",""1"",""1251""
","
","","","","","","848.0999999642372","images/table1.png","","","memory_trial","1","definitely_old",""
"html-keyboard-response","249","504127","0.0-18.0-0.102","7589","approach_avoid_sv1","""event"",""trial"",""time""
""fullscreenenter"",""1"",""1251""
","
","
","""event"",""trial"",""time""
""fullscreenenter"",""1"",""1251""
","
","","","","","","null","<div style=""font-size:60px;"">+</div>","null","","fixation","","",""
"memory-trial","250","506987","0.0-18.0-1.102","7589","approach_avoid_sv1","""event"",""trial"",""time""
""fullscreenenter"",""1"",""1251""
","
","
","""event"",""trial"",""time""
""fullscreenenter"",""1"",""1251""
","
","","","","","","1852.199999988079","images/horse4.png","","","memory_trial","3","maybe_new",""
"html-keyboard-response","251","507489","0.0-18.0-0.103","7589","approach_avoid_sv1","""event"",""trial"",""time""
""fullscreenenter"",""1"",""1251""
","
","
","""event"",""trial"",""time""
""fullscreenenter"",""1"",""1251""
","
","","","","","","null","<div style=""font-size:60px;"">+</div>","null","","fixation","","",""
"memory-trial","252","509807","0.0-18.0-1.103","7589","approach_avoid_sv1","""event"",""trial"",""time""
""fullscreenenter"",""1"",""1251""
","
","
","""event"",""trial"",""time""
""fullscreenenter"",""1"",""1251""
","
","","","","","","1314.8999999761581","images/dog1.png","","","memory_trial","2","maybe_old",""
"html-keyboard-response","253","510310","0.0-18.0-0.104","7589","approach_avoid_sv1","""event"",""trial"",""time""
""fullscreenenter"",""1"",""1251""
","
","
","""event"",""trial"",""time""
""fullscreenenter"",""1"",""1251""
","
","","","","","","null","<div style=""font-size:60px;"">+</div>","null","","fixation","","",""
"memory-trial","254","512264","0.0-18.0-1.104","7589","approach_avoid_sv1","""event"",""trial"",""time""
""fullscreenenter"",""1"",""1251""
","
","
","""event"",""trial"",""time""
""fullscreenenter"",""1"",""1251""
","
","","","","","","949.3000000119209","images/banana5.png","","","memory_trial","2","maybe_old",""
"html-keyboard-response","255","512771","0.0-18.0-0.105","7589","approach_avoid_sv1","""event"",""trial"",""time""
""fullscreenenter"",""1"",""1251""
","
","
","""event"",""trial"",""time""
""fullscreenenter"",""1"",""1251""
","
","","","","","","null","<div style=""font-size:60px;"">+</div>","null","","fixation","","",""
"memory-trial","256","514776","0.0-18.0-1.105","7589","approach_avoid_sv1","""event"",""trial"",""time""
""fullscreenenter"",""1"",""1251""
","
","
","""event"",""trial"",""time""
""fullscreenenter"",""1"",""1251""
","
","","","","","","995.5","images/bed1.png","","","memory_trial","4","definitely_new",""
"html-keyboard-response","257","515279","0.0-18.0-0.106","7589","approach_avoid_sv1","""event"",""trial"",""time""
""fullscreenenter"",""1"",""1251""
","
","
","""event"",""trial"",""time""
""fullscreenenter"",""1"",""1251""
","
","","","","","","null","<div style=""font-size:60px;"">+</div>","null","","fixation","","",""
"memory-trial","258","517225","0.0-18.0-1.106","7589","approach_avoid_sv1","""event"",""trial"",""time""
""fullscreenenter"",""1"",""1251""
","
","
","""event"",""trial"",""time""
""fullscreenenter"",""1"",""1251""
","
","","","","","","945","images/cow6.png","","","memory_trial","4","definitely_new",""
"html-keyboard-response","259","517727","0.0-18.0-0.107","7589","approach_avoid_sv1","""event"",""trial"",""time""
""fullscreenenter"",""1"",""1251""
","
","
","""event"",""trial"",""time""
""fullscreenenter"",""1"",""1251""
","
","","","","","","null","<div style=""font-size:60px;"">+</div>","null","","fixation","","",""
"memory-trial","260","519639","0.0-18.0-1.107","7589","approach_avoid_sv1","""event"",""trial"",""time""
""fullscreenenter"",""1"",""1251""
","
","
","""event"",""trial"",""time""
""fullscreenenter"",""1"",""1251""
","
","","","","","","908.3999999761581","images/truck1.png","","","memory_trial","2","maybe_old",""
"html-keyboard-response","261","520140","0.0-18.0-0.108","7589","approach_avoid_sv1","""event"",""trial"",""time""
""fullscreenenter"",""1"",""1251""
","
","
","""event"",""trial"",""time""
""fullscreenenter"",""1"",""1251""
","
","","","","","","null","<div style=""font-size:60px;"">+</div>","null","","fixation","","",""
"memory-trial","262","522539","0.0-18.0-1.108","7589","approach_avoid_sv1","""event"",""trial"",""time""
""fullscreenenter"",""1"",""1251""
","
","
","""event"",""trial"",""time""
""fullscreenenter"",""1"",""1251""
","
","","","","","","1394.8999999761581","images/rabbit3.png","","","memory_trial","3","maybe_new",""
"html-keyboard-response","263","523040","0.0-18.0-0.109","7589","approach_avoid_sv1","""event"",""trial"",""time""
""fullscreenenter"",""1"",""1251""
","
","
","""event"",""trial"",""time""
""fullscreenenter"",""1"",""1251""
","
","","","","","","null","<div style=""font-size:60px;"">+</div>","null","","fixation","","",""
"memory-trial","264","525191","0.0-18.0-1.109","7589","approach_avoid_sv1","""event"",""trial"",""time""
""fullscreenenter"",""1"",""1251""
","
","
","""event"",""trial"",""time""
""fullscreenenter"",""1"",""1251""
","
","","","","","","1148.9000000357628","images/flower1.png","","","memory_trial","2","maybe_old",""
"html-keyboard-response","265","525693","0.0-18.0-0.110","7589","approach_avoid_sv1","""event"",""trial"",""time""
""fullscreenenter"",""1"",""1251""
","
","
","""event"",""trial"",""time""
""fullscreenenter"",""1"",""1251""
","
","","","","","","null","<div style=""font-size:60px;"">+</div>","null","","fixation","","",""
"memory-trial","266","527647","0.0-18.0-1.110","7589","approach_avoid_sv1","""event"",""trial"",""time""
""fullscreenenter"",""1"",""1251""
","
","
","""event"",""trial"",""time""
""fullscreenenter"",""1"",""1251""
","
","","","","","","951.2999999523163","images/plane3.png","","","memory_trial","2","maybe_old",""
"html-keyboard-response","267","528149","0.0-18.0-0.111","7589","approach_avoid_sv1","""event"",""trial"",""time""
""fullscreenenter"",""1"",""1251""
","
","
","""event"",""trial"",""time""
""fullscreenenter"",""1"",""1251""
","
","","","","","","null","<div style=""font-size:60px;"">+</div>","null","","fixation","","",""
"memory-trial","268","530663","0.0-18.0-1.111","7589","approach_avoid_sv1","""event"",""trial"",""time""
""fullscreenenter"",""1"",""1251""
","
","
","""event"",""trial"",""time""
""fullscreenenter"",""1"",""1251""
","
","","","","","","1508.8999999761581","images/banana7.png","","","memory_trial","4","definitely_new",""
"html-keyboard-response","269","531165","0.0-18.0-0.112","7589","approach_avoid_sv1","""event"",""trial"",""time""
""fullscreenenter"",""1"",""1251""
","
","
","""event"",""trial"",""time""
""fullscreenenter"",""1"",""1251""
","
","","","","","","null","<div style=""font-size:60px;"">+</div>","null","","fixation","","",""
"memory-trial","270","533540","0.0-18.0-1.112","7589","approach_avoid_sv1","""event"",""trial"",""time""
""fullscreenenter"",""1"",""1251""
","
","
","""event"",""trial"",""time""
""fullscreenenter"",""1"",""1251""
","
","","","","","","1370","images/boat5.png","","","memory_trial","2","maybe_old",""
"html-keyboard-response","271","534041","0.0-18.0-0.113","7589","approach_avoid_sv1","""event"",""trial"",""time""
""fullscreenenter"",""1"",""1251""
","
","
","""event"",""trial"",""time""
""fullscreenenter"",""1"",""1251""
","
","","","","","","null","<div style=""font-size:60px;"">+</div>","null","","fixation","","",""
"memory-trial","272","536211","0.0-18.0-1.113","7589","approach_avoid_sv1","""event"",""trial"",""time""
""fullscreenenter"",""1"",""1251""
","
","
","""event"",""trial"",""time""
""fullscreenenter"",""1"",""1251""
","
","","","","","","1165.8999999761581","images/bush7.png","","","memory_trial","4","definitely_new",""
"html-keyboard-response","273","536712","0.0-18.0-0.114","7589","approach_avoid_sv1","""event"",""trial"",""time""
""fullscreenenter"",""1"",""1251""
","
","
","""event"",""trial"",""time""
""fullscreenenter"",""1"",""1251""
","
","","","","","","null","<div style=""font-size:60px;"">+</div>","null","","fixation","","",""
"memory-trial","274","538539","0.0-18.0-1.114","7589","approach_avoid_sv1","""event"",""trial"",""time""
""fullscreenenter"",""1"",""1251""
","
","
","""event"",""trial"",""time""
""fullscreenenter"",""1"",""1251""
","
","","","","","","822.7000000476837","images/tree8.png","","","memory_trial","1","definitely_old",""
"html-keyboard-response","275","539049","0.0-18.0-0.115","7589","approach_avoid_sv1","""event"",""trial"",""time""
""fullscreenenter"",""1"",""1251""
","
","
","""event"",""trial"",""time""
""fullscreenenter"",""1"",""1251""
","
","","","","","","null","<div style=""font-size:60px;"">+</div>","null","","fixation","","",""
"memory-trial","276","541269","0.0-18.0-1.115","7589","approach_avoid_sv1","""event"",""trial"",""time""
""fullscreenenter"",""1"",""1251""
","
","
","""event"",""trial"",""time""
""fullscreenenter"",""1"",""1251""
","
","","","","","","1217.5","images/apple4.png","","","memory_trial","4","definitely_new",""
"html-keyboard-response","277","541771","0.0-18.0-0.116","7589","approach_avoid_sv1","""event"",""trial"",""time""
""fullscreenenter"",""1"",""1251""
","
","
","""event"",""trial"",""time""
""fullscreenenter"",""1"",""1251""
","
","","","","","","null","<div style=""font-size:60px;"">+</div>","null","","fixation","","",""
"memory-trial","278","544755","0.0-18.0-1.116","7589","approach_avoid_sv1","""event"",""trial"",""time""
""fullscreenenter"",""1"",""1251""
","
","
","""event"",""trial"",""time""
""fullscreenenter"",""1"",""1251""
","
","","","","","","1980.6000000238419","images/tree6.png","","","memory_trial","2","maybe_old",""
"html-keyboard-response","279","545257","0.0-18.0-0.117","7589","approach_avoid_sv1","""event"",""trial"",""time""
""fullscreenenter"",""1"",""1251""
","
","
","""event"",""trial"",""time""
""fullscreenenter"",""1"",""1251""
","
","","","","","","null","<div style=""font-size:60px;"">+</div>","null","","fixation","","",""
"memory-trial","280","547224","0.0-18.0-1.117","7589","approach_avoid_sv1","""event"",""trial"",""time""
""fullscreenenter"",""1"",""1251""
","
","
","""event"",""trial"",""time""
""fullscreenenter"",""1"",""1251""
","
","","","","","","962.6999999880791","images/apple5.png","","","memory_trial","4","definitely_new",""
"html-keyboard-response","281","547726","0.0-18.0-0.118","7589","approach_avoid_sv1","""event"",""trial"",""time""
""fullscreenenter"",""1"",""1251""
","
","
","""event"",""trial"",""time""
""fullscreenenter"",""1"",""1251""
","
","","","","","","null","<div style=""font-size:60px;"">+</div>","null","","fixation","","",""
"memory-trial","282","551002","0.0-18.0-1.118","7589","approach_avoid_sv1","""event"",""trial"",""time""
""fullscreenenter"",""1"",""1251""
","
","
","""event"",""trial"",""time""
""fullscreenenter"",""1"",""1251""
","
","","","","","","2273.199999988079","images/rabbit6.png","","","memory_trial","3","maybe_new",""
"html-keyboard-response","283","551504","0.0-18.0-0.119","7589","approach_avoid_sv1","""event"",""trial"",""time""
""fullscreenenter"",""1"",""1251""
","
","
","""event"",""trial"",""time""
""fullscreenenter"",""1"",""1251""
","
","","","","","","null","<div style=""font-size:60px;"">+</div>","null","","fixation","","",""
"memory-trial","284","553976","0.0-18.0-1.119","7589","approach_avoid_sv1","""event"",""trial"",""time""
""fullscreenenter"",""1"",""1251""
","
","
","""event"",""trial"",""time""
""fullscreenenter"",""1"",""1251""
","
","","","","","","1453","images/straw7.png","","","memory_trial","3","maybe_new",""
"html-keyboard-response","285","554477","0.0-18.0-0.120","7589","approach_avoid_sv1","""event"",""trial"",""time""
""fullscreenenter"",""1"",""1251""
","
","
","""event"",""trial"",""time""
""fullscreenenter"",""1"",""1251""
","
","","","","","","null","<div style=""font-size:60px;"">+</div>","null","","fixation","","",""
"memory-trial","286","556632","0.0-18.0-1.120","7589","approach_avoid_sv1","""event"",""trial"",""time""
""fullscreenenter"",""1"",""1251""
","
","
","""event"",""trial"",""time""
""fullscreenenter"",""1"",""1251""
","
","","","","","","1152","images/bush4.png","","","memory_trial","4","definitely_new",""
"html-keyboard-response","287","557134","0.0-18.0-0.121","7589","approach_avoid_sv1","""event"",""trial"",""time""
""fullscreenenter"",""1"",""1251""
","
","
","""event"",""trial"",""time""
""fullscreenenter"",""1"",""1251""
","
","","","","","","null","<div style=""font-size:60px;"">+</div>","null","","fixation","","",""
"memory-trial","288","559384","0.0-18.0-1.121","7589","approach_avoid_sv1","""event"",""trial"",""time""
""fullscreenenter"",""1"",""1251""
","
","
","""event"",""trial"",""time""
""fullscreenenter"",""1"",""1251""
","
","","","","","","1245.800000011921","images/chair2.png","","","memory_trial","2","maybe_old",""
"html-keyboard-response","289","559886","0.0-18.0-0.122","7589","approach_avoid_sv1","""event"",""trial"",""time""
""fullscreenenter"",""1"",""1251""
","
","
","""event"",""trial"",""time""
""fullscreenenter"",""1"",""1251""
","
","","","","","","null","<div style=""font-size:60px;"">+</div>","null","","fixation","","",""
"memory-trial","290","561942","0.0-18.0-1.122","7589","approach_avoid_sv1","""event"",""trial"",""time""
""fullscreenenter"",""1"",""1251""
","
","
","""event"",""trial"",""time""
""fullscreenenter"",""1"",""1251""
","
","","","","","","1038.0999999642372","images/table7.png","","","memory_trial","1","definitely_old",""
"html-keyboard-response","291","562443","0.0-18.0-0.123","7589","approach_avoid_sv1","""event"",""trial"",""time""
""fullscreenenter"",""1"",""1251""
","
","
","""event"",""trial"",""time""
""fullscreenenter"",""1"",""1251""
","
","","","","","","null","<div style=""font-size:60px;"">+</div>","null","","fixation","","",""
"memory-trial","292","564607","0.0-18.0-1.123","7589","approach_avoid_sv1","""event"",""trial"",""time""
""fullscreenenter"",""1"",""1251""
","
","
","""event"",""trial"",""time""
""fullscreenenter"",""1"",""1251""
","
","","","","","","1160.3999999761581","images/rabbit4.png","","","memory_trial","4","definitely_new",""
"html-keyboard-response","293","565109","0.0-18.0-0.124","7589","approach_avoid_sv1","""event"",""trial"",""time""
""fullscreenenter"",""1"",""1251""
","
","
","""event"",""trial"",""time""
""fullscreenenter"",""1"",""1251""
","
","","","","","","null","<div style=""font-size:60px;"">+</div>","null","","fixation","","",""
"memory-trial","294","567421","0.0-18.0-1.124","7589","approach_avoid_sv1","""event"",""trial"",""time""
""fullscreenenter"",""1"",""1251""
","
","
","""event"",""trial"",""time""
""fullscreenenter"",""1"",""1251""
","
","","","","","","1308.1000000238419","images/plane5.png","","","memory_trial","2","maybe_old",""
"html-keyboard-response","295","567923","0.0-18.0-0.125","7589","approach_avoid_sv1","""event"",""trial"",""time""
""fullscreenenter"",""1"",""1251""
","
","
","""event"",""trial"",""time""
""fullscreenenter"",""1"",""1251""
","
","","","","","","null","<div style=""font-size:60px;"">+</div>","null","","fixation","","",""
"memory-trial","296","570602","0.0-18.0-1.125","7589","approach_avoid_sv1","""event"",""trial"",""time""
""fullscreenenter"",""1"",""1251""
","
","
","""event"",""trial"",""time""
""fullscreenenter"",""1"",""1251""
","
","","","","","","1675.3999999761581","images/truck3.png","","","memory_trial","2","maybe_old",""
"html-keyboard-response","297","571104","0.0-18.0-0.126","7589","approach_avoid_sv1","""event"",""trial"",""time""
""fullscreenenter"",""1"",""1251""
","
","
","""event"",""trial"",""time""
""fullscreenenter"",""1"",""1251""
","
","","","","","","null","<div style=""font-size:60px;"">+</div>","null","","fixation","","",""
