"trial_type","trial_index","time_elapsed","internal_node_id","subject_id","task_version","interactions","blur_events","focus_events","fullscreenenter_events","fullscreenexit_events","success","timeout","failed_images","failed_audio","failed_video","rt","stimulus","response","button_pressed","task_part","key_press","answer","correct"
"pavlovia","0","6","0.0-0.0","5618","approach_avoid_sv1","""event"",""trial"",""time""
""fullscreenenter"",""1"",""1824""
","
","
","""event"",""trial"",""time""
""fullscreenenter"",""1"",""1824""
","
","","","","","","","","","","","","",""
"fullscreen","1","2817","0.0-1.0","5618","approach_avoid_sv1","""event"",""trial"",""time""
""fullscreenenter"",""1"",""1824""
","
","
","""event"",""trial"",""time""
""fullscreenenter"",""1"",""1824""
","
","true","","","","","","","","","","","",""
"preload","2","5370","0.0-2.0","5618","approach_avoid_sv1","""event"",""trial"",""time""
""fullscreenenter"",""1"",""1824""
","
","
","""event"",""trial"",""time""
""fullscreenenter"",""1"",""1824""
","
","true","false","[]","[]","[]","","","","","","","",""
"preload","3","6617","0.0-3.0","5618","approach_avoid_sv1","""event"",""trial"",""time""
""fullscreenenter"",""1"",""1824""
","
","
","""event"",""trial"",""time""
""fullscreenenter"",""1"",""1824""
","
","true","false","[]","[]","[]","","","","","","","",""
"preload","4","6860","0.0-4.0","5618","approach_avoid_sv1","""event"",""trial"",""time""
""fullscreenenter"",""1"",""1824""
","
","
","""event"",""trial"",""time""
""fullscreenenter"",""1"",""1824""
","
","true","false","[]","[]","[]","","","","","","","",""
"audio-keyboard-response","5","8932","0.0-5.0","5618","approach_avoid_sv1","""event"",""trial"",""time""
""fullscreenenter"",""1"",""1824""
","
","
","""event"",""trial"",""time""
""fullscreenenter"",""1"",""1824""
","
","","","","","","2066.575963718821","audio/beep_loop.wav"," ","","","","",""
"audio-button-response","6","10118","0.0-6.0","5618","approach_avoid_sv1","""event"",""trial"",""time""
""fullscreenenter"",""1"",""1824""
","
","
","""event"",""trial"",""time""
""fullscreenenter"",""1"",""1824""
","
","","","","","","1184","audio/turtle.wav","3","","","","",""
"audio-button-response","7","12108","0.0-7.0","5618","approach_avoid_sv1","""event"",""trial"",""time""
""fullscreenenter"",""1"",""1824""
","
","
","""event"",""trial"",""time""
""fullscreenenter"",""1"",""1824""
","
","","","","","","987","audio/shark.wav","2","","","","",""
"preload","8","14877","0.0-8.0","5618","approach_avoid_sv1","""event"",""trial"",""time""
""fullscreenenter"",""1"",""1824""
","
","
","""event"",""trial"",""time""
""fullscreenenter"",""1"",""1824""
","
","true","false","[]","[]","[]","","","","","","","",""
"learning-instructions","9","20582","0.0-9.0-0.0","5618","approach_avoid_sv1","""event"",""trial"",""time""
""fullscreenenter"",""1"",""1824""
","
","
","""event"",""trial"",""time""
""fullscreenenter"",""1"",""1824""
","
","","","","","","1226.1000000238419","<p> Welcome back! </p><p> Last week, you had to make choices about lots of different items.  </p>","","0","instructions","","",""
"learning-instructions","10","25153","0.0-9.0-0.1","5618","approach_avoid_sv1","""event"",""trial"",""time""
""fullscreenenter"",""1"",""1824""
","
","
","""event"",""trial"",""time""
""fullscreenenter"",""1"",""1824""
","
","","","","","","457.30000001192093","<p> Today, we are going to ask you to try to remember all the items. </p>","","0","instructions","","",""
"learning-instructions","11","36095","0.0-9.0-0.2","5618","approach_avoid_sv1","""event"",""trial"",""time""
""fullscreenenter"",""1"",""1824""
","
","
","""event"",""trial"",""time""
""fullscreenenter"",""1"",""1824""
","
","","","","","","809.4000000059605","<p> On every trial, you will see an image. </p><p> The image may be an OLD image you saw during the games last week or it may be a NEW image that was not presented. </p>","","0","instructions","","",""
"learning-instructions","12","45254","0.0-9.0-0.3","5618","approach_avoid_sv1","""event"",""trial"",""time""
""fullscreenenter"",""1"",""1824""
","
","
","""event"",""trial"",""time""
""fullscreenenter"",""1"",""1824""
","
","","","","","","662.5","<p> You need to select whether the image is:  </p><p>  'Definitely old', 'Maybe old', 'Maybe new', or 'Definitely new.'  </p><div class=""mem-choice-instructions-grid""><div class=""choice-option"" id=""choice-option-1"" ><img src=""images/definitely_old_1.png"" id=""choice-option-img-1"" class=""choice-option-img"" stage=""1""></div><div class=""choice-option"" id=""choice-option-2"" ><img src=""images/maybe_old_1.png"" id=""choice-option-img-2"" class=""choice-option-img"" stage=""1""></div><div class=""choice-option"" id=""choice-option-3"" ><img src=""images/maybe_new_1.png"" id=""choice-option-img-3"" class=""choice-option-img"" stage=""1""></div><div class=""choice-option"" id=""choice-option-4"" > <img src=""images/definitely_new_1.png"" id=""choice-option-img-4"" class=""choice-option-img"" stage=""1""></div></div>","","0","instructions","","",""
"learning-instructions","13","52263","0.0-9.0-0.4","5618","approach_avoid_sv1","""event"",""trial"",""time""
""fullscreenenter"",""1"",""1824""
","
","
","""event"",""trial"",""time""
""fullscreenenter"",""1"",""1824""
","
","","","","","","496.69999998807907","<p> You should use the 1, 2, 3, and 4 keys to make your responses.  </p><div class=""mem-choice-instructions-grid""><div class=""choice-option"" id=""choice-option-1"" ><img src=""images/definitely_old.png"" id=""choice-option-img-1"" class=""choice-option-img"" stage=""1""></div><div class=""choice-option"" id=""choice-option-2"" ><img src=""images/maybe_old.png"" id=""choice-option-img-2"" class=""choice-option-img"" stage=""1""></div><div class=""choice-option"" id=""choice-option-3"" ><img src=""images/maybe_new.png"" id=""choice-option-img-3"" class=""choice-option-img"" stage=""1""></div><div class=""choice-option"" id=""choice-option-4"" > <img src=""images/definitely_new.png"" id=""choice-option-img-4"" class=""choice-option-img"" stage=""1""></div></div>","","0","instructions","","",""
"learning-instructions","14","59387","0.0-9.0-0.5","5618","approach_avoid_sv1","""event"",""trial"",""time""
""fullscreenenter"",""1"",""1824""
","
","
","""event"",""trial"",""time""
""fullscreenenter"",""1"",""1824""
","
","","","","","","800","<p> You will have 10 seconds to make each response.  </p><p>  Make sure to respond before time runs out! </p>","","0","instructions","","",""
"learning-instructions","15","66956","0.0-9.0-0.6","5618","approach_avoid_sv1","""event"",""trial"",""time""
""fullscreenenter"",""1"",""1824""
","
","
","""event"",""trial"",""time""
""fullscreenenter"",""1"",""1824""
","
","","","","","","497.09999999403954","<p> Today, you will see each image ONCE only.  </p><p>  That means none of the images will repeat. </p>","","0","instructions","","",""
"learning-instructions","16","80081","0.0-9.0-0.7","5618","approach_avoid_sv1","""event"",""trial"",""time""
""fullscreenenter"",""1"",""1824""
","
","
","""event"",""trial"",""time""
""fullscreenenter"",""1"",""1824""
","
","","","","","","461.90000000596046","<p> Before you play the real game, it is time to practice. </p><p>  Just like in the real game, some of the images in the practice will be ones you have seen before. </p><p>  Others will be entirely new. </p>","","0","instructions","","",""
"html-button-response","17","81661","0.0-10.0","5618","approach_avoid_sv1","""event"",""trial"",""time""
""fullscreenenter"",""1"",""1824""
","
","
","""event"",""trial"",""time""
""fullscreenenter"",""1"",""1824""
","
","","","","","","1476.699999988079","<p> Ready to practice? </p><p> Remember, use the 1, 2, 3, and 4 keys to make your responses. </p>","0","","instructions","","",""
"html-keyboard-response","18","82265","0.0-11.0-0.0","5618","approach_avoid_sv1","""event"",""trial"",""time""
""fullscreenenter"",""1"",""1824""
","
","
","""event"",""trial"",""time""
""fullscreenenter"",""1"",""1824""
","
","","","","","","null","<div style=""font-size:60px;"">+</div>","null","","fixation","","",""
"memory-trial","19","87190","0.0-11.0-1.0","5618","approach_avoid_sv1","""event"",""trial"",""time""
""fullscreenenter"",""1"",""1824""
","
","
","""event"",""trial"",""time""
""fullscreenenter"",""1"",""1824""
","
","","","","","","3919","images/ball3.png","","","practice","4","definitely_new",""
"html-keyboard-response","20","87691","0.0-11.0-0.1","5618","approach_avoid_sv1","""event"",""trial"",""time""
""fullscreenenter"",""1"",""1824""
","
","
","""event"",""trial"",""time""
""fullscreenenter"",""1"",""1824""
","
","","","","","","null","<div style=""font-size:60px;"">+</div>","null","","fixation","","",""
"memory-trial","21","90411","0.0-11.0-1.1","5618","approach_avoid_sv1","""event"",""trial"",""time""
""fullscreenenter"",""1"",""1824""
","
","
","""event"",""trial"",""time""
""fullscreenenter"",""1"",""1824""
","
","","","","","","1717","images/ball2.png","","","practice","4","definitely_new",""
"html-keyboard-response","22","90913","0.0-11.0-0.2","5618","approach_avoid_sv1","""event"",""trial"",""time""
""fullscreenenter"",""1"",""1824""
","
","
","""event"",""trial"",""time""
""fullscreenenter"",""1"",""1824""
","
","","","","","","null","<div style=""font-size:60px;"">+</div>","null","","fixation","","",""
"memory-trial","23","93921","0.0-11.0-1.2","5618","approach_avoid_sv1","""event"",""trial"",""time""
""fullscreenenter"",""1"",""1824""
","
","
","""event"",""trial"",""time""
""fullscreenenter"",""1"",""1824""
","
","","","","","","2003.3999999761581","images/ball1.png","","","practice","4","definitely_new",""
"html-keyboard-response","24","94425","0.0-11.0-0.3","5618","approach_avoid_sv1","""event"",""trial"",""time""
""fullscreenenter"",""1"",""1824""
","
","
","""event"",""trial"",""time""
""fullscreenenter"",""1"",""1824""
","
","","","","","","null","<div style=""font-size:60px;"">+</div>","null","","fixation","","",""
"memory-trial","25","99500","0.0-11.0-1.3","5618","approach_avoid_sv1","""event"",""trial"",""time""
""fullscreenenter"",""1"",""1824""
","
","
","""event"",""trial"",""time""
""fullscreenenter"",""1"",""1824""
","
","","","","","","4072.199999988079","images/racket1.png","","","practice","4","definitely_new",""
"html-keyboard-response","26","100006","0.0-11.0-0.4","5618","approach_avoid_sv1","""event"",""trial"",""time""
""fullscreenenter"",""1"",""1824""
","
","
","""event"",""trial"",""time""
""fullscreenenter"",""1"",""1824""
","
","","","","","","null","<div style=""font-size:60px;"">+</div>","null","","fixation","","",""
"memory-trial","27","104907","0.0-11.0-1.4","5618","approach_avoid_sv1","""event"",""trial"",""time""
""fullscreenenter"",""1"",""1824""
","
","
","""event"",""trial"",""time""
""fullscreenenter"",""1"",""1824""
","
","","","","","","3897","images/racket2.png","","","practice","2","maybe_old",""
"html-keyboard-response","28","105411","0.0-11.0-0.5","5618","approach_avoid_sv1","""event"",""trial"",""time""
""fullscreenenter"",""1"",""1824""
","
","
","""event"",""trial"",""time""
""fullscreenenter"",""1"",""1824""
","
","","","","","","null","<div style=""font-size:60px;"">+</div>","null","","fixation","","",""
"memory-trial","29","107213","0.0-11.0-1.5","5618","approach_avoid_sv1","""event"",""trial"",""time""
""fullscreenenter"",""1"",""1824""
","
","
","""event"",""trial"",""time""
""fullscreenenter"",""1"",""1824""
","
","","","","","","799.0999999940395","images/racket3.png","","","practice","2","maybe_old",""
"html-keyboard-response","30","107715","0.0-11.0-0.6","5618","approach_avoid_sv1","""event"",""trial"",""time""
""fullscreenenter"",""1"",""1824""
","
","
","""event"",""trial"",""time""
""fullscreenenter"",""1"",""1824""
","
","","","","","","null","<div style=""font-size:60px;"">+</div>","null","","fixation","","",""
"memory-trial","31","109692","0.0-11.0-1.6","5618","approach_avoid_sv1","""event"",""trial"",""time""
""fullscreenenter"",""1"",""1824""
","
","
","""event"",""trial"",""time""
""fullscreenenter"",""1"",""1824""
","
","","","","","","971.9000000059605","images/ball5.png","","","practice","2","maybe_old",""
"html-keyboard-response","32","110197","0.0-11.0-0.7","5618","approach_avoid_sv1","""event"",""trial"",""time""
""fullscreenenter"",""1"",""1824""
","
","
","""event"",""trial"",""time""
""fullscreenenter"",""1"",""1824""
","
","","","","","","null","<div style=""font-size:60px;"">+</div>","null","","fixation","","",""
"memory-trial","33","112575","0.0-11.0-1.7","5618","approach_avoid_sv1","""event"",""trial"",""time""
""fullscreenenter"",""1"",""1824""
","
","
","""event"",""trial"",""time""
""fullscreenenter"",""1"",""1824""
","
","","","","","","1373.0999999940395","images/racket5.png","","","practice","2","maybe_old",""
"learning-instructions","34","161230","0.0-12.0-0.0","5618","approach_avoid_sv1","""event"",""trial"",""time""
""fullscreenenter"",""1"",""1824""
","
","
","""event"",""trial"",""time""
""fullscreenenter"",""1"",""1824""
","
","","","","","","41342.80000001192","<p> Great! You have completed the practice. </p><p> Before you start, we're going to ask you a few questions about how the game works.  </p>","","0","instructions","","",""
"preload","35","162723","0.0-13.0","5618","approach_avoid_sv1","""event"",""trial"",""time""
""fullscreenenter"",""1"",""1824""
","
","
","""event"",""trial"",""time""
""fullscreenenter"",""1"",""1824""
","
","true","false","[]","[]","[]","","","","","","","",""
"comp-q","36","171588","0.0-14.0-0.0","5618","approach_avoid_sv1","""event"",""trial"",""time""
""fullscreenenter"",""1"",""1824""
","
","
","""event"",""trial"",""time""
""fullscreenenter"",""1"",""1824""
","
","","","","","","2938.2999999821186","<p> <b> True or False? </b> </p><p> In this game, you will only see each image once. </p>","","0","comp_question","","","true"
"comp-q","37","179011","0.0-14.0-1.0","5618","approach_avoid_sv1","""event"",""trial"",""time""
""fullscreenenter"",""1"",""1824""
","
","
","""event"",""trial"",""time""
""fullscreenenter"",""1"",""1824""
","
","","","","","","1089.800000011921","<p> <b> That's right! </b> You will see many different images <i> one time each </i> in this game. </p>","","0","comp_answer","","",""
"comp-q","38","191865","0.0-15.0-0.0","5618","approach_avoid_sv1","""event"",""trial"",""time""
""fullscreenenter"",""1"",""1824""
","
","
","""event"",""trial"",""time""
""fullscreenenter"",""1"",""1824""
","
","","","","","","7838.5999999940395","<p> <b> True or False? </b> </p><p> You should use the mouse and click to make your response. </p>","","1","comp_question","","","true"
"comp-q","39","199271","0.0-15.0-1.0","5618","approach_avoid_sv1","""event"",""trial"",""time""
""fullscreenenter"",""1"",""1824""
","
","
","""event"",""trial"",""time""
""fullscreenenter"",""1"",""1824""
","
","","","","","","903.5","<p><b> That's right! </b> You should use the '1', '2', '3', and '4' keys to make your response. </p>","","0","comp_answer","","",""
"comp-q","40","205920","0.0-16.0-0.0","5618","approach_avoid_sv1","""event"",""trial"",""time""
""fullscreenenter"",""1"",""1824""
","
","
","""event"",""trial"",""time""
""fullscreenenter"",""1"",""1824""
","
","","","","","","973.2999999821186","<p> <b> True or False? </b> </p><p> You will have as much time as you want to make each choice. </p>","","1","comp_question","","","true"
"comp-q","41","211737","0.0-16.0-1.0","5618","approach_avoid_sv1","""event"",""trial"",""time""
""fullscreenenter"",""1"",""1824""
","
","
","""event"",""trial"",""time""
""fullscreenenter"",""1"",""1824""
","
","","","","","","1123.9000000059605","<p> <b> That's right! </b> You will only have 10 seconds to make each choice. </p>","","0","comp_answer","","",""
"learning-instructions","42","222091","0.0-17.0","5618","approach_avoid_sv1","""event"",""trial"",""time""
""fullscreenenter"",""1"",""1824""
","
","
","""event"",""trial"",""time""
""fullscreenenter"",""1"",""1824""
","
","","","","","","1683.2000000178814","<p> Great! You are now ready to begin the game. </p><p> Remember, use the 1, 2, 3, and 4 keys to make your responses. </p>","","0","instructions","","",""
"html-keyboard-response","43","222693","0.0-18.0-0.0","5618","approach_avoid_sv1","""event"",""trial"",""time""
""fullscreenenter"",""1"",""1824""
","
","
","""event"",""trial"",""time""
""fullscreenenter"",""1"",""1824""
","
","","","","","","null","<div style=""font-size:60px;"">+</div>","null","","fixation","","",""
"memory-trial","44","226375","0.0-18.0-1.0","5618","approach_avoid_sv1","""event"",""trial"",""time""
""fullscreenenter"",""1"",""1824""
","
","
","""event"",""trial"",""time""
""fullscreenenter"",""1"",""1824""
","
","","","","","","2677.7999999821186","images/horse3.png","","","memory_trial","1","definitely_old",""
"html-keyboard-response","45","226878","0.0-18.0-0.1","5618","approach_avoid_sv1","""event"",""trial"",""time""
""fullscreenenter"",""1"",""1824""
","
","
","""event"",""trial"",""time""
""fullscreenenter"",""1"",""1824""
","
","","","","","","null","<div style=""font-size:60px;"">+</div>","null","","fixation","","",""
"memory-trial","46","229895","0.0-18.0-1.1","5618","approach_avoid_sv1","""event"",""trial"",""time""
""fullscreenenter"",""1"",""1824""
","
","
","""event"",""trial"",""time""
""fullscreenenter"",""1"",""1824""
","
","","","","","","2010.0999999940395","images/chair2.png","","","memory_trial","1","definitely_old",""
"html-keyboard-response","47","230399","0.0-18.0-0.2","5618","approach_avoid_sv1","""event"",""trial"",""time""
""fullscreenenter"",""1"",""1824""
","
","
","""event"",""trial"",""time""
""fullscreenenter"",""1"",""1824""
","
","","","","","","null","<div style=""font-size:60px;"">+</div>","null","","fixation","","",""
"memory-trial","48","233202","0.0-18.0-1.2","5618","approach_avoid_sv1","""event"",""trial"",""time""
""fullscreenenter"",""1"",""1824""
","
","
","""event"",""trial"",""time""
""fullscreenenter"",""1"",""1824""
","
","","","","","","1799.199999988079","images/banana5.png","","","memory_trial","1","definitely_old",""
"html-keyboard-response","49","233706","0.0-18.0-0.3","5618","approach_avoid_sv1","""event"",""trial"",""time""
""fullscreenenter"",""1"",""1824""
","
","
","""event"",""trial"",""time""
""fullscreenenter"",""1"",""1824""
","
","","","","","","null","<div style=""font-size:60px;"">+</div>","null","","fixation","","",""
"memory-trial","50","236325","0.0-18.0-1.3","5618","approach_avoid_sv1","""event"",""trial"",""time""
""fullscreenenter"",""1"",""1824""
","
","
","""event"",""trial"",""time""
""fullscreenenter"",""1"",""1824""
","
","","","","","","1614.8999999761581","images/sheep2.png","","","memory_trial","3","maybe_new",""
"html-keyboard-response","51","236827","0.0-18.0-0.4","5618","approach_avoid_sv1","""event"",""trial"",""time""
""fullscreenenter"",""1"",""1824""
","
","
","""event"",""trial"",""time""
""fullscreenenter"",""1"",""1824""
","
","","","","","","null","<div style=""font-size:60px;"">+</div>","null","","fixation","","",""
"memory-trial","52","239244","0.0-18.0-1.4","5618","approach_avoid_sv1","""event"",""trial"",""time""
""fullscreenenter"",""1"",""1824""
","
","
","""event"",""trial"",""time""
""fullscreenenter"",""1"",""1824""
","
","","","","","","1414.300000011921","images/sofa4.png","","","memory_trial","1","definitely_old",""
"html-keyboard-response","53","239746","0.0-18.0-0.5","5618","approach_avoid_sv1","""event"",""trial"",""time""
""fullscreenenter"",""1"",""1824""
","
","
","""event"",""trial"",""time""
""fullscreenenter"",""1"",""1824""
","
","","","","","","null","<div style=""font-size:60px;"">+</div>","null","","fixation","","",""
"memory-trial","54","242258","0.0-18.0-1.5","5618","approach_avoid_sv1","""event"",""trial"",""time""
""fullscreenenter"",""1"",""1824""
","
","
","""event"",""trial"",""time""
""fullscreenenter"",""1"",""1824""
","
","","","","","","1509","images/train5.png","","","memory_trial","4","definitely_new",""
"html-keyboard-response","55","242759","0.0-18.0-0.6","5618","approach_avoid_sv1","""event"",""trial"",""time""
""fullscreenenter"",""1"",""1824""
","
","
","""event"",""trial"",""time""
""fullscreenenter"",""1"",""1824""
","
","","","","","","null","<div style=""font-size:60px;"">+</div>","null","","fixation","","",""
"memory-trial","56","245273","0.0-18.0-1.6","5618","approach_avoid_sv1","""event"",""trial"",""time""
""fullscreenenter"",""1"",""1824""
","
","
","""event"",""trial"",""time""
""fullscreenenter"",""1"",""1824""
","
","","","","","","1509.7999999821186","images/goat2.png","","","memory_trial","1","definitely_old",""
"html-keyboard-response","57","245776","0.0-18.0-0.7","5618","approach_avoid_sv1","""event"",""trial"",""time""
""fullscreenenter"",""1"",""1824""
","
","
","""event"",""trial"",""time""
""fullscreenenter"",""1"",""1824""
","
","","","","","","null","<div style=""font-size:60px;"">+</div>","null","","fixation","","",""
"memory-trial","58","248325","0.0-18.0-1.7","5618","approach_avoid_sv1","""event"",""trial"",""time""
""fullscreenenter"",""1"",""1824""
","
","
","""event"",""trial"",""time""
""fullscreenenter"",""1"",""1824""
","
","","","","","","1546.800000011921","images/apple3.png","","","memory_trial","1","definitely_old",""
"html-keyboard-response","59","248827","0.0-18.0-0.8","5618","approach_avoid_sv1","""event"",""trial"",""time""
""fullscreenenter"",""1"",""1824""
","
","
","""event"",""trial"",""time""
""fullscreenenter"",""1"",""1824""
","
","","","","","","null","<div style=""font-size:60px;"">+</div>","null","","fixation","","",""
"memory-trial","60","252164","0.0-18.0-1.8","5618","approach_avoid_sv1","""event"",""trial"",""time""
""fullscreenenter"",""1"",""1824""
","
","
","""event"",""trial"",""time""
""fullscreenenter"",""1"",""1824""
","
","","","","","","2330.4000000059605","images/train2.png","","","memory_trial","3","maybe_new",""
"html-keyboard-response","61","252668","0.0-18.0-0.9","5618","approach_avoid_sv1","""event"",""trial"",""time""
""fullscreenenter"",""1"",""1824""
","
","
","""event"",""trial"",""time""
""fullscreenenter"",""1"",""1824""
","
","","","","","","null","<div style=""font-size:60px;"">+</div>","null","","fixation","","",""
"memory-trial","62","254764","0.0-18.0-1.9","5618","approach_avoid_sv1","""event"",""trial"",""time""
""fullscreenenter"",""1"",""1824""
","
","
","""event"",""trial"",""time""
""fullscreenenter"",""1"",""1824""
","
","","","","","","1092.199999988079","images/cow1.png","","","memory_trial","1","definitely_old",""
"html-keyboard-response","63","255268","0.0-18.0-0.10","5618","approach_avoid_sv1","""event"",""trial"",""time""
""fullscreenenter"",""1"",""1824""
","
","
","""event"",""trial"",""time""
""fullscreenenter"",""1"",""1824""
","
","","","","","","null","<div style=""font-size:60px;"">+</div>","null","","fixation","","",""
"memory-trial","64","257483","0.0-18.0-1.10","5618","approach_avoid_sv1","""event"",""trial"",""time""
""fullscreenenter"",""1"",""1824""
","
","
","""event"",""trial"",""time""
""fullscreenenter"",""1"",""1824""
","
","","","","","","1210.199999988079","images/dog7.png","","","memory_trial","1","definitely_old",""
"html-keyboard-response","65","257986","0.0-18.0-0.11","5618","approach_avoid_sv1","""event"",""trial"",""time""
""fullscreenenter"",""1"",""1824""
","
","
","""event"",""trial"",""time""
""fullscreenenter"",""1"",""1824""
","
","","","","","","null","<div style=""font-size:60px;"">+</div>","null","","fixation","","",""
"memory-trial","66","259797","0.0-18.0-1.11","5618","approach_avoid_sv1","""event"",""trial"",""time""
""fullscreenenter"",""1"",""1824""
","
","
","""event"",""trial"",""time""
""fullscreenenter"",""1"",""1824""
","
","","","","","","805","images/flower7.png","","","memory_trial","1","definitely_old",""
"html-keyboard-response","67","260302","0.0-18.0-0.12","5618","approach_avoid_sv1","""event"",""trial"",""time""
""fullscreenenter"",""1"",""1824""
","
","
","""event"",""trial"",""time""
""fullscreenenter"",""1"",""1824""
","
","","","","","","null","<div style=""font-size:60px;"">+</div>","null","","fixation","","",""
"memory-trial","68","262636","0.0-18.0-1.12","5618","approach_avoid_sv1","""event"",""trial"",""time""
""fullscreenenter"",""1"",""1824""
","
","
","""event"",""trial"",""time""
""fullscreenenter"",""1"",""1824""
","
","","","","","","1330","images/plane7.png","","","memory_trial","1","definitely_old",""
"html-keyboard-response","69","263141","0.0-18.0-0.13","5618","approach_avoid_sv1","""event"",""trial"",""time""
""fullscreenenter"",""1"",""1824""
","
","
","""event"",""trial"",""time""
""fullscreenenter"",""1"",""1824""
","
","","","","","","null","<div style=""font-size:60px;"">+</div>","null","","fixation","","",""
"memory-trial","70","265499","0.0-18.0-1.13","5618","approach_avoid_sv1","""event"",""trial"",""time""
""fullscreenenter"",""1"",""1824""
","
","
","""event"",""trial"",""time""
""fullscreenenter"",""1"",""1824""
","
","","","","","","1355.0999999940395","images/flower3.png","","","memory_trial","2","maybe_old",""
"html-keyboard-response","71","266003","0.0-18.0-0.14","5618","approach_avoid_sv1","""event"",""trial"",""time""
""fullscreenenter"",""1"",""1824""
","
","
","""event"",""trial"",""time""
""fullscreenenter"",""1"",""1824""
","
","","","","","","null","<div style=""font-size:60px;"">+</div>","null","","fixation","","",""
"memory-trial","72","268210","0.0-18.0-1.14","5618","approach_avoid_sv1","""event"",""trial"",""time""
""fullscreenenter"",""1"",""1824""
","
","
","""event"",""trial"",""time""
""fullscreenenter"",""1"",""1824""
","
","","","","","","1204.6000000238419","images/cactus1.png","","","memory_trial","1","definitely_old",""
"html-keyboard-response","73","268714","0.0-18.0-0.15","5618","approach_avoid_sv1","""event"",""trial"",""time""
""fullscreenenter"",""1"",""1824""
","
","
","""event"",""trial"",""time""
""fullscreenenter"",""1"",""1824""
","
","","","","","","null","<div style=""font-size:60px;"">+</div>","null","","fixation","","",""
"memory-trial","74","270613","0.0-18.0-1.15","5618","approach_avoid_sv1","""event"",""trial"",""time""
""fullscreenenter"",""1"",""1824""
","
","
","""event"",""trial"",""time""
""fullscreenenter"",""1"",""1824""
","
","","","","","","894.8000000119209","images/rodent7.png","","","memory_trial","1","definitely_old",""
"html-keyboard-response","75","271117","0.0-18.0-0.16","5618","approach_avoid_sv1","""event"",""trial"",""time""
""fullscreenenter"",""1"",""1824""
","
","
","""event"",""trial"",""time""
""fullscreenenter"",""1"",""1824""
","
","","","","","","null","<div style=""font-size:60px;"">+</div>","null","","fixation","","",""
"memory-trial","76","273225","0.0-18.0-1.16","5618","approach_avoid_sv1","""event"",""trial"",""time""
""fullscreenenter"",""1"",""1824""
","
","
","""event"",""trial"",""time""
""fullscreenenter"",""1"",""1824""
","
","","","","","","1101.300000011921","images/train3.png","","","memory_trial","3","maybe_new",""
"html-keyboard-response","77","273729","0.0-18.0-0.17","5618","approach_avoid_sv1","""event"",""trial"",""time""
""fullscreenenter"",""1"",""1824""
","
","
","""event"",""trial"",""time""
""fullscreenenter"",""1"",""1824""
","
","","","","","","null","<div style=""font-size:60px;"">+</div>","null","","fixation","","",""
"memory-trial","78","275784","0.0-18.0-1.17","5618","approach_avoid_sv1","""event"",""trial"",""time""
""fullscreenenter"",""1"",""1824""
","
","
","""event"",""trial"",""time""
""fullscreenenter"",""1"",""1824""
","
","","","","","","1052.699999988079","images/straw4.png","","","memory_trial","1","definitely_old",""
"html-keyboard-response","79","276290","0.0-18.0-0.18","5618","approach_avoid_sv1","""event"",""trial"",""time""
""fullscreenenter"",""1"",""1824""
","
","
","""event"",""trial"",""time""
""fullscreenenter"",""1"",""1824""
","
","","","","","","null","<div style=""font-size:60px;"">+</div>","null","","fixation","","",""
"memory-trial","80","278077","0.0-18.0-1.18","5618","approach_avoid_sv1","""event"",""trial"",""time""
""fullscreenenter"",""1"",""1824""
","
","
","""event"",""trial"",""time""
""fullscreenenter"",""1"",""1824""
","
","","","","","","783.8000000119209","images/horse5.png","","","memory_trial","1","definitely_old",""
"html-keyboard-response","81","278583","0.0-18.0-0.19","5618","approach_avoid_sv1","""event"",""trial"",""time""
""fullscreenenter"",""1"",""1824""
","
","
","""event"",""trial"",""time""
""fullscreenenter"",""1"",""1824""
","
","","","","","","null","<div style=""font-size:60px;"">+</div>","null","","fixation","","",""
"memory-trial","82","281903","0.0-18.0-1.19","5618","approach_avoid_sv1","""event"",""trial"",""time""
""fullscreenenter"",""1"",""1824""
","
","
","""event"",""trial"",""time""
""fullscreenenter"",""1"",""1824""
","
","","","","","","2316.4000000059605","images/cat3.png","","","memory_trial","1","definitely_old",""
"html-keyboard-response","83","282408","0.0-18.0-0.20","5618","approach_avoid_sv1","""event"",""trial"",""time""
""fullscreenenter"",""1"",""1824""
","
","
","""event"",""trial"",""time""
""fullscreenenter"",""1"",""1824""
","
","","","","","","null","<div style=""font-size:60px;"">+</div>","null","","fixation","","",""
"memory-trial","84","285684","0.0-18.0-1.20","5618","approach_avoid_sv1","""event"",""trial"",""time""
""fullscreenenter"",""1"",""1824""
","
","
","""event"",""trial"",""time""
""fullscreenenter"",""1"",""1824""
","
","","","","","","2270.5999999940395","images/truck6.png","","","memory_trial","2","maybe_old",""
"html-keyboard-response","85","286187","0.0-18.0-0.21","5618","approach_avoid_sv1","""event"",""trial"",""time""
""fullscreenenter"",""1"",""1824""
","
","
","""event"",""trial"",""time""
""fullscreenenter"",""1"",""1824""
","
","","","","","","null","<div style=""font-size:60px;"">+</div>","null","","fixation","","",""
"memory-trial","86","288730","0.0-18.0-1.21","5618","approach_avoid_sv1","""event"",""trial"",""time""
""fullscreenenter"",""1"",""1824""
","
","
","""event"",""trial"",""time""
""fullscreenenter"",""1"",""1824""
","
","","","","","","1538.300000011921","images/dog6.png","","","memory_trial","2","maybe_old",""
"html-keyboard-response","87","289237","0.0-18.0-0.22","5618","approach_avoid_sv1","""event"",""trial"",""time""
""fullscreenenter"",""1"",""1824""
","
","
","""event"",""trial"",""time""
""fullscreenenter"",""1"",""1824""
","
","","","","","","null","<div style=""font-size:60px;"">+</div>","null","","fixation","","",""
"memory-trial","88","291627","0.0-18.0-1.22","5618","approach_avoid_sv1","""event"",""trial"",""time""
""fullscreenenter"",""1"",""1824""
","
","
","""event"",""trial"",""time""
""fullscreenenter"",""1"",""1824""
","
","","","","","","1387.300000011921","images/orange3.png","","","memory_trial","2","maybe_old",""
"html-keyboard-response","89","292132","0.0-18.0-0.23","5618","approach_avoid_sv1","""event"",""trial"",""time""
""fullscreenenter"",""1"",""1824""
","
","
","""event"",""trial"",""time""
""fullscreenenter"",""1"",""1824""
","
","","","","","","null","<div style=""font-size:60px;"">+</div>","null","","fixation","","",""
"memory-trial","90","294442","0.0-18.0-1.23","5618","approach_avoid_sv1","""event"",""trial"",""time""
""fullscreenenter"",""1"",""1824""
","
","
","""event"",""trial"",""time""
""fullscreenenter"",""1"",""1824""
","
","","","","","","1304.199999988079","images/rodent3.png","","","memory_trial","1","definitely_old",""
"html-keyboard-response","91","294947","0.0-18.0-0.24","5618","approach_avoid_sv1","""event"",""trial"",""time""
""fullscreenenter"",""1"",""1824""
","
","
","""event"",""trial"",""time""
""fullscreenenter"",""1"",""1824""
","
","","","","","","null","<div style=""font-size:60px;"">+</div>","null","","fixation","","",""
"memory-trial","92","297009","0.0-18.0-1.24","5618","approach_avoid_sv1","""event"",""trial"",""time""
""fullscreenenter"",""1"",""1824""
","
","
","""event"",""trial"",""time""
""fullscreenenter"",""1"",""1824""
","
","","","","","","1056.199999988079","images/dog3.png","","","memory_trial","1","definitely_old",""
"html-keyboard-response","93","297513","0.0-18.0-0.25","5618","approach_avoid_sv1","""event"",""trial"",""time""
""fullscreenenter"",""1"",""1824""
","
","
","""event"",""trial"",""time""
""fullscreenenter"",""1"",""1824""
","
","","","","","","null","<div style=""font-size:60px;"">+</div>","null","","fixation","","",""
"memory-trial","94","300819","0.0-18.0-1.25","5618","approach_avoid_sv1","""event"",""trial"",""time""
""fullscreenenter"",""1"",""1824""
","
","
","""event"",""trial"",""time""
""fullscreenenter"",""1"",""1824""
","
","","","","","","2299.2999999821186","images/straw7.png","","","memory_trial","2","maybe_old",""
"html-keyboard-response","95","301321","0.0-18.0-0.26","5618","approach_avoid_sv1","""event"",""trial"",""time""
""fullscreenenter"",""1"",""1824""
","
","
","""event"",""trial"",""time""
""fullscreenenter"",""1"",""1824""
","
","","","","","","null","<div style=""font-size:60px;"">+</div>","null","","fixation","","",""
"memory-trial","96","304050","0.0-18.0-1.26","5618","approach_avoid_sv1","""event"",""trial"",""time""
""fullscreenenter"",""1"",""1824""
","
","
","""event"",""trial"",""time""
""fullscreenenter"",""1"",""1824""
","
","","","","","","1721.9000000059605","images/orange4.png","","","memory_trial","1","definitely_old",""
"html-keyboard-response","97","304554","0.0-18.0-0.27","5618","approach_avoid_sv1","""event"",""trial"",""time""
""fullscreenenter"",""1"",""1824""
","
","
","""event"",""trial"",""time""
""fullscreenenter"",""1"",""1824""
","
","","","","","","null","<div style=""font-size:60px;"">+</div>","null","","fixation","","",""
"memory-trial","98","306662","0.0-18.0-1.27","5618","approach_avoid_sv1","""event"",""trial"",""time""
""fullscreenenter"",""1"",""1824""
","
","
","""event"",""trial"",""time""
""fullscreenenter"",""1"",""1824""
","
","","","","","","1104.300000011921","images/chair7.png","","","memory_trial","1","definitely_old",""
"html-keyboard-response","99","307168","0.0-18.0-0.28","5618","approach_avoid_sv1","""event"",""trial"",""time""
""fullscreenenter"",""1"",""1824""
","
","
","""event"",""trial"",""time""
""fullscreenenter"",""1"",""1824""
","
","","","","","","null","<div style=""font-size:60px;"">+</div>","null","","fixation","","",""
"memory-trial","100","311254","0.0-18.0-1.28","5618","approach_avoid_sv1","""event"",""trial"",""time""
""fullscreenenter"",""1"",""1824""
","
","
","""event"",""trial"",""time""
""fullscreenenter"",""1"",""1824""
","
","","","","","","3080.0999999940395","images/train7.png","","","memory_trial","2","maybe_old",""
"html-keyboard-response","101","311759","0.0-18.0-0.29","5618","approach_avoid_sv1","""event"",""trial"",""time""
""fullscreenenter"",""1"",""1824""
","
","
","""event"",""trial"",""time""
""fullscreenenter"",""1"",""1824""
","
","","","","","","null","<div style=""font-size:60px;"">+</div>","null","","fixation","","",""
"memory-trial","102","313779","0.0-18.0-1.29","5618","approach_avoid_sv1","""event"",""trial"",""time""
""fullscreenenter"",""1"",""1824""
","
","
","""event"",""trial"",""time""
""fullscreenenter"",""1"",""1824""
","
","","","","","","1014.1999999880791","images/orange7.png","","","memory_trial","1","definitely_old",""
"html-keyboard-response","103","314282","0.0-18.0-0.30","5618","approach_avoid_sv1","""event"",""trial"",""time""
""fullscreenenter"",""1"",""1824""
","
","
","""event"",""trial"",""time""
""fullscreenenter"",""1"",""1824""
","
","","","","","","null","<div style=""font-size:60px;"">+</div>","null","","fixation","","",""
"memory-trial","104","317234","0.0-18.0-1.30","5618","approach_avoid_sv1","""event"",""trial"",""time""
""fullscreenenter"",""1"",""1824""
","
","
","""event"",""trial"",""time""
""fullscreenenter"",""1"",""1824""
","
","","","","","","1946","images/apple8.png","","","memory_trial","3","maybe_new",""
"html-keyboard-response","105","317738","0.0-18.0-0.31","5618","approach_avoid_sv1","""event"",""trial"",""time""
""fullscreenenter"",""1"",""1824""
","
","
","""event"",""trial"",""time""
""fullscreenenter"",""1"",""1824""
","
","","","","","","null","<div style=""font-size:60px;"">+</div>","null","","fixation","","",""
"memory-trial","106","320037","0.0-18.0-1.31","5618","approach_avoid_sv1","""event"",""trial"",""time""
""fullscreenenter"",""1"",""1824""
","
","
","""event"",""trial"",""time""
""fullscreenenter"",""1"",""1824""
","
","","","","","","1292.699999988079","images/cow5.png","","","memory_trial","3","maybe_new",""
"html-keyboard-response","107","320542","0.0-18.0-0.32","5618","approach_avoid_sv1","""event"",""trial"",""time""
""fullscreenenter"",""1"",""1824""
","
","
","""event"",""trial"",""time""
""fullscreenenter"",""1"",""1824""
","
","","","","","","null","<div style=""font-size:60px;"">+</div>","null","","fixation","","",""
"memory-trial","108","322552","0.0-18.0-1.32","5618","approach_avoid_sv1","""event"",""trial"",""time""
""fullscreenenter"",""1"",""1824""
","
","
","""event"",""trial"",""time""
""fullscreenenter"",""1"",""1824""
","
","","","","","","1005","images/bed1.png","","","memory_trial","3","maybe_new",""
"html-keyboard-response","109","323056","0.0-18.0-0.33","5618","approach_avoid_sv1","""event"",""trial"",""time""
""fullscreenenter"",""1"",""1824""
","
","
","""event"",""trial"",""time""
""fullscreenenter"",""1"",""1824""
","
","","","","","","null","<div style=""font-size:60px;"">+</div>","null","","fixation","","",""
"memory-trial","110","326377","0.0-18.0-1.33","5618","approach_avoid_sv1","""event"",""trial"",""time""
""fullscreenenter"",""1"",""1824""
","
","
","""event"",""trial"",""time""
""fullscreenenter"",""1"",""1824""
","
","","","","","","2318.899999976158","images/banana6.png","","","memory_trial","4","definitely_new",""
"html-keyboard-response","111","326881","0.0-18.0-0.34","5618","approach_avoid_sv1","""event"",""trial"",""time""
""fullscreenenter"",""1"",""1824""
","
","
","""event"",""trial"",""time""
""fullscreenenter"",""1"",""1824""
","
","","","","","","null","<div style=""font-size:60px;"">+</div>","null","","fixation","","",""
"memory-trial","112","329999","0.0-18.0-1.34","5618","approach_avoid_sv1","""event"",""trial"",""time""
""fullscreenenter"",""1"",""1824""
","
","
","""event"",""trial"",""time""
""fullscreenenter"",""1"",""1824""
","
","","","","","","2112","images/bush8.png","","","memory_trial","4","definitely_new",""
"html-keyboard-response","113","330504","0.0-18.0-0.35","5618","approach_avoid_sv1","""event"",""trial"",""time""
""fullscreenenter"",""1"",""1824""
","
","
","""event"",""trial"",""time""
""fullscreenenter"",""1"",""1824""
","
","","","","","","null","<div style=""font-size:60px;"">+</div>","null","","fixation","","",""
"memory-trial","114","333000","0.0-18.0-1.35","5618","approach_avoid_sv1","""event"",""trial"",""time""
""fullscreenenter"",""1"",""1824""
","
","
","""event"",""trial"",""time""
""fullscreenenter"",""1"",""1824""
","
","","","","","","1493.9000000059605","images/chair8.png","","","memory_trial","4","definitely_new",""
"html-keyboard-response","115","333505","0.0-18.0-0.36","5618","approach_avoid_sv1","""event"",""trial"",""time""
""fullscreenenter"",""1"",""1824""
","
","
","""event"",""trial"",""time""
""fullscreenenter"",""1"",""1824""
","
","","","","","","null","<div style=""font-size:60px;"">+</div>","null","","fixation","","",""
"memory-trial","116","335902","0.0-18.0-1.36","5618","approach_avoid_sv1","""event"",""trial"",""time""
""fullscreenenter"",""1"",""1824""
","
","
","""event"",""trial"",""time""
""fullscreenenter"",""1"",""1824""
","
","","","","","","1394.5999999940395","images/chair6.png","","","memory_trial","2","maybe_old",""
"html-keyboard-response","117","336407","0.0-18.0-0.37","5618","approach_avoid_sv1","""event"",""trial"",""time""
""fullscreenenter"",""1"",""1824""
","
","
","""event"",""trial"",""time""
""fullscreenenter"",""1"",""1824""
","
","","","","","","null","<div style=""font-size:60px;"">+</div>","null","","fixation","","",""
"memory-trial","118","338822","0.0-18.0-1.37","5618","approach_avoid_sv1","""event"",""trial"",""time""
""fullscreenenter"",""1"",""1824""
","
","
","""event"",""trial"",""time""
""fullscreenenter"",""1"",""1824""
","
","","","","","","1409.6000000238419","images/plane2.png","","","memory_trial","1","definitely_old",""
"html-keyboard-response","119","339327","0.0-18.0-0.38","5618","approach_avoid_sv1","""event"",""trial"",""time""
""fullscreenenter"",""1"",""1824""
","
","
","""event"",""trial"",""time""
""fullscreenenter"",""1"",""1824""
","
","","","","","","null","<div style=""font-size:60px;"">+</div>","null","","fixation","","",""
"memory-trial","120","342639","0.0-18.0-1.38","5618","approach_avoid_sv1","""event"",""trial"",""time""
""fullscreenenter"",""1"",""1824""
","
","
","""event"",""trial"",""time""
""fullscreenenter"",""1"",""1824""
","
","","","","","","2306.5999999940395","images/cat8.png","","","memory_trial","3","maybe_new",""
"html-keyboard-response","121","343142","0.0-18.0-0.39","5618","approach_avoid_sv1","""event"",""trial"",""time""
""fullscreenenter"",""1"",""1824""
","
","
","""event"",""trial"",""time""
""fullscreenenter"",""1"",""1824""
","
","","","","","","null","<div style=""font-size:60px;"">+</div>","null","","fixation","","",""
"memory-trial","122","345408","0.0-18.0-1.39","5618","approach_avoid_sv1","""event"",""trial"",""time""
""fullscreenenter"",""1"",""1824""
","
","
","""event"",""trial"",""time""
""fullscreenenter"",""1"",""1824""
","
","","","","","","1258.9000000059605","images/straw1.png","","","memory_trial","1","definitely_old",""
"html-keyboard-response","123","345913","0.0-18.0-0.40","5618","approach_avoid_sv1","""event"",""trial"",""time""
""fullscreenenter"",""1"",""1824""
","
","
","""event"",""trial"",""time""
""fullscreenenter"",""1"",""1824""
","
","","","","","","null","<div style=""font-size:60px;"">+</div>","null","","fixation","","",""
"memory-trial","124","348443","0.0-18.0-1.40","5618","approach_avoid_sv1","""event"",""trial"",""time""
""fullscreenenter"",""1"",""1824""
","
","
","""event"",""trial"",""time""
""fullscreenenter"",""1"",""1824""
","
","","","","","","1527.199999988079","images/bed3.png","","","memory_trial","4","definitely_new",""
"html-keyboard-response","125","348947","0.0-18.0-0.41","5618","approach_avoid_sv1","""event"",""trial"",""time""
""fullscreenenter"",""1"",""1824""
","
","
","""event"",""trial"",""time""
""fullscreenenter"",""1"",""1824""
","
","","","","","","null","<div style=""font-size:60px;"">+</div>","null","","fixation","","",""
"memory-trial","126","351954","0.0-18.0-1.41","5618","approach_avoid_sv1","""event"",""trial"",""time""
""fullscreenenter"",""1"",""1824""
","
","
","""event"",""trial"",""time""
""fullscreenenter"",""1"",""1824""
","
","","","","","","2004.7999999821186","images/goat1.png","","","memory_trial","2","maybe_old",""
"html-button-response","127","356768","0.0-18.0-2.41-0.41","5618","approach_avoid_sv1","""event"",""trial"",""time""
""fullscreenenter"",""1"",""1824""
","
","
","""event"",""trial"",""time""
""fullscreenenter"",""1"",""1824""
","
","","","","","","4812.5","<p> Take a break! </p><p> Click the button to continue. </p>","0","","break","","",""
"html-keyboard-response","128","357271","0.0-18.0-0.42","5618","approach_avoid_sv1","""event"",""trial"",""time""
""fullscreenenter"",""1"",""1824""
","
","
","""event"",""trial"",""time""
""fullscreenenter"",""1"",""1824""
","
","","","","","","null","<div style=""font-size:60px;"">+</div>","null","","fixation","","",""
"memory-trial","129","359571","0.0-18.0-1.42","5618","approach_avoid_sv1","""event"",""trial"",""time""
""fullscreenenter"",""1"",""1824""
","
","
","""event"",""trial"",""time""
""fullscreenenter"",""1"",""1824""
","
","","","","","","1296.2999999821186","images/cow4.png","","","memory_trial","2","maybe_old",""
"html-keyboard-response","130","360075","0.0-18.0-0.43","5618","approach_avoid_sv1","""event"",""trial"",""time""
""fullscreenenter"",""1"",""1824""
","
","
","""event"",""trial"",""time""
""fullscreenenter"",""1"",""1824""
","
","","","","","","null","<div style=""font-size:60px;"">+</div>","null","","fixation","","",""
"memory-trial","131","363141","0.0-18.0-1.43","5618","approach_avoid_sv1","""event"",""trial"",""time""
""fullscreenenter"",""1"",""1824""
","
","
","""event"",""trial"",""time""
""fullscreenenter"",""1"",""1824""
","
","","","","","","2058.7000000178814","images/horse4.png","","","memory_trial","3","maybe_new",""
"html-keyboard-response","132","363646","0.0-18.0-0.44","5618","approach_avoid_sv1","""event"",""trial"",""time""
""fullscreenenter"",""1"",""1824""
","
","
","""event"",""trial"",""time""
""fullscreenenter"",""1"",""1824""
","
","","","","","","null","<div style=""font-size:60px;"">+</div>","null","","fixation","","",""
"memory-trial","133","365765","0.0-18.0-1.44","5618","approach_avoid_sv1","""event"",""trial"",""time""
""fullscreenenter"",""1"",""1824""
","
","
","""event"",""trial"",""time""
""fullscreenenter"",""1"",""1824""
","
","","","","","","1117.2000000178814","images/train8.png","","","memory_trial","3","maybe_new",""
"html-keyboard-response","134","366269","0.0-18.0-0.45","5618","approach_avoid_sv1","""event"",""trial"",""time""
""fullscreenenter"",""1"",""1824""
","
","
","""event"",""trial"",""time""
""fullscreenenter"",""1"",""1824""
","
","","","","","","null","<div style=""font-size:60px;"">+</div>","null","","fixation","","",""
"memory-trial","135","368940","0.0-18.0-1.45","5618","approach_avoid_sv1","""event"",""trial"",""time""
""fullscreenenter"",""1"",""1824""
","
","
","""event"",""trial"",""time""
""fullscreenenter"",""1"",""1824""
","
","","","","","","1663.9000000059605","images/apple6.png","","","memory_trial","2","maybe_old",""
"html-keyboard-response","136","369445","0.0-18.0-0.46","5618","approach_avoid_sv1","""event"",""trial"",""time""
""fullscreenenter"",""1"",""1824""
","
","
","""event"",""trial"",""time""
""fullscreenenter"",""1"",""1824""
","
","","","","","","null","<div style=""font-size:60px;"">+</div>","null","","fixation","","",""
"memory-trial","137","371806","0.0-18.0-1.46","5618","approach_avoid_sv1","""event"",""trial"",""time""
""fullscreenenter"",""1"",""1824""
","
","
","""event"",""trial"",""time""
""fullscreenenter"",""1"",""1824""
","
","","","","","","1354.8999999761581","images/apple1.png","","","memory_trial","1","definitely_old",""
"html-keyboard-response","138","372310","0.0-18.0-0.47","5618","approach_avoid_sv1","""event"",""trial"",""time""
""fullscreenenter"",""1"",""1824""
","
","
","""event"",""trial"",""time""
""fullscreenenter"",""1"",""1824""
","
","","","","","","null","<div style=""font-size:60px;"">+</div>","null","","fixation","","",""
"memory-trial","139","375955","0.0-18.0-1.47","5618","approach_avoid_sv1","""event"",""trial"",""time""
""fullscreenenter"",""1"",""1824""
","
","
","""event"",""trial"",""time""
""fullscreenenter"",""1"",""1824""
","
","","","","","","2641.300000011921","images/plane6.png","","","memory_trial","1","definitely_old",""
"html-keyboard-response","140","376459","0.0-18.0-0.48","5618","approach_avoid_sv1","""event"",""trial"",""time""
""fullscreenenter"",""1"",""1824""
","
","
","""event"",""trial"",""time""
""fullscreenenter"",""1"",""1824""
","
","","","","","","null","<div style=""font-size:60px;"">+</div>","null","","fixation","","",""
"memory-trial","141","381514","0.0-18.0-1.48","5618","approach_avoid_sv1","""event"",""trial"",""time""
""fullscreenenter"",""1"",""1824""
","
","
","""event"",""trial"",""time""
""fullscreenenter"",""1"",""1824""
","
","","","","","","4051.4000000059605","images/boat4.png","","","memory_trial","2","maybe_old",""
"html-keyboard-response","142","382019","0.0-18.0-0.49","5618","approach_avoid_sv1","""event"",""trial"",""time""
""fullscreenenter"",""1"",""1824""
","
","
","""event"",""trial"",""time""
""fullscreenenter"",""1"",""1824""
","
","","","","","","null","<div style=""font-size:60px;"">+</div>","null","","fixation","","",""
"memory-trial","143","384620","0.0-18.0-1.49","5618","approach_avoid_sv1","""event"",""trial"",""time""
""fullscreenenter"",""1"",""1824""
","
","
","""event"",""trial"",""time""
""fullscreenenter"",""1"",""1824""
","
","","","","","","1594.4000000059605","images/straw6.png","","","memory_trial","3","maybe_new",""
"html-keyboard-response","144","385125","0.0-18.0-0.50","5618","approach_avoid_sv1","""event"",""trial"",""time""
""fullscreenenter"",""1"",""1824""
","
","
","""event"",""trial"",""time""
""fullscreenenter"",""1"",""1824""
","
","","","","","","null","<div style=""font-size:60px;"">+</div>","null","","fixation","","",""
"memory-trial","145","387425","0.0-18.0-1.50","5618","approach_avoid_sv1","""event"",""trial"",""time""
""fullscreenenter"",""1"",""1824""
","
","
","""event"",""trial"",""time""
""fullscreenenter"",""1"",""1824""
","
","","","","","","1292.800000011921","images/bush4.png","","","memory_trial","4","definitely_new",""
"html-keyboard-response","146","387928","0.0-18.0-0.51","5618","approach_avoid_sv1","""event"",""trial"",""time""
""fullscreenenter"",""1"",""1824""
","
","
","""event"",""trial"",""time""
""fullscreenenter"",""1"",""1824""
","
","","","","","","null","<div style=""font-size:60px;"">+</div>","null","","fixation","","",""
"memory-trial","147","390784","0.0-18.0-1.51","5618","approach_avoid_sv1","""event"",""trial"",""time""
""fullscreenenter"",""1"",""1824""
","
","
","""event"",""trial"",""time""
""fullscreenenter"",""1"",""1824""
","
","","","","","","1851.800000011921","images/boat1.png","","","memory_trial","2","maybe_old",""
"html-keyboard-response","148","391290","0.0-18.0-0.52","5618","approach_avoid_sv1","""event"",""trial"",""time""
""fullscreenenter"",""1"",""1824""
","
","
","""event"",""trial"",""time""
""fullscreenenter"",""1"",""1824""
","
","","","","","","null","<div style=""font-size:60px;"">+</div>","null","","fixation","","",""
"memory-trial","149","394373","0.0-18.0-1.52","5618","approach_avoid_sv1","""event"",""trial"",""time""
""fullscreenenter"",""1"",""1824""
","
","
","""event"",""trial"",""time""
""fullscreenenter"",""1"",""1824""
","
","","","","","","2080","images/rabbit6.png","","","memory_trial","3","maybe_new",""
"html-keyboard-response","150","394877","0.0-18.0-0.53","5618","approach_avoid_sv1","""event"",""trial"",""time""
""fullscreenenter"",""1"",""1824""
","
","
","""event"",""trial"",""time""
""fullscreenenter"",""1"",""1824""
","
","","","","","","null","<div style=""font-size:60px;"">+</div>","null","","fixation","","",""
"memory-trial","151","398337","0.0-18.0-1.53","5618","approach_avoid_sv1","""event"",""trial"",""time""
""fullscreenenter"",""1"",""1824""
","
","
","""event"",""trial"",""time""
""fullscreenenter"",""1"",""1824""
","
","","","","","","2456.5999999940395","images/cactus7.png","","","memory_trial","2","maybe_old",""
"html-keyboard-response","152","398842","0.0-18.0-0.54","5618","approach_avoid_sv1","""event"",""trial"",""time""
""fullscreenenter"",""1"",""1824""
","
","
","""event"",""trial"",""time""
""fullscreenenter"",""1"",""1824""
","
","","","","","","null","<div style=""font-size:60px;"">+</div>","null","","fixation","","",""
"memory-trial","153","402970","0.0-18.0-1.54","5618","approach_avoid_sv1","""event"",""trial"",""time""
""fullscreenenter"",""1"",""1824""
","
","
","""event"",""trial"",""time""
""fullscreenenter"",""1"",""1824""
","
","","","","","","3121.300000011921","images/boat8.png","","","memory_trial","2","maybe_old",""
"html-keyboard-response","154","403475","0.0-18.0-0.55","5618","approach_avoid_sv1","""event"",""trial"",""time""
""fullscreenenter"",""1"",""1824""
","
","
","""event"",""trial"",""time""
""fullscreenenter"",""1"",""1824""
","
","","","","","","null","<div style=""font-size:60px;"">+</div>","null","","fixation","","",""
"memory-trial","155","406049","0.0-18.0-1.55","5618","approach_avoid_sv1","""event"",""trial"",""time""
""fullscreenenter"",""1"",""1824""
","
","
","""event"",""trial"",""time""
""fullscreenenter"",""1"",""1824""
","
","","","","","","1568.5999999940395","images/banana8.png","","","memory_trial","4","definitely_new",""
"html-keyboard-response","156","406552","0.0-18.0-0.56","5618","approach_avoid_sv1","""event"",""trial"",""time""
""fullscreenenter"",""1"",""1824""
","
","
","""event"",""trial"",""time""
""fullscreenenter"",""1"",""1824""
","
","","","","","","null","<div style=""font-size:60px;"">+</div>","null","","fixation","","",""
"memory-trial","157","409692","0.0-18.0-1.56","5618","approach_avoid_sv1","""event"",""trial"",""time""
""fullscreenenter"",""1"",""1824""
","
","
","""event"",""trial"",""time""
""fullscreenenter"",""1"",""1824""
","
","","","","","","2136.7000000178814","images/tree5.png","","","memory_trial","3","maybe_new",""
"html-keyboard-response","158","410197","0.0-18.0-0.57","5618","approach_avoid_sv1","""event"",""trial"",""time""
""fullscreenenter"",""1"",""1824""
","
","
","""event"",""trial"",""time""
""fullscreenenter"",""1"",""1824""
","
","","","","","","null","<div style=""font-size:60px;"">+</div>","null","","fixation","","",""
"memory-trial","159","412159","0.0-18.0-1.57","5618","approach_avoid_sv1","""event"",""trial"",""time""
""fullscreenenter"",""1"",""1824""
","
","
","""event"",""trial"",""time""
""fullscreenenter"",""1"",""1824""
","
","","","","","","956.1999999880791","images/horse6.png","","","memory_trial","1","definitely_old",""
"html-keyboard-response","160","412664","0.0-18.0-0.58","5618","approach_avoid_sv1","""event"",""trial"",""time""
""fullscreenenter"",""1"",""1824""
","
","
","""event"",""trial"",""time""
""fullscreenenter"",""1"",""1824""
","
","","","","","","null","<div style=""font-size:60px;"">+</div>","null","","fixation","","",""
"memory-trial","161","415265","0.0-18.0-1.58","5618","approach_avoid_sv1","""event"",""trial"",""time""
""fullscreenenter"",""1"",""1824""
","
","
","""event"",""trial"",""time""
""fullscreenenter"",""1"",""1824""
","
","","","","","","1598.300000011921","images/cactus8.png","","","memory_trial","2","maybe_old",""
"html-keyboard-response","162","415770","0.0-18.0-0.59","5618","approach_avoid_sv1","""event"",""trial"",""time""
""fullscreenenter"",""1"",""1824""
","
","
","""event"",""trial"",""time""
""fullscreenenter"",""1"",""1824""
","
","","","","","","null","<div style=""font-size:60px;"">+</div>","null","","fixation","","",""
"memory-trial","163","418672","0.0-18.0-1.59","5618","approach_avoid_sv1","""event"",""trial"",""time""
""fullscreenenter"",""1"",""1824""
","
","
","""event"",""trial"",""time""
""fullscreenenter"",""1"",""1824""
","
","","","","","","1896.5999999940395","images/table7.png","","","memory_trial","3","maybe_new",""
"html-keyboard-response","164","419177","0.0-18.0-0.60","5618","approach_avoid_sv1","""event"",""trial"",""time""
""fullscreenenter"",""1"",""1824""
","
","
","""event"",""trial"",""time""
""fullscreenenter"",""1"",""1824""
","
","","","","","","null","<div style=""font-size:60px;"">+</div>","null","","fixation","","",""
"memory-trial","165","422023","0.0-18.0-1.60","5618","approach_avoid_sv1","""event"",""trial"",""time""
""fullscreenenter"",""1"",""1824""
","
","
","""event"",""trial"",""time""
""fullscreenenter"",""1"",""1824""
","
","","","","","","1839.4000000059605","images/straw8.png","","","memory_trial","2","maybe_old",""
"html-keyboard-response","166","422527","0.0-18.0-0.61","5618","approach_avoid_sv1","""event"",""trial"",""time""
""fullscreenenter"",""1"",""1824""
","
","
","""event"",""trial"",""time""
""fullscreenenter"",""1"",""1824""
","
","","","","","","null","<div style=""font-size:60px;"">+</div>","null","","fixation","","",""
"memory-trial","167","425662","0.0-18.0-1.61","5618","approach_avoid_sv1","""event"",""trial"",""time""
""fullscreenenter"",""1"",""1824""
","
","
","""event"",""trial"",""time""
""fullscreenenter"",""1"",""1824""
","
","","","","","","2130.4000000059605","images/bush3.png","","","memory_trial","4","definitely_new",""
"html-keyboard-response","168","426168","0.0-18.0-0.62","5618","approach_avoid_sv1","""event"",""trial"",""time""
""fullscreenenter"",""1"",""1824""
","
","
","""event"",""trial"",""time""
""fullscreenenter"",""1"",""1824""
","
","","","","","","null","<div style=""font-size:60px;"">+</div>","null","","fixation","","",""
"memory-trial","169","428328","0.0-18.0-1.62","5618","approach_avoid_sv1","""event"",""trial"",""time""
""fullscreenenter"",""1"",""1824""
","
","
","""event"",""trial"",""time""
""fullscreenenter"",""1"",""1824""
","
","","","","","","1154.199999988079","images/apple4.png","","","memory_trial","4","definitely_new",""
"html-keyboard-response","170","428833","0.0-18.0-0.63","5618","approach_avoid_sv1","""event"",""trial"",""time""
""fullscreenenter"",""1"",""1824""
","
","
","""event"",""trial"",""time""
""fullscreenenter"",""1"",""1824""
","
","","","","","","null","<div style=""font-size:60px;"">+</div>","null","","fixation","","",""
"memory-trial","171","430853","0.0-18.0-1.63","5618","approach_avoid_sv1","""event"",""trial"",""time""
""fullscreenenter"",""1"",""1824""
","
","
","""event"",""trial"",""time""
""fullscreenenter"",""1"",""1824""
","
","","","","","","1013.6999999880791","images/bed7.png","","","memory_trial","4","definitely_new",""
"html-keyboard-response","172","431357","0.0-18.0-0.64","5618","approach_avoid_sv1","""event"",""trial"",""time""
""fullscreenenter"",""1"",""1824""
","
","
","""event"",""trial"",""time""
""fullscreenenter"",""1"",""1824""
","
","","","","","","null","<div style=""font-size:60px;"">+</div>","null","","fixation","","",""
"memory-trial","173","433981","0.0-18.0-1.64","5618","approach_avoid_sv1","""event"",""trial"",""time""
""fullscreenenter"",""1"",""1824""
","
","
","""event"",""trial"",""time""
""fullscreenenter"",""1"",""1824""
","
","","","","","","1617.5","images/orange8.png","","","memory_trial","3","maybe_new",""
"html-keyboard-response","174","434485","0.0-18.0-0.65","5618","approach_avoid_sv1","""event"",""trial"",""time""
""fullscreenenter"",""1"",""1824""
","
","
","""event"",""trial"",""time""
""fullscreenenter"",""1"",""1824""
","
","","","","","","null","<div style=""font-size:60px;"">+</div>","null","","fixation","","",""
"memory-trial","175","436500","0.0-18.0-1.65","5618","approach_avoid_sv1","""event"",""trial"",""time""
""fullscreenenter"",""1"",""1824""
","
","
","""event"",""trial"",""time""
""fullscreenenter"",""1"",""1824""
","
","","","","","","1011","images/chair1.png","","","memory_trial","3","maybe_new",""
"html-keyboard-response","176","437002","0.0-18.0-0.66","5618","approach_avoid_sv1","""event"",""trial"",""time""
""fullscreenenter"",""1"",""1824""
","
","
","""event"",""trial"",""time""
""fullscreenenter"",""1"",""1824""
","
","","","","","","null","<div style=""font-size:60px;"">+</div>","null","","fixation","","",""
"memory-trial","177","439086","0.0-18.0-1.66","5618","approach_avoid_sv1","""event"",""trial"",""time""
""fullscreenenter"",""1"",""1824""
","
","
","""event"",""trial"",""time""
""fullscreenenter"",""1"",""1824""
","
","","","","","","1078.5999999940395","images/truck8.png","","","memory_trial","1","definitely_old",""
"html-keyboard-response","178","439588","0.0-18.0-0.67","5618","approach_avoid_sv1","""event"",""trial"",""time""
""fullscreenenter"",""1"",""1824""
","
","
","""event"",""trial"",""time""
""fullscreenenter"",""1"",""1824""
","
","","","","","","null","<div style=""font-size:60px;"">+</div>","null","","fixation","","",""
"memory-trial","179","441720","0.0-18.0-1.67","5618","approach_avoid_sv1","""event"",""trial"",""time""
""fullscreenenter"",""1"",""1824""
","
","
","""event"",""trial"",""time""
""fullscreenenter"",""1"",""1824""
","
","","","","","","1128.0999999940395","images/boat7.png","","","memory_trial","2","maybe_old",""
"html-keyboard-response","180","442224","0.0-18.0-0.68","5618","approach_avoid_sv1","""event"",""trial"",""time""
""fullscreenenter"",""1"",""1824""
","
","
","""event"",""trial"",""time""
""fullscreenenter"",""1"",""1824""
","
","","","","","","null","<div style=""font-size:60px;"">+</div>","null","","fixation","","",""
"memory-trial","181","444442","0.0-18.0-1.68","5618","approach_avoid_sv1","""event"",""trial"",""time""
""fullscreenenter"",""1"",""1824""
","
","
","""event"",""trial"",""time""
""fullscreenenter"",""1"",""1824""
","
","","","","","","1212.199999988079","images/sofa2.png","","","memory_trial","2","maybe_old",""
"html-keyboard-response","182","444947","0.0-18.0-0.69","5618","approach_avoid_sv1","""event"",""trial"",""time""
""fullscreenenter"",""1"",""1824""
","
","
","""event"",""trial"",""time""
""fullscreenenter"",""1"",""1824""
","
","","","","","","null","<div style=""font-size:60px;"">+</div>","null","","fixation","","",""
"memory-trial","183","448408","0.0-18.0-1.69","5618","approach_avoid_sv1","""event"",""trial"",""time""
""fullscreenenter"",""1"",""1824""
","
","
","""event"",""trial"",""time""
""fullscreenenter"",""1"",""1824""
","
","","","","","","2455.5","images/boat5.png","","","memory_trial","2","maybe_old",""
"html-keyboard-response","184","448912","0.0-18.0-0.70","5618","approach_avoid_sv1","""event"",""trial"",""time""
""fullscreenenter"",""1"",""1824""
","
","
","""event"",""trial"",""time""
""fullscreenenter"",""1"",""1824""
","
","","","","","","null","<div style=""font-size:60px;"">+</div>","null","","fixation","","",""
"memory-trial","185","451245","0.0-18.0-1.70","5618","approach_avoid_sv1","""event"",""trial"",""time""
""fullscreenenter"",""1"",""1824""
","
","
","""event"",""trial"",""time""
""fullscreenenter"",""1"",""1824""
","
","","","","","","1328.699999988079","images/dog5.png","","","memory_trial","2","maybe_old",""
"html-keyboard-response","186","451751","0.0-18.0-0.71","5618","approach_avoid_sv1","""event"",""trial"",""time""
""fullscreenenter"",""1"",""1824""
","
","
","""event"",""trial"",""time""
""fullscreenenter"",""1"",""1824""
","
","","","","","","null","<div style=""font-size:60px;"">+</div>","null","","fixation","","",""
"memory-trial","187","454148","0.0-18.0-1.71","5618","approach_avoid_sv1","""event"",""trial"",""time""
""fullscreenenter"",""1"",""1824""
","
","
","""event"",""trial"",""time""
""fullscreenenter"",""1"",""1824""
","
","","","","","","1390.4000000059605","images/truck3.png","","","memory_trial","4","definitely_new",""
"html-keyboard-response","188","454653","0.0-18.0-0.72","5618","approach_avoid_sv1","""event"",""trial"",""time""
""fullscreenenter"",""1"",""1824""
","
","
","""event"",""trial"",""time""
""fullscreenenter"",""1"",""1824""
","
","","","","","","null","<div style=""font-size:60px;"">+</div>","null","","fixation","","",""
"memory-trial","189","456800","0.0-18.0-1.72","5618","approach_avoid_sv1","""event"",""trial"",""time""
""fullscreenenter"",""1"",""1824""
","
","
","""event"",""trial"",""time""
""fullscreenenter"",""1"",""1824""
","
","","","","","","1145.699999988079","images/dog2.png","","","memory_trial","1","definitely_old",""
"html-keyboard-response","190","457305","0.0-18.0-0.73","5618","approach_avoid_sv1","""event"",""trial"",""time""
""fullscreenenter"",""1"",""1824""
","
","
","""event"",""trial"",""time""
""fullscreenenter"",""1"",""1824""
","
","","","","","","null","<div style=""font-size:60px;"">+</div>","null","","fixation","","",""
"memory-trial","191","459151","0.0-18.0-1.73","5618","approach_avoid_sv1","""event"",""trial"",""time""
""fullscreenenter"",""1"",""1824""
","
","
","""event"",""trial"",""time""
""fullscreenenter"",""1"",""1824""
","
","","","","","","841.7000000178814","images/boat2.png","","","memory_trial","4","definitely_new",""
"html-keyboard-response","192","459658","0.0-18.0-0.74","5618","approach_avoid_sv1","""event"",""trial"",""time""
""fullscreenenter"",""1"",""1824""
","
","
","""event"",""trial"",""time""
""fullscreenenter"",""1"",""1824""
","
","","","","","","null","<div style=""font-size:60px;"">+</div>","null","","fixation","","",""
"memory-trial","193","461459","0.0-18.0-1.74","5618","approach_avoid_sv1","""event"",""trial"",""time""
""fullscreenenter"",""1"",""1824""
","
","
","""event"",""trial"",""time""
""fullscreenenter"",""1"",""1824""
","
","","","","","","795","images/bed8.png","","","memory_trial","3","maybe_new",""
"html-keyboard-response","194","461963","0.0-18.0-0.75","5618","approach_avoid_sv1","""event"",""trial"",""time""
""fullscreenenter"",""1"",""1824""
","
","
","""event"",""trial"",""time""
""fullscreenenter"",""1"",""1824""
","
","","","","","","null","<div style=""font-size:60px;"">+</div>","null","","fixation","","",""
"memory-trial","195","464082","0.0-18.0-1.75","5618","approach_avoid_sv1","""event"",""trial"",""time""
""fullscreenenter"",""1"",""1824""
","
","
","""event"",""trial"",""time""
""fullscreenenter"",""1"",""1824""
","
","","","","","","1116.699999988079","images/horse1.png","","","memory_trial","3","maybe_new",""
"html-keyboard-response","196","464586","0.0-18.0-0.76","5618","approach_avoid_sv1","""event"",""trial"",""time""
""fullscreenenter"",""1"",""1824""
","
","
","""event"",""trial"",""time""
""fullscreenenter"",""1"",""1824""
","
","","","","","","null","<div style=""font-size:60px;"">+</div>","null","","fixation","","",""
"memory-trial","197","467436","0.0-18.0-1.76","5618","approach_avoid_sv1","""event"",""trial"",""time""
""fullscreenenter"",""1"",""1824""
","
","
","""event"",""trial"",""time""
""fullscreenenter"",""1"",""1824""
","
","","","","","","1844.4000000059605","images/cat7.png","","","memory_trial","3","maybe_new",""
"html-keyboard-response","198","467941","0.0-18.0-0.77","5618","approach_avoid_sv1","""event"",""trial"",""time""
""fullscreenenter"",""1"",""1824""
","
","
","""event"",""trial"",""time""
""fullscreenenter"",""1"",""1824""
","
","","","","","","null","<div style=""font-size:60px;"">+</div>","null","","fixation","","",""
"memory-trial","199","469727","0.0-18.0-1.77","5618","approach_avoid_sv1","""event"",""trial"",""time""
""fullscreenenter"",""1"",""1824""
","
","
","""event"",""trial"",""time""
""fullscreenenter"",""1"",""1824""
","
","","","","","","779.8000000119209","images/rabbit3.png","","","memory_trial","3","maybe_new",""
"html-keyboard-response","200","470232","0.0-18.0-0.78","5618","approach_avoid_sv1","""event"",""trial"",""time""
""fullscreenenter"",""1"",""1824""
","
","
","""event"",""trial"",""time""
""fullscreenenter"",""1"",""1824""
","
","","","","","","null","<div style=""font-size:60px;"">+</div>","null","","fixation","","",""
"memory-trial","201","472510","0.0-18.0-1.78","5618","approach_avoid_sv1","""event"",""trial"",""time""
""fullscreenenter"",""1"",""1824""
","
","
","""event"",""trial"",""time""
""fullscreenenter"",""1"",""1824""
","
","","","","","","1272.0999999940395","images/cactus5.png","","","memory_trial","1","definitely_old",""
"html-keyboard-response","202","473014","0.0-18.0-0.79","5618","approach_avoid_sv1","""event"",""trial"",""time""
""fullscreenenter"",""1"",""1824""
","
","
","""event"",""trial"",""time""
""fullscreenenter"",""1"",""1824""
","
","","","","","","null","<div style=""font-size:60px;"">+</div>","null","","fixation","","",""
"memory-trial","203","475030","0.0-18.0-1.79","5618","approach_avoid_sv1","""event"",""trial"",""time""
""fullscreenenter"",""1"",""1824""
","
","
","""event"",""trial"",""time""
""fullscreenenter"",""1"",""1824""
","
","","","","","","1013.5999999940395","images/plane3.png","","","memory_trial","2","maybe_old",""
"html-keyboard-response","204","475532","0.0-18.0-0.80","5618","approach_avoid_sv1","""event"",""trial"",""time""
""fullscreenenter"",""1"",""1824""
","
","
","""event"",""trial"",""time""
""fullscreenenter"",""1"",""1824""
","
","","","","","","null","<div style=""font-size:60px;"">+</div>","null","","fixation","","",""
"memory-trial","205","477573","0.0-18.0-1.80","5618","approach_avoid_sv1","""event"",""trial"",""time""
""fullscreenenter"",""1"",""1824""
","
","
","""event"",""trial"",""time""
""fullscreenenter"",""1"",""1824""
","
","","","","","","1034.199999988079","images/chair5.png","","","memory_trial","3","maybe_new",""
"html-keyboard-response","206","478078","0.0-18.0-0.81","5618","approach_avoid_sv1","""event"",""trial"",""time""
""fullscreenenter"",""1"",""1824""
","
","
","""event"",""trial"",""time""
""fullscreenenter"",""1"",""1824""
","
","","","","","","null","<div style=""font-size:60px;"">+</div>","null","","fixation","","",""
"memory-trial","207","480523","0.0-18.0-1.81","5618","approach_avoid_sv1","""event"",""trial"",""time""
""fullscreenenter"",""1"",""1824""
","
","
","""event"",""trial"",""time""
""fullscreenenter"",""1"",""1824""
","
","","","","","","1441.9000000059605","images/tree1.png","","","memory_trial","2","maybe_old",""
"html-keyboard-response","208","481026","0.0-18.0-0.82","5618","approach_avoid_sv1","""event"",""trial"",""time""
""fullscreenenter"",""1"",""1824""
","
","
","""event"",""trial"",""time""
""fullscreenenter"",""1"",""1824""
","
","","","","","","null","<div style=""font-size:60px;"">+</div>","null","","fixation","","",""
"memory-trial","209","483528","0.0-18.0-1.82","5618","approach_avoid_sv1","""event"",""trial"",""time""
""fullscreenenter"",""1"",""1824""
","
","
","""event"",""trial"",""time""
""fullscreenenter"",""1"",""1824""
","
","","","","","","1498.1000000238419","images/sofa5.png","","","memory_trial","3","maybe_new",""
"html-keyboard-response","210","484033","0.0-18.0-0.83","5618","approach_avoid_sv1","""event"",""trial"",""time""
""fullscreenenter"",""1"",""1824""
","
","
","""event"",""trial"",""time""
""fullscreenenter"",""1"",""1824""
","
","","","","","","null","<div style=""font-size:60px;"">+</div>","null","","fixation","","",""
"memory-trial","211","486276","0.0-18.0-1.83","5618","approach_avoid_sv1","""event"",""trial"",""time""
""fullscreenenter"",""1"",""1824""
","
","
","""event"",""trial"",""time""
""fullscreenenter"",""1"",""1824""
","
","","","","","","1237.0999999940395","images/cat4.png","","","memory_trial","2","maybe_old",""
"html-keyboard-response","212","486779","0.0-18.0-0.84","5618","approach_avoid_sv1","""event"",""trial"",""time""
""fullscreenenter"",""1"",""1824""
","
","
","""event"",""trial"",""time""
""fullscreenenter"",""1"",""1824""
","
","","","","","","null","<div style=""font-size:60px;"">+</div>","null","","fixation","","",""
"memory-trial","213","488570","0.0-18.0-1.84","5618","approach_avoid_sv1","""event"",""trial"",""time""
""fullscreenenter"",""1"",""1824""
","
","
","""event"",""trial"",""time""
""fullscreenenter"",""1"",""1824""
","
","","","","","","788.6999999880791","images/cactus4.png","","","memory_trial","2","maybe_old",""
"html-keyboard-response","214","489071","0.0-18.0-0.85","5618","approach_avoid_sv1","""event"",""trial"",""time""
""fullscreenenter"",""1"",""1824""
","
","
","""event"",""trial"",""time""
""fullscreenenter"",""1"",""1824""
","
","","","","","","null","<div style=""font-size:60px;"">+</div>","null","","fixation","","",""
"memory-trial","215","491220","0.0-18.0-1.85","5618","approach_avoid_sv1","""event"",""trial"",""time""
""fullscreenenter"",""1"",""1824""
","
","
","""event"",""trial"",""time""
""fullscreenenter"",""1"",""1824""
","
","","","","","","1144.2999999821186","images/cat6.png","","","memory_trial","2","maybe_old",""
"html-keyboard-response","216","491725","0.0-18.0-0.86","5618","approach_avoid_sv1","""event"",""trial"",""time""
""fullscreenenter"",""1"",""1824""
","
","
","""event"",""trial"",""time""
""fullscreenenter"",""1"",""1824""
","
","","","","","","null","<div style=""font-size:60px;"">+</div>","null","","fixation","","",""
"memory-trial","217","493547","0.0-18.0-1.86","5618","approach_avoid_sv1","""event"",""trial"",""time""
""fullscreenenter"",""1"",""1824""
","
","
","""event"",""trial"",""time""
""fullscreenenter"",""1"",""1824""
","
","","","","","","816.4000000059605","images/orange5.png","","","memory_trial","2","maybe_old",""
"html-keyboard-response","218","494052","0.0-18.0-0.87","5618","approach_avoid_sv1","""event"",""trial"",""time""
""fullscreenenter"",""1"",""1824""
","
","
","""event"",""trial"",""time""
""fullscreenenter"",""1"",""1824""
","
","","","","","","null","<div style=""font-size:60px;"">+</div>","null","","fixation","","",""
"memory-trial","219","496427","0.0-18.0-1.87","5618","approach_avoid_sv1","""event"",""trial"",""time""
""fullscreenenter"",""1"",""1824""
","
","
","""event"",""trial"",""time""
""fullscreenenter"",""1"",""1824""
","
","","","","","","1368.4000000059605","images/flower6.png","","","memory_trial","1","definitely_old",""
"html-keyboard-response","220","496932","0.0-18.0-0.88","5618","approach_avoid_sv1","""event"",""trial"",""time""
""fullscreenenter"",""1"",""1824""
","
","
","""event"",""trial"",""time""
""fullscreenenter"",""1"",""1824""
","
","","","","","","null","<div style=""font-size:60px;"">+</div>","null","","fixation","","",""
"memory-trial","221","498888","0.0-18.0-1.88","5618","approach_avoid_sv1","""event"",""trial"",""time""
""fullscreenenter"",""1"",""1824""
","
","
","""event"",""trial"",""time""
""fullscreenenter"",""1"",""1824""
","
","","","","","","950","images/sofa8.png","","","memory_trial","3","maybe_new",""
"html-keyboard-response","222","499393","0.0-18.0-0.89","5618","approach_avoid_sv1","""event"",""trial"",""time""
""fullscreenenter"",""1"",""1824""
","
","
","""event"",""trial"",""time""
""fullscreenenter"",""1"",""1824""
","
","","","","","","null","<div style=""font-size:60px;"">+</div>","null","","fixation","","",""
"memory-trial","223","501407","0.0-18.0-1.89","5618","approach_avoid_sv1","""event"",""trial"",""time""
""fullscreenenter"",""1"",""1824""
","
","
","""event"",""trial"",""time""
""fullscreenenter"",""1"",""1824""
","
","","","","","","1010.4000000059605","images/cat2.png","","","memory_trial","3","maybe_new",""
"html-keyboard-response","224","501913","0.0-18.0-0.90","5618","approach_avoid_sv1","""event"",""trial"",""time""
""fullscreenenter"",""1"",""1824""
","
","
","""event"",""trial"",""time""
""fullscreenenter"",""1"",""1824""
","
","","","","","","null","<div style=""font-size:60px;"">+</div>","null","","fixation","","",""
"memory-trial","225","503863","0.0-18.0-1.90","5618","approach_avoid_sv1","""event"",""trial"",""time""
""fullscreenenter"",""1"",""1824""
","
","
","""event"",""trial"",""time""
""fullscreenenter"",""1"",""1824""
","
","","","","","","948.1999999880791","images/banana1.png","","","memory_trial","3","maybe_new",""
"html-keyboard-response","226","504368","0.0-18.0-0.91","5618","approach_avoid_sv1","""event"",""trial"",""time""
""fullscreenenter"",""1"",""1824""
","
","
","""event"",""trial"",""time""
""fullscreenenter"",""1"",""1824""
","
","","","","","","null","<div style=""font-size:60px;"">+</div>","null","","fixation","","",""
"memory-trial","227","506325","0.0-18.0-1.91","5618","approach_avoid_sv1","""event"",""trial"",""time""
""fullscreenenter"",""1"",""1824""
","
","
","""event"",""trial"",""time""
""fullscreenenter"",""1"",""1824""
","
","","","","","","953.7000000178814","images/goat4.png","","","memory_trial","1","definitely_old",""
"html-button-response","228","507782","0.0-18.0-2.91-0.91","5618","approach_avoid_sv1","""event"",""trial"",""time""
""fullscreenenter"",""1"",""1824""
","
","
","""event"",""trial"",""time""
""fullscreenenter"",""1"",""1824""
","
","","","","","","1456.300000011921","<p> Take a break! </p><p> Click the button to continue. </p>","0","","break","","",""
"html-keyboard-response","229","508283","0.0-18.0-0.92","5618","approach_avoid_sv1","""event"",""trial"",""time""
""fullscreenenter"",""1"",""1824""
","
","
","""event"",""trial"",""time""
""fullscreenenter"",""1"",""1824""
","
","","","","","","null","<div style=""font-size:60px;"">+</div>","null","","fixation","","",""
"memory-trial","230","510237","0.0-18.0-1.92","5618","approach_avoid_sv1","""event"",""trial"",""time""
""fullscreenenter"",""1"",""1824""
","
","
","""event"",""trial"",""time""
""fullscreenenter"",""1"",""1824""
","
","","","","","","950.9000000059605","images/table8.png","","","memory_trial","3","maybe_new",""
"html-keyboard-response","231","510743","0.0-18.0-0.93","5618","approach_avoid_sv1","""event"",""trial"",""time""
""fullscreenenter"",""1"",""1824""
","
","
","""event"",""trial"",""time""
""fullscreenenter"",""1"",""1824""
","
","","","","","","null","<div style=""font-size:60px;"">+</div>","null","","fixation","","",""
"memory-trial","232","512874","0.0-18.0-1.93","5618","approach_avoid_sv1","""event"",""trial"",""time""
""fullscreenenter"",""1"",""1824""
","
","
","""event"",""trial"",""time""
""fullscreenenter"",""1"",""1824""
","
","","","","","","1124.9000000059605","images/rabbit2.png","","","memory_trial","3","maybe_new",""
"html-keyboard-response","233","513379","0.0-18.0-0.94","5618","approach_avoid_sv1","""event"",""trial"",""time""
""fullscreenenter"",""1"",""1824""
","
","
","""event"",""trial"",""time""
""fullscreenenter"",""1"",""1824""
","
","","","","","","null","<div style=""font-size:60px;"">+</div>","null","","fixation","","",""
"memory-trial","234","515735","0.0-18.0-1.94","5618","approach_avoid_sv1","""event"",""trial"",""time""
""fullscreenenter"",""1"",""1824""
","
","
","""event"",""trial"",""time""
""fullscreenenter"",""1"",""1824""
","
","","","","","","1348.5999999940395","images/truck4.png","","","memory_trial","1","definitely_old",""
"html-keyboard-response","235","516240","0.0-18.0-0.95","5618","approach_avoid_sv1","""event"",""trial"",""time""
""fullscreenenter"",""1"",""1824""
","
","
","""event"",""trial"",""time""
""fullscreenenter"",""1"",""1824""
","
","","","","","","null","<div style=""font-size:60px;"">+</div>","null","","fixation","","",""
"memory-trial","236","518105","0.0-18.0-1.95","5618","approach_avoid_sv1","""event"",""trial"",""time""
""fullscreenenter"",""1"",""1824""
","
","
","""event"",""trial"",""time""
""fullscreenenter"",""1"",""1824""
","
","","","","","","862.7000000178814","images/cow7.png","","","memory_trial","1","definitely_old",""
"html-keyboard-response","237","518611","0.0-18.0-0.96","5618","approach_avoid_sv1","""event"",""trial"",""time""
""fullscreenenter"",""1"",""1824""
","
","
","""event"",""trial"",""time""
""fullscreenenter"",""1"",""1824""
","
","","","","","","null","<div style=""font-size:60px;"">+</div>","null","","fixation","","",""
"memory-trial","238","520496","0.0-18.0-1.96","5618","approach_avoid_sv1","""event"",""trial"",""time""
""fullscreenenter"",""1"",""1824""
","
","
","""event"",""trial"",""time""
""fullscreenenter"",""1"",""1824""
","
","","","","","","881.5999999940395","images/flower4.png","","","memory_trial","1","definitely_old",""
"html-keyboard-response","239","521000","0.0-18.0-0.97","5618","approach_avoid_sv1","""event"",""trial"",""time""
""fullscreenenter"",""1"",""1824""
","
","
","""event"",""trial"",""time""
""fullscreenenter"",""1"",""1824""
","
","","","","","","null","<div style=""font-size:60px;"">+</div>","null","","fixation","","",""
"memory-trial","240","523380","0.0-18.0-1.97","5618","approach_avoid_sv1","""event"",""trial"",""time""
""fullscreenenter"",""1"",""1824""
","
","
","""event"",""trial"",""time""
""fullscreenenter"",""1"",""1824""
","
","","","","","","1376.7000000178814","images/train4.png","","","memory_trial","4","definitely_new",""
"html-keyboard-response","241","523885","0.0-18.0-0.98","5618","approach_avoid_sv1","""event"",""trial"",""time""
""fullscreenenter"",""1"",""1824""
","
","
","""event"",""trial"",""time""
""fullscreenenter"",""1"",""1824""
","
","","","","","","null","<div style=""font-size:60px;"">+</div>","null","","fixation","","",""
"memory-trial","242","526051","0.0-18.0-1.98","5618","approach_avoid_sv1","""event"",""trial"",""time""
""fullscreenenter"",""1"",""1824""
","
","
","""event"",""trial"",""time""
""fullscreenenter"",""1"",""1824""
","
","","","","","","1159.5999999940395","images/goat7.png","","","memory_trial","3","maybe_new",""
"html-keyboard-response","243","526556","0.0-18.0-0.99","5618","approach_avoid_sv1","""event"",""trial"",""time""
""fullscreenenter"",""1"",""1824""
","
","
","""event"",""trial"",""time""
""fullscreenenter"",""1"",""1824""
","
","","","","","","null","<div style=""font-size:60px;"">+</div>","null","","fixation","","",""
"memory-trial","244","528291","0.0-18.0-1.99","5618","approach_avoid_sv1","""event"",""trial"",""time""
""fullscreenenter"",""1"",""1824""
","
","
","""event"",""trial"",""time""
""fullscreenenter"",""1"",""1824""
","
","","","","","","733.7000000178814","images/sofa1.png","","","memory_trial","3","maybe_new",""
"html-keyboard-response","245","528792","0.0-18.0-0.100","5618","approach_avoid_sv1","""event"",""trial"",""time""
""fullscreenenter"",""1"",""1824""
","
","
","""event"",""trial"",""time""
""fullscreenenter"",""1"",""1824""
","
","","","","","","null","<div style=""font-size:60px;"">+</div>","null","","fixation","","",""
"memory-trial","246","531179","0.0-18.0-1.100","5618","approach_avoid_sv1","""event"",""trial"",""time""
""fullscreenenter"",""1"",""1824""
","
","
","""event"",""trial"",""time""
""fullscreenenter"",""1"",""1824""
","
","","","","","","1383.2000000178814","images/tree8.png","","","memory_trial","2","maybe_old",""
"html-keyboard-response","247","531682","0.0-18.0-0.101","5618","approach_avoid_sv1","""event"",""trial"",""time""
""fullscreenenter"",""1"",""1824""
","
","
","""event"",""trial"",""time""
""fullscreenenter"",""1"",""1824""
","
","","","","","","null","<div style=""font-size:60px;"">+</div>","null","","fixation","","",""
"memory-trial","248","533598","0.0-18.0-1.101","5618","approach_avoid_sv1","""event"",""trial"",""time""
""fullscreenenter"",""1"",""1824""
","
","
","""event"",""trial"",""time""
""fullscreenenter"",""1"",""1824""
","
","","","","","","911.3999999761581","images/train1.png","","","memory_trial","3","maybe_new",""
"html-keyboard-response","249","534103","0.0-18.0-0.102","5618","approach_avoid_sv1","""event"",""trial"",""time""
""fullscreenenter"",""1"",""1824""
","
","
","""event"",""trial"",""time""
""fullscreenenter"",""1"",""1824""
","
","","","","","","null","<div style=""font-size:60px;"">+</div>","null","","fixation","","",""
"memory-trial","250","535705","0.0-18.0-1.102","5618","approach_avoid_sv1","""event"",""trial"",""time""
""fullscreenenter"",""1"",""1824""
","
","
","""event"",""trial"",""time""
""fullscreenenter"",""1"",""1824""
","
","","","","","","596","images/rabbit8.png","","","memory_trial","3","maybe_new",""
"html-keyboard-response","251","536210","0.0-18.0-0.103","5618","approach_avoid_sv1","""event"",""trial"",""time""
""fullscreenenter"",""1"",""1824""
","
","
","""event"",""trial"",""time""
""fullscreenenter"",""1"",""1824""
","
","","","","","","null","<div style=""font-size:60px;"">+</div>","null","","fixation","","",""
"memory-trial","252","538084","0.0-18.0-1.103","5618","approach_avoid_sv1","""event"",""trial"",""time""
""fullscreenenter"",""1"",""1824""
","
","
","""event"",""trial"",""time""
""fullscreenenter"",""1"",""1824""
","
","","","","","","869.1999999880791","images/tree4.png","","","memory_trial","3","maybe_new",""
"html-keyboard-response","253","538590","0.0-18.0-0.104","5618","approach_avoid_sv1","""event"",""trial"",""time""
""fullscreenenter"",""1"",""1824""
","
","
","""event"",""trial"",""time""
""fullscreenenter"",""1"",""1824""
","
","","","","","","null","<div style=""font-size:60px;"">+</div>","null","","fixation","","",""
"memory-trial","254","540390","0.0-18.0-1.104","5618","approach_avoid_sv1","""event"",""trial"",""time""
""fullscreenenter"",""1"",""1824""
","
","
","""event"",""trial"",""time""
""fullscreenenter"",""1"",""1824""
","
","","","","","","797.9000000059605","images/sheep1.png","","","memory_trial","2","maybe_old",""
"html-keyboard-response","255","540894","0.0-18.0-0.105","5618","approach_avoid_sv1","""event"",""trial"",""time""
""fullscreenenter"",""1"",""1824""
","
","
","""event"",""trial"",""time""
""fullscreenenter"",""1"",""1824""
","
","","","","","","null","<div style=""font-size:60px;"">+</div>","null","","fixation","","",""
"memory-trial","256","542700","0.0-18.0-1.105","5618","approach_avoid_sv1","""event"",""trial"",""time""
""fullscreenenter"",""1"",""1824""
","
","
","""event"",""trial"",""time""
""fullscreenenter"",""1"",""1824""
","
","","","","","","802.5999999940395","images/tree7.png","","","memory_trial","2","maybe_old",""
"html-keyboard-response","257","543205","0.0-18.0-0.106","5618","approach_avoid_sv1","""event"",""trial"",""time""
""fullscreenenter"",""1"",""1824""
","
","
","""event"",""trial"",""time""
""fullscreenenter"",""1"",""1824""
","
","","","","","","null","<div style=""font-size:60px;"">+</div>","null","","fixation","","",""
"memory-trial","258","544888","0.0-18.0-1.106","5618","approach_avoid_sv1","""event"",""trial"",""time""
""fullscreenenter"",""1"",""1824""
","
","
","""event"",""trial"",""time""
""fullscreenenter"",""1"",""1824""
","
","","","","","","677","images/apple2.png","","","memory_trial","2","maybe_old",""
"html-keyboard-response","259","545394","0.0-18.0-0.107","5618","approach_avoid_sv1","""event"",""trial"",""time""
""fullscreenenter"",""1"",""1824""
","
","
","""event"",""trial"",""time""
""fullscreenenter"",""1"",""1824""
","
","","","","","","null","<div style=""font-size:60px;"">+</div>","null","","fixation","","",""
"memory-trial","260","546985","0.0-18.0-1.107","5618","approach_avoid_sv1","""event"",""trial"",""time""
""fullscreenenter"",""1"",""1824""
","
","
","""event"",""trial"",""time""
""fullscreenenter"",""1"",""1824""
","
","","","","","","584.4000000059605","images/sofa6.png","","","memory_trial","3","maybe_new",""
"html-keyboard-response","261","547489","0.0-18.0-0.108","5618","approach_avoid_sv1","""event"",""trial"",""time""
""fullscreenenter"",""1"",""1824""
","
","
","""event"",""trial"",""time""
""fullscreenenter"",""1"",""1824""
","
","","","","","","null","<div style=""font-size:60px;"">+</div>","null","","fixation","","",""
"memory-trial","262","549486","0.0-18.0-1.108","5618","approach_avoid_sv1","""event"",""trial"",""time""
""fullscreenenter"",""1"",""1824""
","
","
","""event"",""trial"",""time""
""fullscreenenter"",""1"",""1824""
","
","","","","","","991.0999999940395","images/banana7.png","","","memory_trial","3","maybe_new",""
"html-keyboard-response","263","549992","0.0-18.0-0.109","5618","approach_avoid_sv1","""event"",""trial"",""time""
""fullscreenenter"",""1"",""1824""
","
","
","""event"",""trial"",""time""
""fullscreenenter"",""1"",""1824""
","
","","","","","","null","<div style=""font-size:60px;"">+</div>","null","","fixation","","",""
"memory-trial","264","551646","0.0-18.0-1.109","5618","approach_avoid_sv1","""event"",""trial"",""time""
""fullscreenenter"",""1"",""1824""
","
","
","""event"",""trial"",""time""
""fullscreenenter"",""1"",""1824""
","
","","","","","","647.3000000119209","images/bed4.png","","","memory_trial","3","maybe_new",""
"html-keyboard-response","265","552151","0.0-18.0-0.110","5618","approach_avoid_sv1","""event"",""trial"",""time""
""fullscreenenter"",""1"",""1824""
","
","
","""event"",""trial"",""time""
""fullscreenenter"",""1"",""1824""
","
","","","","","","null","<div style=""font-size:60px;"">+</div>","null","","fixation","","",""
"memory-trial","266","554080","0.0-18.0-1.110","5618","approach_avoid_sv1","""event"",""trial"",""time""
""fullscreenenter"",""1"",""1824""
","
","
","""event"",""trial"",""time""
""fullscreenenter"",""1"",""1824""
","
","","","","","","925.8000000119209","images/bush1.png","","","memory_trial","3","maybe_new",""
"html-keyboard-response","267","554586","0.0-18.0-0.111","5618","approach_avoid_sv1","""event"",""trial"",""time""
""fullscreenenter"",""1"",""1824""
","
","
","""event"",""trial"",""time""
""fullscreenenter"",""1"",""1824""
","
","","","","","","null","<div style=""font-size:60px;"">+</div>","null","","fixation","","",""
"memory-trial","268","556180","0.0-18.0-1.111","5618","approach_avoid_sv1","""event"",""trial"",""time""
""fullscreenenter"",""1"",""1824""
","
","
","""event"",""trial"",""time""
""fullscreenenter"",""1"",""1824""
","
","","","","","","588","images/bed6.png","","","memory_trial","3","maybe_new",""
"html-keyboard-response","269","556684","0.0-18.0-0.112","5618","approach_avoid_sv1","""event"",""trial"",""time""
""fullscreenenter"",""1"",""1824""
","
","
","""event"",""trial"",""time""
""fullscreenenter"",""1"",""1824""
","
","","","","","","null","<div style=""font-size:60px;"">+</div>","null","","fixation","","",""
"memory-trial","270","559204","0.0-18.0-1.112","5618","approach_avoid_sv1","""event"",""trial"",""time""
""fullscreenenter"",""1"",""1824""
","
","
","""event"",""trial"",""time""
""fullscreenenter"",""1"",""1824""
","
","","","","","","1515.5","images/dog8.png","","","memory_trial","1","definitely_old",""
"html-keyboard-response","271","559709","0.0-18.0-0.113","5618","approach_avoid_sv1","""event"",""trial"",""time""
""fullscreenenter"",""1"",""1824""
","
","
","""event"",""trial"",""time""
""fullscreenenter"",""1"",""1824""
","
","","","","","","null","<div style=""font-size:60px;"">+</div>","null","","fixation","","",""
"memory-trial","272","561576","0.0-18.0-1.113","5618","approach_avoid_sv1","""event"",""trial"",""time""
""fullscreenenter"",""1"",""1824""
","
","
","""event"",""trial"",""time""
""fullscreenenter"",""1"",""1824""
","
","","","","","","860.7999999821186","images/rodent2.png","","","memory_trial","1","definitely_old",""
"html-keyboard-response","273","562081","0.0-18.0-0.114","5618","approach_avoid_sv1","""event"",""trial"",""time""
""fullscreenenter"",""1"",""1824""
","
","
","""event"",""trial"",""time""
""fullscreenenter"",""1"",""1824""
","
","","","","","","null","<div style=""font-size:60px;"">+</div>","null","","fixation","","",""
"memory-trial","274","564069","0.0-18.0-1.114","5618","approach_avoid_sv1","""event"",""trial"",""time""
""fullscreenenter"",""1"",""1824""
","
","
","""event"",""trial"",""time""
""fullscreenenter"",""1"",""1824""
","
","","","","","","983.3000000119209","images/goat5.png","","","memory_trial","2","maybe_old",""
"html-keyboard-response","275","564574","0.0-18.0-0.115","5618","approach_avoid_sv1","""event"",""trial"",""time""
""fullscreenenter"",""1"",""1824""
","
","
","""event"",""trial"",""time""
""fullscreenenter"",""1"",""1824""
","
","","","","","","null","<div style=""font-size:60px;"">+</div>","null","","fixation","","",""
"memory-trial","276","566407","0.0-18.0-1.115","5618","approach_avoid_sv1","""event"",""trial"",""time""
""fullscreenenter"",""1"",""1824""
","
","
","""event"",""trial"",""time""
""fullscreenenter"",""1"",""1824""
","
","","","","","","827.3999999761581","images/horse8.png","","","memory_trial","1","definitely_old",""
"html-keyboard-response","277","566912","0.0-18.0-0.116","5618","approach_avoid_sv1","""event"",""trial"",""time""
""fullscreenenter"",""1"",""1824""
","
","
","""event"",""trial"",""time""
""fullscreenenter"",""1"",""1824""
","
","","","","","","null","<div style=""font-size:60px;"">+</div>","null","","fixation","","",""
"memory-trial","278","569314","0.0-18.0-1.116","5618","approach_avoid_sv1","""event"",""trial"",""time""
""fullscreenenter"",""1"",""1824""
","
","
","""event"",""trial"",""time""
""fullscreenenter"",""1"",""1824""
","
","","","","","","1398.4000000059605","images/sheep7.png","","","memory_trial","3","maybe_new",""
"html-keyboard-response","279","569818","0.0-18.0-0.117","5618","approach_avoid_sv1","""event"",""trial"",""time""
""fullscreenenter"",""1"",""1824""
","
","
","""event"",""trial"",""time""
""fullscreenenter"",""1"",""1824""
","
","","","","","","null","<div style=""font-size:60px;"">+</div>","null","","fixation","","",""
"memory-trial","280","572049","0.0-18.0-1.117","5618","approach_avoid_sv1","""event"",""trial"",""time""
""fullscreenenter"",""1"",""1824""
","
","
","""event"",""trial"",""time""
""fullscreenenter"",""1"",""1824""
","
","","","","","","1224.5","images/table6.png","","","memory_trial","1","definitely_old",""
"html-keyboard-response","281","572553","0.0-18.0-0.118","5618","approach_avoid_sv1","""event"",""trial"",""time""
""fullscreenenter"",""1"",""1824""
","
","
","""event"",""trial"",""time""
""fullscreenenter"",""1"",""1824""
","
","","","","","","null","<div style=""font-size:60px;"">+</div>","null","","fixation","","",""
"memory-trial","282","574740","0.0-18.0-1.118","5618","approach_avoid_sv1","""event"",""trial"",""time""
""fullscreenenter"",""1"",""1824""
","
","
","""event"",""trial"",""time""
""fullscreenenter"",""1"",""1824""
","
","","","","","","1184.300000011921","images/sheep5.png","","","memory_trial","3","maybe_new",""
"html-keyboard-response","283","575243","0.0-18.0-0.119","5618","approach_avoid_sv1","""event"",""trial"",""time""
""fullscreenenter"",""1"",""1824""
","
","
","""event"",""trial"",""time""
""fullscreenenter"",""1"",""1824""
","
","","","","","","null","<div style=""font-size:60px;"">+</div>","null","","fixation","","",""
"memory-trial","284","577450","0.0-18.0-1.119","5618","approach_avoid_sv1","""event"",""trial"",""time""
""fullscreenenter"",""1"",""1824""
","
","
","""event"",""trial"",""time""
""fullscreenenter"",""1"",""1824""
","
","","","","","","1200","images/bush2.png","","","memory_trial","4","definitely_new",""
"html-keyboard-response","285","577954","0.0-18.0-0.120","5618","approach_avoid_sv1","""event"",""trial"",""time""
""fullscreenenter"",""1"",""1824""
","
","
","""event"",""trial"",""time""
""fullscreenenter"",""1"",""1824""
","
","","","","","","null","<div style=""font-size:60px;"">+</div>","null","","fixation","","",""
"memory-trial","286","579975","0.0-18.0-1.120","5618","approach_avoid_sv1","""event"",""trial"",""time""
""fullscreenenter"",""1"",""1824""
","
","
","""event"",""trial"",""time""
""fullscreenenter"",""1"",""1824""
","
","","","","","","1018.8999999761581","images/rodent1.png","","","memory_trial","2","maybe_old",""
"html-keyboard-response","287","580478","0.0-18.0-0.121","5618","approach_avoid_sv1","""event"",""trial"",""time""
""fullscreenenter"",""1"",""1824""
","
","
","""event"",""trial"",""time""
""fullscreenenter"",""1"",""1824""
","
","","","","","","null","<div style=""font-size:60px;"">+</div>","null","","fixation","","",""
"memory-trial","288","582236","0.0-18.0-1.121","5618","approach_avoid_sv1","""event"",""trial"",""time""
""fullscreenenter"",""1"",""1824""
","
","
","""event"",""trial"",""time""
""fullscreenenter"",""1"",""1824""
","
","","","","","","751","images/orange1.png","","","memory_trial","1","definitely_old",""
"html-keyboard-response","289","582738","0.0-18.0-0.122","5618","approach_avoid_sv1","""event"",""trial"",""time""
""fullscreenenter"",""1"",""1824""
","
","
","""event"",""trial"",""time""
""fullscreenenter"",""1"",""1824""
","
","","","","","","null","<div style=""font-size:60px;"">+</div>","null","","fixation","","",""
"memory-trial","290","584747","0.0-18.0-1.122","5618","approach_avoid_sv1","""event"",""trial"",""time""
""fullscreenenter"",""1"",""1824""
","
","
","""event"",""trial"",""time""
""fullscreenenter"",""1"",""1824""
","
","","","","","","1004.3000000119209","images/boat6.png","","","memory_trial","3","maybe_new",""
"html-keyboard-response","291","585252","0.0-18.0-0.123","5618","approach_avoid_sv1","""event"",""trial"",""time""
""fullscreenenter"",""1"",""1824""
","
","
","""event"",""trial"",""time""
""fullscreenenter"",""1"",""1824""
","
","","","","","","null","<div style=""font-size:60px;"">+</div>","null","","fixation","","",""
"memory-trial","292","588050","0.0-18.0-1.123","5618","approach_avoid_sv1","""event"",""trial"",""time""
""fullscreenenter"",""1"",""1824""
","
","
","""event"",""trial"",""time""
""fullscreenenter"",""1"",""1824""
","
","","","","","","1792.800000011921","images/table5.png","","","memory_trial","2","maybe_old",""
"html-keyboard-response","293","588555","0.0-18.0-0.124","5618","approach_avoid_sv1","""event"",""trial"",""time""
""fullscreenenter"",""1"",""1824""
","
","
","""event"",""trial"",""time""
""fullscreenenter"",""1"",""1824""
","
","","","","","","null","<div style=""font-size:60px;"">+</div>","null","","fixation","","",""
"memory-trial","294","590374","0.0-18.0-1.124","5618","approach_avoid_sv1","""event"",""trial"",""time""
""fullscreenenter"",""1"",""1824""
","
","
","""event"",""trial"",""time""
""fullscreenenter"",""1"",""1824""
","
","","","","","","814.2999999821186","images/sofa7.png","","","memory_trial","2","maybe_old",""
"html-keyboard-response","295","590879","0.0-18.0-0.125","5618","approach_avoid_sv1","""event"",""trial"",""time""
""fullscreenenter"",""1"",""1824""
","
","
","""event"",""trial"",""time""
""fullscreenenter"",""1"",""1824""
","
","","","","","","null","<div style=""font-size:60px;"">+</div>","null","","fixation","","",""
"memory-trial","296","592927","0.0-18.0-1.125","5618","approach_avoid_sv1","""event"",""trial"",""time""
""fullscreenenter"",""1"",""1824""
","
","
","""event"",""trial"",""time""
""fullscreenenter"",""1"",""1824""
","
","","","","","","1043.9000000059605","images/cow2.png","","","memory_trial","2","maybe_old",""
"html-keyboard-response","297","593431","0.0-18.0-0.126","5618","approach_avoid_sv1","""event"",""trial"",""time""
""fullscreenenter"",""1"",""1824""
","
","
","""event"",""trial"",""time""
""fullscreenenter"",""1"",""1824""
","
","","","","","","null","<div style=""font-size:60px;"">+</div>","null","","fixation","","",""
