"trial_type","trial_index","time_elapsed","internal_node_id","subject_id","task_version","interactions","blur_events","focus_events","fullscreenenter_events","fullscreenexit_events","success","timeout","failed_images","failed_audio","failed_video","rt","stimulus","response","button_pressed","task_part","key_press","answer","correct"
"pavlovia","0","5","0.0-0.0","7074","approach_avoid_sv1","""event"",""trial"",""time""
""fullscreenenter"",""1"",""1338""
","
","
","""event"",""trial"",""time""
""fullscreenenter"",""1"",""1338""
","
","","","","","","","","","","","","",""
"fullscreen","1","2304","0.0-1.0","7074","approach_avoid_sv1","""event"",""trial"",""time""
""fullscreenenter"",""1"",""1338""
","
","
","""event"",""trial"",""time""
""fullscreenenter"",""1"",""1338""
","
","true","","","","","","","","","","","",""
"preload","2","4977","0.0-2.0","7074","approach_avoid_sv1","""event"",""trial"",""time""
""fullscreenenter"",""1"",""1338""
","
","
","""event"",""trial"",""time""
""fullscreenenter"",""1"",""1338""
","
","true","false","[]","[]","[]","","","","","","","",""
"preload","3","8059","0.0-3.0","7074","approach_avoid_sv1","""event"",""trial"",""time""
""fullscreenenter"",""1"",""1338""
","
","
","""event"",""trial"",""time""
""fullscreenenter"",""1"",""1338""
","
","true","false","[]","[]","[]","","","","","","","",""
"preload","4","8378","0.0-4.0","7074","approach_avoid_sv1","""event"",""trial"",""time""
""fullscreenenter"",""1"",""1338""
","
","
","""event"",""trial"",""time""
""fullscreenenter"",""1"",""1338""
","
","true","false","[]","[]","[]","","","","","","","",""
"audio-keyboard-response","5","13093","0.0-5.0","7074","approach_avoid_sv1","""event"",""trial"",""time""
""fullscreenenter"",""1"",""1338""
","
","
","""event"",""trial"",""time""
""fullscreenenter"",""1"",""1338""
","
","","","","","","0","audio/beep_loop.wav"," ","","","","",""
"audio-button-response","6","17600","0.0-6.0","7074","approach_avoid_sv1","""event"",""trial"",""time""
""fullscreenenter"",""1"",""1338""
","
","
","""event"",""trial"",""time""
""fullscreenenter"",""1"",""1338""
","
","","","","","","4341","audio/turtle.wav","0","","","","",""
"audio-button-response","7","19984","0.0-7.0","7074","approach_avoid_sv1","""event"",""trial"",""time""
""fullscreenenter"",""1"",""1338""
","
","
","""event"",""trial"",""time""
""fullscreenenter"",""1"",""1338""
","
","","","","","","1379","audio/shark.wav","2","","","","",""
"preload","8","24647","0.0-8.0","7074","approach_avoid_sv1","""event"",""trial"",""time""
""fullscreenenter"",""1"",""1338""
","
","
","""event"",""trial"",""time""
""fullscreenenter"",""1"",""1338""
","
","true","false","[]","[]","[]","","","","","","","",""
"learning-instructions","9","31833","0.0-9.0-0.0","7074","approach_avoid_sv1","""event"",""trial"",""time""
""fullscreenenter"",""1"",""1338""
","
","
","""event"",""trial"",""time""
""fullscreenenter"",""1"",""1338""
","
","","","","","","2704","<p> Welcome back! </p><p> Last week, you had to make choices about lots of different items.  </p>","","0","instructions","","",""
"learning-instructions","10","36897","0.0-9.0-0.1","7074","approach_avoid_sv1","""event"",""trial"",""time""
""fullscreenenter"",""1"",""1338""
","
","
","""event"",""trial"",""time""
""fullscreenenter"",""1"",""1338""
","
","","","","","","949","<p> Today, we are going to ask you to try to remember all the items. </p>","","0","instructions","","",""
"learning-instructions","11","47780","0.0-9.0-0.2","7074","approach_avoid_sv1","""event"",""trial"",""time""
""fullscreenenter"",""1"",""1338""
","
","
","""event"",""trial"",""time""
""fullscreenenter"",""1"",""1338""
","
","","","","","","751","<p> On every trial, you will see an image. </p><p> The image may be an OLD image you saw during the games last week or it may be a NEW image that was not presented. </p>","","0","instructions","","",""
"learning-instructions","12","56731","0.0-9.0-0.3","7074","approach_avoid_sv1","""event"",""trial"",""time""
""fullscreenenter"",""1"",""1338""
","
","
","""event"",""trial"",""time""
""fullscreenenter"",""1"",""1338""
","
","","","","","","455","<p> You need to select whether the image is:  </p><p>  'Definitely old', 'Maybe old', 'Maybe new', or 'Definitely new.'  </p><div class=""mem-choice-instructions-grid""><div class=""choice-option"" id=""choice-option-1"" ><img src=""images/definitely_old_1.png"" id=""choice-option-img-1"" class=""choice-option-img"" stage=""1""></div><div class=""choice-option"" id=""choice-option-2"" ><img src=""images/maybe_old_1.png"" id=""choice-option-img-2"" class=""choice-option-img"" stage=""1""></div><div class=""choice-option"" id=""choice-option-3"" ><img src=""images/maybe_new_1.png"" id=""choice-option-img-3"" class=""choice-option-img"" stage=""1""></div><div class=""choice-option"" id=""choice-option-4"" > <img src=""images/definitely_new_1.png"" id=""choice-option-img-4"" class=""choice-option-img"" stage=""1""></div></div>","","0","instructions","","",""
"learning-instructions","13","63949","0.0-9.0-0.4","7074","approach_avoid_sv1","""event"",""trial"",""time""
""fullscreenenter"",""1"",""1338""
","
","
","""event"",""trial"",""time""
""fullscreenenter"",""1"",""1338""
","
","","","","","","706.9999999999927","<p> You should use the 1, 2, 3, and 4 keys to make your responses.  </p><div class=""mem-choice-instructions-grid""><div class=""choice-option"" id=""choice-option-1"" ><img src=""images/definitely_old.png"" id=""choice-option-img-1"" class=""choice-option-img"" stage=""1""></div><div class=""choice-option"" id=""choice-option-2"" ><img src=""images/maybe_old.png"" id=""choice-option-img-2"" class=""choice-option-img"" stage=""1""></div><div class=""choice-option"" id=""choice-option-3"" ><img src=""images/maybe_new.png"" id=""choice-option-img-3"" class=""choice-option-img"" stage=""1""></div><div class=""choice-option"" id=""choice-option-4"" > <img src=""images/definitely_new.png"" id=""choice-option-img-4"" class=""choice-option-img"" stage=""1""></div></div>","","0","instructions","","",""
"learning-instructions","14","71429","0.0-9.0-0.5","7074","approach_avoid_sv1","""event"",""trial"",""time""
""fullscreenenter"",""1"",""1338""
","
","
","""event"",""trial"",""time""
""fullscreenenter"",""1"",""1338""
","
","","","","","","1154","<p> You will have 10 seconds to make each response.  </p><p>  Make sure to respond before time runs out! </p>","","0","instructions","","",""
"learning-instructions","15","79180","0.0-9.0-0.6","7074","approach_avoid_sv1","""event"",""trial"",""time""
""fullscreenenter"",""1"",""1338""
","
","
","""event"",""trial"",""time""
""fullscreenenter"",""1"",""1338""
","
","","","","","","677","<p> Today, you will see each image ONCE only.  </p><p>  That means none of the images will repeat. </p>","","0","instructions","","",""
"learning-instructions","16","93128","0.0-9.0-0.7","7074","approach_avoid_sv1","""event"",""trial"",""time""
""fullscreenenter"",""1"",""1338""
","
","
","""event"",""trial"",""time""
""fullscreenenter"",""1"",""1338""
","
","","","","","","1282","<p> Before you play the real game, it is time to practice. </p><p>  Just like in the real game, some of the images in the practice will be ones you have seen before. </p><p>  Others will be entirely new. </p>","","0","instructions","","",""
"html-button-response","17","94411","0.0-10.0","7074","approach_avoid_sv1","""event"",""trial"",""time""
""fullscreenenter"",""1"",""1338""
","
","
","""event"",""trial"",""time""
""fullscreenenter"",""1"",""1338""
","
","","","","","","1179","<p> Ready to practice? </p><p> Remember, use the 1, 2, 3, and 4 keys to make your responses. </p>","0","","instructions","","",""
"html-keyboard-response","18","95016","0.0-11.0-0.0","7074","approach_avoid_sv1","""event"",""trial"",""time""
""fullscreenenter"",""1"",""1338""
","
","
","""event"",""trial"",""time""
""fullscreenenter"",""1"",""1338""
","
","","","","","","null","<div style=""font-size:60px;"">+</div>","null","","fixation","","",""
"memory-trial","19","98104","0.0-11.0-1.0","7074","approach_avoid_sv1","""event"",""trial"",""time""
""fullscreenenter"",""1"",""1338""
","
","
","""event"",""trial"",""time""
""fullscreenenter"",""1"",""1338""
","
","","","","","","2082.9999999999854","images/ball1.png","","","practice","1","definitely_old",""
"html-keyboard-response","20","98606","0.0-11.0-0.1","7074","approach_avoid_sv1","""event"",""trial"",""time""
""fullscreenenter"",""1"",""1338""
","
","
","""event"",""trial"",""time""
""fullscreenenter"",""1"",""1338""
","
","","","","","","null","<div style=""font-size:60px;"">+</div>","null","","fixation","","",""
"memory-trial","21","101027","0.0-11.0-1.1","7074","approach_avoid_sv1","""event"",""trial"",""time""
""fullscreenenter"",""1"",""1338""
","
","
","""event"",""trial"",""time""
""fullscreenenter"",""1"",""1338""
","
","","","","","","1417","images/ball2.png","","","practice","1","definitely_old",""
"html-keyboard-response","22","101531","0.0-11.0-0.2","7074","approach_avoid_sv1","""event"",""trial"",""time""
""fullscreenenter"",""1"",""1338""
","
","
","""event"",""trial"",""time""
""fullscreenenter"",""1"",""1338""
","
","","","","","","null","<div style=""font-size:60px;"">+</div>","null","","fixation","","",""
"memory-trial","23","105724","0.0-11.0-1.2","7074","approach_avoid_sv1","""event"",""trial"",""time""
""fullscreenenter"",""1"",""1338""
","
","
","""event"",""trial"",""time""
""fullscreenenter"",""1"",""1338""
","
","","","","","","3188","images/racket2.png","","","practice","3","maybe_new",""
"html-keyboard-response","24","106226","0.0-11.0-0.3","7074","approach_avoid_sv1","""event"",""trial"",""time""
""fullscreenenter"",""1"",""1338""
","
","
","""event"",""trial"",""time""
""fullscreenenter"",""1"",""1338""
","
","","","","","","null","<div style=""font-size:60px;"">+</div>","null","","fixation","","",""
"memory-trial","25","109798","0.0-11.0-1.3","7074","approach_avoid_sv1","""event"",""trial"",""time""
""fullscreenenter"",""1"",""1338""
","
","
","""event"",""trial"",""time""
""fullscreenenter"",""1"",""1338""
","
","","","","","","2568","images/racket3.png","","","practice","3","maybe_new",""
"html-keyboard-response","26","110301","0.0-11.0-0.4","7074","approach_avoid_sv1","""event"",""trial"",""time""
""fullscreenenter"",""1"",""1338""
","
","
","""event"",""trial"",""time""
""fullscreenenter"",""1"",""1338""
","
","","","","","","null","<div style=""font-size:60px;"">+</div>","null","","fixation","","",""
"memory-trial","27","112151","0.0-11.0-1.4","7074","approach_avoid_sv1","""event"",""trial"",""time""
""fullscreenenter"",""1"",""1338""
","
","
","""event"",""trial"",""time""
""fullscreenenter"",""1"",""1338""
","
","","","","","","847","images/racket5.png","","","practice","3","maybe_new",""
"html-keyboard-response","28","112653","0.0-11.0-0.5","7074","approach_avoid_sv1","""event"",""trial"",""time""
""fullscreenenter"",""1"",""1338""
","
","
","""event"",""trial"",""time""
""fullscreenenter"",""1"",""1338""
","
","","","","","","null","<div style=""font-size:60px;"">+</div>","null","","fixation","","",""
"memory-trial","29","114596","0.0-11.0-1.5","7074","approach_avoid_sv1","""event"",""trial"",""time""
""fullscreenenter"",""1"",""1338""
","
","
","""event"",""trial"",""time""
""fullscreenenter"",""1"",""1338""
","
","","","","","","939.9999999999854","images/ball5.png","","","practice","1","definitely_old",""
"html-keyboard-response","30","115099","0.0-11.0-0.6","7074","approach_avoid_sv1","""event"",""trial"",""time""
""fullscreenenter"",""1"",""1338""
","
","
","""event"",""trial"",""time""
""fullscreenenter"",""1"",""1338""
","
","","","","","","null","<div style=""font-size:60px;"">+</div>","null","","fixation","","",""
"memory-trial","31","116757","0.0-11.0-1.6","7074","approach_avoid_sv1","""event"",""trial"",""time""
""fullscreenenter"",""1"",""1338""
","
","
","""event"",""trial"",""time""
""fullscreenenter"",""1"",""1338""
","
","","","","","","654.0000000000146","images/racket1.png","","","practice","3","maybe_new",""
"html-keyboard-response","32","117260","0.0-11.0-0.7","7074","approach_avoid_sv1","""event"",""trial"",""time""
""fullscreenenter"",""1"",""1338""
","
","
","""event"",""trial"",""time""
""fullscreenenter"",""1"",""1338""
","
","","","","","","null","<div style=""font-size:60px;"">+</div>","null","","fixation","","",""
"memory-trial","33","120999","0.0-11.0-1.7","7074","approach_avoid_sv1","""event"",""trial"",""time""
""fullscreenenter"",""1"",""1338""
","
","
","""event"",""trial"",""time""
""fullscreenenter"",""1"",""1338""
","
","","","","","","2735","images/ball3.png","","","practice","2","maybe_old",""
"learning-instructions","34","130226","0.0-12.0-0.0","7074","approach_avoid_sv1","""event"",""trial"",""time""
""fullscreenenter"",""1"",""1338""
","
","
","""event"",""trial"",""time""
""fullscreenenter"",""1"",""1338""
","
","","","","","","1918","<p> Great! You have completed the practice. </p><p> Before you start, we're going to ask you a few questions about how the game works.  </p>","","0","instructions","","",""
"preload","35","133201","0.0-13.0","7074","approach_avoid_sv1","""event"",""trial"",""time""
""fullscreenenter"",""1"",""1338""
","
","
","""event"",""trial"",""time""
""fullscreenenter"",""1"",""1338""
","
","true","false","[]","[]","[]","","","","","","","",""
"comp-q","36","143259","0.0-14.0-0.0","7074","approach_avoid_sv1","""event"",""trial"",""time""
""fullscreenenter"",""1"",""1338""
","
","
","""event"",""trial"",""time""
""fullscreenenter"",""1"",""1338""
","
","","","","","","4228","<p> <b> True or False? </b> </p><p> In this game, you will only see each image once. </p>","","1","comp_question","","","false"
"comp-q","37","150791","0.0-14.0-1.0","7074","approach_avoid_sv1","""event"",""trial"",""time""
""fullscreenenter"",""1"",""1338""
","
","
","""event"",""trial"",""time""
""fullscreenenter"",""1"",""1338""
","
","","","","","","1002","<p> <b>Incorrect.</b> You will see many different images <i> one time each </i> in this game. </p>","","0","comp_answer","","",""
"comp-q","38","162422","0.0-14.1-0.1","7074","approach_avoid_sv1","""event"",""trial"",""time""
""fullscreenenter"",""1"",""1338""
","
","
","""event"",""trial"",""time""
""fullscreenenter"",""1"",""1338""
","
","","","","","","5699","<p> <b> True or False? </b> </p><p> In this game, you will only see each image once. </p>","","0","comp_question","","","true"
"comp-q","39","169388","0.0-14.1-1.1","7074","approach_avoid_sv1","""event"",""trial"",""time""
""fullscreenenter"",""1"",""1338""
","
","
","""event"",""trial"",""time""
""fullscreenenter"",""1"",""1338""
","
","","","","","","631","<p> <b> That's right! </b> You will see many different images <i> one time each </i> in this game. </p>","","0","comp_answer","","",""
"comp-q","40","175021","0.0-15.0-0.0","7074","approach_avoid_sv1","""event"",""trial"",""time""
""fullscreenenter"",""1"",""1338""
","
","
","""event"",""trial"",""time""
""fullscreenenter"",""1"",""1338""
","
","","","","","","630","<p> <b> True or False? </b> </p><p> You should use the mouse and click to make your response. </p>","","1","comp_question","","","true"
"comp-q","41","182523","0.0-15.0-1.0","7074","approach_avoid_sv1","""event"",""trial"",""time""
""fullscreenenter"",""1"",""1338""
","
","
","""event"",""trial"",""time""
""fullscreenenter"",""1"",""1338""
","
","","","","","","1003.0000000000291","<p><b> That's right! </b> You should use the '1', '2', '3', and '4' keys to make your response. </p>","","0","comp_answer","","",""
"comp-q","42","189069","0.0-16.0-0.0","7074","approach_avoid_sv1","""event"",""trial"",""time""
""fullscreenenter"",""1"",""1338""
","
","
","""event"",""trial"",""time""
""fullscreenenter"",""1"",""1338""
","
","","","","","","872.0000000000291","<p> <b> True or False? </b> </p><p> You will have as much time as you want to make each choice. </p>","","1","comp_question","","","true"
"comp-q","43","195320","0.0-16.0-1.0","7074","approach_avoid_sv1","""event"",""trial"",""time""
""fullscreenenter"",""1"",""1338""
","
","
","""event"",""trial"",""time""
""fullscreenenter"",""1"",""1338""
","
","","","","","","1557","<p> <b> That's right! </b> You will only have 10 seconds to make each choice. </p>","","0","comp_answer","","",""
"learning-instructions","44","218154","0.0-17.0","7074","approach_avoid_sv1","""event"",""trial"",""time""
""fullscreenenter"",""1"",""1338""
","
","
","""event"",""trial"",""time""
""fullscreenenter"",""1"",""1338""
","
","","","","","","14167","<p> Great! You are now ready to begin the game. </p><p> Remember, use the 1, 2, 3, and 4 keys to make your responses. </p>","","0","instructions","","",""
"html-keyboard-response","45","218758","0.0-18.0-0.0","7074","approach_avoid_sv1","""event"",""trial"",""time""
""fullscreenenter"",""1"",""1338""
","
","
","""event"",""trial"",""time""
""fullscreenenter"",""1"",""1338""
","
","","","","","","null","<div style=""font-size:60px;"">+</div>","null","","fixation","","",""
"memory-trial","46","221687","0.0-18.0-1.0","7074","approach_avoid_sv1","""event"",""trial"",""time""
""fullscreenenter"",""1"",""1338""
","
","
","""event"",""trial"",""time""
""fullscreenenter"",""1"",""1338""
","
","","","","","","1925.999999999971","images/bush5.png","","","memory_trial","1","definitely_old",""
"html-keyboard-response","47","222190","0.0-18.0-0.1","7074","approach_avoid_sv1","""event"",""trial"",""time""
""fullscreenenter"",""1"",""1338""
","
","
","""event"",""trial"",""time""
""fullscreenenter"",""1"",""1338""
","
","","","","","","null","<div style=""font-size:60px;"">+</div>","null","","fixation","","",""
"memory-trial","48","225211","0.0-18.0-1.1","7074","approach_avoid_sv1","""event"",""trial"",""time""
""fullscreenenter"",""1"",""1338""
","
","
","""event"",""trial"",""time""
""fullscreenenter"",""1"",""1338""
","
","","","","","","2018","images/orange8.png","","","memory_trial","1","definitely_old",""
"html-keyboard-response","49","225714","0.0-18.0-0.2","7074","approach_avoid_sv1","""event"",""trial"",""time""
""fullscreenenter"",""1"",""1338""
","
","
","""event"",""trial"",""time""
""fullscreenenter"",""1"",""1338""
","
","","","","","","null","<div style=""font-size:60px;"">+</div>","null","","fixation","","",""
"memory-trial","50","229142","0.0-18.0-1.2","7074","approach_avoid_sv1","""event"",""trial"",""time""
""fullscreenenter"",""1"",""1338""
","
","
","""event"",""trial"",""time""
""fullscreenenter"",""1"",""1338""
","
","","","","","","2424.000000000029","images/bed6.png","","","memory_trial","3","maybe_new",""
"html-keyboard-response","51","229644","0.0-18.0-0.3","7074","approach_avoid_sv1","""event"",""trial"",""time""
""fullscreenenter"",""1"",""1338""
","
","
","""event"",""trial"",""time""
""fullscreenenter"",""1"",""1338""
","
","","","","","","null","<div style=""font-size:60px;"">+</div>","null","","fixation","","",""
"memory-trial","52","232683","0.0-18.0-1.3","7074","approach_avoid_sv1","""event"",""trial"",""time""
""fullscreenenter"",""1"",""1338""
","
","
","""event"",""trial"",""time""
""fullscreenenter"",""1"",""1338""
","
","","","","","","2036","images/table2.png","","","memory_trial","4","definitely_new",""
"html-keyboard-response","53","233186","0.0-18.0-0.4","7074","approach_avoid_sv1","""event"",""trial"",""time""
""fullscreenenter"",""1"",""1338""
","
","
","""event"",""trial"",""time""
""fullscreenenter"",""1"",""1338""
","
","","","","","","null","<div style=""font-size:60px;"">+</div>","null","","fixation","","",""
"memory-trial","54","240517","0.0-18.0-1.4","7074","approach_avoid_sv1","""event"",""trial"",""time""
""fullscreenenter"",""1"",""1338""
","
","
","""event"",""trial"",""time""
""fullscreenenter"",""1"",""1338""
","
","","","","","","6328","images/cat1.png","","","memory_trial","2","maybe_old",""
"html-keyboard-response","55","241019","0.0-18.0-0.5","7074","approach_avoid_sv1","""event"",""trial"",""time""
""fullscreenenter"",""1"",""1338""
","
","
","""event"",""trial"",""time""
""fullscreenenter"",""1"",""1338""
","
","","","","","","null","<div style=""font-size:60px;"">+</div>","null","","fixation","","",""
"memory-trial","56","244776","0.0-18.0-1.5","7074","approach_avoid_sv1","""event"",""trial"",""time""
""fullscreenenter"",""1"",""1338""
","
","
","""event"",""trial"",""time""
""fullscreenenter"",""1"",""1338""
","
","","","","","","2753","images/goat6.png","","","memory_trial","3","maybe_new",""
"html-keyboard-response","57","245279","0.0-18.0-0.6","7074","approach_avoid_sv1","""event"",""trial"",""time""
""fullscreenenter"",""1"",""1338""
","
","
","""event"",""trial"",""time""
""fullscreenenter"",""1"",""1338""
","
","","","","","","null","<div style=""font-size:60px;"">+</div>","null","","fixation","","",""
"memory-trial","58","247616","0.0-18.0-1.6","7074","approach_avoid_sv1","""event"",""trial"",""time""
""fullscreenenter"",""1"",""1338""
","
","
","""event"",""trial"",""time""
""fullscreenenter"",""1"",""1338""
","
","","","","","","1333","images/truck2.png","","","memory_trial","2","maybe_old",""
"html-keyboard-response","59","248119","0.0-18.0-0.7","7074","approach_avoid_sv1","""event"",""trial"",""time""
""fullscreenenter"",""1"",""1338""
","
","
","""event"",""trial"",""time""
""fullscreenenter"",""1"",""1338""
","
","","","","","","null","<div style=""font-size:60px;"">+</div>","null","","fixation","","",""
"memory-trial","60","251049","0.0-18.0-1.7","7074","approach_avoid_sv1","""event"",""trial"",""time""
""fullscreenenter"",""1"",""1338""
","
","
","""event"",""trial"",""time""
""fullscreenenter"",""1"",""1338""
","
","","","","","","1925.999999999971","images/bed8.png","","","memory_trial","1","definitely_old",""
"html-keyboard-response","61","251551","0.0-18.0-0.8","7074","approach_avoid_sv1","""event"",""trial"",""time""
""fullscreenenter"",""1"",""1338""
","
","
","""event"",""trial"",""time""
""fullscreenenter"",""1"",""1338""
","
","","","","","","null","<div style=""font-size:60px;"">+</div>","null","","fixation","","",""
"memory-trial","62","255253","0.0-18.0-1.8","7074","approach_avoid_sv1","""event"",""trial"",""time""
""fullscreenenter"",""1"",""1338""
","
","
","""event"",""trial"",""time""
""fullscreenenter"",""1"",""1338""
","
","","","","","","2699.000000000029","images/orange2.png","","","memory_trial","2","maybe_old",""
"html-keyboard-response","63","255755","0.0-18.0-0.9","7074","approach_avoid_sv1","""event"",""trial"",""time""
""fullscreenenter"",""1"",""1338""
","
","
","""event"",""trial"",""time""
""fullscreenenter"",""1"",""1338""
","
","","","","","","null","<div style=""font-size:60px;"">+</div>","null","","fixation","","",""
"memory-trial","64","259609","0.0-18.0-1.9","7074","approach_avoid_sv1","""event"",""trial"",""time""
""fullscreenenter"",""1"",""1338""
","
","
","""event"",""trial"",""time""
""fullscreenenter"",""1"",""1338""
","
","","","","","","2850","images/boat2.png","","","memory_trial","2","maybe_old",""
"html-keyboard-response","65","260111","0.0-18.0-0.10","7074","approach_avoid_sv1","""event"",""trial"",""time""
""fullscreenenter"",""1"",""1338""
","
","
","""event"",""trial"",""time""
""fullscreenenter"",""1"",""1338""
","
","","","","","","null","<div style=""font-size:60px;"">+</div>","null","","fixation","","",""
"memory-trial","66","263314","0.0-18.0-1.10","7074","approach_avoid_sv1","""event"",""trial"",""time""
""fullscreenenter"",""1"",""1338""
","
","
","""event"",""trial"",""time""
""fullscreenenter"",""1"",""1338""
","
","","","","","","2199.000000000029","images/rabbit1.png","","","memory_trial","1","definitely_old",""
"html-keyboard-response","67","263817","0.0-18.0-0.11","7074","approach_avoid_sv1","""event"",""trial"",""time""
""fullscreenenter"",""1"",""1338""
","
","
","""event"",""trial"",""time""
""fullscreenenter"",""1"",""1338""
","
","","","","","","null","<div style=""font-size:60px;"">+</div>","null","","fixation","","",""
"memory-trial","68","266387","0.0-18.0-1.11","7074","approach_avoid_sv1","""event"",""trial"",""time""
""fullscreenenter"",""1"",""1338""
","
","
","""event"",""trial"",""time""
""fullscreenenter"",""1"",""1338""
","
","","","","","","1566.0000000000582","images/banana6.png","","","memory_trial","1","definitely_old",""
"html-keyboard-response","69","266890","0.0-18.0-0.12","7074","approach_avoid_sv1","""event"",""trial"",""time""
""fullscreenenter"",""1"",""1338""
","
","
","""event"",""trial"",""time""
""fullscreenenter"",""1"",""1338""
","
","","","","","","null","<div style=""font-size:60px;"">+</div>","null","","fixation","","",""
"memory-trial","70","269224","0.0-18.0-1.12","7074","approach_avoid_sv1","""event"",""trial"",""time""
""fullscreenenter"",""1"",""1338""
","
","
","""event"",""trial"",""time""
""fullscreenenter"",""1"",""1338""
","
","","","","","","1330","images/train8.png","","","memory_trial","1","definitely_old",""
"html-keyboard-response","71","269727","0.0-18.0-0.13","7074","approach_avoid_sv1","""event"",""trial"",""time""
""fullscreenenter"",""1"",""1338""
","
","
","""event"",""trial"",""time""
""fullscreenenter"",""1"",""1338""
","
","","","","","","null","<div style=""font-size:60px;"">+</div>","null","","fixation","","",""
"memory-trial","72","271667","0.0-18.0-1.13","7074","approach_avoid_sv1","""event"",""trial"",""time""
""fullscreenenter"",""1"",""1338""
","
","
","""event"",""trial"",""time""
""fullscreenenter"",""1"",""1338""
","
","","","","","","935","images/flower4.png","","","memory_trial","1","definitely_old",""
"html-keyboard-response","73","272169","0.0-18.0-0.14","7074","approach_avoid_sv1","""event"",""trial"",""time""
""fullscreenenter"",""1"",""1338""
","
","
","""event"",""trial"",""time""
""fullscreenenter"",""1"",""1338""
","
","","","","","","null","<div style=""font-size:60px;"">+</div>","null","","fixation","","",""
"memory-trial","74","273904","0.0-18.0-1.14","7074","approach_avoid_sv1","""event"",""trial"",""time""
""fullscreenenter"",""1"",""1338""
","
","
","""event"",""trial"",""time""
""fullscreenenter"",""1"",""1338""
","
","","","","","","730.9999999999418","images/horse3.png","","","memory_trial","1","definitely_old",""
"html-keyboard-response","75","274406","0.0-18.0-0.15","7074","approach_avoid_sv1","""event"",""trial"",""time""
""fullscreenenter"",""1"",""1338""
","
","
","""event"",""trial"",""time""
""fullscreenenter"",""1"",""1338""
","
","","","","","","null","<div style=""font-size:60px;"">+</div>","null","","fixation","","",""
"memory-trial","76","277637","0.0-18.0-1.15","7074","approach_avoid_sv1","""event"",""trial"",""time""
""fullscreenenter"",""1"",""1338""
","
","
","""event"",""trial"",""time""
""fullscreenenter"",""1"",""1338""
","
","","","","","","2228","images/goat3.png","","","memory_trial","2","maybe_old",""
"html-keyboard-response","77","278140","0.0-18.0-0.16","7074","approach_avoid_sv1","""event"",""trial"",""time""
""fullscreenenter"",""1"",""1338""
","
","
","""event"",""trial"",""time""
""fullscreenenter"",""1"",""1338""
","
","","","","","","null","<div style=""font-size:60px;"">+</div>","null","","fixation","","",""
"memory-trial","78","280970","0.0-18.0-1.16","7074","approach_avoid_sv1","""event"",""trial"",""time""
""fullscreenenter"",""1"",""1338""
","
","
","""event"",""trial"",""time""
""fullscreenenter"",""1"",""1338""
","
","","","","","","1827","images/boat1.png","","","memory_trial","3","maybe_new",""
"html-keyboard-response","79","281473","0.0-18.0-0.17","7074","approach_avoid_sv1","""event"",""trial"",""time""
""fullscreenenter"",""1"",""1338""
","
","
","""event"",""trial"",""time""
""fullscreenenter"",""1"",""1338""
","
","","","","","","null","<div style=""font-size:60px;"">+</div>","null","","fixation","","",""
"memory-trial","80","284219","0.0-18.0-1.17","7074","approach_avoid_sv1","""event"",""trial"",""time""
""fullscreenenter"",""1"",""1338""
","
","
","""event"",""trial"",""time""
""fullscreenenter"",""1"",""1338""
","
","","","","","","1743","images/banana7.png","","","memory_trial","3","maybe_new",""
"html-keyboard-response","81","284722","0.0-18.0-0.18","7074","approach_avoid_sv1","""event"",""trial"",""time""
""fullscreenenter"",""1"",""1338""
","
","
","""event"",""trial"",""time""
""fullscreenenter"",""1"",""1338""
","
","","","","","","null","<div style=""font-size:60px;"">+</div>","null","","fixation","","",""
"memory-trial","82","286763","0.0-18.0-1.18","7074","approach_avoid_sv1","""event"",""trial"",""time""
""fullscreenenter"",""1"",""1338""
","
","
","""event"",""trial"",""time""
""fullscreenenter"",""1"",""1338""
","
","","","","","","1037.9999999999418","images/truck7.png","","","memory_trial","3","maybe_new",""
"html-keyboard-response","83","287266","0.0-18.0-0.19","7074","approach_avoid_sv1","""event"",""trial"",""time""
""fullscreenenter"",""1"",""1338""
","
","
","""event"",""trial"",""time""
""fullscreenenter"",""1"",""1338""
","
","","","","","","null","<div style=""font-size:60px;"">+</div>","null","","fixation","","",""
"memory-trial","84","289369","0.0-18.0-1.19","7074","approach_avoid_sv1","""event"",""trial"",""time""
""fullscreenenter"",""1"",""1338""
","
","
","""event"",""trial"",""time""
""fullscreenenter"",""1"",""1338""
","
","","","","","","1099","images/plane3.png","","","memory_trial","4","definitely_new",""
"html-keyboard-response","85","289871","0.0-18.0-0.20","7074","approach_avoid_sv1","""event"",""trial"",""time""
""fullscreenenter"",""1"",""1338""
","
","
","""event"",""trial"",""time""
""fullscreenenter"",""1"",""1338""
","
","","","","","","null","<div style=""font-size:60px;"">+</div>","null","","fixation","","",""
"memory-trial","86","292469","0.0-18.0-1.20","7074","approach_avoid_sv1","""event"",""trial"",""time""
""fullscreenenter"",""1"",""1338""
","
","
","""event"",""trial"",""time""
""fullscreenenter"",""1"",""1338""
","
","","","","","","1594","images/bush3.png","","","memory_trial","4","definitely_new",""
"html-keyboard-response","87","292972","0.0-18.0-0.21","7074","approach_avoid_sv1","""event"",""trial"",""time""
""fullscreenenter"",""1"",""1338""
","
","
","""event"",""trial"",""time""
""fullscreenenter"",""1"",""1338""
","
","","","","","","null","<div style=""font-size:60px;"">+</div>","null","","fixation","","",""
"memory-trial","88","294975","0.0-18.0-1.21","7074","approach_avoid_sv1","""event"",""trial"",""time""
""fullscreenenter"",""1"",""1338""
","
","
","""event"",""trial"",""time""
""fullscreenenter"",""1"",""1338""
","
","","","","","","1000","images/truck8.png","","","memory_trial","4","definitely_new",""
"html-keyboard-response","89","295478","0.0-18.0-0.22","7074","approach_avoid_sv1","""event"",""trial"",""time""
""fullscreenenter"",""1"",""1338""
","
","
","""event"",""trial"",""time""
""fullscreenenter"",""1"",""1338""
","
","","","","","","null","<div style=""font-size:60px;"">+</div>","null","","fixation","","",""
"memory-trial","90","299169","0.0-18.0-1.22","7074","approach_avoid_sv1","""event"",""trial"",""time""
""fullscreenenter"",""1"",""1338""
","
","
","""event"",""trial"",""time""
""fullscreenenter"",""1"",""1338""
","
","","","","","","2688","images/table6.png","","","memory_trial","2","maybe_old",""
"html-keyboard-response","91","299671","0.0-18.0-0.23","7074","approach_avoid_sv1","""event"",""trial"",""time""
""fullscreenenter"",""1"",""1338""
","
","
","""event"",""trial"",""time""
""fullscreenenter"",""1"",""1338""
","
","","","","","","null","<div style=""font-size:60px;"">+</div>","null","","fixation","","",""
"memory-trial","92","301656","0.0-18.0-1.23","7074","approach_avoid_sv1","""event"",""trial"",""time""
""fullscreenenter"",""1"",""1338""
","
","
","""event"",""trial"",""time""
""fullscreenenter"",""1"",""1338""
","
","","","","","","981","images/straw3.png","","","memory_trial","1","definitely_old",""
"html-keyboard-response","93","302159","0.0-18.0-0.24","7074","approach_avoid_sv1","""event"",""trial"",""time""
""fullscreenenter"",""1"",""1338""
","
","
","""event"",""trial"",""time""
""fullscreenenter"",""1"",""1338""
","
","","","","","","null","<div style=""font-size:60px;"">+</div>","null","","fixation","","",""
"memory-trial","94","303852","0.0-18.0-1.24","7074","approach_avoid_sv1","""event"",""trial"",""time""
""fullscreenenter"",""1"",""1338""
","
","
","""event"",""trial"",""time""
""fullscreenenter"",""1"",""1338""
","
","","","","","","689","images/apple1.png","","","memory_trial","1","definitely_old",""
"html-keyboard-response","95","304354","0.0-18.0-0.25","7074","approach_avoid_sv1","""event"",""trial"",""time""
""fullscreenenter"",""1"",""1338""
","
","
","""event"",""trial"",""time""
""fullscreenenter"",""1"",""1338""
","
","","","","","","null","<div style=""font-size:60px;"">+</div>","null","","fixation","","",""
"memory-trial","96","308552","0.0-18.0-1.25","7074","approach_avoid_sv1","""event"",""trial"",""time""
""fullscreenenter"",""1"",""1338""
","
","
","""event"",""trial"",""time""
""fullscreenenter"",""1"",""1338""
","
","","","","","","3194","images/cow4.png","","","memory_trial","3","maybe_new",""
"html-keyboard-response","97","309054","0.0-18.0-0.26","7074","approach_avoid_sv1","""event"",""trial"",""time""
""fullscreenenter"",""1"",""1338""
","
","
","""event"",""trial"",""time""
""fullscreenenter"",""1"",""1338""
","
","","","","","","null","<div style=""font-size:60px;"">+</div>","null","","fixation","","",""
"memory-trial","98","312255","0.0-18.0-1.26","7074","approach_avoid_sv1","""event"",""trial"",""time""
""fullscreenenter"",""1"",""1338""
","
","
","""event"",""trial"",""time""
""fullscreenenter"",""1"",""1338""
","
","","","","","","2197","images/bed3.png","","","memory_trial","4","definitely_new",""
"html-keyboard-response","99","312757","0.0-18.0-0.27","7074","approach_avoid_sv1","""event"",""trial"",""time""
""fullscreenenter"",""1"",""1338""
","
","
","""event"",""trial"",""time""
""fullscreenenter"",""1"",""1338""
","
","","","","","","null","<div style=""font-size:60px;"">+</div>","null","","fixation","","",""
"memory-trial","100","315304","0.0-18.0-1.27","7074","approach_avoid_sv1","""event"",""trial"",""time""
""fullscreenenter"",""1"",""1338""
","
","
","""event"",""trial"",""time""
""fullscreenenter"",""1"",""1338""
","
","","","","","","1542","images/rabbit6.png","","","memory_trial","1","definitely_old",""
"html-keyboard-response","101","315806","0.0-18.0-0.28","7074","approach_avoid_sv1","""event"",""trial"",""time""
""fullscreenenter"",""1"",""1338""
","
","
","""event"",""trial"",""time""
""fullscreenenter"",""1"",""1338""
","
","","","","","","null","<div style=""font-size:60px;"">+</div>","null","","fixation","","",""
"memory-trial","102","318724","0.0-18.0-1.28","7074","approach_avoid_sv1","""event"",""trial"",""time""
""fullscreenenter"",""1"",""1338""
","
","
","""event"",""trial"",""time""
""fullscreenenter"",""1"",""1338""
","
","","","","","","1914.0000000000582","images/boat4.png","","","memory_trial","4","definitely_new",""
"html-keyboard-response","103","319226","0.0-18.0-0.29","7074","approach_avoid_sv1","""event"",""trial"",""time""
""fullscreenenter"",""1"",""1338""
","
","
","""event"",""trial"",""time""
""fullscreenenter"",""1"",""1338""
","
","","","","","","null","<div style=""font-size:60px;"">+</div>","null","","fixation","","",""
"memory-trial","104","321300","0.0-18.0-1.29","7074","approach_avoid_sv1","""event"",""trial"",""time""
""fullscreenenter"",""1"",""1338""
","
","
","""event"",""trial"",""time""
""fullscreenenter"",""1"",""1338""
","
","","","","","","1069","images/straw8.png","","","memory_trial","4","definitely_new",""
"html-keyboard-response","105","321802","0.0-18.0-0.30","7074","approach_avoid_sv1","""event"",""trial"",""time""
""fullscreenenter"",""1"",""1338""
","
","
","""event"",""trial"",""time""
""fullscreenenter"",""1"",""1338""
","
","","","","","","null","<div style=""font-size:60px;"">+</div>","null","","fixation","","",""
"memory-trial","106","323491","0.0-18.0-1.30","7074","approach_avoid_sv1","""event"",""trial"",""time""
""fullscreenenter"",""1"",""1338""
","
","
","""event"",""trial"",""time""
""fullscreenenter"",""1"",""1338""
","
","","","","","","685","images/boat3.png","","","memory_trial","4","definitely_new",""
"html-keyboard-response","107","323994","0.0-18.0-0.31","7074","approach_avoid_sv1","""event"",""trial"",""time""
""fullscreenenter"",""1"",""1338""
","
","
","""event"",""trial"",""time""
""fullscreenenter"",""1"",""1338""
","
","","","","","","null","<div style=""font-size:60px;"">+</div>","null","","fixation","","",""
"memory-trial","108","326820","0.0-18.0-1.31","7074","approach_avoid_sv1","""event"",""trial"",""time""
""fullscreenenter"",""1"",""1338""
","
","
","""event"",""trial"",""time""
""fullscreenenter"",""1"",""1338""
","
","","","","","","1822","images/flower6.png","","","memory_trial","1","definitely_old",""
"html-keyboard-response","109","327323","0.0-18.0-0.32","7074","approach_avoid_sv1","""event"",""trial"",""time""
""fullscreenenter"",""1"",""1338""
","
","
","""event"",""trial"",""time""
""fullscreenenter"",""1"",""1338""
","
","","","","","","null","<div style=""font-size:60px;"">+</div>","null","","fixation","","",""
"memory-trial","110","329587","0.0-18.0-1.32","7074","approach_avoid_sv1","""event"",""trial"",""time""
""fullscreenenter"",""1"",""1338""
","
","
","""event"",""trial"",""time""
""fullscreenenter"",""1"",""1338""
","
","","","","","","1260.0000000000582","images/bush4.png","","","memory_trial","4","definitely_new",""
"html-keyboard-response","111","330090","0.0-18.0-0.33","7074","approach_avoid_sv1","""event"",""trial"",""time""
""fullscreenenter"",""1"",""1338""
","
","
","""event"",""trial"",""time""
""fullscreenenter"",""1"",""1338""
","
","","","","","","null","<div style=""font-size:60px;"">+</div>","null","","fixation","","",""
"memory-trial","112","334318","0.0-18.0-1.33","7074","approach_avoid_sv1","""event"",""trial"",""time""
""fullscreenenter"",""1"",""1338""
","
","
","""event"",""trial"",""time""
""fullscreenenter"",""1"",""1338""
","
","","","","","","3223.999999999942","images/straw7.png","","","memory_trial","2","maybe_old",""
"html-keyboard-response","113","334820","0.0-18.0-0.34","7074","approach_avoid_sv1","""event"",""trial"",""time""
""fullscreenenter"",""1"",""1338""
","
","
","""event"",""trial"",""time""
""fullscreenenter"",""1"",""1338""
","
","","","","","","null","<div style=""font-size:60px;"">+</div>","null","","fixation","","",""
"memory-trial","114","338061","0.0-18.0-1.34","7074","approach_avoid_sv1","""event"",""trial"",""time""
""fullscreenenter"",""1"",""1338""
","
","
","""event"",""trial"",""time""
""fullscreenenter"",""1"",""1338""
","
","","","","","","2238","images/horse8.png","","","memory_trial","2","maybe_old",""
"html-keyboard-response","115","338564","0.0-18.0-0.35","7074","approach_avoid_sv1","""event"",""trial"",""time""
""fullscreenenter"",""1"",""1338""
","
","
","""event"",""trial"",""time""
""fullscreenenter"",""1"",""1338""
","
","","","","","","null","<div style=""font-size:60px;"">+</div>","null","","fixation","","",""
"memory-trial","116","342578","0.0-18.0-1.35","7074","approach_avoid_sv1","""event"",""trial"",""time""
""fullscreenenter"",""1"",""1338""
","
","
","""event"",""trial"",""time""
""fullscreenenter"",""1"",""1338""
","
","","","","","","3010","images/rodent2.png","","","memory_trial","2","maybe_old",""
"html-keyboard-response","117","343081","0.0-18.0-0.36","7074","approach_avoid_sv1","""event"",""trial"",""time""
""fullscreenenter"",""1"",""1338""
","
","
","""event"",""trial"",""time""
""fullscreenenter"",""1"",""1338""
","
","","","","","","null","<div style=""font-size:60px;"">+</div>","null","","fixation","","",""
"memory-trial","118","345527","0.0-18.0-1.36","7074","approach_avoid_sv1","""event"",""trial"",""time""
""fullscreenenter"",""1"",""1338""
","
","
","""event"",""trial"",""time""
""fullscreenenter"",""1"",""1338""
","
","","","","","","1443","images/chair1.png","","","memory_trial","4","definitely_new",""
"html-keyboard-response","119","346030","0.0-18.0-0.37","7074","approach_avoid_sv1","""event"",""trial"",""time""
""fullscreenenter"",""1"",""1338""
","
","
","""event"",""trial"",""time""
""fullscreenenter"",""1"",""1338""
","
","","","","","","null","<div style=""font-size:60px;"">+</div>","null","","fixation","","",""
"memory-trial","120","347764","0.0-18.0-1.37","7074","approach_avoid_sv1","""event"",""trial"",""time""
""fullscreenenter"",""1"",""1338""
","
","
","""event"",""trial"",""time""
""fullscreenenter"",""1"",""1338""
","
","","","","","","730.9999999999418","images/bush6.png","","","memory_trial","4","definitely_new",""
"html-keyboard-response","121","348271","0.0-18.0-0.38","7074","approach_avoid_sv1","""event"",""trial"",""time""
""fullscreenenter"",""1"",""1338""
","
","
","""event"",""trial"",""time""
""fullscreenenter"",""1"",""1338""
","
","","","","","","null","<div style=""font-size:60px;"">+</div>","null","","fixation","","",""
"memory-trial","122","351346","0.0-18.0-1.38","7074","approach_avoid_sv1","""event"",""trial"",""time""
""fullscreenenter"",""1"",""1338""
","
","
","""event"",""trial"",""time""
""fullscreenenter"",""1"",""1338""
","
","","","","","","2068.000000000058","images/cat2.png","","","memory_trial","3","maybe_new",""
"html-keyboard-response","123","351848","0.0-18.0-0.39","7074","approach_avoid_sv1","""event"",""trial"",""time""
""fullscreenenter"",""1"",""1338""
","
","
","""event"",""trial"",""time""
""fullscreenenter"",""1"",""1338""
","
","","","","","","null","<div style=""font-size:60px;"">+</div>","null","","fixation","","",""
"memory-trial","124","353974","0.0-18.0-1.39","7074","approach_avoid_sv1","""event"",""trial"",""time""
""fullscreenenter"",""1"",""1338""
","
","
","""event"",""trial"",""time""
""fullscreenenter"",""1"",""1338""
","
","","","","","","1122","images/table3.png","","","memory_trial","4","definitely_new",""
"html-keyboard-response","125","354477","0.0-18.0-0.40","7074","approach_avoid_sv1","""event"",""trial"",""time""
""fullscreenenter"",""1"",""1338""
","
","
","""event"",""trial"",""time""
""fullscreenenter"",""1"",""1338""
","
","","","","","","null","<div style=""font-size:60px;"">+</div>","null","","fixation","","",""
"memory-trial","126","356691","0.0-18.0-1.40","7074","approach_avoid_sv1","""event"",""trial"",""time""
""fullscreenenter"",""1"",""1338""
","
","
","""event"",""trial"",""time""
""fullscreenenter"",""1"",""1338""
","
","","","","","","1210","images/sofa1.png","","","memory_trial","1","definitely_old",""
"html-keyboard-response","127","357193","0.0-18.0-0.41","7074","approach_avoid_sv1","""event"",""trial"",""time""
""fullscreenenter"",""1"",""1338""
","
","
","""event"",""trial"",""time""
""fullscreenenter"",""1"",""1338""
","
","","","","","","null","<div style=""font-size:60px;"">+</div>","null","","fixation","","",""
"memory-trial","128","360091","0.0-18.0-1.41","7074","approach_avoid_sv1","""event"",""trial"",""time""
""fullscreenenter"",""1"",""1338""
","
","
","""event"",""trial"",""time""
""fullscreenenter"",""1"",""1338""
","
","","","","","","1894","images/orange5.png","","","memory_trial","4","definitely_new",""
"html-button-response","129","362127","0.0-18.0-2.41-0.41","7074","approach_avoid_sv1","""event"",""trial"",""time""
""fullscreenenter"",""1"",""1338""
","
","
","""event"",""trial"",""time""
""fullscreenenter"",""1"",""1338""
","
","","","","","","2034","<p> Take a break! </p><p> Click the button to continue. </p>","0","","break","","",""
"html-keyboard-response","130","362629","0.0-18.0-0.42","7074","approach_avoid_sv1","""event"",""trial"",""time""
""fullscreenenter"",""1"",""1338""
","
","
","""event"",""trial"",""time""
""fullscreenenter"",""1"",""1338""
","
","","","","","","null","<div style=""font-size:60px;"">+</div>","null","","fixation","","",""
"memory-trial","131","365661","0.0-18.0-1.42","7074","approach_avoid_sv1","""event"",""trial"",""time""
""fullscreenenter"",""1"",""1338""
","
","
","""event"",""trial"",""time""
""fullscreenenter"",""1"",""1338""
","
","","","","","","2028","images/dog8.png","","","memory_trial","4","definitely_new",""
"html-keyboard-response","132","366164","0.0-18.0-0.43","7074","approach_avoid_sv1","""event"",""trial"",""time""
""fullscreenenter"",""1"",""1338""
","
","
","""event"",""trial"",""time""
""fullscreenenter"",""1"",""1338""
","
","","","","","","null","<div style=""font-size:60px;"">+</div>","null","","fixation","","",""
"memory-trial","133","367915","0.0-18.0-1.43","7074","approach_avoid_sv1","""event"",""trial"",""time""
""fullscreenenter"",""1"",""1338""
","
","
","""event"",""trial"",""time""
""fullscreenenter"",""1"",""1338""
","
","","","","","","746","images/bush7.png","","","memory_trial","4","definitely_new",""
"html-keyboard-response","134","368417","0.0-18.0-0.44","7074","approach_avoid_sv1","""event"",""trial"",""time""
""fullscreenenter"",""1"",""1338""
","
","
","""event"",""trial"",""time""
""fullscreenenter"",""1"",""1338""
","
","","","","","","null","<div style=""font-size:60px;"">+</div>","null","","fixation","","",""
"memory-trial","135","370073","0.0-18.0-1.44","7074","approach_avoid_sv1","""event"",""trial"",""time""
""fullscreenenter"",""1"",""1338""
","
","
","""event"",""trial"",""time""
""fullscreenenter"",""1"",""1338""
","
","","","","","","652","images/chair7.png","","","memory_trial","4","definitely_new",""
"html-keyboard-response","136","370575","0.0-18.0-0.45","7074","approach_avoid_sv1","""event"",""trial"",""time""
""fullscreenenter"",""1"",""1338""
","
","
","""event"",""trial"",""time""
""fullscreenenter"",""1"",""1338""
","
","","","","","","null","<div style=""font-size:60px;"">+</div>","null","","fixation","","",""
"memory-trial","137","372249","0.0-18.0-1.45","7074","approach_avoid_sv1","""event"",""trial"",""time""
""fullscreenenter"",""1"",""1338""
","
","
","""event"",""trial"",""time""
""fullscreenenter"",""1"",""1338""
","
","","","","","","670","images/tree2.png","","","memory_trial","4","definitely_new",""
"html-keyboard-response","138","372752","0.0-18.0-0.46","7074","approach_avoid_sv1","""event"",""trial"",""time""
""fullscreenenter"",""1"",""1338""
","
","
","""event"",""trial"",""time""
""fullscreenenter"",""1"",""1338""
","
","","","","","","null","<div style=""font-size:60px;"">+</div>","null","","fixation","","",""
"memory-trial","139","375728","0.0-18.0-1.46","7074","approach_avoid_sv1","""event"",""trial"",""time""
""fullscreenenter"",""1"",""1338""
","
","
","""event"",""trial"",""time""
""fullscreenenter"",""1"",""1338""
","
","","","","","","1973","images/rodent6.png","","","memory_trial","2","maybe_old",""
"html-keyboard-response","140","376231","0.0-18.0-0.47","7074","approach_avoid_sv1","""event"",""trial"",""time""
""fullscreenenter"",""1"",""1338""
","
","
","""event"",""trial"",""time""
""fullscreenenter"",""1"",""1338""
","
","","","","","","null","<div style=""font-size:60px;"">+</div>","null","","fixation","","",""
"memory-trial","141","378114","0.0-18.0-1.47","7074","approach_avoid_sv1","""event"",""trial"",""time""
""fullscreenenter"",""1"",""1338""
","
","
","""event"",""trial"",""time""
""fullscreenenter"",""1"",""1338""
","
","","","","","","879","images/sheep6.png","","","memory_trial","1","definitely_old",""
"html-keyboard-response","142","378616","0.0-18.0-0.48","7074","approach_avoid_sv1","""event"",""trial"",""time""
""fullscreenenter"",""1"",""1338""
","
","
","""event"",""trial"",""time""
""fullscreenenter"",""1"",""1338""
","
","","","","","","null","<div style=""font-size:60px;"">+</div>","null","","fixation","","",""
"memory-trial","143","380426","0.0-18.0-1.48","7074","approach_avoid_sv1","""event"",""trial"",""time""
""fullscreenenter"",""1"",""1338""
","
","
","""event"",""trial"",""time""
""fullscreenenter"",""1"",""1338""
","
","","","","","","806","images/cactus5.png","","","memory_trial","1","definitely_old",""
"html-keyboard-response","144","380929","0.0-18.0-0.49","7074","approach_avoid_sv1","""event"",""trial"",""time""
""fullscreenenter"",""1"",""1338""
","
","
","""event"",""trial"",""time""
""fullscreenenter"",""1"",""1338""
","
","","","","","","null","<div style=""font-size:60px;"">+</div>","null","","fixation","","",""
"memory-trial","145","383064","0.0-18.0-1.49","7074","approach_avoid_sv1","""event"",""trial"",""time""
""fullscreenenter"",""1"",""1338""
","
","
","""event"",""trial"",""time""
""fullscreenenter"",""1"",""1338""
","
","","","","","","1131","images/cow5.png","","","memory_trial","1","definitely_old",""
"html-keyboard-response","146","383567","0.0-18.0-0.50","7074","approach_avoid_sv1","""event"",""trial"",""time""
""fullscreenenter"",""1"",""1338""
","
","
","""event"",""trial"",""time""
""fullscreenenter"",""1"",""1338""
","
","","","","","","null","<div style=""font-size:60px;"">+</div>","null","","fixation","","",""
"memory-trial","147","387086","0.0-18.0-1.50","7074","approach_avoid_sv1","""event"",""trial"",""time""
""fullscreenenter"",""1"",""1338""
","
","
","""event"",""trial"",""time""
""fullscreenenter"",""1"",""1338""
","
","","","","","","2515","images/straw1.png","","","memory_trial","2","maybe_old",""
"html-keyboard-response","148","387588","0.0-18.0-0.51","7074","approach_avoid_sv1","""event"",""trial"",""time""
""fullscreenenter"",""1"",""1338""
","
","
","""event"",""trial"",""time""
""fullscreenenter"",""1"",""1338""
","
","","","","","","null","<div style=""font-size:60px;"">+</div>","null","","fixation","","",""
"memory-trial","149","390303","0.0-18.0-1.51","7074","approach_avoid_sv1","""event"",""trial"",""time""
""fullscreenenter"",""1"",""1338""
","
","
","""event"",""trial"",""time""
""fullscreenenter"",""1"",""1338""
","
","","","","","","1710.9999999999418","images/boat8.png","","","memory_trial","4","definitely_new",""
"html-keyboard-response","150","390805","0.0-18.0-0.52","7074","approach_avoid_sv1","""event"",""trial"",""time""
""fullscreenenter"",""1"",""1338""
","
","
","""event"",""trial"",""time""
""fullscreenenter"",""1"",""1338""
","
","","","","","","null","<div style=""font-size:60px;"">+</div>","null","","fixation","","",""
"memory-trial","151","393338","0.0-18.0-1.52","7074","approach_avoid_sv1","""event"",""trial"",""time""
""fullscreenenter"",""1"",""1338""
","
","
","""event"",""trial"",""time""
""fullscreenenter"",""1"",""1338""
","
","","","","","","1529","images/horse7.png","","","memory_trial","3","maybe_new",""
"html-keyboard-response","152","393840","0.0-18.0-0.53","7074","approach_avoid_sv1","""event"",""trial"",""time""
""fullscreenenter"",""1"",""1338""
","
","
","""event"",""trial"",""time""
""fullscreenenter"",""1"",""1338""
","
","","","","","","null","<div style=""font-size:60px;"">+</div>","null","","fixation","","",""
"memory-trial","153","396245","0.0-18.0-1.53","7074","approach_avoid_sv1","""event"",""trial"",""time""
""fullscreenenter"",""1"",""1338""
","
","
","""event"",""trial"",""time""
""fullscreenenter"",""1"",""1338""
","
","","","","","","1401.0000000000582","images/tree6.png","","","memory_trial","1","definitely_old",""
"html-keyboard-response","154","396748","0.0-18.0-0.54","7074","approach_avoid_sv1","""event"",""trial"",""time""
""fullscreenenter"",""1"",""1338""
","
","
","""event"",""trial"",""time""
""fullscreenenter"",""1"",""1338""
","
","","","","","","null","<div style=""font-size:60px;"">+</div>","null","","fixation","","",""
"memory-trial","155","400146","0.0-18.0-1.54","7074","approach_avoid_sv1","""event"",""trial"",""time""
""fullscreenenter"",""1"",""1338""
","
","
","""event"",""trial"",""time""
""fullscreenenter"",""1"",""1338""
","
","","","","","","2393.999999999942","images/train4.png","","","memory_trial","4","definitely_new",""
"html-keyboard-response","156","400648","0.0-18.0-0.55","7074","approach_avoid_sv1","""event"",""trial"",""time""
""fullscreenenter"",""1"",""1338""
","
","
","""event"",""trial"",""time""
""fullscreenenter"",""1"",""1338""
","
","","","","","","null","<div style=""font-size:60px;"">+</div>","null","","fixation","","",""
"memory-trial","157","402956","0.0-18.0-1.55","7074","approach_avoid_sv1","""event"",""trial"",""time""
""fullscreenenter"",""1"",""1338""
","
","
","""event"",""trial"",""time""
""fullscreenenter"",""1"",""1338""
","
","","","","","","1305","images/train6.png","","","memory_trial","1","definitely_old",""
"html-keyboard-response","158","403458","0.0-18.0-0.56","7074","approach_avoid_sv1","""event"",""trial"",""time""
""fullscreenenter"",""1"",""1338""
","
","
","""event"",""trial"",""time""
""fullscreenenter"",""1"",""1338""
","
","","","","","","null","<div style=""font-size:60px;"">+</div>","null","","fixation","","",""
"memory-trial","159","405395","0.0-18.0-1.56","7074","approach_avoid_sv1","""event"",""trial"",""time""
""fullscreenenter"",""1"",""1338""
","
","
","""event"",""trial"",""time""
""fullscreenenter"",""1"",""1338""
","
","","","","","","933","images/flower2.png","","","memory_trial","1","definitely_old",""
"html-keyboard-response","160","405898","0.0-18.0-0.57","7074","approach_avoid_sv1","""event"",""trial"",""time""
""fullscreenenter"",""1"",""1338""
","
","
","""event"",""trial"",""time""
""fullscreenenter"",""1"",""1338""
","
","","","","","","null","<div style=""font-size:60px;"">+</div>","null","","fixation","","",""
"memory-trial","161","407500","0.0-18.0-1.57","7074","approach_avoid_sv1","""event"",""trial"",""time""
""fullscreenenter"",""1"",""1338""
","
","
","""event"",""trial"",""time""
""fullscreenenter"",""1"",""1338""
","
","","","","","","598","images/flower1.png","","","memory_trial","1","definitely_old",""
"html-keyboard-response","162","408002","0.0-18.0-0.58","7074","approach_avoid_sv1","""event"",""trial"",""time""
""fullscreenenter"",""1"",""1338""
","
","
","""event"",""trial"",""time""
""fullscreenenter"",""1"",""1338""
","
","","","","","","null","<div style=""font-size:60px;"">+</div>","null","","fixation","","",""
"memory-trial","163","410031","0.0-18.0-1.58","7074","approach_avoid_sv1","""event"",""trial"",""time""
""fullscreenenter"",""1"",""1338""
","
","
","""event"",""trial"",""time""
""fullscreenenter"",""1"",""1338""
","
","","","","","","1026","images/cactus8.png","","","memory_trial","1","definitely_old",""
"html-keyboard-response","164","410534","0.0-18.0-0.59","7074","approach_avoid_sv1","""event"",""trial"",""time""
""fullscreenenter"",""1"",""1338""
","
","
","""event"",""trial"",""time""
""fullscreenenter"",""1"",""1338""
","
","","","","","","null","<div style=""font-size:60px;"">+</div>","null","","fixation","","",""
"memory-trial","165","413129","0.0-18.0-1.59","7074","approach_avoid_sv1","""event"",""trial"",""time""
""fullscreenenter"",""1"",""1338""
","
","
","""event"",""trial"",""time""
""fullscreenenter"",""1"",""1338""
","
","","","","","","1591","images/apple6.png","","","memory_trial","3","maybe_new",""
"html-keyboard-response","166","413632","0.0-18.0-0.60","7074","approach_avoid_sv1","""event"",""trial"",""time""
""fullscreenenter"",""1"",""1338""
","
","
","""event"",""trial"",""time""
""fullscreenenter"",""1"",""1338""
","
","","","","","","null","<div style=""font-size:60px;"">+</div>","null","","fixation","","",""
"memory-trial","167","415622","0.0-18.0-1.60","7074","approach_avoid_sv1","""event"",""trial"",""time""
""fullscreenenter"",""1"",""1338""
","
","
","""event"",""trial"",""time""
""fullscreenenter"",""1"",""1338""
","
","","","","","","986","images/sheep2.png","","","memory_trial","1","definitely_old",""
"html-keyboard-response","168","416124","0.0-18.0-0.61","7074","approach_avoid_sv1","""event"",""trial"",""time""
""fullscreenenter"",""1"",""1338""
","
","
","""event"",""trial"",""time""
""fullscreenenter"",""1"",""1338""
","
","","","","","","null","<div style=""font-size:60px;"">+</div>","null","","fixation","","",""
"memory-trial","169","420614","0.0-18.0-1.61","7074","approach_avoid_sv1","""event"",""trial"",""time""
""fullscreenenter"",""1"",""1338""
","
","
","""event"",""trial"",""time""
""fullscreenenter"",""1"",""1338""
","
","","","","","","3485","images/sofa7.png","","","memory_trial","2","maybe_old",""
"html-keyboard-response","170","421116","0.0-18.0-0.62","7074","approach_avoid_sv1","""event"",""trial"",""time""
""fullscreenenter"",""1"",""1338""
","
","
","""event"",""trial"",""time""
""fullscreenenter"",""1"",""1338""
","
","","","","","","null","<div style=""font-size:60px;"">+</div>","null","","fixation","","",""
"memory-trial","171","423748","0.0-18.0-1.62","7074","approach_avoid_sv1","""event"",""trial"",""time""
""fullscreenenter"",""1"",""1338""
","
","
","""event"",""trial"",""time""
""fullscreenenter"",""1"",""1338""
","
","","","","","","1628","images/train1.png","","","memory_trial","1","definitely_old",""
"html-keyboard-response","172","424250","0.0-18.0-0.63","7074","approach_avoid_sv1","""event"",""trial"",""time""
""fullscreenenter"",""1"",""1338""
","
","
","""event"",""trial"",""time""
""fullscreenenter"",""1"",""1338""
","
","","","","","","null","<div style=""font-size:60px;"">+</div>","null","","fixation","","",""
"memory-trial","173","427171","0.0-18.0-1.63","7074","approach_avoid_sv1","""event"",""trial"",""time""
""fullscreenenter"",""1"",""1338""
","
","
","""event"",""trial"",""time""
""fullscreenenter"",""1"",""1338""
","
","","","","","","1917","images/bed2.png","","","memory_trial","2","maybe_old",""
"html-keyboard-response","174","427673","0.0-18.0-0.64","7074","approach_avoid_sv1","""event"",""trial"",""time""
""fullscreenenter"",""1"",""1338""
","
","
","""event"",""trial"",""time""
""fullscreenenter"",""1"",""1338""
","
","","","","","","null","<div style=""font-size:60px;"">+</div>","null","","fixation","","",""
"memory-trial","175","429559","0.0-18.0-1.64","7074","approach_avoid_sv1","""event"",""trial"",""time""
""fullscreenenter"",""1"",""1338""
","
","
","""event"",""trial"",""time""
""fullscreenenter"",""1"",""1338""
","
","","","","","","882","images/chair2.png","","","memory_trial","4","definitely_new",""
"html-keyboard-response","176","430061","0.0-18.0-0.65","7074","approach_avoid_sv1","""event"",""trial"",""time""
""fullscreenenter"",""1"",""1338""
","
","
","""event"",""trial"",""time""
""fullscreenenter"",""1"",""1338""
","
","","","","","","null","<div style=""font-size:60px;"">+</div>","null","","fixation","","",""
"memory-trial","177","431989","0.0-18.0-1.65","7074","approach_avoid_sv1","""event"",""trial"",""time""
""fullscreenenter"",""1"",""1338""
","
","
","""event"",""trial"",""time""
""fullscreenenter"",""1"",""1338""
","
","","","","","","924.0000000000582","images/tree1.png","","","memory_trial","1","definitely_old",""
"html-keyboard-response","178","432492","0.0-18.0-0.66","7074","approach_avoid_sv1","""event"",""trial"",""time""
""fullscreenenter"",""1"",""1338""
","
","
","""event"",""trial"",""time""
""fullscreenenter"",""1"",""1338""
","
","","","","","","null","<div style=""font-size:60px;"">+</div>","null","","fixation","","",""
"memory-trial","179","434677","0.0-18.0-1.66","7074","approach_avoid_sv1","""event"",""trial"",""time""
""fullscreenenter"",""1"",""1338""
","
","
","""event"",""trial"",""time""
""fullscreenenter"",""1"",""1338""
","
","","","","","","1181","images/cow1.png","","","memory_trial","4","definitely_new",""
"html-keyboard-response","180","435179","0.0-18.0-0.67","7074","approach_avoid_sv1","""event"",""trial"",""time""
""fullscreenenter"",""1"",""1338""
","
","
","""event"",""trial"",""time""
""fullscreenenter"",""1"",""1338""
","
","","","","","","null","<div style=""font-size:60px;"">+</div>","null","","fixation","","",""
"memory-trial","181","437208","0.0-18.0-1.67","7074","approach_avoid_sv1","""event"",""trial"",""time""
""fullscreenenter"",""1"",""1338""
","
","
","""event"",""trial"",""time""
""fullscreenenter"",""1"",""1338""
","
","","","","","","1025.0000000000582","images/table1.png","","","memory_trial","4","definitely_new",""
"html-keyboard-response","182","437710","0.0-18.0-0.68","7074","approach_avoid_sv1","""event"",""trial"",""time""
""fullscreenenter"",""1"",""1338""
","
","
","""event"",""trial"",""time""
""fullscreenenter"",""1"",""1338""
","
","","","","","","null","<div style=""font-size:60px;"">+</div>","null","","fixation","","",""
"memory-trial","183","439757","0.0-18.0-1.68","7074","approach_avoid_sv1","""event"",""trial"",""time""
""fullscreenenter"",""1"",""1338""
","
","
","""event"",""trial"",""time""
""fullscreenenter"",""1"",""1338""
","
","","","","","","1041.9999999999418","images/banana1.png","","","memory_trial","1","definitely_old",""
"html-keyboard-response","184","440259","0.0-18.0-0.69","7074","approach_avoid_sv1","""event"",""trial"",""time""
""fullscreenenter"",""1"",""1338""
","
","
","""event"",""trial"",""time""
""fullscreenenter"",""1"",""1338""
","
","","","","","","null","<div style=""font-size:60px;"">+</div>","null","","fixation","","",""
"memory-trial","185","441385","0.0-18.0-1.69","7074","approach_avoid_sv1","""event"",""trial"",""time""
""fullscreenenter"",""1"",""1338""
","
","
","""event"",""trial"",""time""
""fullscreenenter"",""1"",""1338""
","
","","","","","","123","images/bed7.png","","","memory_trial","1","definitely_old",""
"html-keyboard-response","186","441888","0.0-18.0-0.70","7074","approach_avoid_sv1","""event"",""trial"",""time""
""fullscreenenter"",""1"",""1338""
","
","
","""event"",""trial"",""time""
""fullscreenenter"",""1"",""1338""
","
","","","","","","null","<div style=""font-size:60px;"">+</div>","null","","fixation","","",""
"memory-trial","187","443896","0.0-18.0-1.70","7074","approach_avoid_sv1","""event"",""trial"",""time""
""fullscreenenter"",""1"",""1338""
","
","
","""event"",""trial"",""time""
""fullscreenenter"",""1"",""1338""
","
","","","","","","1005","images/horse4.png","","","memory_trial","1","definitely_old",""
"html-keyboard-response","188","444399","0.0-18.0-0.71","7074","approach_avoid_sv1","""event"",""trial"",""time""
""fullscreenenter"",""1"",""1338""
","
","
","""event"",""trial"",""time""
""fullscreenenter"",""1"",""1338""
","
","","","","","","null","<div style=""font-size:60px;"">+</div>","null","","fixation","","",""
"memory-trial","189","446375","0.0-18.0-1.71","7074","approach_avoid_sv1","""event"",""trial"",""time""
""fullscreenenter"",""1"",""1338""
","
","
","""event"",""trial"",""time""
""fullscreenenter"",""1"",""1338""
","
","","","","","","973.0000000000582","images/rabbit2.png","","","memory_trial","1","definitely_old",""
"html-keyboard-response","190","446878","0.0-18.0-0.72","7074","approach_avoid_sv1","""event"",""trial"",""time""
""fullscreenenter"",""1"",""1338""
","
","
","""event"",""trial"",""time""
""fullscreenenter"",""1"",""1338""
","
","","","","","","null","<div style=""font-size:60px;"">+</div>","null","","fixation","","",""
"memory-trial","191","449688","0.0-18.0-1.72","7074","approach_avoid_sv1","""event"",""trial"",""time""
""fullscreenenter"",""1"",""1338""
","
","
","""event"",""trial"",""time""
""fullscreenenter"",""1"",""1338""
","
","","","","","","1806","images/sheep5.png","","","memory_trial","2","maybe_old",""
"html-keyboard-response","192","450191","0.0-18.0-0.73","7074","approach_avoid_sv1","""event"",""trial"",""time""
""fullscreenenter"",""1"",""1338""
","
","
","""event"",""trial"",""time""
""fullscreenenter"",""1"",""1338""
","
","","","","","","null","<div style=""font-size:60px;"">+</div>","null","","fixation","","",""
"memory-trial","193","453083","0.0-18.0-1.73","7074","approach_avoid_sv1","""event"",""trial"",""time""
""fullscreenenter"",""1"",""1338""
","
","
","""event"",""trial"",""time""
""fullscreenenter"",""1"",""1338""
","
","","","","","","1887.9999999999418","images/goat5.png","","","memory_trial","3","maybe_new",""
"html-keyboard-response","194","453586","0.0-18.0-0.74","7074","approach_avoid_sv1","""event"",""trial"",""time""
""fullscreenenter"",""1"",""1338""
","
","
","""event"",""trial"",""time""
""fullscreenenter"",""1"",""1338""
","
","","","","","","null","<div style=""font-size:60px;"">+</div>","null","","fixation","","",""
"memory-trial","195","456415","0.0-18.0-1.74","7074","approach_avoid_sv1","""event"",""trial"",""time""
""fullscreenenter"",""1"",""1338""
","
","
","""event"",""trial"",""time""
""fullscreenenter"",""1"",""1338""
","
","","","","","","1826.0000000000582","images/sofa3.png","","","memory_trial","1","definitely_old",""
"html-keyboard-response","196","456918","0.0-18.0-0.75","7074","approach_avoid_sv1","""event"",""trial"",""time""
""fullscreenenter"",""1"",""1338""
","
","
","""event"",""trial"",""time""
""fullscreenenter"",""1"",""1338""
","
","","","","","","null","<div style=""font-size:60px;"">+</div>","null","","fixation","","",""
"memory-trial","197","459185","0.0-18.0-1.75","7074","approach_avoid_sv1","""event"",""trial"",""time""
""fullscreenenter"",""1"",""1338""
","
","
","""event"",""trial"",""time""
""fullscreenenter"",""1"",""1338""
","
","","","","","","1264","images/dog1.png","","","memory_trial","2","maybe_old",""
"html-keyboard-response","198","459688","0.0-18.0-0.76","7074","approach_avoid_sv1","""event"",""trial"",""time""
""fullscreenenter"",""1"",""1338""
","
","
","""event"",""trial"",""time""
""fullscreenenter"",""1"",""1338""
","
","","","","","","null","<div style=""font-size:60px;"">+</div>","null","","fixation","","",""
"memory-trial","199","462384","0.0-18.0-1.76","7074","approach_avoid_sv1","""event"",""trial"",""time""
""fullscreenenter"",""1"",""1338""
","
","
","""event"",""trial"",""time""
""fullscreenenter"",""1"",""1338""
","
","","","","","","1693","images/cat4.png","","","memory_trial","3","maybe_new",""
"html-keyboard-response","200","462886","0.0-18.0-0.77","7074","approach_avoid_sv1","""event"",""trial"",""time""
""fullscreenenter"",""1"",""1338""
","
","
","""event"",""trial"",""time""
""fullscreenenter"",""1"",""1338""
","
","","","","","","null","<div style=""font-size:60px;"">+</div>","null","","fixation","","",""
"memory-trial","201","465206","0.0-18.0-1.77","7074","approach_avoid_sv1","""event"",""trial"",""time""
""fullscreenenter"",""1"",""1338""
","
","
","""event"",""trial"",""time""
""fullscreenenter"",""1"",""1338""
","
","","","","","","1316","images/straw4.png","","","memory_trial","3","maybe_new",""
"html-keyboard-response","202","465709","0.0-18.0-0.78","7074","approach_avoid_sv1","""event"",""trial"",""time""
""fullscreenenter"",""1"",""1338""
","
","
","""event"",""trial"",""time""
""fullscreenenter"",""1"",""1338""
","
","","","","","","null","<div style=""font-size:60px;"">+</div>","null","","fixation","","",""
"memory-trial","203","467711","0.0-18.0-1.78","7074","approach_avoid_sv1","""event"",""trial"",""time""
""fullscreenenter"",""1"",""1338""
","
","
","""event"",""trial"",""time""
""fullscreenenter"",""1"",""1338""
","
","","","","","","999","images/rabbit3.png","","","memory_trial","1","definitely_old",""
"html-keyboard-response","204","468214","0.0-18.0-0.79","7074","approach_avoid_sv1","""event"",""trial"",""time""
""fullscreenenter"",""1"",""1338""
","
","
","""event"",""trial"",""time""
""fullscreenenter"",""1"",""1338""
","
","","","","","","null","<div style=""font-size:60px;"">+</div>","null","","fixation","","",""
"memory-trial","205","470337","0.0-18.0-1.79","7074","approach_avoid_sv1","""event"",""trial"",""time""
""fullscreenenter"",""1"",""1338""
","
","
","""event"",""trial"",""time""
""fullscreenenter"",""1"",""1338""
","
","","","","","","1120","images/table5.png","","","memory_trial","4","definitely_new",""
"html-keyboard-response","206","470840","0.0-18.0-0.80","7074","approach_avoid_sv1","""event"",""trial"",""time""
""fullscreenenter"",""1"",""1338""
","
","
","""event"",""trial"",""time""
""fullscreenenter"",""1"",""1338""
","
","","","","","","null","<div style=""font-size:60px;"">+</div>","null","","fixation","","",""
"memory-trial","207","472738","0.0-18.0-1.80","7074","approach_avoid_sv1","""event"",""trial"",""time""
""fullscreenenter"",""1"",""1338""
","
","
","""event"",""trial"",""time""
""fullscreenenter"",""1"",""1338""
","
","","","","","","894","images/bush1.png","","","memory_trial","4","definitely_new",""
"html-keyboard-response","208","473241","0.0-18.0-0.81","7074","approach_avoid_sv1","""event"",""trial"",""time""
""fullscreenenter"",""1"",""1338""
","
","
","""event"",""trial"",""time""
""fullscreenenter"",""1"",""1338""
","
","","","","","","null","<div style=""font-size:60px;"">+</div>","null","","fixation","","",""
"memory-trial","209","475130","0.0-18.0-1.81","7074","approach_avoid_sv1","""event"",""trial"",""time""
""fullscreenenter"",""1"",""1338""
","
","
","""event"",""trial"",""time""
""fullscreenenter"",""1"",""1338""
","
","","","","","","885","images/apple4.png","","","memory_trial","4","definitely_new",""
"html-keyboard-response","210","475633","0.0-18.0-0.82","7074","approach_avoid_sv1","""event"",""trial"",""time""
""fullscreenenter"",""1"",""1338""
","
","
","""event"",""trial"",""time""
""fullscreenenter"",""1"",""1338""
","
","","","","","","null","<div style=""font-size:60px;"">+</div>","null","","fixation","","",""
"memory-trial","211","478024","0.0-18.0-1.82","7074","approach_avoid_sv1","""event"",""trial"",""time""
""fullscreenenter"",""1"",""1338""
","
","
","""event"",""trial"",""time""
""fullscreenenter"",""1"",""1338""
","
","","","","","","1388.9999999999418","images/orange4.png","","","memory_trial","1","definitely_old",""
"html-keyboard-response","212","478526","0.0-18.0-0.83","7074","approach_avoid_sv1","""event"",""trial"",""time""
""fullscreenenter"",""1"",""1338""
","
","
","""event"",""trial"",""time""
""fullscreenenter"",""1"",""1338""
","
","","","","","","null","<div style=""font-size:60px;"">+</div>","null","","fixation","","",""
"memory-trial","213","480607","0.0-18.0-1.83","7074","approach_avoid_sv1","""event"",""trial"",""time""
""fullscreenenter"",""1"",""1338""
","
","
","""event"",""trial"",""time""
""fullscreenenter"",""1"",""1338""
","
","","","","","","1077","images/sofa2.png","","","memory_trial","4","definitely_new",""
"html-keyboard-response","214","481109","0.0-18.0-0.84","7074","approach_avoid_sv1","""event"",""trial"",""time""
""fullscreenenter"",""1"",""1338""
","
","
","""event"",""trial"",""time""
""fullscreenenter"",""1"",""1338""
","
","","","","","","null","<div style=""font-size:60px;"">+</div>","null","","fixation","","",""
"memory-trial","215","483921","0.0-18.0-1.84","7074","approach_avoid_sv1","""event"",""trial"",""time""
""fullscreenenter"",""1"",""1338""
","
","
","""event"",""trial"",""time""
""fullscreenenter"",""1"",""1338""
","
","","","","","","1809.0000000000582","images/straw2.png","","","memory_trial","2","maybe_old",""
"html-keyboard-response","216","484423","0.0-18.0-0.85","7074","approach_avoid_sv1","""event"",""trial"",""time""
""fullscreenenter"",""1"",""1338""
","
","
","""event"",""trial"",""time""
""fullscreenenter"",""1"",""1338""
","
","","","","","","null","<div style=""font-size:60px;"">+</div>","null","","fixation","","",""
"memory-trial","217","487012","0.0-18.0-1.85","7074","approach_avoid_sv1","""event"",""trial"",""time""
""fullscreenenter"",""1"",""1338""
","
","
","""event"",""trial"",""time""
""fullscreenenter"",""1"",""1338""
","
","","","","","","1584","images/sheep3.png","","","memory_trial","3","maybe_new",""
"html-keyboard-response","218","487514","0.0-18.0-0.86","7074","approach_avoid_sv1","""event"",""trial"",""time""
""fullscreenenter"",""1"",""1338""
","
","
","""event"",""trial"",""time""
""fullscreenenter"",""1"",""1338""
","
","","","","","","null","<div style=""font-size:60px;"">+</div>","null","","fixation","","",""
"memory-trial","219","492038","0.0-18.0-1.86","7074","approach_avoid_sv1","""event"",""trial"",""time""
""fullscreenenter"",""1"",""1338""
","
","
","""event"",""trial"",""time""
""fullscreenenter"",""1"",""1338""
","
","","","","","","3521","images/tree7.png","","","memory_trial","3","maybe_new",""
"html-keyboard-response","220","492540","0.0-18.0-0.87","7074","approach_avoid_sv1","""event"",""trial"",""time""
""fullscreenenter"",""1"",""1338""
","
","
","""event"",""trial"",""time""
""fullscreenenter"",""1"",""1338""
","
","","","","","","null","<div style=""font-size:60px;"">+</div>","null","","fixation","","",""
"memory-trial","221","494453","0.0-18.0-1.87","7074","approach_avoid_sv1","""event"",""trial"",""time""
""fullscreenenter"",""1"",""1338""
","
","
","""event"",""trial"",""time""
""fullscreenenter"",""1"",""1338""
","
","","","","","","908","images/apple8.png","","","memory_trial","3","maybe_new",""
"html-keyboard-response","222","494959","0.0-18.0-0.88","7074","approach_avoid_sv1","""event"",""trial"",""time""
""fullscreenenter"",""1"",""1338""
","
","
","""event"",""trial"",""time""
""fullscreenenter"",""1"",""1338""
","
","","","","","","null","<div style=""font-size:60px;"">+</div>","null","","fixation","","",""
"memory-trial","223","496905","0.0-18.0-1.88","7074","approach_avoid_sv1","""event"",""trial"",""time""
""fullscreenenter"",""1"",""1338""
","
","
","""event"",""trial"",""time""
""fullscreenenter"",""1"",""1338""
","
","","","","","","941","images/orange7.png","","","memory_trial","3","maybe_new",""
"html-keyboard-response","224","497408","0.0-18.0-0.89","7074","approach_avoid_sv1","""event"",""trial"",""time""
""fullscreenenter"",""1"",""1338""
","
","
","""event"",""trial"",""time""
""fullscreenenter"",""1"",""1338""
","
","","","","","","null","<div style=""font-size:60px;"">+</div>","null","","fixation","","",""
"memory-trial","225","499780","0.0-18.0-1.89","7074","approach_avoid_sv1","""event"",""trial"",""time""
""fullscreenenter"",""1"",""1338""
","
","
","""event"",""trial"",""time""
""fullscreenenter"",""1"",""1338""
","
","","","","","","1368","images/flower7.png","","","memory_trial","1","definitely_old",""
"html-keyboard-response","226","500283","0.0-18.0-0.90","7074","approach_avoid_sv1","""event"",""trial"",""time""
""fullscreenenter"",""1"",""1338""
","
","
","""event"",""trial"",""time""
""fullscreenenter"",""1"",""1338""
","
","","","","","","null","<div style=""font-size:60px;"">+</div>","null","","fixation","","",""
"memory-trial","227","502231","0.0-18.0-1.90","7074","approach_avoid_sv1","""event"",""trial"",""time""
""fullscreenenter"",""1"",""1338""
","
","
","""event"",""trial"",""time""
""fullscreenenter"",""1"",""1338""
","
","","","","","","944","images/chair4.png","","","memory_trial","4","definitely_new",""
"html-keyboard-response","228","502734","0.0-18.0-0.91","7074","approach_avoid_sv1","""event"",""trial"",""time""
""fullscreenenter"",""1"",""1338""
","
","
","""event"",""trial"",""time""
""fullscreenenter"",""1"",""1338""
","
","","","","","","null","<div style=""font-size:60px;"">+</div>","null","","fixation","","",""
"memory-trial","229","506508","0.0-18.0-1.91","7074","approach_avoid_sv1","""event"",""trial"",""time""
""fullscreenenter"",""1"",""1338""
","
","
","""event"",""trial"",""time""
""fullscreenenter"",""1"",""1338""
","
","","","","","","2770","images/orange1.png","","","memory_trial","3","maybe_new",""
"html-button-response","230","508098","0.0-18.0-2.91-0.91","7074","approach_avoid_sv1","""event"",""trial"",""time""
""fullscreenenter"",""1"",""1338""
","
","
","""event"",""trial"",""time""
""fullscreenenter"",""1"",""1338""
","
","","","","","","1588","<p> Take a break! </p><p> Click the button to continue. </p>","0","","break","","",""
"html-keyboard-response","231","508600","0.0-18.0-0.92","7074","approach_avoid_sv1","""event"",""trial"",""time""
""fullscreenenter"",""1"",""1338""
","
","
","""event"",""trial"",""time""
""fullscreenenter"",""1"",""1338""
","
","","","","","","null","<div style=""font-size:60px;"">+</div>","null","","fixation","","",""
"memory-trial","232","512195","0.0-18.0-1.92","7074","approach_avoid_sv1","""event"",""trial"",""time""
""fullscreenenter"",""1"",""1338""
","
","
","""event"",""trial"",""time""
""fullscreenenter"",""1"",""1338""
","
","","","","","","2593","images/goat8.png","","","memory_trial","3","maybe_new",""
"html-keyboard-response","233","512697","0.0-18.0-0.93","7074","approach_avoid_sv1","""event"",""trial"",""time""
""fullscreenenter"",""1"",""1338""
","
","
","""event"",""trial"",""time""
""fullscreenenter"",""1"",""1338""
","
","","","","","","null","<div style=""font-size:60px;"">+</div>","null","","fixation","","",""
"memory-trial","234","515037","0.0-18.0-1.93","7074","approach_avoid_sv1","""event"",""trial"",""time""
""fullscreenenter"",""1"",""1338""
","
","
","""event"",""trial"",""time""
""fullscreenenter"",""1"",""1338""
","
","","","","","","1337.9999999999418","images/cactus3.png","","","memory_trial","1","definitely_old",""
"html-keyboard-response","235","515539","0.0-18.0-0.94","7074","approach_avoid_sv1","""event"",""trial"",""time""
""fullscreenenter"",""1"",""1338""
","
","
","""event"",""trial"",""time""
""fullscreenenter"",""1"",""1338""
","
","","","","","","null","<div style=""font-size:60px;"">+</div>","null","","fixation","","",""
"memory-trial","236","518048","0.0-18.0-1.94","7074","approach_avoid_sv1","""event"",""trial"",""time""
""fullscreenenter"",""1"",""1338""
","
","
","""event"",""trial"",""time""
""fullscreenenter"",""1"",""1338""
","
","","","","","","1505","images/chair8.png","","","memory_trial","4","definitely_new",""
"html-keyboard-response","237","518551","0.0-18.0-0.95","7074","approach_avoid_sv1","""event"",""trial"",""time""
""fullscreenenter"",""1"",""1338""
","
","
","""event"",""trial"",""time""
""fullscreenenter"",""1"",""1338""
","
","","","","","","null","<div style=""font-size:60px;"">+</div>","null","","fixation","","",""
"memory-trial","238","520402","0.0-18.0-1.95","7074","approach_avoid_sv1","""event"",""trial"",""time""
""fullscreenenter"",""1"",""1338""
","
","
","""event"",""trial"",""time""
""fullscreenenter"",""1"",""1338""
","
","","","","","","847.9999999999418","images/cactus2.png","","","memory_trial","3","maybe_new",""
"html-keyboard-response","239","520903","0.0-18.0-0.96","7074","approach_avoid_sv1","""event"",""trial"",""time""
""fullscreenenter"",""1"",""1338""
","
","
","""event"",""trial"",""time""
""fullscreenenter"",""1"",""1338""
","
","","","","","","null","<div style=""font-size:60px;"">+</div>","null","","fixation","","",""
"memory-trial","240","523836","0.0-18.0-1.96","7074","approach_avoid_sv1","""event"",""trial"",""time""
""fullscreenenter"",""1"",""1338""
","
","
","""event"",""trial"",""time""
""fullscreenenter"",""1"",""1338""
","
","","","","","","1930.9999999999418","images/horse5.png","","","memory_trial","2","maybe_old",""
"html-keyboard-response","241","524338","0.0-18.0-0.97","7074","approach_avoid_sv1","""event"",""trial"",""time""
""fullscreenenter"",""1"",""1338""
","
","
","""event"",""trial"",""time""
""fullscreenenter"",""1"",""1338""
","
","","","","","","null","<div style=""font-size:60px;"">+</div>","null","","fixation","","",""
"memory-trial","242","526369","0.0-18.0-1.97","7074","approach_avoid_sv1","""event"",""trial"",""time""
""fullscreenenter"",""1"",""1338""
","
","
","""event"",""trial"",""time""
""fullscreenenter"",""1"",""1338""
","
","","","","","","1028","images/plane2.png","","","memory_trial","4","definitely_new",""
"html-keyboard-response","243","526872","0.0-18.0-0.98","7074","approach_avoid_sv1","""event"",""trial"",""time""
""fullscreenenter"",""1"",""1338""
","
","
","""event"",""trial"",""time""
""fullscreenenter"",""1"",""1338""
","
","","","","","","null","<div style=""font-size:60px;"">+</div>","null","","fixation","","",""
"memory-trial","244","529693","0.0-18.0-1.98","7074","approach_avoid_sv1","""event"",""trial"",""time""
""fullscreenenter"",""1"",""1338""
","
","
","""event"",""trial"",""time""
""fullscreenenter"",""1"",""1338""
","
","","","","","","1817.0000000001164","images/cow6.png","","","memory_trial","1","definitely_old",""
"html-keyboard-response","245","530195","0.0-18.0-0.99","7074","approach_avoid_sv1","""event"",""trial"",""time""
""fullscreenenter"",""1"",""1338""
","
","
","""event"",""trial"",""time""
""fullscreenenter"",""1"",""1338""
","
","","","","","","null","<div style=""font-size:60px;"">+</div>","null","","fixation","","",""
"memory-trial","246","532451","0.0-18.0-1.99","7074","approach_avoid_sv1","""event"",""trial"",""time""
""fullscreenenter"",""1"",""1338""
","
","
","""event"",""trial"",""time""
""fullscreenenter"",""1"",""1338""
","
","","","","","","1252","images/rodent7.png","","","memory_trial","2","maybe_old",""
"html-keyboard-response","247","532953","0.0-18.0-0.100","7074","approach_avoid_sv1","""event"",""trial"",""time""
""fullscreenenter"",""1"",""1338""
","
","
","""event"",""trial"",""time""
""fullscreenenter"",""1"",""1338""
","
","","","","","","null","<div style=""font-size:60px;"">+</div>","null","","fixation","","",""
"memory-trial","248","535004","0.0-18.0-1.100","7074","approach_avoid_sv1","""event"",""trial"",""time""
""fullscreenenter"",""1"",""1338""
","
","
","""event"",""trial"",""time""
""fullscreenenter"",""1"",""1338""
","
","","","","","","1047","images/apple7.png","","","memory_trial","3","maybe_new",""
"html-keyboard-response","249","535507","0.0-18.0-0.101","7074","approach_avoid_sv1","""event"",""trial"",""time""
""fullscreenenter"",""1"",""1338""
","
","
","""event"",""trial"",""time""
""fullscreenenter"",""1"",""1338""
","
","","","","","","null","<div style=""font-size:60px;"">+</div>","null","","fixation","","",""
"memory-trial","250","537463","0.0-18.0-1.101","7074","approach_avoid_sv1","""event"",""trial"",""time""
""fullscreenenter"",""1"",""1338""
","
","
","""event"",""trial"",""time""
""fullscreenenter"",""1"",""1338""
","
","","","","","","953","images/cactus4.png","","","memory_trial","1","definitely_old",""
"html-keyboard-response","251","537965","0.0-18.0-0.102","7074","approach_avoid_sv1","""event"",""trial"",""time""
""fullscreenenter"",""1"",""1338""
","
","
","""event"",""trial"",""time""
""fullscreenenter"",""1"",""1338""
","
","","","","","","null","<div style=""font-size:60px;"">+</div>","null","","fixation","","",""
"memory-trial","252","539961","0.0-18.0-1.102","7074","approach_avoid_sv1","""event"",""trial"",""time""
""fullscreenenter"",""1"",""1338""
","
","
","""event"",""trial"",""time""
""fullscreenenter"",""1"",""1338""
","
","","","","","","993","images/straw6.png","","","memory_trial","3","maybe_new",""
"html-keyboard-response","253","540464","0.0-18.0-0.103","7074","approach_avoid_sv1","""event"",""trial"",""time""
""fullscreenenter"",""1"",""1338""
","
","
","""event"",""trial"",""time""
""fullscreenenter"",""1"",""1338""
","
","","","","","","null","<div style=""font-size:60px;"">+</div>","null","","fixation","","",""
"memory-trial","254","542601","0.0-18.0-1.103","7074","approach_avoid_sv1","""event"",""trial"",""time""
""fullscreenenter"",""1"",""1338""
","
","
","""event"",""trial"",""time""
""fullscreenenter"",""1"",""1338""
","
","","","","","","1133","images/truck4.png","","","memory_trial","3","maybe_new",""
"html-keyboard-response","255","543103","0.0-18.0-0.104","7074","approach_avoid_sv1","""event"",""trial"",""time""
""fullscreenenter"",""1"",""1338""
","
","
","""event"",""trial"",""time""
""fullscreenenter"",""1"",""1338""
","
","","","","","","null","<div style=""font-size:60px;"">+</div>","null","","fixation","","",""
"memory-trial","256","545045","0.0-18.0-1.104","7074","approach_avoid_sv1","""event"",""trial"",""time""
""fullscreenenter"",""1"",""1338""
","
","
","""event"",""trial"",""time""
""fullscreenenter"",""1"",""1338""
","
","","","","","","938","images/rodent5.png","","","memory_trial","1","definitely_old",""
"html-keyboard-response","257","545547","0.0-18.0-0.105","7074","approach_avoid_sv1","""event"",""trial"",""time""
""fullscreenenter"",""1"",""1338""
","
","
","""event"",""trial"",""time""
""fullscreenenter"",""1"",""1338""
","
","","","","","","null","<div style=""font-size:60px;"">+</div>","null","","fixation","","",""
"memory-trial","258","547517","0.0-18.0-1.105","7074","approach_avoid_sv1","""event"",""trial"",""time""
""fullscreenenter"",""1"",""1338""
","
","
","""event"",""trial"",""time""
""fullscreenenter"",""1"",""1338""
","
","","","","","","963","images/bed1.png","","","memory_trial","4","definitely_new",""
"html-keyboard-response","259","548020","0.0-18.0-0.106","7074","approach_avoid_sv1","""event"",""trial"",""time""
""fullscreenenter"",""1"",""1338""
","
","
","""event"",""trial"",""time""
""fullscreenenter"",""1"",""1338""
","
","","","","","","null","<div style=""font-size:60px;"">+</div>","null","","fixation","","",""
"memory-trial","260","550811","0.0-18.0-1.106","7074","approach_avoid_sv1","""event"",""trial"",""time""
""fullscreenenter"",""1"",""1338""
","
","
","""event"",""trial"",""time""
""fullscreenenter"",""1"",""1338""
","
","","","","","","1787","images/chair6.png","","","memory_trial","3","maybe_new",""
"html-keyboard-response","261","551313","0.0-18.0-0.107","7074","approach_avoid_sv1","""event"",""trial"",""time""
""fullscreenenter"",""1"",""1338""
","
","
","""event"",""trial"",""time""
""fullscreenenter"",""1"",""1338""
","
","","","","","","null","<div style=""font-size:60px;"">+</div>","null","","fixation","","",""
"memory-trial","262","553183","0.0-18.0-1.107","7074","approach_avoid_sv1","""event"",""trial"",""time""
""fullscreenenter"",""1"",""1338""
","
","
","""event"",""trial"",""time""
""fullscreenenter"",""1"",""1338""
","
","","","","","","865.9999999998836","images/sofa6.png","","","memory_trial","4","definitely_new",""
"html-keyboard-response","263","553685","0.0-18.0-0.108","7074","approach_avoid_sv1","""event"",""trial"",""time""
""fullscreenenter"",""1"",""1338""
","
","
","""event"",""trial"",""time""
""fullscreenenter"",""1"",""1338""
","
","","","","","","null","<div style=""font-size:60px;"">+</div>","null","","fixation","","",""
"memory-trial","264","555826","0.0-18.0-1.108","7074","approach_avoid_sv1","""event"",""trial"",""time""
""fullscreenenter"",""1"",""1338""
","
","
","""event"",""trial"",""time""
""fullscreenenter"",""1"",""1338""
","
","","","","","","1137","images/goat7.png","","","memory_trial","2","maybe_old",""
"html-keyboard-response","265","556329","0.0-18.0-0.109","7074","approach_avoid_sv1","""event"",""trial"",""time""
""fullscreenenter"",""1"",""1338""
","
","
","""event"",""trial"",""time""
""fullscreenenter"",""1"",""1338""
","
","","","","","","null","<div style=""font-size:60px;"">+</div>","null","","fixation","","",""
"memory-trial","266","558542","0.0-18.0-1.109","7074","approach_avoid_sv1","""event"",""trial"",""time""
""fullscreenenter"",""1"",""1338""
","
","
","""event"",""trial"",""time""
""fullscreenenter"",""1"",""1338""
","
","","","","","","1209","images/chair5.png","","","memory_trial","3","maybe_new",""
"html-keyboard-response","267","559045","0.0-18.0-0.110","7074","approach_avoid_sv1","""event"",""trial"",""time""
""fullscreenenter"",""1"",""1338""
","
","
","""event"",""trial"",""time""
""fullscreenenter"",""1"",""1338""
","
","","","","","","null","<div style=""font-size:60px;"">+</div>","null","","fixation","","",""
"memory-trial","268","561143","0.0-18.0-1.110","7074","approach_avoid_sv1","""event"",""trial"",""time""
""fullscreenenter"",""1"",""1338""
","
","
","""event"",""trial"",""time""
""fullscreenenter"",""1"",""1338""
","
","","","","","","1094","images/banana3.png","","","memory_trial","2","maybe_old",""
"html-keyboard-response","269","561646","0.0-18.0-0.111","7074","approach_avoid_sv1","""event"",""trial"",""time""
""fullscreenenter"",""1"",""1338""
","
","
","""event"",""trial"",""time""
""fullscreenenter"",""1"",""1338""
","
","","","","","","null","<div style=""font-size:60px;"">+</div>","null","","fixation","","",""
"memory-trial","270","563384","0.0-18.0-1.111","7074","approach_avoid_sv1","""event"",""trial"",""time""
""fullscreenenter"",""1"",""1338""
","
","
","""event"",""trial"",""time""
""fullscreenenter"",""1"",""1338""
","
","","","","","","735","images/chair3.png","","","memory_trial","4","definitely_new",""
"html-keyboard-response","271","563886","0.0-18.0-0.112","7074","approach_avoid_sv1","""event"",""trial"",""time""
""fullscreenenter"",""1"",""1338""
","
","
","""event"",""trial"",""time""
""fullscreenenter"",""1"",""1338""
","
","","","","","","null","<div style=""font-size:60px;"">+</div>","null","","fixation","","",""
"memory-trial","272","567751","0.0-18.0-1.112","7074","approach_avoid_sv1","""event"",""trial"",""time""
""fullscreenenter"",""1"",""1338""
","
","
","""event"",""trial"",""time""
""fullscreenenter"",""1"",""1338""
","
","","","","","","2861","images/train5.png","","","memory_trial","3","maybe_new",""
"html-keyboard-response","273","568253","0.0-18.0-0.113","7074","approach_avoid_sv1","""event"",""trial"",""time""
""fullscreenenter"",""1"",""1338""
","
","
","""event"",""trial"",""time""
""fullscreenenter"",""1"",""1338""
","
","","","","","","null","<div style=""font-size:60px;"">+</div>","null","","fixation","","",""
"memory-trial","274","571311","0.0-18.0-1.113","7074","approach_avoid_sv1","""event"",""trial"",""time""
""fullscreenenter"",""1"",""1338""
","
","
","""event"",""trial"",""time""
""fullscreenenter"",""1"",""1338""
","
","","","","","","2054","images/tree5.png","","","memory_trial","3","maybe_new",""
"html-keyboard-response","275","571814","0.0-18.0-0.114","7074","approach_avoid_sv1","""event"",""trial"",""time""
""fullscreenenter"",""1"",""1338""
","
","
","""event"",""trial"",""time""
""fullscreenenter"",""1"",""1338""
","
","","","","","","null","<div style=""font-size:60px;"">+</div>","null","","fixation","","",""
"memory-trial","276","573804","0.0-18.0-1.114","7074","approach_avoid_sv1","""event"",""trial"",""time""
""fullscreenenter"",""1"",""1338""
","
","
","""event"",""trial"",""time""
""fullscreenenter"",""1"",""1338""
","
","","","","","","987","images/table4.png","","","memory_trial","4","definitely_new",""
"html-keyboard-response","277","574306","0.0-18.0-0.115","7074","approach_avoid_sv1","""event"",""trial"",""time""
""fullscreenenter"",""1"",""1338""
","
","
","""event"",""trial"",""time""
""fullscreenenter"",""1"",""1338""
","
","","","","","","null","<div style=""font-size:60px;"">+</div>","null","","fixation","","",""
"memory-trial","278","577606","0.0-18.0-1.115","7074","approach_avoid_sv1","""event"",""trial"",""time""
""fullscreenenter"",""1"",""1338""
","
","
","""event"",""trial"",""time""
""fullscreenenter"",""1"",""1338""
","
","","","","","","2297","images/flower8.png","","","memory_trial","2","maybe_old",""
"html-keyboard-response","279","578109","0.0-18.0-0.116","7074","approach_avoid_sv1","""event"",""trial"",""time""
""fullscreenenter"",""1"",""1338""
","
","
","""event"",""trial"",""time""
""fullscreenenter"",""1"",""1338""
","
","","","","","","null","<div style=""font-size:60px;"">+</div>","null","","fixation","","",""
"memory-trial","280","580241","0.0-18.0-1.116","7074","approach_avoid_sv1","""event"",""trial"",""time""
""fullscreenenter"",""1"",""1338""
","
","
","""event"",""trial"",""time""
""fullscreenenter"",""1"",""1338""
","
","","","","","","1129","images/rabbit8.png","","","memory_trial","2","maybe_old",""
"html-keyboard-response","281","580744","0.0-18.0-0.117","7074","approach_avoid_sv1","""event"",""trial"",""time""
""fullscreenenter"",""1"",""1338""
","
","
","""event"",""trial"",""time""
""fullscreenenter"",""1"",""1338""
","
","","","","","","null","<div style=""font-size:60px;"">+</div>","null","","fixation","","",""
"memory-trial","282","583421","0.0-18.0-1.117","7074","approach_avoid_sv1","""event"",""trial"",""time""
""fullscreenenter"",""1"",""1338""
","
","
","""event"",""trial"",""time""
""fullscreenenter"",""1"",""1338""
","
","","","","","","1674","images/flower5.png","","","memory_trial","2","maybe_old",""
"html-keyboard-response","283","583923","0.0-18.0-0.118","7074","approach_avoid_sv1","""event"",""trial"",""time""
""fullscreenenter"",""1"",""1338""
","
","
","""event"",""trial"",""time""
""fullscreenenter"",""1"",""1338""
","
","","","","","","null","<div style=""font-size:60px;"">+</div>","null","","fixation","","",""
"memory-trial","284","586384","0.0-18.0-1.118","7074","approach_avoid_sv1","""event"",""trial"",""time""
""fullscreenenter"",""1"",""1338""
","
","
","""event"",""trial"",""time""
""fullscreenenter"",""1"",""1338""
","
","","","","","","1458","images/truck6.png","","","memory_trial","4","definitely_new",""
"html-keyboard-response","285","586887","0.0-18.0-0.119","7074","approach_avoid_sv1","""event"",""trial"",""time""
""fullscreenenter"",""1"",""1338""
","
","
","""event"",""trial"",""time""
""fullscreenenter"",""1"",""1338""
","
","","","","","","null","<div style=""font-size:60px;"">+</div>","null","","fixation","","",""
"memory-trial","286","589580","0.0-18.0-1.119","7074","approach_avoid_sv1","""event"",""trial"",""time""
""fullscreenenter"",""1"",""1338""
","
","
","""event"",""trial"",""time""
""fullscreenenter"",""1"",""1338""
","
","","","","","","1689","images/plane4.png","","","memory_trial","4","definitely_new",""
"html-keyboard-response","287","590082","0.0-18.0-0.120","7074","approach_avoid_sv1","""event"",""trial"",""time""
""fullscreenenter"",""1"",""1338""
","
","
","""event"",""trial"",""time""
""fullscreenenter"",""1"",""1338""
","
","","","","","","null","<div style=""font-size:60px;"">+</div>","null","","fixation","","",""
"memory-trial","288","592298","0.0-18.0-1.120","7074","approach_avoid_sv1","""event"",""trial"",""time""
""fullscreenenter"",""1"",""1338""
","
","
","""event"",""trial"",""time""
""fullscreenenter"",""1"",""1338""
","
","","","","","","1212","images/apple3.png","","","memory_trial","4","definitely_new",""
"html-keyboard-response","289","592801","0.0-18.0-0.121","7074","approach_avoid_sv1","""event"",""trial"",""time""
""fullscreenenter"",""1"",""1338""
","
","
","""event"",""trial"",""time""
""fullscreenenter"",""1"",""1338""
","
","","","","","","null","<div style=""font-size:60px;"">+</div>","null","","fixation","","",""
"memory-trial","290","594722","0.0-18.0-1.121","7074","approach_avoid_sv1","""event"",""trial"",""time""
""fullscreenenter"",""1"",""1338""
","
","
","""event"",""trial"",""time""
""fullscreenenter"",""1"",""1338""
","
","","","","","","918","images/sofa8.png","","","memory_trial","4","definitely_new",""
"html-keyboard-response","291","595225","0.0-18.0-0.122","7074","approach_avoid_sv1","""event"",""trial"",""time""
""fullscreenenter"",""1"",""1338""
","
","
","""event"",""trial"",""time""
""fullscreenenter"",""1"",""1338""
","
","","","","","","null","<div style=""font-size:60px;"">+</div>","null","","fixation","","",""
"memory-trial","292","596798","0.0-18.0-1.122","7074","approach_avoid_sv1","""event"",""trial"",""time""
""fullscreenenter"",""1"",""1338""
","
","
","""event"",""trial"",""time""
""fullscreenenter"",""1"",""1338""
","
","","","","","","570","images/apple5.png","","","memory_trial","4","definitely_new",""
"html-keyboard-response","293","597301","0.0-18.0-0.123","7074","approach_avoid_sv1","""event"",""trial"",""time""
""fullscreenenter"",""1"",""1338""
","
","
","""event"",""trial"",""time""
""fullscreenenter"",""1"",""1338""
","
","","","","","","null","<div style=""font-size:60px;"">+</div>","null","","fixation","","",""
"memory-trial","294","599837","0.0-18.0-1.123","7074","approach_avoid_sv1","""event"",""trial"",""time""
""fullscreenenter"",""1"",""1338""
","
","
","""event"",""trial"",""time""
""fullscreenenter"",""1"",""1338""
","
","","","","","","1532","images/cow7.png","","","memory_trial","3","maybe_new",""
"html-keyboard-response","295","600339","0.0-18.0-0.124","7074","approach_avoid_sv1","""event"",""trial"",""time""
""fullscreenenter"",""1"",""1338""
","
","
","""event"",""trial"",""time""
""fullscreenenter"",""1"",""1338""
","
","","","","","","null","<div style=""font-size:60px;"">+</div>","null","","fixation","","",""
"memory-trial","296","602023","0.0-18.0-1.124","7074","approach_avoid_sv1","""event"",""trial"",""time""
""fullscreenenter"",""1"",""1338""
","
","
","""event"",""trial"",""time""
""fullscreenenter"",""1"",""1338""
","
","","","","","","680","images/plane5.png","","","memory_trial","3","maybe_new",""
"html-keyboard-response","297","602525","0.0-18.0-0.125","7074","approach_avoid_sv1","""event"",""trial"",""time""
""fullscreenenter"",""1"",""1338""
","
","
","""event"",""trial"",""time""
""fullscreenenter"",""1"",""1338""
","
","","","","","","null","<div style=""font-size:60px;"">+</div>","null","","fixation","","",""
"memory-trial","298","604083","0.0-18.0-1.125","7074","approach_avoid_sv1","""event"",""trial"",""time""
""fullscreenenter"",""1"",""1338""
","
","
","""event"",""trial"",""time""
""fullscreenenter"",""1"",""1338""
","
","","","","","","554","images/plane1.png","","","memory_trial","3","maybe_new",""
"html-keyboard-response","299","604585","0.0-18.0-0.126","7074","approach_avoid_sv1","""event"",""trial"",""time""
""fullscreenenter"",""1"",""1338""
","
","
","""event"",""trial"",""time""
""fullscreenenter"",""1"",""1338""
","
","","","","","","null","<div style=""font-size:60px;"">+</div>","null","","fixation","","",""
"memory-trial","300","607607","0.0-18.0-1.126","7074","approach_avoid_sv1","""event"",""trial"",""time""
""fullscreenenter"",""1"",""1338""
","
","
","""event"",""trial"",""time""
""fullscreenenter"",""1"",""1338""
","
","","","","","","2019","images/dog4.png","","","memory_trial","1","definitely_old",""
"html-keyboard-response","301","608110","0.0-18.0-0.127","7074","approach_avoid_sv1","""event"",""trial"",""time""
