"trial_type","trial_index","time_elapsed","internal_node_id","subject_id","task_version","interactions","blur_events","focus_events","fullscreenenter_events","fullscreenexit_events","success","timeout","failed_images","failed_audio","failed_video","rt","stimulus","response","button_pressed","task_part","key_press","answer","correct"
"pavlovia","0","10","0.0-0.0","6379","approach_avoid_sv1","""event"",""trial"",""time""
""fullscreenenter"",""1"",""54748""
","
","
","""event"",""trial"",""time""
""fullscreenenter"",""1"",""54748""
","
","","","","","","","","","","","","",""
"fullscreen","1","55693","0.0-1.0","6379","approach_avoid_sv1","""event"",""trial"",""time""
""fullscreenenter"",""1"",""54748""
","
","
","""event"",""trial"",""time""
""fullscreenenter"",""1"",""54748""
","
","true","","","","","","","","","","","",""
"preload","2","57418","0.0-2.0","6379","approach_avoid_sv1","""event"",""trial"",""time""
""fullscreenenter"",""1"",""54748""
","
","
","""event"",""trial"",""time""
""fullscreenenter"",""1"",""54748""
","
","true","false","[]","[]","[]","","","","","","","",""
"preload","3","58619","0.0-3.0","6379","approach_avoid_sv1","""event"",""trial"",""time""
""fullscreenenter"",""1"",""54748""
","
","
","""event"",""trial"",""time""
""fullscreenenter"",""1"",""54748""
","
","true","false","[]","[]","[]","","","","","","","",""
"preload","4","58946","0.0-4.0","6379","approach_avoid_sv1","""event"",""trial"",""time""
""fullscreenenter"",""1"",""54748""
","
","
","""event"",""trial"",""time""
""fullscreenenter"",""1"",""54748""
","
","true","false","[]","[]","[]","","","","","","","",""
"audio-keyboard-response","5","58996","0.0-5.0","6379","approach_avoid_sv1","""event"",""trial"",""time""
""fullscreenenter"",""1"",""54748""
","
","
","""event"",""trial"",""time""
""fullscreenenter"",""1"",""54748""
","
","","","","","","0","audio/beep_loop.wav","audiovolumedown","","","","",""
"audio-button-response","6","62101","0.0-6.0","6379","approach_avoid_sv1","""event"",""trial"",""time""
""fullscreenenter"",""1"",""54748""
","
","
","""event"",""trial"",""time""
""fullscreenenter"",""1"",""54748""
","
","","","","","","3000","audio/turtle.wav","3","","","","",""
"audio-button-response","7","65772","0.0-7.0","6379","approach_avoid_sv1","""event"",""trial"",""time""
""fullscreenenter"",""1"",""54748""
","
","
","""event"",""trial"",""time""
""fullscreenenter"",""1"",""54748""
","
","","","","","","2659","audio/shark.wav","2","","","","",""
"preload","8","68587","0.0-8.0","6379","approach_avoid_sv1","""event"",""trial"",""time""
""fullscreenenter"",""1"",""54748""
","
","
","""event"",""trial"",""time""
""fullscreenenter"",""1"",""54748""
","
","true","false","[]","[]","[]","","","","","","","",""
"learning-instructions","9","75288","0.0-9.0-0.0","6379","approach_avoid_sv1","""event"",""trial"",""time""
""fullscreenenter"",""1"",""54748""
","
","
","""event"",""trial"",""time""
""fullscreenenter"",""1"",""54748""
","
","","","","","","2219.699998855591","<p> Welcome back! </p><p> Last week, you had to make choices about lots of different items.  </p>","","0","instructions","","",""
"learning-instructions","10","80415","0.0-9.0-0.1","6379","approach_avoid_sv1","""event"",""trial"",""time""
""fullscreenenter"",""1"",""54748""
","
","
","""event"",""trial"",""time""
""fullscreenenter"",""1"",""54748""
","
","","","","","","1017.3999996185303","<p> Today, we are going to ask you to try to remember all the items. </p>","","0","instructions","","",""
"learning-instructions","11","91530","0.0-9.0-0.2","6379","approach_avoid_sv1","""event"",""trial"",""time""
""fullscreenenter"",""1"",""54748""
","
","
","""event"",""trial"",""time""
""fullscreenenter"",""1"",""54748""
","
","","","","","","981.7999992370605","<p> On every trial, you will see an image. </p><p> The image may be an OLD image you saw during the games last week or it may be a NEW image that was not presented. </p>","","0","instructions","","",""
"learning-instructions","12","100582","0.0-9.0-0.3","6379","approach_avoid_sv1","""event"",""trial"",""time""
""fullscreenenter"",""1"",""54748""
","
","
","""event"",""trial"",""time""
""fullscreenenter"",""1"",""54748""
","
","","","","","","553.8999996185303","<p> You need to select whether the image is:  </p><p>  'Definitely old', 'Maybe old', 'Maybe new', or 'Definitely new.'  </p><div class=""mem-choice-instructions-grid""><div class=""choice-option"" id=""choice-option-1"" ><img src=""images/definitely_old_1.png"" id=""choice-option-img-1"" class=""choice-option-img"" stage=""1""></div><div class=""choice-option"" id=""choice-option-2"" ><img src=""images/maybe_old_1.png"" id=""choice-option-img-2"" class=""choice-option-img"" stage=""1""></div><div class=""choice-option"" id=""choice-option-3"" ><img src=""images/maybe_new_1.png"" id=""choice-option-img-3"" class=""choice-option-img"" stage=""1""></div><div class=""choice-option"" id=""choice-option-4"" > <img src=""images/definitely_new_1.png"" id=""choice-option-img-4"" class=""choice-option-img"" stage=""1""></div></div>","","0","instructions","","",""
"learning-instructions","13","108031","0.0-9.0-0.4","6379","approach_avoid_sv1","""event"",""trial"",""time""
""fullscreenenter"",""1"",""54748""
","
","
","""event"",""trial"",""time""
""fullscreenenter"",""1"",""54748""
","
","","","","","","933.8000011444092","<p> You should use the 1, 2, 3, and 4 keys to make your responses.  </p><div class=""mem-choice-instructions-grid""><div class=""choice-option"" id=""choice-option-1"" ><img src=""images/definitely_old.png"" id=""choice-option-img-1"" class=""choice-option-img"" stage=""1""></div><div class=""choice-option"" id=""choice-option-2"" ><img src=""images/maybe_old.png"" id=""choice-option-img-2"" class=""choice-option-img"" stage=""1""></div><div class=""choice-option"" id=""choice-option-3"" ><img src=""images/maybe_new.png"" id=""choice-option-img-3"" class=""choice-option-img"" stage=""1""></div><div class=""choice-option"" id=""choice-option-4"" > <img src=""images/definitely_new.png"" id=""choice-option-img-4"" class=""choice-option-img"" stage=""1""></div></div>","","0","instructions","","",""
"learning-instructions","14","115143","0.0-9.0-0.5","6379","approach_avoid_sv1","""event"",""trial"",""time""
""fullscreenenter"",""1"",""54748""
","
","
","""event"",""trial"",""time""
""fullscreenenter"",""1"",""54748""
","
","","","","","","776.3000011444092","<p> You will have 10 seconds to make each response.  </p><p>  Make sure to respond before time runs out! </p>","","0","instructions","","",""
"learning-instructions","15","123242","0.0-9.0-0.6","6379","approach_avoid_sv1","""event"",""trial"",""time""
""fullscreenenter"",""1"",""54748""
","
","
","""event"",""trial"",""time""
""fullscreenenter"",""1"",""54748""
","
","","","","","","1032.7999992370605","<p> Today, you will see each image ONCE only.  </p><p>  That means none of the images will repeat. </p>","","0","instructions","","",""
"learning-instructions","16","136556","0.0-9.0-0.7","6379","approach_avoid_sv1","""event"",""trial"",""time""
""fullscreenenter"",""1"",""54748""
","
","
","""event"",""trial"",""time""
""fullscreenenter"",""1"",""54748""
","
","","","","","","636.5","<p> Before you play the real game, it is time to practice. </p><p>  Just like in the real game, some of the images in the practice will be ones you have seen before. </p><p>  Others will be entirely new. </p>","","0","instructions","","",""
"html-button-response","17","138272","0.0-10.0","6379","approach_avoid_sv1","""event"",""trial"",""time""
""fullscreenenter"",""1"",""54748""
","
","
","""event"",""trial"",""time""
""fullscreenenter"",""1"",""54748""
","
","","","","","","1611.7999992370605","<p> Ready to practice? </p><p> Remember, use the 1, 2, 3, and 4 keys to make your responses. </p>","0","","instructions","","",""
"html-keyboard-response","18","138888","0.0-11.0-0.0","6379","approach_avoid_sv1","""event"",""trial"",""time""
""fullscreenenter"",""1"",""54748""
","
","
","""event"",""trial"",""time""
""fullscreenenter"",""1"",""54748""
","
","","","","","","null","<div style=""font-size:60px;"">+</div>","null","","fixation","","",""
"memory-trial","19","143377","0.0-11.0-1.0","6379","approach_avoid_sv1","""event"",""trial"",""time""
""fullscreenenter"",""1"",""54748""
","
","
","""event"",""trial"",""time""
""fullscreenenter"",""1"",""54748""
","
","","","","","","3481.7999992370605","images/racket2.png","","","practice","3","maybe_new",""
"html-keyboard-response","20","143885","0.0-11.0-0.1","6379","approach_avoid_sv1","""event"",""trial"",""time""
""fullscreenenter"",""1"",""54748""
","
","
","""event"",""trial"",""time""
""fullscreenenter"",""1"",""54748""
","
","","","","","","null","<div style=""font-size:60px;"">+</div>","null","","fixation","","",""
"memory-trial","21","147019","0.0-11.0-1.1","6379","approach_avoid_sv1","""event"",""trial"",""time""
""fullscreenenter"",""1"",""54748""
","
","
","""event"",""trial"",""time""
""fullscreenenter"",""1"",""54748""
","
","","","","","","2130.7000007629395","images/racket1.png","","","practice","2","maybe_old",""
"html-keyboard-response","22","147533","0.0-11.0-0.2","6379","approach_avoid_sv1","""event"",""trial"",""time""
""fullscreenenter"",""1"",""54748""
","
","
","""event"",""trial"",""time""
""fullscreenenter"",""1"",""54748""
","
","","","","","","null","<div style=""font-size:60px;"">+</div>","null","","fixation","","",""
"memory-trial","23","149677","0.0-11.0-1.2","6379","approach_avoid_sv1","""event"",""trial"",""time""
""fullscreenenter"",""1"",""54748""
","
","
","""event"",""trial"",""time""
""fullscreenenter"",""1"",""54748""
","
","","","","","","1137.3999996185303","images/ball5.png","","","practice","2","maybe_old",""
"html-keyboard-response","24","150186","0.0-11.0-0.3","6379","approach_avoid_sv1","""event"",""trial"",""time""
""fullscreenenter"",""1"",""54748""
","
","
","""event"",""trial"",""time""
""fullscreenenter"",""1"",""54748""
","
","","","","","","null","<div style=""font-size:60px;"">+</div>","null","","fixation","","",""
"memory-trial","25","152128","0.0-11.0-1.3","6379","approach_avoid_sv1","""event"",""trial"",""time""
""fullscreenenter"",""1"",""54748""
","
","
","""event"",""trial"",""time""
""fullscreenenter"",""1"",""54748""
","
","","","","","","932.7000007629395","images/ball3.png","","","practice","1","definitely_old",""
"html-keyboard-response","26","152643","0.0-11.0-0.4","6379","approach_avoid_sv1","""event"",""trial"",""time""
""fullscreenenter"",""1"",""54748""
","
","
","""event"",""trial"",""time""
""fullscreenenter"",""1"",""54748""
","
","","","","","","null","<div style=""font-size:60px;"">+</div>","null","","fixation","","",""
"memory-trial","27","154497","0.0-11.0-1.4","6379","approach_avoid_sv1","""event"",""trial"",""time""
""fullscreenenter"",""1"",""54748""
","
","
","""event"",""trial"",""time""
""fullscreenenter"",""1"",""54748""
","
","","","","","","850","images/ball2.png","","","practice","1","definitely_old",""
"html-keyboard-response","28","155004","0.0-11.0-0.5","6379","approach_avoid_sv1","""event"",""trial"",""time""
""fullscreenenter"",""1"",""54748""
","
","
","""event"",""trial"",""time""
""fullscreenenter"",""1"",""54748""
","
","","","","","","null","<div style=""font-size:60px;"">+</div>","null","","fixation","","",""
"memory-trial","29","158817","0.0-11.0-1.5","6379","approach_avoid_sv1","""event"",""trial"",""time""
""fullscreenenter"",""1"",""54748""
","
","
","""event"",""trial"",""time""
""fullscreenenter"",""1"",""54748""
","
","","","","","","2797.5","images/racket5.png","","","practice","3","maybe_new",""
"html-keyboard-response","30","159328","0.0-11.0-0.6","6379","approach_avoid_sv1","""event"",""trial"",""time""
""fullscreenenter"",""1"",""54748""
","
","
","""event"",""trial"",""time""
""fullscreenenter"",""1"",""54748""
","
","","","","","","null","<div style=""font-size:60px;"">+</div>","null","","fixation","","",""
"memory-trial","31","161885","0.0-11.0-1.6","6379","approach_avoid_sv1","""event"",""trial"",""time""
""fullscreenenter"",""1"",""54748""
","
","
","""event"",""trial"",""time""
""fullscreenenter"",""1"",""54748""
","
","","","","","","1546.2000007629395","images/racket3.png","","","practice","1","definitely_old",""
"html-keyboard-response","32","162393","0.0-11.0-0.7","6379","approach_avoid_sv1","""event"",""trial"",""time""
""fullscreenenter"",""1"",""54748""
","
","
","""event"",""trial"",""time""
""fullscreenenter"",""1"",""54748""
","
","","","","","","null","<div style=""font-size:60px;"">+</div>","null","","fixation","","",""
"memory-trial","33","166992","0.0-11.0-1.7","6379","approach_avoid_sv1","""event"",""trial"",""time""
""fullscreenenter"",""1"",""54748""
","
","
","""event"",""trial"",""time""
""fullscreenenter"",""1"",""54748""
","
","","","","","","3590.800001144409","images/ball1.png","","","practice","3","maybe_new",""
"learning-instructions","34","175215","0.0-12.0-0.0","6379","approach_avoid_sv1","""event"",""trial"",""time""
""fullscreenenter"",""1"",""54748""
","
","
","""event"",""trial"",""time""
""fullscreenenter"",""1"",""54748""
","
","","","","","","914.5","<p> Great! You have completed the practice. </p><p> Before you start, we're going to ask you a few questions about how the game works.  </p>","","0","instructions","","",""
"preload","35","176785","0.0-13.0","6379","approach_avoid_sv1","""event"",""trial"",""time""
""fullscreenenter"",""1"",""54748""
","
","
","""event"",""trial"",""time""
""fullscreenenter"",""1"",""54748""
","
","true","false","[]","[]","[]","","","","","","","",""
"comp-q","36","183464","0.0-14.0-0.0","6379","approach_avoid_sv1","""event"",""trial"",""time""
""fullscreenenter"",""1"",""54748""
","
","
","""event"",""trial"",""time""
""fullscreenenter"",""1"",""54748""
","
","","","","","","851.1999988555908","<p> <b> True or False? </b> </p><p> In this game, you will only see each image once. </p>","","0","comp_question","","","true"
"comp-q","37","190887","0.0-14.0-1.0","6379","approach_avoid_sv1","""event"",""trial"",""time""
""fullscreenenter"",""1"",""54748""
","
","
","""event"",""trial"",""time""
""fullscreenenter"",""1"",""54748""
","
","","","","","","1084.7000007629395","<p> <b> That's right! </b> You will see many different images <i> one time each </i> in this game. </p>","","0","comp_answer","","",""
"comp-q","38","196690","0.0-15.0-0.0","6379","approach_avoid_sv1","""event"",""trial"",""time""
""fullscreenenter"",""1"",""54748""
","
","
","""event"",""trial"",""time""
""fullscreenenter"",""1"",""54748""
","
","","","","","","797.6000003814697","<p> <b> True or False? </b> </p><p> You should use the mouse and click to make your response. </p>","","1","comp_question","","","true"
"comp-q","39","204856","0.0-15.0-1.0","6379","approach_avoid_sv1","""event"",""trial"",""time""
""fullscreenenter"",""1"",""54748""
","
","
","""event"",""trial"",""time""
""fullscreenenter"",""1"",""54748""
","
","","","","","","1663.599998474121","<p><b> That's right! </b> You should use the '1', '2', '3', and '4' keys to make your response. </p>","","0","comp_answer","","",""
"comp-q","40","211258","0.0-16.0-0.0","6379","approach_avoid_sv1","""event"",""trial"",""time""
""fullscreenenter"",""1"",""54748""
","
","
","""event"",""trial"",""time""
""fullscreenenter"",""1"",""54748""
","
","","","","","","725.3999996185303","<p> <b> True or False? </b> </p><p> You will have as much time as you want to make each choice. </p>","","1","comp_question","","","true"
"comp-q","41","216695","0.0-16.0-1.0","6379","approach_avoid_sv1","""event"",""trial"",""time""
""fullscreenenter"",""1"",""54748""
","
","
","""event"",""trial"",""time""
""fullscreenenter"",""1"",""54748""
","
","","","","","","752","<p> <b> That's right! </b> You will only have 10 seconds to make each choice. </p>","","0","comp_answer","","",""
"learning-instructions","42","227403","0.0-17.0","6379","approach_avoid_sv1","""event"",""trial"",""time""
""fullscreenenter"",""1"",""54748""
","
","
","""event"",""trial"",""time""
""fullscreenenter"",""1"",""54748""
","
","","","","","","2040.1999988555908","<p> Great! You are now ready to begin the game. </p><p> Remember, use the 1, 2, 3, and 4 keys to make your responses. </p>","","0","instructions","","",""
"html-keyboard-response","43","228027","0.0-18.0-0.0","6379","approach_avoid_sv1","""event"",""trial"",""time""
""fullscreenenter"",""1"",""54748""
","
","
","""event"",""trial"",""time""
""fullscreenenter"",""1"",""54748""
","
","","","","","","null","<div style=""font-size:60px;"">+</div>","null","","fixation","","",""
"memory-trial","44","233413","0.0-18.0-1.0","6379","approach_avoid_sv1","""event"",""trial"",""time""
""fullscreenenter"",""1"",""54748""
","
","
","""event"",""trial"",""time""
""fullscreenenter"",""1"",""54748""
","
","","","","","","4379.60000038147","images/boat5.png","","","memory_trial","3","maybe_new",""
"html-keyboard-response","45","233930","0.0-18.0-0.1","6379","approach_avoid_sv1","""event"",""trial"",""time""
""fullscreenenter"",""1"",""54748""
","
","
","""event"",""trial"",""time""
""fullscreenenter"",""1"",""54748""
","
","","","","","","null","<div style=""font-size:60px;"">+</div>","null","","fixation","","",""
"memory-trial","46","236677","0.0-18.0-1.1","6379","approach_avoid_sv1","""event"",""trial"",""time""
""fullscreenenter"",""1"",""54748""
","
","
","""event"",""trial"",""time""
""fullscreenenter"",""1"",""54748""
","
","","","","","","1741.8000011444092","images/horse8.png","","","memory_trial","4","definitely_new",""
"html-keyboard-response","47","237186","0.0-18.0-0.2","6379","approach_avoid_sv1","""event"",""trial"",""time""
""fullscreenenter"",""1"",""54748""
","
","
","""event"",""trial"",""time""
""fullscreenenter"",""1"",""54748""
","
","","","","","","null","<div style=""font-size:60px;"">+</div>","null","","fixation","","",""
"memory-trial","48","239455","0.0-18.0-1.2","6379","approach_avoid_sv1","""event"",""trial"",""time""
""fullscreenenter"",""1"",""54748""
","
","
","""event"",""trial"",""time""
""fullscreenenter"",""1"",""54748""
","
","","","","","","1255.6000003814697","images/flower2.png","","","memory_trial","4","definitely_new",""
"html-keyboard-response","49","239958","0.0-18.0-0.3","6379","approach_avoid_sv1","""event"",""trial"",""time""
""fullscreenenter"",""1"",""54748""
","
","
","""event"",""trial"",""time""
""fullscreenenter"",""1"",""54748""
","
","","","","","","null","<div style=""font-size:60px;"">+</div>","null","","fixation","","",""
"memory-trial","50","243617","0.0-18.0-1.3","6379","approach_avoid_sv1","""event"",""trial"",""time""
""fullscreenenter"",""1"",""54748""
","
","
","""event"",""trial"",""time""
""fullscreenenter"",""1"",""54748""
","
","","","","","","2650","images/orange7.png","","","memory_trial","3","maybe_new",""
"html-keyboard-response","51","244128","0.0-18.0-0.4","6379","approach_avoid_sv1","""event"",""trial"",""time""
""fullscreenenter"",""1"",""54748""
","
","
","""event"",""trial"",""time""
""fullscreenenter"",""1"",""54748""
","
","","","","","","null","<div style=""font-size:60px;"">+</div>","null","","fixation","","",""
"memory-trial","52","246466","0.0-18.0-1.4","6379","approach_avoid_sv1","""event"",""trial"",""time""
""fullscreenenter"",""1"",""54748""
","
","
","""event"",""trial"",""time""
""fullscreenenter"",""1"",""54748""
","
","","","","","","1326.5","images/plane2.png","","","memory_trial","4","definitely_new",""
"html-keyboard-response","53","246980","0.0-18.0-0.5","6379","approach_avoid_sv1","""event"",""trial"",""time""
""fullscreenenter"",""1"",""54748""
","
","
","""event"",""trial"",""time""
""fullscreenenter"",""1"",""54748""
","
","","","","","","null","<div style=""font-size:60px;"">+</div>","null","","fixation","","",""
"memory-trial","54","249766","0.0-18.0-1.5","6379","approach_avoid_sv1","""event"",""trial"",""time""
""fullscreenenter"",""1"",""54748""
","
","
","""event"",""trial"",""time""
""fullscreenenter"",""1"",""54748""
","
","","","","","","1765.1999988555908","images/orange1.png","","","memory_trial","2","maybe_old",""
"html-keyboard-response","55","250283","0.0-18.0-0.6","6379","approach_avoid_sv1","""event"",""trial"",""time""
""fullscreenenter"",""1"",""54748""
","
","
","""event"",""trial"",""time""
""fullscreenenter"",""1"",""54748""
","
","","","","","","null","<div style=""font-size:60px;"">+</div>","null","","fixation","","",""
"memory-trial","56","253886","0.0-18.0-1.6","6379","approach_avoid_sv1","""event"",""trial"",""time""
""fullscreenenter"",""1"",""54748""
","
","
","""event"",""trial"",""time""
""fullscreenenter"",""1"",""54748""
","
","","","","","","2591.1000003814697","images/bed8.png","","","memory_trial","4","definitely_new",""
"html-keyboard-response","57","254396","0.0-18.0-0.7","6379","approach_avoid_sv1","""event"",""trial"",""time""
""fullscreenenter"",""1"",""54748""
","
","
","""event"",""trial"",""time""
""fullscreenenter"",""1"",""54748""
","
","","","","","","null","<div style=""font-size:60px;"">+</div>","null","","fixation","","",""
"memory-trial","58","256952","0.0-18.0-1.7","6379","approach_avoid_sv1","""event"",""trial"",""time""
""fullscreenenter"",""1"",""54748""
","
","
","""event"",""trial"",""time""
""fullscreenenter"",""1"",""54748""
","
","","","","","","1548.2999992370605","images/cat3.png","","","memory_trial","1","definitely_old",""
"html-keyboard-response","59","257461","0.0-18.0-0.8","6379","approach_avoid_sv1","""event"",""trial"",""time""
""fullscreenenter"",""1"",""54748""
","
","
","""event"",""trial"",""time""
""fullscreenenter"",""1"",""54748""
","
","","","","","","null","<div style=""font-size:60px;"">+</div>","null","","fixation","","",""
"memory-trial","60","260147","0.0-18.0-1.8","6379","approach_avoid_sv1","""event"",""trial"",""time""
""fullscreenenter"",""1"",""54748""
","
","
","""event"",""trial"",""time""
""fullscreenenter"",""1"",""54748""
","
","","","","","","1676.599998474121","images/bed7.png","","","memory_trial","4","definitely_new",""
"html-keyboard-response","61","260649","0.0-18.0-0.9","6379","approach_avoid_sv1","""event"",""trial"",""time""
""fullscreenenter"",""1"",""54748""
","
","
","""event"",""trial"",""time""
""fullscreenenter"",""1"",""54748""
","
","","","","","","null","<div style=""font-size:60px;"">+</div>","null","","fixation","","",""
"memory-trial","62","262965","0.0-18.0-1.9","6379","approach_avoid_sv1","""event"",""trial"",""time""
""fullscreenenter"",""1"",""54748""
","
","
","""event"",""trial"",""time""
""fullscreenenter"",""1"",""54748""
","
","","","","","","1306.5","images/horse1.png","","","memory_trial","4","definitely_new",""
"html-keyboard-response","63","263477","0.0-18.0-0.10","6379","approach_avoid_sv1","""event"",""trial"",""time""
""fullscreenenter"",""1"",""54748""
","
","
","""event"",""trial"",""time""
""fullscreenenter"",""1"",""54748""
","
","","","","","","null","<div style=""font-size:60px;"">+</div>","null","","fixation","","",""
"memory-trial","64","266184","0.0-18.0-1.10","6379","approach_avoid_sv1","""event"",""trial"",""time""
""fullscreenenter"",""1"",""54748""
","
","
","""event"",""trial"",""time""
""fullscreenenter"",""1"",""54748""
","
","","","","","","1701.900001525879","images/straw4.png","","","memory_trial","2","maybe_old",""
"html-keyboard-response","65","266685","0.0-18.0-0.11","6379","approach_avoid_sv1","""event"",""trial"",""time""
""fullscreenenter"",""1"",""54748""
","
","
","""event"",""trial"",""time""
""fullscreenenter"",""1"",""54748""
","
","","","","","","null","<div style=""font-size:60px;"">+</div>","null","","fixation","","",""
"memory-trial","66","269292","0.0-18.0-1.11","6379","approach_avoid_sv1","""event"",""trial"",""time""
""fullscreenenter"",""1"",""54748""
","
","
","""event"",""trial"",""time""
""fullscreenenter"",""1"",""54748""
","
","","","","","","1590.6999988555908","images/bush6.png","","","memory_trial","2","maybe_old",""
"html-keyboard-response","67","269797","0.0-18.0-0.12","6379","approach_avoid_sv1","""event"",""trial"",""time""
""fullscreenenter"",""1"",""54748""
","
","
","""event"",""trial"",""time""
""fullscreenenter"",""1"",""54748""
","
","","","","","","null","<div style=""font-size:60px;"">+</div>","null","","fixation","","",""
"memory-trial","68","272170","0.0-18.0-1.12","6379","approach_avoid_sv1","""event"",""trial"",""time""
""fullscreenenter"",""1"",""54748""
","
","
","""event"",""trial"",""time""
""fullscreenenter"",""1"",""54748""
","
","","","","","","1364.5","images/truck2.png","","","memory_trial","1","definitely_old",""
"html-keyboard-response","69","272680","0.0-18.0-0.13","6379","approach_avoid_sv1","""event"",""trial"",""time""
""fullscreenenter"",""1"",""54748""
","
","
","""event"",""trial"",""time""
""fullscreenenter"",""1"",""54748""
","
","","","","","","null","<div style=""font-size:60px;"">+</div>","null","","fixation","","",""
"memory-trial","70","275001","0.0-18.0-1.13","6379","approach_avoid_sv1","""event"",""trial"",""time""
""fullscreenenter"",""1"",""54748""
","
","
","""event"",""trial"",""time""
""fullscreenenter"",""1"",""54748""
","
","","","","","","1310.1000003814697","images/tree4.png","","","memory_trial","1","definitely_old",""
"html-keyboard-response","71","275509","0.0-18.0-0.14","6379","approach_avoid_sv1","""event"",""trial"",""time""
""fullscreenenter"",""1"",""54748""
","
","
","""event"",""trial"",""time""
""fullscreenenter"",""1"",""54748""
","
","","","","","","null","<div style=""font-size:60px;"">+</div>","null","","fixation","","",""
"memory-trial","72","278686","0.0-18.0-1.14","6379","approach_avoid_sv1","""event"",""trial"",""time""
""fullscreenenter"",""1"",""54748""
","
","
","""event"",""trial"",""time""
""fullscreenenter"",""1"",""54748""
","
","","","","","","2170.3999996185303","images/cactus4.png","","","memory_trial","1","definitely_old",""
"html-keyboard-response","73","279194","0.0-18.0-0.15","6379","approach_avoid_sv1","""event"",""trial"",""time""
""fullscreenenter"",""1"",""54748""
","
","
","""event"",""trial"",""time""
""fullscreenenter"",""1"",""54748""
","
","","","","","","null","<div style=""font-size:60px;"">+</div>","null","","fixation","","",""
"memory-trial","74","281716","0.0-18.0-1.15","6379","approach_avoid_sv1","""event"",""trial"",""time""
""fullscreenenter"",""1"",""54748""
","
","
","""event"",""trial"",""time""
""fullscreenenter"",""1"",""54748""
","
","","","","","","1517.2000007629395","images/bed6.png","","","memory_trial","4","definitely_new",""
"html-keyboard-response","75","282221","0.0-18.0-0.16","6379","approach_avoid_sv1","""event"",""trial"",""time""
""fullscreenenter"",""1"",""54748""
","
","
","""event"",""trial"",""time""
""fullscreenenter"",""1"",""54748""
","
","","","","","","null","<div style=""font-size:60px;"">+</div>","null","","fixation","","",""
"memory-trial","76","284680","0.0-18.0-1.16","6379","approach_avoid_sv1","""event"",""trial"",""time""
""fullscreenenter"",""1"",""54748""
","
","
","""event"",""trial"",""time""
""fullscreenenter"",""1"",""54748""
","
","","","","","","1447.7999992370605","images/apple8.png","","","memory_trial","2","maybe_old",""
"html-keyboard-response","77","285187","0.0-18.0-0.17","6379","approach_avoid_sv1","""event"",""trial"",""time""
""fullscreenenter"",""1"",""54748""
","
","
","""event"",""trial"",""time""
""fullscreenenter"",""1"",""54748""
","
","","","","","","null","<div style=""font-size:60px;"">+</div>","null","","fixation","","",""
"memory-trial","78","287661","0.0-18.0-1.17","6379","approach_avoid_sv1","""event"",""trial"",""time""
""fullscreenenter"",""1"",""54748""
","
","
","""event"",""trial"",""time""
""fullscreenenter"",""1"",""54748""
","
","","","","","","1464.5","images/train2.png","","","memory_trial","2","maybe_old",""
"html-keyboard-response","79","288167","0.0-18.0-0.18","6379","approach_avoid_sv1","""event"",""trial"",""time""
""fullscreenenter"",""1"",""54748""
","
","
","""event"",""trial"",""time""
""fullscreenenter"",""1"",""54748""
","
","","","","","","null","<div style=""font-size:60px;"">+</div>","null","","fixation","","",""
"memory-trial","80","291046","0.0-18.0-1.18","6379","approach_avoid_sv1","""event"",""trial"",""time""
""fullscreenenter"",""1"",""54748""
","
","
","""event"",""trial"",""time""
""fullscreenenter"",""1"",""54748""
","
","","","","","","1870.1000003814697","images/bush1.png","","","memory_trial","2","maybe_old",""
"html-keyboard-response","81","291556","0.0-18.0-0.19","6379","approach_avoid_sv1","""event"",""trial"",""time""
""fullscreenenter"",""1"",""54748""
","
","
","""event"",""trial"",""time""
""fullscreenenter"",""1"",""54748""
","
","","","","","","null","<div style=""font-size:60px;"">+</div>","null","","fixation","","",""
"memory-trial","82","294284","0.0-18.0-1.19","6379","approach_avoid_sv1","""event"",""trial"",""time""
""fullscreenenter"",""1"",""54748""
","
","
","""event"",""trial"",""time""
""fullscreenenter"",""1"",""54748""
","
","","","","","","1709.8999996185303","images/table2.png","","","memory_trial","1","definitely_old",""
"html-keyboard-response","83","294796","0.0-18.0-0.20","6379","approach_avoid_sv1","""event"",""trial"",""time""
""fullscreenenter"",""1"",""54748""
","
","
","""event"",""trial"",""time""
""fullscreenenter"",""1"",""54748""
","
","","","","","","null","<div style=""font-size:60px;"">+</div>","null","","fixation","","",""
"memory-trial","84","297185","0.0-18.0-1.20","6379","approach_avoid_sv1","""event"",""trial"",""time""
""fullscreenenter"",""1"",""54748""
","
","
","""event"",""trial"",""time""
""fullscreenenter"",""1"",""54748""
","
","","","","","","1381","images/bush5.png","","","memory_trial","2","maybe_old",""
"html-keyboard-response","85","297688","0.0-18.0-0.21","6379","approach_avoid_sv1","""event"",""trial"",""time""
""fullscreenenter"",""1"",""54748""
","
","
","""event"",""trial"",""time""
""fullscreenenter"",""1"",""54748""
","
","","","","","","null","<div style=""font-size:60px;"">+</div>","null","","fixation","","",""
"memory-trial","86","300321","0.0-18.0-1.21","6379","approach_avoid_sv1","""event"",""trial"",""time""
""fullscreenenter"",""1"",""54748""
","
","
","""event"",""trial"",""time""
""fullscreenenter"",""1"",""54748""
","
","","","","","","1623.1000003814697","images/goat7.png","","","memory_trial","1","definitely_old",""
"html-keyboard-response","87","300835","0.0-18.0-0.22","6379","approach_avoid_sv1","""event"",""trial"",""time""
""fullscreenenter"",""1"",""54748""
","
","
","""event"",""trial"",""time""
""fullscreenenter"",""1"",""54748""
","
","","","","","","null","<div style=""font-size:60px;"">+</div>","null","","fixation","","",""
"memory-trial","88","303103","0.0-18.0-1.22","6379","approach_avoid_sv1","""event"",""trial"",""time""
""fullscreenenter"",""1"",""54748""
","
","
","""event"",""trial"",""time""
""fullscreenenter"",""1"",""54748""
","
","","","","","","1263.3999996185303","images/goat6.png","","","memory_trial","1","definitely_old",""
"html-keyboard-response","89","303610","0.0-18.0-0.23","6379","approach_avoid_sv1","""event"",""trial"",""time""
""fullscreenenter"",""1"",""54748""
","
","
","""event"",""trial"",""time""
""fullscreenenter"",""1"",""54748""
","
","","","","","","null","<div style=""font-size:60px;"">+</div>","null","","fixation","","",""
"memory-trial","90","306232","0.0-18.0-1.23","6379","approach_avoid_sv1","""event"",""trial"",""time""
""fullscreenenter"",""1"",""54748""
","
","
","""event"",""trial"",""time""
""fullscreenenter"",""1"",""54748""
","
","","","","","","1612.1000003814697","images/goat2.png","","","memory_trial","1","definitely_old",""
"html-keyboard-response","91","306745","0.0-18.0-0.24","6379","approach_avoid_sv1","""event"",""trial"",""time""
""fullscreenenter"",""1"",""54748""
","
","
","""event"",""trial"",""time""
""fullscreenenter"",""1"",""54748""
","
","","","","","","null","<div style=""font-size:60px;"">+</div>","null","","fixation","","",""
"memory-trial","92","309395","0.0-18.0-1.24","6379","approach_avoid_sv1","""event"",""trial"",""time""
""fullscreenenter"",""1"",""54748""
","
","
","""event"",""trial"",""time""
""fullscreenenter"",""1"",""54748""
","
","","","","","","1645.6000003814697","images/rabbit5.png","","","memory_trial","2","maybe_old",""
"html-keyboard-response","93","309899","0.0-18.0-0.25","6379","approach_avoid_sv1","""event"",""trial"",""time""
""fullscreenenter"",""1"",""54748""
","
","
","""event"",""trial"",""time""
""fullscreenenter"",""1"",""54748""
","
","","","","","","null","<div style=""font-size:60px;"">+</div>","null","","fixation","","",""
"memory-trial","94","313715","0.0-18.0-1.25","6379","approach_avoid_sv1","""event"",""trial"",""time""
""fullscreenenter"",""1"",""54748""
","
","
","""event"",""trial"",""time""
""fullscreenenter"",""1"",""54748""
","
","","","","","","2810.1000003814697","images/straw6.png","","","memory_trial","2","maybe_old",""
"html-keyboard-response","95","314223","0.0-18.0-0.26","6379","approach_avoid_sv1","""event"",""trial"",""time""
""fullscreenenter"",""1"",""54748""
","
","
","""event"",""trial"",""time""
""fullscreenenter"",""1"",""54748""
","
","","","","","","null","<div style=""font-size:60px;"">+</div>","null","","fixation","","",""
"memory-trial","96","316816","0.0-18.0-1.26","6379","approach_avoid_sv1","""event"",""trial"",""time""
""fullscreenenter"",""1"",""54748""
","
","
","""event"",""trial"",""time""
""fullscreenenter"",""1"",""54748""
","
","","","","","","1589.2999992370605","images/boat1.png","","","memory_trial","1","definitely_old",""
"html-keyboard-response","97","317326","0.0-18.0-0.27","6379","approach_avoid_sv1","""event"",""trial"",""time""
""fullscreenenter"",""1"",""54748""
","
","
","""event"",""trial"",""time""
""fullscreenenter"",""1"",""54748""
","
","","","","","","null","<div style=""font-size:60px;"">+</div>","null","","fixation","","",""
"memory-trial","98","321496","0.0-18.0-1.27","6379","approach_avoid_sv1","""event"",""trial"",""time""
""fullscreenenter"",""1"",""54748""
","
","
","""event"",""trial"",""time""
""fullscreenenter"",""1"",""54748""
","
","","","","","","3164.7999992370605","images/chair4.png","","","memory_trial","2","maybe_old",""
"html-keyboard-response","99","321999","0.0-18.0-0.28","6379","approach_avoid_sv1","""event"",""trial"",""time""
""fullscreenenter"",""1"",""54748""
","
","
","""event"",""trial"",""time""
""fullscreenenter"",""1"",""54748""
","
","","","","","","null","<div style=""font-size:60px;"">+</div>","null","","fixation","","",""
"memory-trial","100","324781","0.0-18.0-1.28","6379","approach_avoid_sv1","""event"",""trial"",""time""
""fullscreenenter"",""1"",""54748""
","
","
","""event"",""trial"",""time""
""fullscreenenter"",""1"",""54748""
","
","","","","","","1762.3999996185303","images/bush2.png","","","memory_trial","3","maybe_new",""
"html-keyboard-response","101","325284","0.0-18.0-0.29","6379","approach_avoid_sv1","""event"",""trial"",""time""
""fullscreenenter"",""1"",""54748""
","
","
","""event"",""trial"",""time""
""fullscreenenter"",""1"",""54748""
","
","","","","","","null","<div style=""font-size:60px;"">+</div>","null","","fixation","","",""
"memory-trial","102","329022","0.0-18.0-1.29","6379","approach_avoid_sv1","""event"",""trial"",""time""
""fullscreenenter"",""1"",""54748""
","
","
","""event"",""trial"",""time""
""fullscreenenter"",""1"",""54748""
","
","","","","","","2732.800001144409","images/banana5.png","","","memory_trial","2","maybe_old",""
"html-keyboard-response","103","329531","0.0-18.0-0.30","6379","approach_avoid_sv1","""event"",""trial"",""time""
""fullscreenenter"",""1"",""54748""
","
","
","""event"",""trial"",""time""
""fullscreenenter"",""1"",""54748""
","
","","","","","","null","<div style=""font-size:60px;"">+</div>","null","","fixation","","",""
"memory-trial","104","332669","0.0-18.0-1.30","6379","approach_avoid_sv1","""event"",""trial"",""time""
""fullscreenenter"",""1"",""54748""
","
","
","""event"",""trial"",""time""
""fullscreenenter"",""1"",""54748""
","
","","","","","","2125.3999996185303","images/rodent2.png","","","memory_trial","1","definitely_old",""
"html-keyboard-response","105","333171","0.0-18.0-0.31","6379","approach_avoid_sv1","""event"",""trial"",""time""
""fullscreenenter"",""1"",""54748""
","
","
","""event"",""trial"",""time""
""fullscreenenter"",""1"",""54748""
","
","","","","","","null","<div style=""font-size:60px;"">+</div>","null","","fixation","","",""
"memory-trial","106","335484","0.0-18.0-1.31","6379","approach_avoid_sv1","""event"",""trial"",""time""
""fullscreenenter"",""1"",""54748""
","
","
","""event"",""trial"",""time""
""fullscreenenter"",""1"",""54748""
","
","","","","","","1308.6000003814697","images/straw2.png","","","memory_trial","2","maybe_old",""
"html-keyboard-response","107","335993","0.0-18.0-0.32","6379","approach_avoid_sv1","""event"",""trial"",""time""
""fullscreenenter"",""1"",""54748""
","
","
","""event"",""trial"",""time""
""fullscreenenter"",""1"",""54748""
","
","","","","","","null","<div style=""font-size:60px;"">+</div>","null","","fixation","","",""
"memory-trial","108","338387","0.0-18.0-1.32","6379","approach_avoid_sv1","""event"",""trial"",""time""
""fullscreenenter"",""1"",""54748""
","
","
","""event"",""trial"",""time""
""fullscreenenter"",""1"",""54748""
","
","","","","","","1390.3000011444092","images/rabbit7.png","","","memory_trial","2","maybe_old",""
"html-keyboard-response","109","338896","0.0-18.0-0.33","6379","approach_avoid_sv1","""event"",""trial"",""time""
""fullscreenenter"",""1"",""54748""
","
","
","""event"",""trial"",""time""
""fullscreenenter"",""1"",""54748""
","
","","","","","","null","<div style=""font-size:60px;"">+</div>","null","","fixation","","",""
"memory-trial","110","341105","0.0-18.0-1.33","6379","approach_avoid_sv1","""event"",""trial"",""time""
""fullscreenenter"",""1"",""54748""
","
","
","""event"",""trial"",""time""
""fullscreenenter"",""1"",""54748""
","
","","","","","","1204.5","images/bush3.png","","","memory_trial","2","maybe_old",""
"html-keyboard-response","111","341617","0.0-18.0-0.34","6379","approach_avoid_sv1","""event"",""trial"",""time""
""fullscreenenter"",""1"",""54748""
","
","
","""event"",""trial"",""time""
""fullscreenenter"",""1"",""54748""
","
","","","","","","null","<div style=""font-size:60px;"">+</div>","null","","fixation","","",""
"memory-trial","112","345508","0.0-18.0-1.34","6379","approach_avoid_sv1","""event"",""trial"",""time""
""fullscreenenter"",""1"",""54748""
","
","
","""event"",""trial"",""time""
""fullscreenenter"",""1"",""54748""
","
","","","","","","2887","images/straw1.png","","","memory_trial","1","definitely_old",""
"html-keyboard-response","113","346015","0.0-18.0-0.35","6379","approach_avoid_sv1","""event"",""trial"",""time""
""fullscreenenter"",""1"",""54748""
","
","
","""event"",""trial"",""time""
""fullscreenenter"",""1"",""54748""
","
","","","","","","null","<div style=""font-size:60px;"">+</div>","null","","fixation","","",""
"memory-trial","114","348633","0.0-18.0-1.35","6379","approach_avoid_sv1","""event"",""trial"",""time""
""fullscreenenter"",""1"",""54748""
","
","
","""event"",""trial"",""time""
""fullscreenenter"",""1"",""54748""
","
","","","","","","1610.900001525879","images/goat3.png","","","memory_trial","2","maybe_old",""
"html-keyboard-response","115","349142","0.0-18.0-0.36","6379","approach_avoid_sv1","""event"",""trial"",""time""
""fullscreenenter"",""1"",""54748""
","
","
","""event"",""trial"",""time""
""fullscreenenter"",""1"",""54748""
","
","","","","","","null","<div style=""font-size:60px;"">+</div>","null","","fixation","","",""
"memory-trial","116","352283","0.0-18.0-1.36","6379","approach_avoid_sv1","""event"",""trial"",""time""
""fullscreenenter"",""1"",""54748""
","
","
","""event"",""trial"",""time""
""fullscreenenter"",""1"",""54748""
","
","","","","","","2133.699998855591","images/plane7.png","","","memory_trial","4","definitely_new",""
"html-keyboard-response","117","352789","0.0-18.0-0.37","6379","approach_avoid_sv1","""event"",""trial"",""time""
""fullscreenenter"",""1"",""54748""
","
","
","""event"",""trial"",""time""
""fullscreenenter"",""1"",""54748""
","
","","","","","","null","<div style=""font-size:60px;"">+</div>","null","","fixation","","",""
"memory-trial","118","356173","0.0-18.0-1.37","6379","approach_avoid_sv1","""event"",""trial"",""time""
""fullscreenenter"",""1"",""54748""
","
","
","""event"",""trial"",""time""
""fullscreenenter"",""1"",""54748""
","
","","","","","","2377.7999992370605","images/rabbit6.png","","","memory_trial","2","maybe_old",""
"html-keyboard-response","119","356680","0.0-18.0-0.38","6379","approach_avoid_sv1","""event"",""trial"",""time""
""fullscreenenter"",""1"",""54748""
","
","
","""event"",""trial"",""time""
""fullscreenenter"",""1"",""54748""
","
","","","","","","null","<div style=""font-size:60px;"">+</div>","null","","fixation","","",""
"memory-trial","120","359484","0.0-18.0-1.38","6379","approach_avoid_sv1","""event"",""trial"",""time""
""fullscreenenter"",""1"",""54748""
","
","
","""event"",""trial"",""time""
""fullscreenenter"",""1"",""54748""
","
","","","","","","1796.6000003814697","images/table3.png","","","memory_trial","3","maybe_new",""
"html-keyboard-response","121","359992","0.0-18.0-0.39","6379","approach_avoid_sv1","""event"",""trial"",""time""
""fullscreenenter"",""1"",""54748""
","
","
","""event"",""trial"",""time""
""fullscreenenter"",""1"",""54748""
","
","","","","","","null","<div style=""font-size:60px;"">+</div>","null","","fixation","","",""
"memory-trial","122","362028","0.0-18.0-1.39","6379","approach_avoid_sv1","""event"",""trial"",""time""
""fullscreenenter"",""1"",""54748""
","
","
","""event"",""trial"",""time""
""fullscreenenter"",""1"",""54748""
","
","","","","","","1028.5","images/bed3.png","","","memory_trial","4","definitely_new",""
"html-keyboard-response","123","362536","0.0-18.0-0.40","6379","approach_avoid_sv1","""event"",""trial"",""time""
""fullscreenenter"",""1"",""54748""
","
","
","""event"",""trial"",""time""
""fullscreenenter"",""1"",""54748""
","
","","","","","","null","<div style=""font-size:60px;"">+</div>","null","","fixation","","",""
"memory-trial","124","365008","0.0-18.0-1.40","6379","approach_avoid_sv1","""event"",""trial"",""time""
""fullscreenenter"",""1"",""54748""
","
","
","""event"",""trial"",""time""
""fullscreenenter"",""1"",""54748""
","
","","","","","","1465.7000007629395","images/rabbit4.png","","","memory_trial","1","definitely_old",""
"html-keyboard-response","125","365513","0.0-18.0-0.41","6379","approach_avoid_sv1","""event"",""trial"",""time""
""fullscreenenter"",""1"",""54748""
","
","
","""event"",""trial"",""time""
""fullscreenenter"",""1"",""54748""
","
","","","","","","null","<div style=""font-size:60px;"">+</div>","null","","fixation","","",""
"memory-trial","126","368281","0.0-18.0-1.41","6379","approach_avoid_sv1","""event"",""trial"",""time""
""fullscreenenter"",""1"",""54748""
","
","
","""event"",""trial"",""time""
""fullscreenenter"",""1"",""54748""
","
","","","","","","1764.6999988555908","images/plane6.png","","","memory_trial","4","definitely_new",""
"html-button-response","127","373607","0.0-18.0-2.41-0.41","6379","approach_avoid_sv1","""event"",""trial"",""time""
""fullscreenenter"",""1"",""54748""
","
","
","""event"",""trial"",""time""
""fullscreenenter"",""1"",""54748""
","
","","","","","","5323.700000762939","<p> Take a break! </p><p> Click the button to continue. </p>","0","","break","","",""
"html-keyboard-response","128","374112","0.0-18.0-0.42","6379","approach_avoid_sv1","""event"",""trial"",""time""
""fullscreenenter"",""1"",""54748""
","
","
","""event"",""trial"",""time""
""fullscreenenter"",""1"",""54748""
","
","","","","","","null","<div style=""font-size:60px;"">+</div>","null","","fixation","","",""
"memory-trial","129","377203","0.0-18.0-1.42","6379","approach_avoid_sv1","""event"",""trial"",""time""
""fullscreenenter"",""1"",""54748""
","
","
","""event"",""trial"",""time""
""fullscreenenter"",""1"",""54748""
","
","","","","","","2083","images/dog7.png","","","memory_trial","4","definitely_new",""
"html-keyboard-response","130","377718","0.0-18.0-0.43","6379","approach_avoid_sv1","""event"",""trial"",""time""
""fullscreenenter"",""1"",""54748""
","
","
","""event"",""trial"",""time""
""fullscreenenter"",""1"",""54748""
","
","","","","","","null","<div style=""font-size:60px;"">+</div>","null","","fixation","","",""
"memory-trial","131","381500","0.0-18.0-1.43","6379","approach_avoid_sv1","""event"",""trial"",""time""
""fullscreenenter"",""1"",""54748""
","
","
","""event"",""trial"",""time""
""fullscreenenter"",""1"",""54748""
","
","","","","","","2770.7999992370605","images/plane4.png","","","memory_trial","3","maybe_new",""
"html-keyboard-response","132","382007","0.0-18.0-0.44","6379","approach_avoid_sv1","""event"",""trial"",""time""
""fullscreenenter"",""1"",""54748""
","
","
","""event"",""trial"",""time""
""fullscreenenter"",""1"",""54748""
","
","","","","","","null","<div style=""font-size:60px;"">+</div>","null","","fixation","","",""
"memory-trial","133","384748","0.0-18.0-1.44","6379","approach_avoid_sv1","""event"",""trial"",""time""
""fullscreenenter"",""1"",""54748""
","
","
","""event"",""trial"",""time""
""fullscreenenter"",""1"",""54748""
","
","","","","","","1730.6000003814697","images/tree1.png","","","memory_trial","2","maybe_old",""
"html-keyboard-response","134","385250","0.0-18.0-0.45","6379","approach_avoid_sv1","""event"",""trial"",""time""
""fullscreenenter"",""1"",""54748""
","
","
","""event"",""trial"",""time""
""fullscreenenter"",""1"",""54748""
","
","","","","","","null","<div style=""font-size:60px;"">+</div>","null","","fixation","","",""
"memory-trial","135","387919","0.0-18.0-1.45","6379","approach_avoid_sv1","""event"",""trial"",""time""
""fullscreenenter"",""1"",""54748""
","
","
","""event"",""trial"",""time""
""fullscreenenter"",""1"",""54748""
","
","","","","","","1658.1000003814697","images/flower5.png","","","memory_trial","4","definitely_new",""
"html-keyboard-response","136","388421","0.0-18.0-0.46","6379","approach_avoid_sv1","""event"",""trial"",""time""
""fullscreenenter"",""1"",""54748""
","
","
","""event"",""trial"",""time""
""fullscreenenter"",""1"",""54748""
","
","","","","","","null","<div style=""font-size:60px;"">+</div>","null","","fixation","","",""
"memory-trial","137","391222","0.0-18.0-1.46","6379","approach_avoid_sv1","""event"",""trial"",""time""
""fullscreenenter"",""1"",""54748""
","
","
","""event"",""trial"",""time""
""fullscreenenter"",""1"",""54748""
","
","","","","","","1787.5","images/dog1.png","","","memory_trial","4","definitely_new",""
"html-keyboard-response","138","391727","0.0-18.0-0.47","6379","approach_avoid_sv1","""event"",""trial"",""time""
""fullscreenenter"",""1"",""54748""
","
","
","""event"",""trial"",""time""
""fullscreenenter"",""1"",""54748""
","
","","","","","","null","<div style=""font-size:60px;"">+</div>","null","","fixation","","",""
"memory-trial","139","394524","0.0-18.0-1.47","6379","approach_avoid_sv1","""event"",""trial"",""time""
""fullscreenenter"",""1"",""54748""
","
","
","""event"",""trial"",""time""
""fullscreenenter"",""1"",""54748""
","
","","","","","","1791.3999996185303","images/cactus8.png","","","memory_trial","1","definitely_old",""
"html-keyboard-response","140","395031","0.0-18.0-0.48","6379","approach_avoid_sv1","""event"",""trial"",""time""
""fullscreenenter"",""1"",""54748""
","
","
","""event"",""trial"",""time""
""fullscreenenter"",""1"",""54748""
","
","","","","","","null","<div style=""font-size:60px;"">+</div>","null","","fixation","","",""
"memory-trial","141","397441","0.0-18.0-1.48","6379","approach_avoid_sv1","""event"",""trial"",""time""
""fullscreenenter"",""1"",""54748""
","
","
","""event"",""trial"",""time""
""fullscreenenter"",""1"",""54748""
","
","","","","","","1399.1000003814697","images/dog2.png","","","memory_trial","4","definitely_new",""
"html-keyboard-response","142","397943","0.0-18.0-0.49","6379","approach_avoid_sv1","""event"",""trial"",""time""
""fullscreenenter"",""1"",""54748""
","
","
","""event"",""trial"",""time""
""fullscreenenter"",""1"",""54748""
","
","","","","","","null","<div style=""font-size:60px;"">+</div>","null","","fixation","","",""
"memory-trial","143","400161","0.0-18.0-1.49","6379","approach_avoid_sv1","""event"",""trial"",""time""
""fullscreenenter"",""1"",""54748""
","
","
","""event"",""trial"",""time""
""fullscreenenter"",""1"",""54748""
","
","","","","","","1212.6000003814697","images/flower4.png","","","memory_trial","4","definitely_new",""
"html-keyboard-response","144","400674","0.0-18.0-0.50","6379","approach_avoid_sv1","""event"",""trial"",""time""
""fullscreenenter"",""1"",""54748""
","
","
","""event"",""trial"",""time""
""fullscreenenter"",""1"",""54748""
","
","","","","","","null","<div style=""font-size:60px;"">+</div>","null","","fixation","","",""
"memory-trial","145","403033","0.0-18.0-1.50","6379","approach_avoid_sv1","""event"",""trial"",""time""
""fullscreenenter"",""1"",""54748""
","
","
","""event"",""trial"",""time""
""fullscreenenter"",""1"",""54748""
","
","","","","","","1348.7000007629395","images/boat8.png","","","memory_trial","2","maybe_old",""
"html-keyboard-response","146","403536","0.0-18.0-0.51","6379","approach_avoid_sv1","""event"",""trial"",""time""
""fullscreenenter"",""1"",""54748""
","
","
","""event"",""trial"",""time""
""fullscreenenter"",""1"",""54748""
","
","","","","","","null","<div style=""font-size:60px;"">+</div>","null","","fixation","","",""
"memory-trial","147","407077","0.0-18.0-1.51","6379","approach_avoid_sv1","""event"",""trial"",""time""
""fullscreenenter"",""1"",""54748""
","
","
","""event"",""trial"",""time""
""fullscreenenter"",""1"",""54748""
","
","","","","","","2531.1000003814697","images/train4.png","","","memory_trial","2","maybe_old",""
"html-keyboard-response","148","407582","0.0-18.0-0.52","6379","approach_avoid_sv1","""event"",""trial"",""time""
""fullscreenenter"",""1"",""54748""
","
","
","""event"",""trial"",""time""
""fullscreenenter"",""1"",""54748""
","
","","","","","","null","<div style=""font-size:60px;"">+</div>","null","","fixation","","",""
"memory-trial","149","410690","0.0-18.0-1.52","6379","approach_avoid_sv1","""event"",""trial"",""time""
""fullscreenenter"",""1"",""54748""
","
","
","""event"",""trial"",""time""
""fullscreenenter"",""1"",""54748""
","
","","","","","","2098.7999992370605","images/cow1.png","","","memory_trial","1","definitely_old",""
"html-keyboard-response","150","411197","0.0-18.0-0.53","6379","approach_avoid_sv1","""event"",""trial"",""time""
""fullscreenenter"",""1"",""54748""
","
","
","""event"",""trial"",""time""
""fullscreenenter"",""1"",""54748""
","
","","","","","","null","<div style=""font-size:60px;"">+</div>","null","","fixation","","",""
"memory-trial","151","413712","0.0-18.0-1.53","6379","approach_avoid_sv1","""event"",""trial"",""time""
""fullscreenenter"",""1"",""54748""
","
","
","""event"",""trial"",""time""
""fullscreenenter"",""1"",""54748""
","
","","","","","","1504.8999996185303","images/bed4.png","","","memory_trial","4","definitely_new",""
"html-keyboard-response","152","414217","0.0-18.0-0.54","6379","approach_avoid_sv1","""event"",""trial"",""time""
""fullscreenenter"",""1"",""54748""
","
","
","""event"",""trial"",""time""
""fullscreenenter"",""1"",""54748""
","
","","","","","","null","<div style=""font-size:60px;"">+</div>","null","","fixation","","",""
"memory-trial","153","417246","0.0-18.0-1.54","6379","approach_avoid_sv1","""event"",""trial"",""time""
""fullscreenenter"",""1"",""54748""
","
","
","""event"",""trial"",""time""
""fullscreenenter"",""1"",""54748""
","
","","","","","","2019.2999992370605","images/tree5.png","","","memory_trial","3","maybe_new",""
"html-keyboard-response","154","417755","0.0-18.0-0.55","6379","approach_avoid_sv1","""event"",""trial"",""time""
""fullscreenenter"",""1"",""54748""
","
","
","""event"",""trial"",""time""
""fullscreenenter"",""1"",""54748""
","
","","","","","","null","<div style=""font-size:60px;"">+</div>","null","","fixation","","",""
"memory-trial","155","420607","0.0-18.0-1.55","6379","approach_avoid_sv1","""event"",""trial"",""time""
""fullscreenenter"",""1"",""54748""
","
","
","""event"",""trial"",""time""
""fullscreenenter"",""1"",""54748""
","
","","","","","","1845.6999988555908","images/cat7.png","","","memory_trial","2","maybe_old",""
"html-keyboard-response","156","421112","0.0-18.0-0.56","6379","approach_avoid_sv1","""event"",""trial"",""time""
""fullscreenenter"",""1"",""54748""
","
","
","""event"",""trial"",""time""
""fullscreenenter"",""1"",""54748""
","
","","","","","","null","<div style=""font-size:60px;"">+</div>","null","","fixation","","",""
"memory-trial","157","423720","0.0-18.0-1.56","6379","approach_avoid_sv1","""event"",""trial"",""time""
""fullscreenenter"",""1"",""54748""
","
","
","""event"",""trial"",""time""
""fullscreenenter"",""1"",""54748""
","
","","","","","","1601.2999992370605","images/banana1.png","","","memory_trial","2","maybe_old",""
"html-keyboard-response","158","424223","0.0-18.0-0.57","6379","approach_avoid_sv1","""event"",""trial"",""time""
""fullscreenenter"",""1"",""54748""
","
","
","""event"",""trial"",""time""
""fullscreenenter"",""1"",""54748""
","
","","","","","","null","<div style=""font-size:60px;"">+</div>","null","","fixation","","",""
"memory-trial","159","427063","0.0-18.0-1.57","6379","approach_avoid_sv1","""event"",""trial"",""time""
""fullscreenenter"",""1"",""54748""
","
","
","""event"",""trial"",""time""
""fullscreenenter"",""1"",""54748""
","
","","","","","","1836.1999988555908","images/horse6.png","","","memory_trial","4","definitely_new",""
"html-keyboard-response","160","427566","0.0-18.0-0.58","6379","approach_avoid_sv1","""event"",""trial"",""time""
""fullscreenenter"",""1"",""54748""
","
","
","""event"",""trial"",""time""
""fullscreenenter"",""1"",""54748""
","
","","","","","","null","<div style=""font-size:60px;"">+</div>","null","","fixation","","",""
"memory-trial","161","432195","0.0-18.0-1.58","6379","approach_avoid_sv1","""event"",""trial"",""time""
""fullscreenenter"",""1"",""54748""
","
","
","""event"",""trial"",""time""
""fullscreenenter"",""1"",""54748""
","
","","","","","","3619.7999992370605","images/banana7.png","","","memory_trial","2","maybe_old",""
"html-keyboard-response","162","432698","0.0-18.0-0.59","6379","approach_avoid_sv1","""event"",""trial"",""time""
""fullscreenenter"",""1"",""54748""
","
","
","""event"",""trial"",""time""
""fullscreenenter"",""1"",""54748""
","
","","","","","","null","<div style=""font-size:60px;"">+</div>","null","","fixation","","",""
"memory-trial","163","436581","0.0-18.0-1.59","6379","approach_avoid_sv1","""event"",""trial"",""time""
""fullscreenenter"",""1"",""54748""
","
","
","""event"",""trial"",""time""
""fullscreenenter"",""1"",""54748""
","
","","","","","","2875.7999992370605","images/cow2.png","","","memory_trial","3","maybe_new",""
"html-keyboard-response","164","437090","0.0-18.0-0.60","6379","approach_avoid_sv1","""event"",""trial"",""time""
""fullscreenenter"",""1"",""54748""
","
","
","""event"",""trial"",""time""
""fullscreenenter"",""1"",""54748""
","
","","","","","","null","<div style=""font-size:60px;"">+</div>","null","","fixation","","",""
"memory-trial","165","439581","0.0-18.0-1.60","6379","approach_avoid_sv1","""event"",""trial"",""time""
""fullscreenenter"",""1"",""54748""
","
","
","""event"",""trial"",""time""
""fullscreenenter"",""1"",""54748""
","
","","","","","","1476.5","images/train5.png","","","memory_trial","1","definitely_old",""
"html-keyboard-response","166","440087","0.0-18.0-0.61","6379","approach_avoid_sv1","""event"",""trial"",""time""
""fullscreenenter"",""1"",""54748""
","
","
","""event"",""trial"",""time""
""fullscreenenter"",""1"",""54748""
","
","","","","","","null","<div style=""font-size:60px;"">+</div>","null","","fixation","","",""
"memory-trial","167","441967","0.0-18.0-1.61","6379","approach_avoid_sv1","""event"",""trial"",""time""
""fullscreenenter"",""1"",""54748""
","
","
","""event"",""trial"",""time""
""fullscreenenter"",""1"",""54748""
","
","","","","","","872.5","images/bush4.png","","","memory_trial","1","definitely_old",""
"html-keyboard-response","168","442482","0.0-18.0-0.62","6379","approach_avoid_sv1","""event"",""trial"",""time""
""fullscreenenter"",""1"",""54748""
","
","
","""event"",""trial"",""time""
""fullscreenenter"",""1"",""54748""
","
","","","","","","null","<div style=""font-size:60px;"">+</div>","null","","fixation","","",""
"memory-trial","169","444925","0.0-18.0-1.62","6379","approach_avoid_sv1","""event"",""trial"",""time""
""fullscreenenter"",""1"",""54748""
","
","
","""event"",""trial"",""time""
""fullscreenenter"",""1"",""54748""
","
","","","","","","1430.5","images/train8.png","","","memory_trial","2","maybe_old",""
"html-keyboard-response","170","445440","0.0-18.0-0.63","6379","approach_avoid_sv1","""event"",""trial"",""time""
""fullscreenenter"",""1"",""54748""
","
","
","""event"",""trial"",""time""
""fullscreenenter"",""1"",""54748""
","
","","","","","","null","<div style=""font-size:60px;"">+</div>","null","","fixation","","",""
"memory-trial","171","448427","0.0-18.0-1.63","6379","approach_avoid_sv1","""event"",""trial"",""time""
""fullscreenenter"",""1"",""54748""
","
","
","""event"",""trial"",""time""
""fullscreenenter"",""1"",""54748""
","
","","","","","","1981","images/flower1.png","","","memory_trial","4","definitely_new",""
"html-keyboard-response","172","448937","0.0-18.0-0.64","6379","approach_avoid_sv1","""event"",""trial"",""time""
""fullscreenenter"",""1"",""54748""
","
","
","""event"",""trial"",""time""
""fullscreenenter"",""1"",""54748""
","
","","","","","","null","<div style=""font-size:60px;"">+</div>","null","","fixation","","",""
"memory-trial","173","451617","0.0-18.0-1.64","6379","approach_avoid_sv1","""event"",""trial"",""time""
""fullscreenenter"",""1"",""54748""
","
","
","""event"",""trial"",""time""
""fullscreenenter"",""1"",""54748""
","
","","","","","","1671.3000011444092","images/chair7.png","","","memory_trial","3","maybe_new",""
"html-keyboard-response","174","452119","0.0-18.0-0.65","6379","approach_avoid_sv1","""event"",""trial"",""time""
""fullscreenenter"",""1"",""54748""
","
","
","""event"",""trial"",""time""
""fullscreenenter"",""1"",""54748""
","
","","","","","","null","<div style=""font-size:60px;"">+</div>","null","","fixation","","",""
"memory-trial","175","454542","0.0-18.0-1.65","6379","approach_avoid_sv1","""event"",""trial"",""time""
""fullscreenenter"",""1"",""54748""
","
","
","""event"",""trial"",""time""
""fullscreenenter"",""1"",""54748""
","
","","","","","","1418.5","images/banana6.png","","","memory_trial","1","definitely_old",""
"html-keyboard-response","176","455047","0.0-18.0-0.66","6379","approach_avoid_sv1","""event"",""trial"",""time""
""fullscreenenter"",""1"",""54748""
","
","
","""event"",""trial"",""time""
""fullscreenenter"",""1"",""54748""
","
","","","","","","null","<div style=""font-size:60px;"">+</div>","null","","fixation","","",""
"memory-trial","177","457578","0.0-18.0-1.66","6379","approach_avoid_sv1","""event"",""trial"",""time""
""fullscreenenter"",""1"",""54748""
","
","
","""event"",""trial"",""time""
""fullscreenenter"",""1"",""54748""
","
","","","","","","1512.7999992370605","images/train3.png","","","memory_trial","2","maybe_old",""
"html-keyboard-response","178","458080","0.0-18.0-0.67","6379","approach_avoid_sv1","""event"",""trial"",""time""
""fullscreenenter"",""1"",""54748""
","
","
","""event"",""trial"",""time""
""fullscreenenter"",""1"",""54748""
","
","","","","","","null","<div style=""font-size:60px;"">+</div>","null","","fixation","","",""
"memory-trial","179","460547","0.0-18.0-1.67","6379","approach_avoid_sv1","""event"",""trial"",""time""
""fullscreenenter"",""1"",""54748""
","
","
","""event"",""trial"",""time""
""fullscreenenter"",""1"",""54748""
","
","","","","","","1462.400001525879","images/boat2.png","","","memory_trial","2","maybe_old",""
"html-keyboard-response","180","461062","0.0-18.0-0.68","6379","approach_avoid_sv1","""event"",""trial"",""time""
""fullscreenenter"",""1"",""54748""
","
","
","""event"",""trial"",""time""
""fullscreenenter"",""1"",""54748""
","
","","","","","","null","<div style=""font-size:60px;"">+</div>","null","","fixation","","",""
"memory-trial","181","464017","0.0-18.0-1.68","6379","approach_avoid_sv1","""event"",""trial"",""time""
""fullscreenenter"",""1"",""54748""
","
","
","""event"",""trial"",""time""
""fullscreenenter"",""1"",""54748""
","
","","","","","","1944.8000011444092","images/sheep2.png","","","memory_trial","1","definitely_old",""
"html-keyboard-response","182","464520","0.0-18.0-0.69","6379","approach_avoid_sv1","""event"",""trial"",""time""
""fullscreenenter"",""1"",""54748""
","
","
","""event"",""trial"",""time""
""fullscreenenter"",""1"",""54748""
","
","","","","","","null","<div style=""font-size:60px;"">+</div>","null","","fixation","","",""
"memory-trial","183","466998","0.0-18.0-1.69","6379","approach_avoid_sv1","""event"",""trial"",""time""
""fullscreenenter"",""1"",""54748""
","
","
","""event"",""trial"",""time""
""fullscreenenter"",""1"",""54748""
","
","","","","","","1471.3000011444092","images/dog3.png","","","memory_trial","4","definitely_new",""
"html-keyboard-response","184","467512","0.0-18.0-0.70","6379","approach_avoid_sv1","""event"",""trial"",""time""
""fullscreenenter"",""1"",""54748""
","
","
","""event"",""trial"",""time""
""fullscreenenter"",""1"",""54748""
","
","","","","","","null","<div style=""font-size:60px;"">+</div>","null","","fixation","","",""
"memory-trial","185","469945","0.0-18.0-1.70","6379","approach_avoid_sv1","""event"",""trial"",""time""
""fullscreenenter"",""1"",""54748""
","
","
","""event"",""trial"",""time""
""fullscreenenter"",""1"",""54748""
","
","","","","","","1428.1000003814697","images/cat5.png","","","memory_trial","1","definitely_old",""
"html-keyboard-response","186","470458","0.0-18.0-0.71","6379","approach_avoid_sv1","""event"",""trial"",""time""
""fullscreenenter"",""1"",""54748""
","
","
","""event"",""trial"",""time""
""fullscreenenter"",""1"",""54748""
","
","","","","","","null","<div style=""font-size:60px;"">+</div>","null","","fixation","","",""
"memory-trial","187","472697","0.0-18.0-1.71","6379","approach_avoid_sv1","""event"",""trial"",""time""
""fullscreenenter"",""1"",""54748""
","
","
","""event"",""trial"",""time""
""fullscreenenter"",""1"",""54748""
","
","","","","","","1221.1000003814697","images/tree3.png","","","memory_trial","2","maybe_old",""
"html-keyboard-response","188","473202","0.0-18.0-0.72","6379","approach_avoid_sv1","""event"",""trial"",""time""
""fullscreenenter"",""1"",""54748""
","
","
","""event"",""trial"",""time""
""fullscreenenter"",""1"",""54748""
","
","","","","","","null","<div style=""font-size:60px;"">+</div>","null","","fixation","","",""
"memory-trial","189","475784","0.0-18.0-1.72","6379","approach_avoid_sv1","""event"",""trial"",""time""
""fullscreenenter"",""1"",""54748""
","
","
","""event"",""trial"",""time""
""fullscreenenter"",""1"",""54748""
","
","","","","","","1574.7999992370605","images/dog5.png","","","memory_trial","4","definitely_new",""
"html-keyboard-response","190","476299","0.0-18.0-0.73","6379","approach_avoid_sv1","""event"",""trial"",""time""
""fullscreenenter"",""1"",""54748""
","
","
","""event"",""trial"",""time""
""fullscreenenter"",""1"",""54748""
","
","","","","","","null","<div style=""font-size:60px;"">+</div>","null","","fixation","","",""
"memory-trial","191","478685","0.0-18.0-1.73","6379","approach_avoid_sv1","""event"",""trial"",""time""
""fullscreenenter"",""1"",""54748""
","
","
","""event"",""trial"",""time""
""fullscreenenter"",""1"",""54748""
","
","","","","","","1380.5","images/straw5.png","","","memory_trial","1","definitely_old",""
"html-keyboard-response","192","479190","0.0-18.0-0.74","6379","approach_avoid_sv1","""event"",""trial"",""time""
""fullscreenenter"",""1"",""54748""
","
","
","""event"",""trial"",""time""
""fullscreenenter"",""1"",""54748""
","
","","","","","","null","<div style=""font-size:60px;"">+</div>","null","","fixation","","",""
"memory-trial","193","482154","0.0-18.0-1.74","6379","approach_avoid_sv1","""event"",""trial"",""time""
""fullscreenenter"",""1"",""54748""
","
","
","""event"",""trial"",""time""
""fullscreenenter"",""1"",""54748""
","
","","","","","","1949","images/banana8.png","","","memory_trial","3","maybe_new",""
"html-keyboard-response","194","482660","0.0-18.0-0.75","6379","approach_avoid_sv1","""event"",""trial"",""time""
""fullscreenenter"",""1"",""54748""
","
","
","""event"",""trial"",""time""
""fullscreenenter"",""1"",""54748""
","
","","","","","","null","<div style=""font-size:60px;"">+</div>","null","","fixation","","",""
"memory-trial","195","486045","0.0-18.0-1.75","6379","approach_avoid_sv1","""event"",""trial"",""time""
""fullscreenenter"",""1"",""54748""
","
","
","""event"",""trial"",""time""
""fullscreenenter"",""1"",""54748""
","
","","","","","","2376","images/sofa6.png","","","memory_trial","3","maybe_new",""
"html-keyboard-response","196","486558","0.0-18.0-0.76","6379","approach_avoid_sv1","""event"",""trial"",""time""
""fullscreenenter"",""1"",""54748""
","
","
","""event"",""trial"",""time""
""fullscreenenter"",""1"",""54748""
","
","","","","","","null","<div style=""font-size:60px;"">+</div>","null","","fixation","","",""
"memory-trial","197","489140","0.0-18.0-1.76","6379","approach_avoid_sv1","""event"",""trial"",""time""
""fullscreenenter"",""1"",""54748""
","
","
","""event"",""trial"",""time""
""fullscreenenter"",""1"",""54748""
","
","","","","","","1569.6000003814697","images/chair5.png","","","memory_trial","2","maybe_old",""
"html-keyboard-response","198","489647","0.0-18.0-0.77","6379","approach_avoid_sv1","""event"",""trial"",""time""
""fullscreenenter"",""1"",""54748""
","
","
","""event"",""trial"",""time""
""fullscreenenter"",""1"",""54748""
","
","","","","","","null","<div style=""font-size:60px;"">+</div>","null","","fixation","","",""
"memory-trial","199","492226","0.0-18.0-1.77","6379","approach_avoid_sv1","""event"",""trial"",""time""
""fullscreenenter"",""1"",""54748""
","
","
","""event"",""trial"",""time""
""fullscreenenter"",""1"",""54748""
","
","","","","","","1568.2000007629395","images/cat8.png","","","memory_trial","2","maybe_old",""
"html-keyboard-response","200","492730","0.0-18.0-0.78","6379","approach_avoid_sv1","""event"",""trial"",""time""
""fullscreenenter"",""1"",""54748""
","
","
","""event"",""trial"",""time""
""fullscreenenter"",""1"",""54748""
","
","","","","","","null","<div style=""font-size:60px;"">+</div>","null","","fixation","","",""
"memory-trial","201","495008","0.0-18.0-1.78","6379","approach_avoid_sv1","""event"",""trial"",""time""
""fullscreenenter"",""1"",""54748""
","
","
","""event"",""trial"",""time""
""fullscreenenter"",""1"",""54748""
","
","","","","","","1271.5","images/truck5.png","","","memory_trial","1","definitely_old",""
"html-keyboard-response","202","495513","0.0-18.0-0.79","6379","approach_avoid_sv1","""event"",""trial"",""time""
""fullscreenenter"",""1"",""54748""
","
","
","""event"",""trial"",""time""
""fullscreenenter"",""1"",""54748""
","
","","","","","","null","<div style=""font-size:60px;"">+</div>","null","","fixation","","",""
"memory-trial","203","498075","0.0-18.0-1.79","6379","approach_avoid_sv1","""event"",""trial"",""time""
""fullscreenenter"",""1"",""54748""
","
","
","""event"",""trial"",""time""
""fullscreenenter"",""1"",""54748""
","
","","","","","","1553.2999992370605","images/banana4.png","","","memory_trial","1","definitely_old",""
"html-keyboard-response","204","498584","0.0-18.0-0.80","6379","approach_avoid_sv1","""event"",""trial"",""time""
""fullscreenenter"",""1"",""54748""
","
","
","""event"",""trial"",""time""
""fullscreenenter"",""1"",""54748""
","
","","","","","","null","<div style=""font-size:60px;"">+</div>","null","","fixation","","",""
"memory-trial","205","501111","0.0-18.0-1.80","6379","approach_avoid_sv1","""event"",""trial"",""time""
""fullscreenenter"",""1"",""54748""
","
","
","""event"",""trial"",""time""
""fullscreenenter"",""1"",""54748""
","
","","","","","","1521.2000007629395","images/goat1.png","","","memory_trial","2","maybe_old",""
"html-keyboard-response","206","501630","0.0-18.0-0.81","6379","approach_avoid_sv1","""event"",""trial"",""time""
""fullscreenenter"",""1"",""54748""
","
","
","""event"",""trial"",""time""
""fullscreenenter"",""1"",""54748""
","
","","","","","","null","<div style=""font-size:60px;"">+</div>","null","","fixation","","",""
"memory-trial","207","504036","0.0-18.0-1.81","6379","approach_avoid_sv1","""event"",""trial"",""time""
""fullscreenenter"",""1"",""54748""
","
","
","""event"",""trial"",""time""
""fullscreenenter"",""1"",""54748""
","
","","","","","","1401.2999992370605","images/cow6.png","","","memory_trial","1","definitely_old",""
"html-keyboard-response","208","504539","0.0-18.0-0.82","6379","approach_avoid_sv1","""event"",""trial"",""time""
""fullscreenenter"",""1"",""54748""
","
","
","""event"",""trial"",""time""
""fullscreenenter"",""1"",""54748""
","
","","","","","","null","<div style=""font-size:60px;"">+</div>","null","","fixation","","",""
"memory-trial","209","507051","0.0-18.0-1.82","6379","approach_avoid_sv1","""event"",""trial"",""time""
""fullscreenenter"",""1"",""54748""
","
","
","""event"",""trial"",""time""
""fullscreenenter"",""1"",""54748""
","
","","","","","","1503.6000003814697","images/cow3.png","","","memory_trial","2","maybe_old",""
"html-keyboard-response","210","507556","0.0-18.0-0.83","6379","approach_avoid_sv1","""event"",""trial"",""time""
""fullscreenenter"",""1"",""54748""
","
","
","""event"",""trial"",""time""
""fullscreenenter"",""1"",""54748""
","
","","","","","","null","<div style=""font-size:60px;"">+</div>","null","","fixation","","",""
"memory-trial","211","510193","0.0-18.0-1.83","6379","approach_avoid_sv1","""event"",""trial"",""time""
""fullscreenenter"",""1"",""54748""
","
","
","""event"",""trial"",""time""
""fullscreenenter"",""1"",""54748""
","
","","","","","","1629","images/truck1.png","","","memory_trial","2","maybe_old",""
"html-keyboard-response","212","510700","0.0-18.0-0.84","6379","approach_avoid_sv1","""event"",""trial"",""time""
""fullscreenenter"",""1"",""54748""
","
","
","""event"",""trial"",""time""
""fullscreenenter"",""1"",""54748""
","
","","","","","","null","<div style=""font-size:60px;"">+</div>","null","","fixation","","",""
"memory-trial","213","513274","0.0-18.0-1.84","6379","approach_avoid_sv1","""event"",""trial"",""time""
""fullscreenenter"",""1"",""54748""
","
","
","""event"",""trial"",""time""
""fullscreenenter"",""1"",""54748""
","
","","","","","","1568.1999988555908","images/plane1.png","","","memory_trial","4","definitely_new",""
"html-keyboard-response","214","513778","0.0-18.0-0.85","6379","approach_avoid_sv1","""event"",""trial"",""time""
""fullscreenenter"",""1"",""54748""
","
","
","""event"",""trial"",""time""
""fullscreenenter"",""1"",""54748""
","
","","","","","","null","<div style=""font-size:60px;"">+</div>","null","","fixation","","",""
"memory-trial","215","516717","0.0-18.0-1.85","6379","approach_avoid_sv1","""event"",""trial"",""time""
""fullscreenenter"",""1"",""54748""
","
","
","""event"",""trial"",""time""
""fullscreenenter"",""1"",""54748""
","
","","","","","","1933.8000011444092","images/cow5.png","","","memory_trial","3","maybe_new",""
"html-keyboard-response","216","517228","0.0-18.0-0.86","6379","approach_avoid_sv1","""event"",""trial"",""time""
""fullscreenenter"",""1"",""54748""
","
","
","""event"",""trial"",""time""
""fullscreenenter"",""1"",""54748""
","
","","","","","","null","<div style=""font-size:60px;"">+</div>","null","","fixation","","",""
"memory-trial","217","520565","0.0-18.0-1.86","6379","approach_avoid_sv1","""event"",""trial"",""time""
""fullscreenenter"",""1"",""54748""
","
","
","""event"",""trial"",""time""
""fullscreenenter"",""1"",""54748""
","
","","","","","","2333.300001144409","images/sofa5.png","","","memory_trial","3","maybe_new",""
"html-keyboard-response","218","521072","0.0-18.0-0.87","6379","approach_avoid_sv1","""event"",""trial"",""time""
""fullscreenenter"",""1"",""54748""
","
","
","""event"",""trial"",""time""
""fullscreenenter"",""1"",""54748""
","
","","","","","","null","<div style=""font-size:60px;"">+</div>","null","","fixation","","",""
"memory-trial","219","523558","0.0-18.0-1.87","6379","approach_avoid_sv1","""event"",""trial"",""time""
""fullscreenenter"",""1"",""54748""
","
","
","""event"",""trial"",""time""
""fullscreenenter"",""1"",""54748""
","
","","","","","","1472.8999996185303","images/bush7.png","","","memory_trial","1","definitely_old",""
"html-keyboard-response","220","524066","0.0-18.0-0.88","6379","approach_avoid_sv1","""event"",""trial"",""time""
""fullscreenenter"",""1"",""54748""
","
","
","""event"",""trial"",""time""
""fullscreenenter"",""1"",""54748""
","
","","","","","","null","<div style=""font-size:60px;"">+</div>","null","","fixation","","",""
"memory-trial","221","526652","0.0-18.0-1.88","6379","approach_avoid_sv1","""event"",""trial"",""time""
""fullscreenenter"",""1"",""54748""
","
","
","""event"",""trial"",""time""
""fullscreenenter"",""1"",""54748""
","
","","","","","","1581.3999996185303","images/table1.png","","","memory_trial","3","maybe_new",""
"html-keyboard-response","222","527160","0.0-18.0-0.89","6379","approach_avoid_sv1","""event"",""trial"",""time""
""fullscreenenter"",""1"",""54748""
","
","
","""event"",""trial"",""time""
""fullscreenenter"",""1"",""54748""
","
","","","","","","null","<div style=""font-size:60px;"">+</div>","null","","fixation","","",""
"memory-trial","223","530004","0.0-18.0-1.89","6379","approach_avoid_sv1","""event"",""trial"",""time""
""fullscreenenter"",""1"",""54748""
","
","
","""event"",""trial"",""time""
""fullscreenenter"",""1"",""54748""
","
","","","","","","1837.2000007629395","images/orange3.png","","","memory_trial","3","maybe_new",""
"html-keyboard-response","224","530511","0.0-18.0-0.90","6379","approach_avoid_sv1","""event"",""trial"",""time""
""fullscreenenter"",""1"",""54748""
","
","
","""event"",""trial"",""time""
""fullscreenenter"",""1"",""54748""
","
","","","","","","null","<div style=""font-size:60px;"">+</div>","null","","fixation","","",""
"memory-trial","225","533265","0.0-18.0-1.90","6379","approach_avoid_sv1","""event"",""trial"",""time""
""fullscreenenter"",""1"",""54748""
","
","
","""event"",""trial"",""time""
""fullscreenenter"",""1"",""54748""
","
","","","","","","1746","images/sofa4.png","","","memory_trial","3","maybe_new",""
"html-keyboard-response","226","533772","0.0-18.0-0.91","6379","approach_avoid_sv1","""event"",""trial"",""time""
""fullscreenenter"",""1"",""54748""
","
","
","""event"",""trial"",""time""
""fullscreenenter"",""1"",""54748""
","
","","","","","","null","<div style=""font-size:60px;"">+</div>","null","","fixation","","",""
"memory-trial","227","536056","0.0-18.0-1.91","6379","approach_avoid_sv1","""event"",""trial"",""time""
""fullscreenenter"",""1"",""54748""
","
","
","""event"",""trial"",""time""
""fullscreenenter"",""1"",""54748""
","
","","","","","","1275","images/horse7.png","","","memory_trial","4","definitely_new",""
"html-button-response","228","537792","0.0-18.0-2.91-0.91","6379","approach_avoid_sv1","""event"",""trial"",""time""
""fullscreenenter"",""1"",""54748""
","
","
","""event"",""trial"",""time""
""fullscreenenter"",""1"",""54748""
","
","","","","","","1734.2000007629395","<p> Take a break! </p><p> Click the button to continue. </p>","0","","break","","",""
"html-keyboard-response","229","538296","0.0-18.0-0.92","6379","approach_avoid_sv1","""event"",""trial"",""time""
""fullscreenenter"",""1"",""54748""
","
","
","""event"",""trial"",""time""
""fullscreenenter"",""1"",""54748""
","
","","","","","","null","<div style=""font-size:60px;"">+</div>","null","","fixation","","",""
"memory-trial","230","540607","0.0-18.0-1.92","6379","approach_avoid_sv1","""event"",""trial"",""time""
""fullscreenenter"",""1"",""54748""
","
","
","""event"",""trial"",""time""
""fullscreenenter"",""1"",""54748""
","
","","","","","","1300","images/flower7.png","","","memory_trial","4","definitely_new",""
"html-keyboard-response","231","541115","0.0-18.0-0.93","6379","approach_avoid_sv1","""event"",""trial"",""time""
""fullscreenenter"",""1"",""54748""
","
","
","""event"",""trial"",""time""
""fullscreenenter"",""1"",""54748""
","
","","","","","","null","<div style=""font-size:60px;"">+</div>","null","","fixation","","",""
"memory-trial","232","543661","0.0-18.0-1.93","6379","approach_avoid_sv1","""event"",""trial"",""time""
""fullscreenenter"",""1"",""54748""
","
","
","""event"",""trial"",""time""
""fullscreenenter"",""1"",""54748""
","
","","","","","","1542.3000011444092","images/sofa3.png","","","memory_trial","3","maybe_new",""
"html-keyboard-response","233","544169","0.0-18.0-0.94","6379","approach_avoid_sv1","""event"",""trial"",""time""
""fullscreenenter"",""1"",""54748""
","
","
","""event"",""trial"",""time""
""fullscreenenter"",""1"",""54748""
","
","","","","","","null","<div style=""font-size:60px;"">+</div>","null","","fixation","","",""
"memory-trial","234","547108","0.0-18.0-1.94","6379","approach_avoid_sv1","""event"",""trial"",""time""
""fullscreenenter"",""1"",""54748""
","
","
","""event"",""trial"",""time""
""fullscreenenter"",""1"",""54748""
","
","","","","","","1935.6000003814697","images/cow8.png","","","memory_trial","2","maybe_old",""
"html-keyboard-response","235","547611","0.0-18.0-0.95","6379","approach_avoid_sv1","""event"",""trial"",""time""
""fullscreenenter"",""1"",""54748""
","
","
","""event"",""trial"",""time""
""fullscreenenter"",""1"",""54748""
","
","","","","","","null","<div style=""font-size:60px;"">+</div>","null","","fixation","","",""
"memory-trial","236","550615","0.0-18.0-1.95","6379","approach_avoid_sv1","""event"",""trial"",""time""
""fullscreenenter"",""1"",""54748""
","
","
","""event"",""trial"",""time""
""fullscreenenter"",""1"",""54748""
","
","","","","","","1994","images/truck7.png","","","memory_trial","1","definitely_old",""
"html-keyboard-response","237","551123","0.0-18.0-0.96","6379","approach_avoid_sv1","""event"",""trial"",""time""
""fullscreenenter"",""1"",""54748""
","
","
","""event"",""trial"",""time""
""fullscreenenter"",""1"",""54748""
","
","","","","","","null","<div style=""font-size:60px;"">+</div>","null","","fixation","","",""
"memory-trial","238","553173","0.0-18.0-1.96","6379","approach_avoid_sv1","""event"",""trial"",""time""
""fullscreenenter"",""1"",""54748""
","
","
","""event"",""trial"",""time""
""fullscreenenter"",""1"",""54748""
","
","","","","","","1043.099998474121","images/tree7.png","","","memory_trial","1","definitely_old",""
"html-keyboard-response","239","553680","0.0-18.0-0.97","6379","approach_avoid_sv1","""event"",""trial"",""time""
""fullscreenenter"",""1"",""54748""
","
","
","""event"",""trial"",""time""
""fullscreenenter"",""1"",""54748""
","
","","","","","","null","<div style=""font-size:60px;"">+</div>","null","","fixation","","",""
"memory-trial","240","555744","0.0-18.0-1.97","6379","approach_avoid_sv1","""event"",""trial"",""time""
""fullscreenenter"",""1"",""54748""
","
","
","""event"",""trial"",""time""
""fullscreenenter"",""1"",""54748""
","
","","","","","","1054.6000003814697","images/rabbit3.png","","","memory_trial","2","maybe_old",""
"html-keyboard-response","241","556247","0.0-18.0-0.98","6379","approach_avoid_sv1","""event"",""trial"",""time""
""fullscreenenter"",""1"",""54748""
","
","
","""event"",""trial"",""time""
""fullscreenenter"",""1"",""54748""
","
","","","","","","null","<div style=""font-size:60px;"">+</div>","null","","fixation","","",""
"memory-trial","242","558449","0.0-18.0-1.98","6379","approach_avoid_sv1","""event"",""trial"",""time""
""fullscreenenter"",""1"",""54748""
","
","
","""event"",""trial"",""time""
""fullscreenenter"",""1"",""54748""
","
","","","","","","1190","images/straw7.png","","","memory_trial","2","maybe_old",""
"html-keyboard-response","243","558959","0.0-18.0-0.99","6379","approach_avoid_sv1","""event"",""trial"",""time""
""fullscreenenter"",""1"",""54748""
","
","
","""event"",""trial"",""time""
""fullscreenenter"",""1"",""54748""
","
","","","","","","null","<div style=""font-size:60px;"">+</div>","null","","fixation","","",""
"memory-trial","244","561336","0.0-18.0-1.99","6379","approach_avoid_sv1","""event"",""trial"",""time""
""fullscreenenter"",""1"",""54748""
","
","
","""event"",""trial"",""time""
""fullscreenenter"",""1"",""54748""
","
","","","","","","1370.1000003814697","images/sheep1.png","","","memory_trial","2","maybe_old",""
"html-keyboard-response","245","561851","0.0-18.0-0.100","6379","approach_avoid_sv1","""event"",""trial"",""time""
""fullscreenenter"",""1"",""54748""
","
","
","""event"",""trial"",""time""
""fullscreenenter"",""1"",""54748""
","
","","","","","","null","<div style=""font-size:60px;"">+</div>","null","","fixation","","",""
"memory-trial","246","564285","0.0-18.0-1.100","6379","approach_avoid_sv1","""event"",""trial"",""time""
""fullscreenenter"",""1"",""54748""
","
","
","""event"",""trial"",""time""
""fullscreenenter"",""1"",""54748""
","
","","","","","","1427.8999996185303","images/cat4.png","","","memory_trial","2","maybe_old",""
"html-keyboard-response","247","564793","0.0-18.0-0.101","6379","approach_avoid_sv1","""event"",""trial"",""time""
""fullscreenenter"",""1"",""54748""
","
","
","""event"",""trial"",""time""
""fullscreenenter"",""1"",""54748""
","
","","","","","","null","<div style=""font-size:60px;"">+</div>","null","","fixation","","",""
"memory-trial","248","567102","0.0-18.0-1.101","6379","approach_avoid_sv1","""event"",""trial"",""time""
""fullscreenenter"",""1"",""54748""
","
","
","""event"",""trial"",""time""
""fullscreenenter"",""1"",""54748""
","
","","","","","","1300.8999996185303","images/boat4.png","","","memory_trial","3","maybe_new",""
"html-keyboard-response","249","567613","0.0-18.0-0.102","6379","approach_avoid_sv1","""event"",""trial"",""time""
""fullscreenenter"",""1"",""54748""
","
","
","""event"",""trial"",""time""
""fullscreenenter"",""1"",""54748""
","
","","","","","","null","<div style=""font-size:60px;"">+</div>","null","","fixation","","",""
"memory-trial","250","570468","0.0-18.0-1.102","6379","approach_avoid_sv1","""event"",""trial"",""time""
""fullscreenenter"",""1"",""54748""
","
","
","""event"",""trial"",""time""
""fullscreenenter"",""1"",""54748""
","
","","","","","","1847.8000011444092","images/straw3.png","","","memory_trial","2","maybe_old",""
"html-keyboard-response","251","570970","0.0-18.0-0.103","6379","approach_avoid_sv1","""event"",""trial"",""time""
""fullscreenenter"",""1"",""54748""
","
","
","""event"",""trial"",""time""
""fullscreenenter"",""1"",""54748""
","
","","","","","","null","<div style=""font-size:60px;"">+</div>","null","","fixation","","",""
"memory-trial","252","573052","0.0-18.0-1.103","6379","approach_avoid_sv1","""event"",""trial"",""time""
""fullscreenenter"",""1"",""54748""
","
","
","""event"",""trial"",""time""
""fullscreenenter"",""1"",""54748""
","
","","","","","","1078.8000011444092","images/apple7.png","","","memory_trial","2","maybe_old",""
"html-keyboard-response","253","573558","0.0-18.0-0.104","6379","approach_avoid_sv1","""event"",""trial"",""time""
""fullscreenenter"",""1"",""54748""
","
","
","""event"",""trial"",""time""
""fullscreenenter"",""1"",""54748""
","
","","","","","","null","<div style=""font-size:60px;"">+</div>","null","","fixation","","",""
"memory-trial","254","575828","0.0-18.0-1.104","6379","approach_avoid_sv1","""event"",""trial"",""time""
""fullscreenenter"",""1"",""54748""
","
","
","""event"",""trial"",""time""
""fullscreenenter"",""1"",""54748""
","
","","","","","","1264.3000011444092","images/cow4.png","","","memory_trial","1","definitely_old",""
"html-keyboard-response","255","576336","0.0-18.0-0.105","6379","approach_avoid_sv1","""event"",""trial"",""time""
""fullscreenenter"",""1"",""54748""
","
","
","""event"",""trial"",""time""
""fullscreenenter"",""1"",""54748""
","
","","","","","","null","<div style=""font-size:60px;"">+</div>","null","","fixation","","",""
"memory-trial","256","578369","0.0-18.0-1.105","6379","approach_avoid_sv1","""event"",""trial"",""time""
""fullscreenenter"",""1"",""54748""
","
","
","""event"",""trial"",""time""
""fullscreenenter"",""1"",""54748""
","
","","","","","","1025.3000011444092","images/tree6.png","","","memory_trial","2","maybe_old",""
"html-keyboard-response","257","578878","0.0-18.0-0.106","6379","approach_avoid_sv1","""event"",""trial"",""time""
""fullscreenenter"",""1"",""54748""
","
","
","""event"",""trial"",""time""
""fullscreenenter"",""1"",""54748""
","
","","","","","","null","<div style=""font-size:60px;"">+</div>","null","","fixation","","",""
"memory-trial","258","581469","0.0-18.0-1.106","6379","approach_avoid_sv1","""event"",""trial"",""time""
""fullscreenenter"",""1"",""54748""
","
","
","""event"",""trial"",""time""
""fullscreenenter"",""1"",""54748""
","
","","","","","","1582.5","images/sofa2.png","","","memory_trial","3","maybe_new",""
"html-keyboard-response","259","581977","0.0-18.0-0.107","6379","approach_avoid_sv1","""event"",""trial"",""time""
""fullscreenenter"",""1"",""54748""
","
","
","""event"",""trial"",""time""
""fullscreenenter"",""1"",""54748""
","
","","","","","","null","<div style=""font-size:60px;"">+</div>","null","","fixation","","",""
"memory-trial","260","584116","0.0-18.0-1.107","6379","approach_avoid_sv1","""event"",""trial"",""time""
""fullscreenenter"",""1"",""54748""
","
","
","""event"",""trial"",""time""
""fullscreenenter"",""1"",""54748""
","
","","","","","","1124.3000011444092","images/horse2.png","","","memory_trial","4","definitely_new",""
"html-keyboard-response","261","584624","0.0-18.0-0.108","6379","approach_avoid_sv1","""event"",""trial"",""time""
""fullscreenenter"",""1"",""54748""
","
","
","""event"",""trial"",""time""
""fullscreenenter"",""1"",""54748""
","
","","","","","","null","<div style=""font-size:60px;"">+</div>","null","","fixation","","",""
"memory-trial","262","587049","0.0-18.0-1.108","6379","approach_avoid_sv1","""event"",""trial"",""time""
""fullscreenenter"",""1"",""54748""
","
","
","""event"",""trial"",""time""
""fullscreenenter"",""1"",""54748""
","
","","","","","","1412.3999996185303","images/bed5.png","","","memory_trial","4","definitely_new",""
"html-keyboard-response","263","587557","0.0-18.0-0.109","6379","approach_avoid_sv1","""event"",""trial"",""time""
""fullscreenenter"",""1"",""54748""
","
","
","""event"",""trial"",""time""
""fullscreenenter"",""1"",""54748""
","
","","","","","","null","<div style=""font-size:60px;"">+</div>","null","","fixation","","",""
"memory-trial","264","589901","0.0-18.0-1.109","6379","approach_avoid_sv1","""event"",""trial"",""time""
""fullscreenenter"",""1"",""54748""
","
","
","""event"",""trial"",""time""
""fullscreenenter"",""1"",""54748""
","
","","","","","","1335.6000003814697","images/truck4.png","","","memory_trial","2","maybe_old",""
"html-keyboard-response","265","590405","0.0-18.0-0.110","6379","approach_avoid_sv1","""event"",""trial"",""time""
""fullscreenenter"",""1"",""54748""
","
","
","""event"",""trial"",""time""
""fullscreenenter"",""1"",""54748""
","
","","","","","","null","<div style=""font-size:60px;"">+</div>","null","","fixation","","",""
"memory-trial","266","592579","0.0-18.0-1.110","6379","approach_avoid_sv1","""event"",""trial"",""time""
""fullscreenenter"",""1"",""54748""
","
","
","""event"",""trial"",""time""
""fullscreenenter"",""1"",""54748""
","
","","","","","","1170.3999996185303","images/cactus1.png","","","memory_trial","2","maybe_old",""
"html-keyboard-response","267","593083","0.0-18.0-0.111","6379","approach_avoid_sv1","""event"",""trial"",""time""
""fullscreenenter"",""1"",""54748""
","
","
","""event"",""trial"",""time""
""fullscreenenter"",""1"",""54748""
","
","","","","","","null","<div style=""font-size:60px;"">+</div>","null","","fixation","","",""
"memory-trial","268","595076","0.0-18.0-1.111","6379","approach_avoid_sv1","""event"",""trial"",""time""
""fullscreenenter"",""1"",""54748""
","
","
","""event"",""trial"",""time""
""fullscreenenter"",""1"",""54748""
","
","","","","","","983.7999992370605","images/dog4.png","","","memory_trial","4","definitely_new",""
"html-keyboard-response","269","595584","0.0-18.0-0.112","6379","approach_avoid_sv1","""event"",""trial"",""time""
""fullscreenenter"",""1"",""54748""
","
","
","""event"",""trial"",""time""
""fullscreenenter"",""1"",""54748""
","
","","","","","","null","<div style=""font-size:60px;"">+</div>","null","","fixation","","",""
"memory-trial","270","597344","0.0-18.0-1.112","6379","approach_avoid_sv1","""event"",""trial"",""time""
""fullscreenenter"",""1"",""54748""
","
","
","""event"",""trial"",""time""
""fullscreenenter"",""1"",""54748""
","
","","","","","","750.8000011444092","images/horse3.png","","","memory_trial","4","definitely_new",""
"html-keyboard-response","271","597850","0.0-18.0-0.113","6379","approach_avoid_sv1","""event"",""trial"",""time""
""fullscreenenter"",""1"",""54748""
","
","
","""event"",""trial"",""time""
""fullscreenenter"",""1"",""54748""
","
","","","","","","null","<div style=""font-size:60px;"">+</div>","null","","fixation","","",""
"memory-trial","272","600344","0.0-18.0-1.113","6379","approach_avoid_sv1","""event"",""trial"",""time""
""fullscreenenter"",""1"",""54748""
","
","
","""event"",""trial"",""time""
""fullscreenenter"",""1"",""54748""
","
","","","","","","1486.5","images/apple4.png","","","memory_trial","1","definitely_old",""
"html-keyboard-response","273","600862","0.0-18.0-0.114","6379","approach_avoid_sv1","""event"",""trial"",""time""
""fullscreenenter"",""1"",""54748""
","
","
","""event"",""trial"",""time""
""fullscreenenter"",""1"",""54748""
","
","","","","","","null","<div style=""font-size:60px;"">+</div>","null","","fixation","","",""
"memory-trial","274","603556","0.0-18.0-1.114","6379","approach_avoid_sv1","""event"",""trial"",""time""
""fullscreenenter"",""1"",""54748""
","
","
","""event"",""trial"",""time""
""fullscreenenter"",""1"",""54748""
","
","","","","","","1687.3999996185303","images/truck3.png","","","memory_trial","1","definitely_old",""
"html-keyboard-response","275","604060","0.0-18.0-0.115","6379","approach_avoid_sv1","""event"",""trial"",""time""
""fullscreenenter"",""1"",""54748""
","
","
","""event"",""trial"",""time""
""fullscreenenter"",""1"",""54748""
","
","","","","","","null","<div style=""font-size:60px;"">+</div>","null","","fixation","","",""
"memory-trial","276","606443","0.0-18.0-1.115","6379","approach_avoid_sv1","""event"",""trial"",""time""
""fullscreenenter"",""1"",""54748""
","
","
","""event"",""trial"",""time""
""fullscreenenter"",""1"",""54748""
","
","","","","","","1368.6999988555908","images/horse4.png","","","memory_trial","4","definitely_new",""
"html-keyboard-response","277","606947","0.0-18.0-0.116","6379","approach_avoid_sv1","""event"",""trial"",""time""
""fullscreenenter"",""1"",""54748""
","
","
","""event"",""trial"",""time""
""fullscreenenter"",""1"",""54748""
","
","","","","","","null","<div style=""font-size:60px;"">+</div>","null","","fixation","","",""
"memory-trial","278","609674","0.0-18.0-1.116","6379","approach_avoid_sv1","""event"",""trial"",""time""
""fullscreenenter"",""1"",""54748""
","
","
","""event"",""trial"",""time""
""fullscreenenter"",""1"",""54748""
","
","","","","","","1717.8999996185303","images/chair2.png","","","memory_trial","2","maybe_old",""
"html-keyboard-response","279","610177","0.0-18.0-0.117","6379","approach_avoid_sv1","""event"",""trial"",""time""
""fullscreenenter"",""1"",""54748""
","
","
","""event"",""trial"",""time""
""fullscreenenter"",""1"",""54748""
","
","","","","","","null","<div style=""font-size:60px;"">+</div>","null","","fixation","","",""
"memory-trial","280","612492","0.0-18.0-1.117","6379","approach_avoid_sv1","""event"",""trial"",""time""
""fullscreenenter"",""1"",""54748""
","
","
","""event"",""trial"",""time""
""fullscreenenter"",""1"",""54748""
","
","","","","","","1303.1999988555908","images/bed2.png","","","memory_trial","4","definitely_new",""
"html-keyboard-response","281","612993","0.0-18.0-0.118","6379","approach_avoid_sv1","""event"",""trial"",""time""
""fullscreenenter"",""1"",""54748""
","
","
","""event"",""trial"",""time""
""fullscreenenter"",""1"",""54748""
","
","","","","","","null","<div style=""font-size:60px;"">+</div>","null","","fixation","","",""
"memory-trial","282","615863","0.0-18.0-1.118","6379","approach_avoid_sv1","""event"",""trial"",""time""
""fullscreenenter"",""1"",""54748""
","
","
","""event"",""trial"",""time""
""fullscreenenter"",""1"",""54748""
","
","","","","","","1864.6000003814697","images/chair3.png","","","memory_trial","2","maybe_old",""
"html-keyboard-response","283","616368","0.0-18.0-0.119","6379","approach_avoid_sv1","""event"",""trial"",""time""
""fullscreenenter"",""1"",""54748""
","
","
","""event"",""trial"",""time""
""fullscreenenter"",""1"",""54748""
","
","","","","","","null","<div style=""font-size:60px;"">+</div>","null","","fixation","","",""
"memory-trial","284","618328","0.0-18.0-1.119","6379","approach_avoid_sv1","""event"",""trial"",""time""
""fullscreenenter"",""1"",""54748""
","
","
","""event"",""trial"",""time""
""fullscreenenter"",""1"",""54748""
","
","","","","","","951","images/cactus3.png","","","memory_trial","2","maybe_old",""
"html-keyboard-response","285","618833","0.0-18.0-0.120","6379","approach_avoid_sv1","""event"",""trial"",""time""
""fullscreenenter"",""1"",""54748""
","
","
","""event"",""trial"",""time""
""fullscreenenter"",""1"",""54748""
","
","","","","","","null","<div style=""font-size:60px;"">+</div>","null","","fixation","","",""
"memory-trial","286","621703","0.0-18.0-1.120","6379","approach_avoid_sv1","""event"",""trial"",""time""
""fullscreenenter"",""1"",""54748""
","
","
","""event"",""trial"",""time""
""fullscreenenter"",""1"",""54748""
","
","","","","","","1863.3999996185303","images/orange4.png","","","memory_trial","3","maybe_new",""
"html-keyboard-response","287","622206","0.0-18.0-0.121","6379","approach_avoid_sv1","""event"",""trial"",""time""
""fullscreenenter"",""1"",""54748""
","
","
","""event"",""trial"",""time""
""fullscreenenter"",""1"",""54748""
","
","","","","","","null","<div style=""font-size:60px;"">+</div>","null","","fixation","","",""
"memory-trial","288","624490","0.0-18.0-1.121","6379","approach_avoid_sv1","""event"",""trial"",""time""
""fullscreenenter"",""1"",""54748""
","
","
","""event"",""trial"",""time""
""fullscreenenter"",""1"",""54748""
","
","","","","","","1279.5","images/chair8.png","","","memory_trial","2","maybe_old",""
"html-keyboard-response","289","625000","0.0-18.0-0.122","6379","approach_avoid_sv1","""event"",""trial"",""time""
""fullscreenenter"",""1"",""54748""
","
","
","""event"",""trial"",""time""
""fullscreenenter"",""1"",""54748""
","
","","","","","","null","<div style=""font-size:60px;"">+</div>","null","","fixation","","",""
"memory-trial","290","628152","0.0-18.0-1.122","6379","approach_avoid_sv1","""event"",""trial"",""time""
""fullscreenenter"",""1"",""54748""
","
","
","""event"",""trial"",""time""
""fullscreenenter"",""1"",""54748""
","
","","","","","","2147.7000007629395","images/sofa7.png","","","memory_trial","3","maybe_new",""
"html-keyboard-response","291","628654","0.0-18.0-0.123","6379","approach_avoid_sv1","""event"",""trial"",""time""
""fullscreenenter"",""1"",""54748""
","
","
","""event"",""trial"",""time""
""fullscreenenter"",""1"",""54748""
","
","","","","","","null","<div style=""font-size:60px;"">+</div>","null","","fixation","","",""
"memory-trial","292","631260","0.0-18.0-1.123","6379","approach_avoid_sv1","""event"",""trial"",""time""
""fullscreenenter"",""1"",""54748""
","
","
","""event"",""trial"",""time""
""fullscreenenter"",""1"",""54748""
","
","","","","","","1600.5","images/sheep3.png","","","memory_trial","2","maybe_old",""
"html-keyboard-response","293","631767","0.0-18.0-0.124","6379","approach_avoid_sv1","""event"",""trial"",""time""
""fullscreenenter"",""1"",""54748""
","
","
","""event"",""trial"",""time""
""fullscreenenter"",""1"",""54748""
","
","","","","","","null","<div style=""font-size:60px;"">+</div>","null","","fixation","","",""
"memory-trial","294","633823","0.0-18.0-1.124","6379","approach_avoid_sv1","""event"",""trial"",""time""
""fullscreenenter"",""1"",""54748""
","
","
","""event"",""trial"",""time""
""fullscreenenter"",""1"",""54748""
","
","","","","","","1038.5","images/rodent1.png","","","memory_trial","1","definitely_old",""
"html-keyboard-response","295","634327","0.0-18.0-0.125","6379","approach_avoid_sv1","""event"",""trial"",""time""
""fullscreenenter"",""1"",""54748""
","
","
","""event"",""trial"",""time""
""fullscreenenter"",""1"",""54748""
","
","","","","","","null","<div style=""font-size:60px;"">+</div>","null","","fixation","","",""
"memory-trial","296","636328","0.0-18.0-1.125","6379","approach_avoid_sv1","""event"",""trial"",""time""
