"trial_type","trial_index","time_elapsed","internal_node_id","subject_id","task_version","interactions","blur_events","focus_events","fullscreenenter_events","fullscreenexit_events","success","timeout","failed_images","failed_audio","failed_video","rt","stimulus","response","button_pressed","task_part","key_press","answer","correct"
"pavlovia","0","4","0.0-0.0","7570","approach_avoid_sv1","""event"",""trial"",""time""
""fullscreenenter"",""1"",""3852""
","
","
","""event"",""trial"",""time""
""fullscreenenter"",""1"",""3852""
","
","","","","","","","","","","","","",""
"fullscreen","1","4742","0.0-1.0","7570","approach_avoid_sv1","""event"",""trial"",""time""
""fullscreenenter"",""1"",""3852""
","
","
","""event"",""trial"",""time""
""fullscreenenter"",""1"",""3852""
","
","true","","","","","","","","","","","",""
"preload","2","7043","0.0-2.0","7570","approach_avoid_sv1","""event"",""trial"",""time""
""fullscreenenter"",""1"",""3852""
","
","
","""event"",""trial"",""time""
""fullscreenenter"",""1"",""3852""
","
","true","false","[]","[]","[]","","","","","","","",""
"preload","3","8446","0.0-3.0","7570","approach_avoid_sv1","""event"",""trial"",""time""
""fullscreenenter"",""1"",""3852""
","
","
","""event"",""trial"",""time""
""fullscreenenter"",""1"",""3852""
","
","true","false","[]","[]","[]","","","","","","","",""
"preload","4","8947","0.0-4.0","7570","approach_avoid_sv1","""event"",""trial"",""time""
""fullscreenenter"",""1"",""3852""
","
","
","""event"",""trial"",""time""
""fullscreenenter"",""1"",""3852""
","
","true","false","[]","[]","[]","","","","","","","",""
"audio-keyboard-response","5","12779","0.0-5.0","7570","approach_avoid_sv1","""event"",""trial"",""time""
""fullscreenenter"",""1"",""3852""
","
","
","""event"",""trial"",""time""
""fullscreenenter"",""1"",""3852""
","
","","","","","","3840.0000000000005","audio/beep_loop.wav"," ","","","","",""
"audio-button-response","6","14678","0.0-6.0","7570","approach_avoid_sv1","""event"",""trial"",""time""
""fullscreenenter"",""1"",""3852""
","
","
","""event"",""trial"",""time""
""fullscreenenter"",""1"",""3852""
","
","","","","","","1891","audio/turtle.wav","3","","","","",""
"audio-button-response","7","16740","0.0-7.0","7570","approach_avoid_sv1","""event"",""trial"",""time""
""fullscreenenter"",""1"",""3852""
","
","
","""event"",""trial"",""time""
""fullscreenenter"",""1"",""3852""
","
","","","","","","1048","audio/shark.wav","2","","","","",""
"preload","8","20774","0.0-8.0","7570","approach_avoid_sv1","""event"",""trial"",""time""
""fullscreenenter"",""1"",""3852""
","
","
","""event"",""trial"",""time""
""fullscreenenter"",""1"",""3852""
","
","true","false","[]","[]","[]","","","","","","","",""
"learning-instructions","9","27823","0.0-9.0-0.0","7570","approach_avoid_sv1","""event"",""trial"",""time""
""fullscreenenter"",""1"",""3852""
","
","
","""event"",""trial"",""time""
""fullscreenenter"",""1"",""3852""
","
","","","","","","2571.5999999046326","<p> Welcome back! </p><p> Last week, you had to make choices about lots of different items.  </p>","","0","instructions","","",""
"learning-instructions","10","34974","0.0-9.0-0.1","7570","approach_avoid_sv1","""event"",""trial"",""time""
""fullscreenenter"",""1"",""3852""
","
","
","""event"",""trial"",""time""
""fullscreenenter"",""1"",""3852""
","
","","","","","","3044.4000000953674","<p> Today, we are going to ask you to try to remember all the items. </p>","","0","instructions","","",""
"learning-instructions","11","45258","0.0-9.0-0.2","7570","approach_avoid_sv1","""event"",""trial"",""time""
""fullscreenenter"",""1"",""3852""
","
","
","""event"",""trial"",""time""
""fullscreenenter"",""1"",""3852""
","
","","","","","","158.59999990463257","<p> On every trial, you will see an image. </p><p> The image may be an OLD image you saw during the games last week or it may be a NEW image that was not presented. </p>","","0","instructions","","",""
"learning-instructions","12","54943","0.0-9.0-0.3","7570","approach_avoid_sv1","""event"",""trial"",""time""
""fullscreenenter"",""1"",""3852""
","
","
","""event"",""trial"",""time""
""fullscreenenter"",""1"",""3852""
","
","","","","","","1173.0999999046326","<p> You need to select whether the image is:  </p><p>  'Definitely old', 'Maybe old', 'Maybe new', or 'Definitely new.'  </p><div class=""mem-choice-instructions-grid""><div class=""choice-option"" id=""choice-option-1"" ><img src=""images/definitely_old_1.png"" id=""choice-option-img-1"" class=""choice-option-img"" stage=""1""></div><div class=""choice-option"" id=""choice-option-2"" ><img src=""images/maybe_old_1.png"" id=""choice-option-img-2"" class=""choice-option-img"" stage=""1""></div><div class=""choice-option"" id=""choice-option-3"" ><img src=""images/maybe_new_1.png"" id=""choice-option-img-3"" class=""choice-option-img"" stage=""1""></div><div class=""choice-option"" id=""choice-option-4"" > <img src=""images/definitely_new_1.png"" id=""choice-option-img-4"" class=""choice-option-img"" stage=""1""></div></div>","","0","instructions","","",""
"learning-instructions","13","61804","0.0-9.0-0.4","7570","approach_avoid_sv1","""event"",""trial"",""time""
""fullscreenenter"",""1"",""3852""
","
","
","""event"",""trial"",""time""
""fullscreenenter"",""1"",""3852""
","
","","","","","","354.19999980926514","<p> You should use the 1, 2, 3, and 4 keys to make your responses.  </p><div class=""mem-choice-instructions-grid""><div class=""choice-option"" id=""choice-option-1"" ><img src=""images/definitely_old.png"" id=""choice-option-img-1"" class=""choice-option-img"" stage=""1""></div><div class=""choice-option"" id=""choice-option-2"" ><img src=""images/maybe_old.png"" id=""choice-option-img-2"" class=""choice-option-img"" stage=""1""></div><div class=""choice-option"" id=""choice-option-3"" ><img src=""images/maybe_new.png"" id=""choice-option-img-3"" class=""choice-option-img"" stage=""1""></div><div class=""choice-option"" id=""choice-option-4"" > <img src=""images/definitely_new.png"" id=""choice-option-img-4"" class=""choice-option-img"" stage=""1""></div></div>","","0","instructions","","",""
"learning-instructions","14","68508","0.0-9.0-0.5","7570","approach_avoid_sv1","""event"",""trial"",""time""
""fullscreenenter"",""1"",""3852""
","
","
","""event"",""trial"",""time""
""fullscreenenter"",""1"",""3852""
","
","","","","","","368.59999990463257","<p> You will have 10 seconds to make each response.  </p><p>  Make sure to respond before time runs out! </p>","","0","instructions","","",""
"learning-instructions","15","76019","0.0-9.0-0.6","7570","approach_avoid_sv1","""event"",""trial"",""time""
""fullscreenenter"",""1"",""3852""
","
","
","""event"",""trial"",""time""
""fullscreenenter"",""1"",""3852""
","
","","","","","","428.59999990463257","<p> Today, you will see each image ONCE only.  </p><p>  That means none of the images will repeat. </p>","","0","instructions","","",""
"learning-instructions","16","88919","0.0-9.0-0.7","7570","approach_avoid_sv1","""event"",""trial"",""time""
""fullscreenenter"",""1"",""3852""
","
","
","""event"",""trial"",""time""
""fullscreenenter"",""1"",""3852""
","
","","","","","","219.59999990463257","<p> Before you play the real game, it is time to practice. </p><p>  Just like in the real game, some of the images in the practice will be ones you have seen before. </p><p>  Others will be entirely new. </p>","","0","instructions","","",""
"html-button-response","17","91208","0.0-10.0","7570","approach_avoid_sv1","""event"",""trial"",""time""
""fullscreenenter"",""1"",""3852""
","
","
","""event"",""trial"",""time""
""fullscreenenter"",""1"",""3852""
","
","","","","","","2179.2999997138977","<p> Ready to practice? </p><p> Remember, use the 1, 2, 3, and 4 keys to make your responses. </p>","0","","instructions","","",""
"html-keyboard-response","18","91835","0.0-11.0-0.0","7570","approach_avoid_sv1","""event"",""trial"",""time""
""fullscreenenter"",""1"",""3852""
","
","
","""event"",""trial"",""time""
""fullscreenenter"",""1"",""3852""
","
","","","","","","null","<div style=""font-size:60px;"">+</div>","null","","fixation","","",""
"memory-trial","19","93871","0.0-11.0-1.0","7570","approach_avoid_sv1","""event"",""trial"",""time""
""fullscreenenter"",""1"",""3852""
","
","
","""event"",""trial"",""time""
""fullscreenenter"",""1"",""3852""
","
","","","","","","1028.7999997138977","images/ball1.png","","","practice","1","definitely_old",""
"html-keyboard-response","20","94373","0.0-11.0-0.1","7570","approach_avoid_sv1","""event"",""trial"",""time""
""fullscreenenter"",""1"",""3852""
","
","
","""event"",""trial"",""time""
""fullscreenenter"",""1"",""3852""
","
","","","","","","null","<div style=""font-size:60px;"">+</div>","null","","fixation","","",""
"memory-trial","21","98926","0.0-11.0-1.1","7570","approach_avoid_sv1","""event"",""trial"",""time""
""fullscreenenter"",""1"",""3852""
","
","
","""event"",""trial"",""time""
""fullscreenenter"",""1"",""3852""
","
","","","","","","3545.8999996185303","images/racket5.png","","","practice","4","definitely_new",""
"html-keyboard-response","22","99430","0.0-11.0-0.2","7570","approach_avoid_sv1","""event"",""trial"",""time""
""fullscreenenter"",""1"",""3852""
","
","
","""event"",""trial"",""time""
""fullscreenenter"",""1"",""3852""
","
","","","","","","null","<div style=""font-size:60px;"">+</div>","null","","fixation","","",""
"memory-trial","23","102071","0.0-11.0-1.2","7570","approach_avoid_sv1","""event"",""trial"",""time""
""fullscreenenter"",""1"",""3852""
","
","
","""event"",""trial"",""time""
""fullscreenenter"",""1"",""3852""
","
","","","","","","1635.3999996185303","images/ball2.png","","","practice","4","definitely_new",""
"html-keyboard-response","24","102588","0.0-11.0-0.3","7570","approach_avoid_sv1","""event"",""trial"",""time""
""fullscreenenter"",""1"",""3852""
","
","
","""event"",""trial"",""time""
""fullscreenenter"",""1"",""3852""
","
","","","","","","null","<div style=""font-size:60px;"">+</div>","null","","fixation","","",""
"memory-trial","25","105124","0.0-11.0-1.3","7570","approach_avoid_sv1","""event"",""trial"",""time""
""fullscreenenter"",""1"",""3852""
","
","
","""event"",""trial"",""time""
""fullscreenenter"",""1"",""3852""
","
","","","","","","1526.5999999046326","images/racket1.png","","","practice","1","definitely_old",""
"html-keyboard-response","26","105626","0.0-11.0-0.4","7570","approach_avoid_sv1","""event"",""trial"",""time""
""fullscreenenter"",""1"",""3852""
","
","
","""event"",""trial"",""time""
""fullscreenenter"",""1"",""3852""
","
","","","","","","null","<div style=""font-size:60px;"">+</div>","null","","fixation","","",""
"memory-trial","27","108064","0.0-11.0-1.4","7570","approach_avoid_sv1","""event"",""trial"",""time""
""fullscreenenter"",""1"",""3852""
","
","
","""event"",""trial"",""time""
""fullscreenenter"",""1"",""3852""
","
","","","","","","1423.2999997138977","images/racket2.png","","","practice","4","definitely_new",""
"html-keyboard-response","28","108566","0.0-11.0-0.5","7570","approach_avoid_sv1","""event"",""trial"",""time""
""fullscreenenter"",""1"",""3852""
","
","
","""event"",""trial"",""time""
""fullscreenenter"",""1"",""3852""
","
","","","","","","null","<div style=""font-size:60px;"">+</div>","null","","fixation","","",""
"memory-trial","29","110834","0.0-11.0-1.5","7570","approach_avoid_sv1","""event"",""trial"",""time""
""fullscreenenter"",""1"",""3852""
","
","
","""event"",""trial"",""time""
""fullscreenenter"",""1"",""3852""
","
","","","","","","1257.6000003814697","images/ball3.png","","","practice","1","definitely_old",""
"html-keyboard-response","30","111336","0.0-11.0-0.6","7570","approach_avoid_sv1","""event"",""trial"",""time""
""fullscreenenter"",""1"",""3852""
","
","
","""event"",""trial"",""time""
""fullscreenenter"",""1"",""3852""
","
","","","","","","null","<div style=""font-size:60px;"">+</div>","null","","fixation","","",""
"memory-trial","31","113426","0.0-11.0-1.6","7570","approach_avoid_sv1","""event"",""trial"",""time""
""fullscreenenter"",""1"",""3852""
","
","
","""event"",""trial"",""time""
""fullscreenenter"",""1"",""3852""
","
","","","","","","1079","images/ball5.png","","","practice","4","definitely_new",""
"html-keyboard-response","32","113929","0.0-11.0-0.7","7570","approach_avoid_sv1","""event"",""trial"",""time""
""fullscreenenter"",""1"",""3852""
","
","
","""event"",""trial"",""time""
""fullscreenenter"",""1"",""3852""
","
","","","","","","null","<div style=""font-size:60px;"">+</div>","null","","fixation","","",""
"memory-trial","33","115984","0.0-11.0-1.7","7570","approach_avoid_sv1","""event"",""trial"",""time""
""fullscreenenter"",""1"",""3852""
","
","
","""event"",""trial"",""time""
""fullscreenenter"",""1"",""3852""
","
","","","","","","1047.4000000953674","images/racket3.png","","","practice","1","definitely_old",""
"learning-instructions","34","124466","0.0-12.0-0.0","7570","approach_avoid_sv1","""event"",""trial"",""time""
""fullscreenenter"",""1"",""3852""
","
","
","""event"",""trial"",""time""
""fullscreenenter"",""1"",""3852""
","
","","","","","","1176.4000000953674","<p> Great! You have completed the practice. </p><p> Before you start, we're going to ask you a few questions about how the game works.  </p>","","0","instructions","","",""
"preload","35","126822","0.0-13.0","7570","approach_avoid_sv1","""event"",""trial"",""time""
""fullscreenenter"",""1"",""3852""
","
","
","""event"",""trial"",""time""
""fullscreenenter"",""1"",""3852""
","
","true","false","[]","[]","[]","","","","","","","",""
"comp-q","36","133687","0.0-14.0-0.0","7570","approach_avoid_sv1","""event"",""trial"",""time""
""fullscreenenter"",""1"",""3852""
","
","
","""event"",""trial"",""time""
""fullscreenenter"",""1"",""3852""
","
","","","","","","1037.2000002861023","<p> <b> True or False? </b> </p><p> In this game, you will only see each image once. </p>","","0","comp_question","","","true"
"comp-q","37","141071","0.0-14.0-1.0","7570","approach_avoid_sv1","""event"",""trial"",""time""
""fullscreenenter"",""1"",""3852""
","
","
","""event"",""trial"",""time""
""fullscreenenter"",""1"",""3852""
","
","","","","","","1039.5","<p> <b> That's right! </b> You will see many different images <i> one time each </i> in this game. </p>","","0","comp_answer","","",""
"comp-q","38","147081","0.0-15.0-0.0","7570","approach_avoid_sv1","""event"",""trial"",""time""
""fullscreenenter"",""1"",""3852""
","
","
","""event"",""trial"",""time""
""fullscreenenter"",""1"",""3852""
","
","","","","","","1001","<p> <b> True or False? </b> </p><p> You should use the mouse and click to make your response. </p>","","1","comp_question","","","true"
"comp-q","39","154634","0.0-15.0-1.0","7570","approach_avoid_sv1","""event"",""trial"",""time""
""fullscreenenter"",""1"",""3852""
","
","
","""event"",""trial"",""time""
""fullscreenenter"",""1"",""3852""
","
","","","","","","1053","<p><b> That's right! </b> You should use the '1', '2', '3', and '4' keys to make your response. </p>","","0","comp_answer","","",""
"comp-q","40","161001","0.0-16.0-0.0","7570","approach_avoid_sv1","""event"",""trial"",""time""
""fullscreenenter"",""1"",""3852""
","
","
","""event"",""trial"",""time""
""fullscreenenter"",""1"",""3852""
","
","","","","","","692.1000003814697","<p> <b> True or False? </b> </p><p> You will have as much time as you want to make each choice. </p>","","1","comp_question","","","true"
"comp-q","41","166364","0.0-16.0-1.0","7570","approach_avoid_sv1","""event"",""trial"",""time""
""fullscreenenter"",""1"",""3852""
","
","
","""event"",""trial"",""time""
""fullscreenenter"",""1"",""3852""
","
","","","","","","654.8999996185303","<p> <b> That's right! </b> You will only have 10 seconds to make each choice. </p>","","0","comp_answer","","",""
"learning-instructions","42","176173","0.0-17.0","7570","approach_avoid_sv1","""event"",""trial"",""time""
""fullscreenenter"",""1"",""3852""
","
","
","""event"",""trial"",""time""
""fullscreenenter"",""1"",""3852""
","
","","","","","","1132","<p> Great! You are now ready to begin the game. </p><p> Remember, use the 1, 2, 3, and 4 keys to make your responses. </p>","","0","instructions","","",""
"html-keyboard-response","43","176780","0.0-18.0-0.0","7570","approach_avoid_sv1","""event"",""trial"",""time""
""fullscreenenter"",""1"",""3852""
","
","
","""event"",""trial"",""time""
""fullscreenenter"",""1"",""3852""
","
","","","","","","null","<div style=""font-size:60px;"">+</div>","null","","fixation","","",""
"memory-trial","44","179582","0.0-18.0-1.0","7570","approach_avoid_sv1","""event"",""trial"",""time""
""fullscreenenter"",""1"",""3852""
","
","
","""event"",""trial"",""time""
""fullscreenenter"",""1"",""3852""
","
","","","","","","1785.5999999046326","images/flower6.png","","","memory_trial","1","definitely_old",""
"html-keyboard-response","45","180098","0.0-18.0-0.1","7570","approach_avoid_sv1","""event"",""trial"",""time""
""fullscreenenter"",""1"",""3852""
","
","
","""event"",""trial"",""time""
""fullscreenenter"",""1"",""3852""
","
","","","","","","null","<div style=""font-size:60px;"">+</div>","null","","fixation","","",""
"memory-trial","46","182012","0.0-18.0-1.1","7570","approach_avoid_sv1","""event"",""trial"",""time""
""fullscreenenter"",""1"",""3852""
","
","
","""event"",""trial"",""time""
""fullscreenenter"",""1"",""3852""
","
","","","","","","901.3000001907349","images/truck5.png","","","memory_trial","4","definitely_new",""
"html-keyboard-response","47","182514","0.0-18.0-0.2","7570","approach_avoid_sv1","""event"",""trial"",""time""
""fullscreenenter"",""1"",""3852""
","
","
","""event"",""trial"",""time""
""fullscreenenter"",""1"",""3852""
","
","","","","","","null","<div style=""font-size:60px;"">+</div>","null","","fixation","","",""
"memory-trial","48","184859","0.0-18.0-1.2","7570","approach_avoid_sv1","""event"",""trial"",""time""
""fullscreenenter"",""1"",""3852""
","
","
","""event"",""trial"",""time""
""fullscreenenter"",""1"",""3852""
","
","","","","","","1339","images/dog4.png","","","memory_trial","4","definitely_new",""
"html-keyboard-response","49","185361","0.0-18.0-0.3","7570","approach_avoid_sv1","""event"",""trial"",""time""
""fullscreenenter"",""1"",""3852""
","
","
","""event"",""trial"",""time""
""fullscreenenter"",""1"",""3852""
","
","","","","","","null","<div style=""font-size:60px;"">+</div>","null","","fixation","","",""
"memory-trial","50","187724","0.0-18.0-1.3","7570","approach_avoid_sv1","""event"",""trial"",""time""
""fullscreenenter"",""1"",""3852""
","
","
","""event"",""trial"",""time""
""fullscreenenter"",""1"",""3852""
","
","","","","","","1348.5","images/boat7.png","","","memory_trial","1","definitely_old",""
"html-keyboard-response","51","188228","0.0-18.0-0.4","7570","approach_avoid_sv1","""event"",""trial"",""time""
""fullscreenenter"",""1"",""3852""
","
","
","""event"",""trial"",""time""
""fullscreenenter"",""1"",""3852""
","
","","","","","","null","<div style=""font-size:60px;"">+</div>","null","","fixation","","",""
"memory-trial","52","190305","0.0-18.0-1.4","7570","approach_avoid_sv1","""event"",""trial"",""time""
""fullscreenenter"",""1"",""3852""
","
","
","""event"",""trial"",""time""
""fullscreenenter"",""1"",""3852""
","
","","","","","","1072.5","images/straw7.png","","","memory_trial","4","definitely_new",""
"html-keyboard-response","53","190822","0.0-18.0-0.5","7570","approach_avoid_sv1","""event"",""trial"",""time""
""fullscreenenter"",""1"",""3852""
","
","
","""event"",""trial"",""time""
""fullscreenenter"",""1"",""3852""
","
","","","","","","null","<div style=""font-size:60px;"">+</div>","null","","fixation","","",""
"memory-trial","54","192624","0.0-18.0-1.5","7570","approach_avoid_sv1","""event"",""trial"",""time""
""fullscreenenter"",""1"",""3852""
","
","
","""event"",""trial"",""time""
""fullscreenenter"",""1"",""3852""
","
","","","","","","787.0999999046326","images/orange1.png","","","memory_trial","1","definitely_old",""
"html-keyboard-response","55","193127","0.0-18.0-0.6","7570","approach_avoid_sv1","""event"",""trial"",""time""
""fullscreenenter"",""1"",""3852""
","
","
","""event"",""trial"",""time""
""fullscreenenter"",""1"",""3852""
","
","","","","","","null","<div style=""font-size:60px;"">+</div>","null","","fixation","","",""
"memory-trial","56","195421","0.0-18.0-1.6","7570","approach_avoid_sv1","""event"",""trial"",""time""
""fullscreenenter"",""1"",""3852""
","
","
","""event"",""trial"",""time""
""fullscreenenter"",""1"",""3852""
","
","","","","","","1278.5999999046326","images/horse6.png","","","memory_trial","4","definitely_new",""
"html-keyboard-response","57","195937","0.0-18.0-0.7","7570","approach_avoid_sv1","""event"",""trial"",""time""
""fullscreenenter"",""1"",""3852""
","
","
","""event"",""trial"",""time""
""fullscreenenter"",""1"",""3852""
","
","","","","","","null","<div style=""font-size:60px;"">+</div>","null","","fixation","","",""
"memory-trial","58","197823","0.0-18.0-1.7","7570","approach_avoid_sv1","""event"",""trial"",""time""
""fullscreenenter"",""1"",""3852""
","
","
","""event"",""trial"",""time""
""fullscreenenter"",""1"",""3852""
","
","","","","","","873","images/cactus7.png","","","memory_trial","1","definitely_old",""
"html-keyboard-response","59","198338","0.0-18.0-0.8","7570","approach_avoid_sv1","""event"",""trial"",""time""
""fullscreenenter"",""1"",""3852""
","
","
","""event"",""trial"",""time""
""fullscreenenter"",""1"",""3852""
","
","","","","","","null","<div style=""font-size:60px;"">+</div>","null","","fixation","","",""
"memory-trial","60","200231","0.0-18.0-1.8","7570","approach_avoid_sv1","""event"",""trial"",""time""
""fullscreenenter"",""1"",""3852""
","
","
","""event"",""trial"",""time""
""fullscreenenter"",""1"",""3852""
","
","","","","","","876.8000001907349","images/plane5.png","","","memory_trial","1","definitely_old",""
"html-keyboard-response","61","200733","0.0-18.0-0.9","7570","approach_avoid_sv1","""event"",""trial"",""time""
""fullscreenenter"",""1"",""3852""
","
","
","""event"",""trial"",""time""
""fullscreenenter"",""1"",""3852""
","
","","","","","","null","<div style=""font-size:60px;"">+</div>","null","","fixation","","",""
"memory-trial","62","202605","0.0-18.0-1.9","7570","approach_avoid_sv1","""event"",""trial"",""time""
""fullscreenenter"",""1"",""3852""
","
","
","""event"",""trial"",""time""
""fullscreenenter"",""1"",""3852""
","
","","","","","","859.0999999046326","images/rodent4.png","","","memory_trial","4","definitely_new",""
"html-keyboard-response","63","203108","0.0-18.0-0.10","7570","approach_avoid_sv1","""event"",""trial"",""time""
""fullscreenenter"",""1"",""3852""
","
","
","""event"",""trial"",""time""
""fullscreenenter"",""1"",""3852""
","
","","","","","","null","<div style=""font-size:60px;"">+</div>","null","","fixation","","",""
"memory-trial","64","204962","0.0-18.0-1.10","7570","approach_avoid_sv1","""event"",""trial"",""time""
""fullscreenenter"",""1"",""3852""
","
","
","""event"",""trial"",""time""
""fullscreenenter"",""1"",""3852""
","
","","","","","","839.5999999046326","images/train5.png","","","memory_trial","1","definitely_old",""
"html-keyboard-response","65","205464","0.0-18.0-0.11","7570","approach_avoid_sv1","""event"",""trial"",""time""
""fullscreenenter"",""1"",""3852""
","
","
","""event"",""trial"",""time""
""fullscreenenter"",""1"",""3852""
","
","","","","","","null","<div style=""font-size:60px;"">+</div>","null","","fixation","","",""
"memory-trial","66","207642","0.0-18.0-1.11","7570","approach_avoid_sv1","""event"",""trial"",""time""
""fullscreenenter"",""1"",""3852""
","
","
","""event"",""trial"",""time""
""fullscreenenter"",""1"",""3852""
","
","","","","","","1176","images/cow6.png","","","memory_trial","1","definitely_old",""
"html-keyboard-response","67","208144","0.0-18.0-0.12","7570","approach_avoid_sv1","""event"",""trial"",""time""
""fullscreenenter"",""1"",""3852""
""blur"",""68"",""208862""
""focus"",""68"",""211372""
","""event"",""trial"",""time""
""blur"",""68"",""208862""
","""event"",""trial"",""time""
""focus"",""68"",""211372""
","""event"",""trial"",""time""
""fullscreenenter"",""1"",""3852""
","
","","","","","","null","<div style=""font-size:60px;"">+</div>","null","","fixation","","",""
"memory-trial","68","213379","0.0-18.0-1.12","7570","approach_avoid_sv1","""event"",""trial"",""time""
""fullscreenenter"",""1"",""3852""
""blur"",""68"",""208862""
""focus"",""68"",""211372""
","""event"",""trial"",""time""
""blur"",""68"",""208862""
","""event"",""trial"",""time""
""focus"",""68"",""211372""
","""event"",""trial"",""time""
""fullscreenenter"",""1"",""3852""
","
","","","","","","4233.5","images/cow2.png","","","memory_trial","4","definitely_new",""
"html-keyboard-response","69","213881","0.0-18.0-0.13","7570","approach_avoid_sv1","""event"",""trial"",""time""
""fullscreenenter"",""1"",""3852""
""blur"",""68"",""208862""
""focus"",""68"",""211372""
","""event"",""trial"",""time""
""blur"",""68"",""208862""
","""event"",""trial"",""time""
""focus"",""68"",""211372""
","""event"",""trial"",""time""
""fullscreenenter"",""1"",""3852""
","
","","","","","","null","<div style=""font-size:60px;"">+</div>","null","","fixation","","",""
"memory-trial","70","215790","0.0-18.0-1.13","7570","approach_avoid_sv1","""event"",""trial"",""time""
""fullscreenenter"",""1"",""3852""
""blur"",""68"",""208862""
""focus"",""68"",""211372""
","""event"",""trial"",""time""
""blur"",""68"",""208862""
","""event"",""trial"",""time""
""focus"",""68"",""211372""
","""event"",""trial"",""time""
""fullscreenenter"",""1"",""3852""
","
","","","","","","906.3999996185303","images/dog5.png","","","memory_trial","1","definitely_old",""
"html-keyboard-response","71","216291","0.0-18.0-0.14","7570","approach_avoid_sv1","""event"",""trial"",""time""
""fullscreenenter"",""1"",""3852""
""blur"",""68"",""208862""
""focus"",""68"",""211372""
","""event"",""trial"",""time""
""blur"",""68"",""208862""
","""event"",""trial"",""time""
""focus"",""68"",""211372""
","""event"",""trial"",""time""
""fullscreenenter"",""1"",""3852""
","
","","","","","","null","<div style=""font-size:60px;"">+</div>","null","","fixation","","",""
"memory-trial","72","218324","0.0-18.0-1.14","7570","approach_avoid_sv1","""event"",""trial"",""time""
""fullscreenenter"",""1"",""3852""
""blur"",""68"",""208862""
""focus"",""68"",""211372""
","""event"",""trial"",""time""
""blur"",""68"",""208862""
","""event"",""trial"",""time""
""focus"",""68"",""211372""
","""event"",""trial"",""time""
""fullscreenenter"",""1"",""3852""
","
","","","","","","1029.5999999046326","images/flower3.png","","","memory_trial","4","definitely_new",""
"html-keyboard-response","73","218825","0.0-18.0-0.15","7570","approach_avoid_sv1","""event"",""trial"",""time""
""fullscreenenter"",""1"",""3852""
""blur"",""68"",""208862""
""focus"",""68"",""211372""
","""event"",""trial"",""time""
""blur"",""68"",""208862""
","""event"",""trial"",""time""
""focus"",""68"",""211372""
","""event"",""trial"",""time""
""fullscreenenter"",""1"",""3852""
","
","","","","","","null","<div style=""font-size:60px;"">+</div>","null","","fixation","","",""
"memory-trial","74","220682","0.0-18.0-1.15","7570","approach_avoid_sv1","""event"",""trial"",""time""
""fullscreenenter"",""1"",""3852""
""blur"",""68"",""208862""
""focus"",""68"",""211372""
","""event"",""trial"",""time""
""blur"",""68"",""208862""
","""event"",""trial"",""time""
""focus"",""68"",""211372""
","""event"",""trial"",""time""
""fullscreenenter"",""1"",""3852""
","
","","","","","","851.6999998092651","images/truck3.png","","","memory_trial","1","definitely_old",""
"html-keyboard-response","75","221184","0.0-18.0-0.16","7570","approach_avoid_sv1","""event"",""trial"",""time""
""fullscreenenter"",""1"",""3852""
""blur"",""68"",""208862""
""focus"",""68"",""211372""
","""event"",""trial"",""time""
""blur"",""68"",""208862""
","""event"",""trial"",""time""
""focus"",""68"",""211372""
","""event"",""trial"",""time""
""fullscreenenter"",""1"",""3852""
","
","","","","","","null","<div style=""font-size:60px;"">+</div>","null","","fixation","","",""
"memory-trial","76","223282","0.0-18.0-1.16","7570","approach_avoid_sv1","""event"",""trial"",""time""
""fullscreenenter"",""1"",""3852""
""blur"",""68"",""208862""
""focus"",""68"",""211372""
","""event"",""trial"",""time""
""blur"",""68"",""208862""
","""event"",""trial"",""time""
""focus"",""68"",""211372""
","""event"",""trial"",""time""
""fullscreenenter"",""1"",""3852""
","
","","","","","","1096.5","images/table8.png","","","memory_trial","4","definitely_new",""
"html-keyboard-response","77","223784","0.0-18.0-0.17","7570","approach_avoid_sv1","""event"",""trial"",""time""
""fullscreenenter"",""1"",""3852""
""blur"",""68"",""208862""
""focus"",""68"",""211372""
","""event"",""trial"",""time""
""blur"",""68"",""208862""
","""event"",""trial"",""time""
""focus"",""68"",""211372""
","""event"",""trial"",""time""
""fullscreenenter"",""1"",""3852""
","
","","","","","","null","<div style=""font-size:60px;"">+</div>","null","","fixation","","",""
"memory-trial","78","225704","0.0-18.0-1.17","7570","approach_avoid_sv1","""event"",""trial"",""time""
""fullscreenenter"",""1"",""3852""
""blur"",""68"",""208862""
""focus"",""68"",""211372""
","""event"",""trial"",""time""
""blur"",""68"",""208862""
","""event"",""trial"",""time""
""focus"",""68"",""211372""
","""event"",""trial"",""time""
""fullscreenenter"",""1"",""3852""
","
","","","","","","916.8000001907349","images/bush3.png","","","memory_trial","1","definitely_old",""
"html-keyboard-response","79","226205","0.0-18.0-0.18","7570","approach_avoid_sv1","""event"",""trial"",""time""
""fullscreenenter"",""1"",""3852""
""blur"",""68"",""208862""
""focus"",""68"",""211372""
","""event"",""trial"",""time""
""blur"",""68"",""208862""
","""event"",""trial"",""time""
""focus"",""68"",""211372""
","""event"",""trial"",""time""
""fullscreenenter"",""1"",""3852""
","
","","","","","","null","<div style=""font-size:60px;"">+</div>","null","","fixation","","",""
"memory-trial","80","227932","0.0-18.0-1.18","7570","approach_avoid_sv1","""event"",""trial"",""time""
""fullscreenenter"",""1"",""3852""
""blur"",""68"",""208862""
""focus"",""68"",""211372""
","""event"",""trial"",""time""
""blur"",""68"",""208862""
","""event"",""trial"",""time""
""focus"",""68"",""211372""
","""event"",""trial"",""time""
""fullscreenenter"",""1"",""3852""
","
","","","","","","724","images/cactus3.png","","","memory_trial","1","definitely_old",""
"html-keyboard-response","81","228434","0.0-18.0-0.19","7570","approach_avoid_sv1","""event"",""trial"",""time""
""fullscreenenter"",""1"",""3852""
""blur"",""68"",""208862""
""focus"",""68"",""211372""
","""event"",""trial"",""time""
""blur"",""68"",""208862""
","""event"",""trial"",""time""
""focus"",""68"",""211372""
","""event"",""trial"",""time""
""fullscreenenter"",""1"",""3852""
","
","","","","","","null","<div style=""font-size:60px;"">+</div>","null","","fixation","","",""
"memory-trial","82","230360","0.0-18.0-1.19","7570","approach_avoid_sv1","""event"",""trial"",""time""
""fullscreenenter"",""1"",""3852""
""blur"",""68"",""208862""
""focus"",""68"",""211372""
","""event"",""trial"",""time""
""blur"",""68"",""208862""
","""event"",""trial"",""time""
""focus"",""68"",""211372""
","""event"",""trial"",""time""
""fullscreenenter"",""1"",""3852""
","
","","","","","","924.3000001907349","images/goat7.png","","","memory_trial","4","definitely_new",""
"html-keyboard-response","83","230863","0.0-18.0-0.20","7570","approach_avoid_sv1","""event"",""trial"",""time""
""fullscreenenter"",""1"",""3852""
""blur"",""68"",""208862""
""focus"",""68"",""211372""
","""event"",""trial"",""time""
""blur"",""68"",""208862""
","""event"",""trial"",""time""
""focus"",""68"",""211372""
","""event"",""trial"",""time""
""fullscreenenter"",""1"",""3852""
","
","","","","","","null","<div style=""font-size:60px;"">+</div>","null","","fixation","","",""
"memory-trial","84","232924","0.0-18.0-1.20","7570","approach_avoid_sv1","""event"",""trial"",""time""
""fullscreenenter"",""1"",""3852""
""blur"",""68"",""208862""
""focus"",""68"",""211372""
","""event"",""trial"",""time""
""blur"",""68"",""208862""
","""event"",""trial"",""time""
""focus"",""68"",""211372""
","""event"",""trial"",""time""
""fullscreenenter"",""1"",""3852""
","
","","","","","","1057.5999999046326","images/tree4.png","","","memory_trial","4","definitely_new",""
"html-keyboard-response","85","233425","0.0-18.0-0.21","7570","approach_avoid_sv1","""event"",""trial"",""time""
""fullscreenenter"",""1"",""3852""
""blur"",""68"",""208862""
""focus"",""68"",""211372""
","""event"",""trial"",""time""
""blur"",""68"",""208862""
","""event"",""trial"",""time""
""focus"",""68"",""211372""
","""event"",""trial"",""time""
""fullscreenenter"",""1"",""3852""
","
","","","","","","null","<div style=""font-size:60px;"">+</div>","null","","fixation","","",""
"memory-trial","86","235327","0.0-18.0-1.21","7570","approach_avoid_sv1","""event"",""trial"",""time""
""fullscreenenter"",""1"",""3852""
""blur"",""68"",""208862""
""focus"",""68"",""211372""
","""event"",""trial"",""time""
""blur"",""68"",""208862""
","""event"",""trial"",""time""
""focus"",""68"",""211372""
","""event"",""trial"",""time""
""fullscreenenter"",""1"",""3852""
","
","","","","","","896","images/rabbit4.png","","","memory_trial","4","definitely_new",""
"html-keyboard-response","87","235829","0.0-18.0-0.22","7570","approach_avoid_sv1","""event"",""trial"",""time""
""fullscreenenter"",""1"",""3852""
""blur"",""68"",""208862""
""focus"",""68"",""211372""
","""event"",""trial"",""time""
""blur"",""68"",""208862""
","""event"",""trial"",""time""
""focus"",""68"",""211372""
","""event"",""trial"",""time""
""fullscreenenter"",""1"",""3852""
","
","","","","","","null","<div style=""font-size:60px;"">+</div>","null","","fixation","","",""
"memory-trial","88","237533","0.0-18.0-1.22","7570","approach_avoid_sv1","""event"",""trial"",""time""
""fullscreenenter"",""1"",""3852""
""blur"",""68"",""208862""
""focus"",""68"",""211372""
","""event"",""trial"",""time""
""blur"",""68"",""208862""
","""event"",""trial"",""time""
""focus"",""68"",""211372""
","""event"",""trial"",""time""
""fullscreenenter"",""1"",""3852""
","
","","","","","","701.6999998092651","images/rabbit2.png","","","memory_trial","1","definitely_old",""
"html-keyboard-response","89","238034","0.0-18.0-0.23","7570","approach_avoid_sv1","""event"",""trial"",""time""
""fullscreenenter"",""1"",""3852""
""blur"",""68"",""208862""
""focus"",""68"",""211372""
","""event"",""trial"",""time""
""blur"",""68"",""208862""
","""event"",""trial"",""time""
""focus"",""68"",""211372""
","""event"",""trial"",""time""
""fullscreenenter"",""1"",""3852""
","
","","","","","","null","<div style=""font-size:60px;"">+</div>","null","","fixation","","",""
"memory-trial","90","240206","0.0-18.0-1.23","7570","approach_avoid_sv1","""event"",""trial"",""time""
""fullscreenenter"",""1"",""3852""
""blur"",""68"",""208862""
""focus"",""68"",""211372""
","""event"",""trial"",""time""
""blur"",""68"",""208862""
","""event"",""trial"",""time""
""focus"",""68"",""211372""
","""event"",""trial"",""time""
""fullscreenenter"",""1"",""3852""
","
","","","","","","1168.6999998092651","images/train4.png","","","memory_trial","1","definitely_old",""
"html-keyboard-response","91","240708","0.0-18.0-0.24","7570","approach_avoid_sv1","""event"",""trial"",""time""
""fullscreenenter"",""1"",""3852""
""blur"",""68"",""208862""
""focus"",""68"",""211372""
","""event"",""trial"",""time""
""blur"",""68"",""208862""
","""event"",""trial"",""time""
""focus"",""68"",""211372""
","""event"",""trial"",""time""
""fullscreenenter"",""1"",""3852""
","
","","","","","","null","<div style=""font-size:60px;"">+</div>","null","","fixation","","",""
"memory-trial","92","242569","0.0-18.0-1.24","7570","approach_avoid_sv1","""event"",""trial"",""time""
""fullscreenenter"",""1"",""3852""
""blur"",""68"",""208862""
""focus"",""68"",""211372""
","""event"",""trial"",""time""
""blur"",""68"",""208862""
","""event"",""trial"",""time""
""focus"",""68"",""211372""
","""event"",""trial"",""time""
""fullscreenenter"",""1"",""3852""
","
","","","","","","857.9000000953674","images/orange4.png","","","memory_trial","4","definitely_new",""
"html-keyboard-response","93","243071","0.0-18.0-0.25","7570","approach_avoid_sv1","""event"",""trial"",""time""
""fullscreenenter"",""1"",""3852""
""blur"",""68"",""208862""
""focus"",""68"",""211372""
","""event"",""trial"",""time""
""blur"",""68"",""208862""
","""event"",""trial"",""time""
""focus"",""68"",""211372""
","""event"",""trial"",""time""
""fullscreenenter"",""1"",""3852""
","
","","","","","","null","<div style=""font-size:60px;"">+</div>","null","","fixation","","",""
"memory-trial","94","245082","0.0-18.0-1.25","7570","approach_avoid_sv1","""event"",""trial"",""time""
""fullscreenenter"",""1"",""3852""
""blur"",""68"",""208862""
""focus"",""68"",""211372""
","""event"",""trial"",""time""
""blur"",""68"",""208862""
","""event"",""trial"",""time""
""focus"",""68"",""211372""
","""event"",""trial"",""time""
""fullscreenenter"",""1"",""3852""
","
","","","","","","1006.4000000953674","images/plane1.png","","","memory_trial","4","definitely_new",""
"html-keyboard-response","95","245584","0.0-18.0-0.26","7570","approach_avoid_sv1","""event"",""trial"",""time""
""fullscreenenter"",""1"",""3852""
""blur"",""68"",""208862""
""focus"",""68"",""211372""
","""event"",""trial"",""time""
""blur"",""68"",""208862""
","""event"",""trial"",""time""
""focus"",""68"",""211372""
","""event"",""trial"",""time""
""fullscreenenter"",""1"",""3852""
","
","","","","","","null","<div style=""font-size:60px;"">+</div>","null","","fixation","","",""
"memory-trial","96","247557","0.0-18.0-1.26","7570","approach_avoid_sv1","""event"",""trial"",""time""
""fullscreenenter"",""1"",""3852""
""blur"",""68"",""208862""
""focus"",""68"",""211372""
","""event"",""trial"",""time""
""blur"",""68"",""208862""
","""event"",""trial"",""time""
""focus"",""68"",""211372""
","""event"",""trial"",""time""
""fullscreenenter"",""1"",""3852""
","
","","","","","","970.0999999046326","images/orange8.png","","","memory_trial","1","definitely_old",""
"html-keyboard-response","97","248059","0.0-18.0-0.27","7570","approach_avoid_sv1","""event"",""trial"",""time""
""fullscreenenter"",""1"",""3852""
""blur"",""68"",""208862""
""focus"",""68"",""211372""
","""event"",""trial"",""time""
""blur"",""68"",""208862""
","""event"",""trial"",""time""
""focus"",""68"",""211372""
","""event"",""trial"",""time""
""fullscreenenter"",""1"",""3852""
","
","","","","","","null","<div style=""font-size:60px;"">+</div>","null","","fixation","","",""
"memory-trial","98","249724","0.0-18.0-1.27","7570","approach_avoid_sv1","""event"",""trial"",""time""
""fullscreenenter"",""1"",""3852""
""blur"",""68"",""208862""
""focus"",""68"",""211372""
","""event"",""trial"",""time""
""blur"",""68"",""208862""
","""event"",""trial"",""time""
""focus"",""68"",""211372""
","""event"",""trial"",""time""
""fullscreenenter"",""1"",""3852""
","
","","","","","","662.5","images/orange7.png","","","memory_trial","1","definitely_old",""
"html-keyboard-response","99","250225","0.0-18.0-0.28","7570","approach_avoid_sv1","""event"",""trial"",""time""
""fullscreenenter"",""1"",""3852""
""blur"",""68"",""208862""
""focus"",""68"",""211372""
","""event"",""trial"",""time""
""blur"",""68"",""208862""
","""event"",""trial"",""time""
""focus"",""68"",""211372""
","""event"",""trial"",""time""
""fullscreenenter"",""1"",""3852""
","
","","","","","","null","<div style=""font-size:60px;"">+</div>","null","","fixation","","",""
"memory-trial","100","252199","0.0-18.0-1.28","7570","approach_avoid_sv1","""event"",""trial"",""time""
""fullscreenenter"",""1"",""3852""
""blur"",""68"",""208862""
""focus"",""68"",""211372""
","""event"",""trial"",""time""
""blur"",""68"",""208862""
","""event"",""trial"",""time""
""focus"",""68"",""211372""
","""event"",""trial"",""time""
""fullscreenenter"",""1"",""3852""
","
","","","","","","972","images/goat1.png","","","memory_trial","4","definitely_new",""
"html-keyboard-response","101","252700","0.0-18.0-0.29","7570","approach_avoid_sv1","""event"",""trial"",""time""
""fullscreenenter"",""1"",""3852""
""blur"",""68"",""208862""
""focus"",""68"",""211372""
","""event"",""trial"",""time""
""blur"",""68"",""208862""
","""event"",""trial"",""time""
""focus"",""68"",""211372""
","""event"",""trial"",""time""
""fullscreenenter"",""1"",""3852""
","
","","","","","","null","<div style=""font-size:60px;"">+</div>","null","","fixation","","",""
"memory-trial","102","254317","0.0-18.0-1.29","7570","approach_avoid_sv1","""event"",""trial"",""time""
""fullscreenenter"",""1"",""3852""
""blur"",""68"",""208862""
""focus"",""68"",""211372""
","""event"",""trial"",""time""
""blur"",""68"",""208862""
","""event"",""trial"",""time""
""focus"",""68"",""211372""
","""event"",""trial"",""time""
""fullscreenenter"",""1"",""3852""
","
","","","","","","614.3999996185303","images/tree3.png","","","memory_trial","1","definitely_old",""
"html-keyboard-response","103","254820","0.0-18.0-0.30","7570","approach_avoid_sv1","""event"",""trial"",""time""
""fullscreenenter"",""1"",""3852""
""blur"",""68"",""208862""
""focus"",""68"",""211372""
","""event"",""trial"",""time""
""blur"",""68"",""208862""
","""event"",""trial"",""time""
""focus"",""68"",""211372""
","""event"",""trial"",""time""
""fullscreenenter"",""1"",""3852""
","
","","","","","","null","<div style=""font-size:60px;"">+</div>","null","","fixation","","",""
"memory-trial","104","256829","0.0-18.0-1.30","7570","approach_avoid_sv1","""event"",""trial"",""time""
""fullscreenenter"",""1"",""3852""
""blur"",""68"",""208862""
""focus"",""68"",""211372""
","""event"",""trial"",""time""
""blur"",""68"",""208862""
","""event"",""trial"",""time""
""focus"",""68"",""211372""
","""event"",""trial"",""time""
""fullscreenenter"",""1"",""3852""
","
","","","","","","1006","images/banana8.png","","","memory_trial","1","definitely_old",""
"html-keyboard-response","105","257345","0.0-18.0-0.31","7570","approach_avoid_sv1","""event"",""trial"",""time""
""fullscreenenter"",""1"",""3852""
""blur"",""68"",""208862""
""focus"",""68"",""211372""
","""event"",""trial"",""time""
""blur"",""68"",""208862""
","""event"",""trial"",""time""
""focus"",""68"",""211372""
","""event"",""trial"",""time""
""fullscreenenter"",""1"",""3852""
","
","","","","","","null","<div style=""font-size:60px;"">+</div>","null","","fixation","","",""
"memory-trial","106","259411","0.0-18.0-1.31","7570","approach_avoid_sv1","""event"",""trial"",""time""
""fullscreenenter"",""1"",""3852""
""blur"",""68"",""208862""
""focus"",""68"",""211372""
","""event"",""trial"",""time""
""blur"",""68"",""208862""
","""event"",""trial"",""time""
""focus"",""68"",""211372""
","""event"",""trial"",""time""
""fullscreenenter"",""1"",""3852""
","
","","","","","","1061.3999996185303","images/cow3.png","","","memory_trial","1","definitely_old",""
"html-keyboard-response","107","259913","0.0-18.0-0.32","7570","approach_avoid_sv1","""event"",""trial"",""time""
""fullscreenenter"",""1"",""3852""
""blur"",""68"",""208862""
""focus"",""68"",""211372""
","""event"",""trial"",""time""
""blur"",""68"",""208862""
","""event"",""trial"",""time""
""focus"",""68"",""211372""
","""event"",""trial"",""time""
""fullscreenenter"",""1"",""3852""
","
","","","","","","null","<div style=""font-size:60px;"">+</div>","null","","fixation","","",""
"memory-trial","108","261873","0.0-18.0-1.32","7570","approach_avoid_sv1","""event"",""trial"",""time""
""fullscreenenter"",""1"",""3852""
""blur"",""68"",""208862""
""focus"",""68"",""211372""
","""event"",""trial"",""time""
""blur"",""68"",""208862""
","""event"",""trial"",""time""
""focus"",""68"",""211372""
","""event"",""trial"",""time""
""fullscreenenter"",""1"",""3852""
","
","","","","","","957.4000000953674","images/sofa3.png","","","memory_trial","1","definitely_old",""
"html-keyboard-response","109","262375","0.0-18.0-0.33","7570","approach_avoid_sv1","""event"",""trial"",""time""
""fullscreenenter"",""1"",""3852""
""blur"",""68"",""208862""
""focus"",""68"",""211372""
","""event"",""trial"",""time""
""blur"",""68"",""208862""
","""event"",""trial"",""time""
""focus"",""68"",""211372""
","""event"",""trial"",""time""
""fullscreenenter"",""1"",""3852""
","
","","","","","","null","<div style=""font-size:60px;"">+</div>","null","","fixation","","",""
"memory-trial","110","264201","0.0-18.0-1.33","7570","approach_avoid_sv1","""event"",""trial"",""time""
""fullscreenenter"",""1"",""3852""
""blur"",""68"",""208862""
""focus"",""68"",""211372""
","""event"",""trial"",""time""
""blur"",""68"",""208862""
","""event"",""trial"",""time""
""focus"",""68"",""211372""
","""event"",""trial"",""time""
""fullscreenenter"",""1"",""3852""
","
","","","","","","822.1999998092651","images/rodent6.png","","","memory_trial","1","definitely_old",""
"html-keyboard-response","111","264703","0.0-18.0-0.34","7570","approach_avoid_sv1","""event"",""trial"",""time""
""fullscreenenter"",""1"",""3852""
""blur"",""68"",""208862""
""focus"",""68"",""211372""
","""event"",""trial"",""time""
""blur"",""68"",""208862""
","""event"",""trial"",""time""
""focus"",""68"",""211372""
","""event"",""trial"",""time""
""fullscreenenter"",""1"",""3852""
","
","","","","","","null","<div style=""font-size:60px;"">+</div>","null","","fixation","","",""
"memory-trial","112","266472","0.0-18.0-1.34","7570","approach_avoid_sv1","""event"",""trial"",""time""
""fullscreenenter"",""1"",""3852""
""blur"",""68"",""208862""
""focus"",""68"",""211372""
","""event"",""trial"",""time""
""blur"",""68"",""208862""
","""event"",""trial"",""time""
""focus"",""68"",""211372""
","""event"",""trial"",""time""
""fullscreenenter"",""1"",""3852""
","
","","","","","","765.4000000953674","images/bush6.png","","","memory_trial","1","definitely_old",""
"html-keyboard-response","113","266974","0.0-18.0-0.35","7570","approach_avoid_sv1","""event"",""trial"",""time""
""fullscreenenter"",""1"",""3852""
""blur"",""68"",""208862""
""focus"",""68"",""211372""
","""event"",""trial"",""time""
""blur"",""68"",""208862""
","""event"",""trial"",""time""
""focus"",""68"",""211372""
","""event"",""trial"",""time""
""fullscreenenter"",""1"",""3852""
","
","","","","","","null","<div style=""font-size:60px;"">+</div>","null","","fixation","","",""
"memory-trial","114","268743","0.0-18.0-1.35","7570","approach_avoid_sv1","""event"",""trial"",""time""
""fullscreenenter"",""1"",""3852""
""blur"",""68"",""208862""
""focus"",""68"",""211372""
","""event"",""trial"",""time""
""blur"",""68"",""208862""
","""event"",""trial"",""time""
""focus"",""68"",""211372""
","""event"",""trial"",""time""
""fullscreenenter"",""1"",""3852""
","
","","","","","","765.6999998092651","images/horse2.png","","","memory_trial","4","definitely_new",""
"html-keyboard-response","115","269245","0.0-18.0-0.36","7570","approach_avoid_sv1","""event"",""trial"",""time""
""fullscreenenter"",""1"",""3852""
""blur"",""68"",""208862""
""focus"",""68"",""211372""
","""event"",""trial"",""time""
""blur"",""68"",""208862""
","""event"",""trial"",""time""
""focus"",""68"",""211372""
","""event"",""trial"",""time""
""fullscreenenter"",""1"",""3852""
","
","","","","","","null","<div style=""font-size:60px;"">+</div>","null","","fixation","","",""
"memory-trial","116","270974","0.0-18.0-1.36","7570","approach_avoid_sv1","""event"",""trial"",""time""
""fullscreenenter"",""1"",""3852""
""blur"",""68"",""208862""
""focus"",""68"",""211372""
","""event"",""trial"",""time""
""blur"",""68"",""208862""
","""event"",""trial"",""time""
""focus"",""68"",""211372""
","""event"",""trial"",""time""
""fullscreenenter"",""1"",""3852""
","
","","","","","","726.5999999046326","images/apple1.png","","","memory_trial","4","definitely_new",""
"html-keyboard-response","117","271475","0.0-18.0-0.37","7570","approach_avoid_sv1","""event"",""trial"",""time""
""fullscreenenter"",""1"",""3852""
""blur"",""68"",""208862""
""focus"",""68"",""211372""
","""event"",""trial"",""time""
""blur"",""68"",""208862""
","""event"",""trial"",""time""
""focus"",""68"",""211372""
","""event"",""trial"",""time""
""fullscreenenter"",""1"",""3852""
","
","","","","","","null","<div style=""font-size:60px;"">+</div>","null","","fixation","","",""
"memory-trial","118","273611","0.0-18.0-1.37","7570","approach_avoid_sv1","""event"",""trial"",""time""
""fullscreenenter"",""1"",""3852""
""blur"",""68"",""208862""
""focus"",""68"",""211372""
","""event"",""trial"",""time""
""blur"",""68"",""208862""
","""event"",""trial"",""time""
""focus"",""68"",""211372""
","""event"",""trial"",""time""
""fullscreenenter"",""1"",""3852""
","
","","","","","","1132.9000000953674","images/banana6.png","","","memory_trial","1","definitely_old",""
"html-keyboard-response","119","274113","0.0-18.0-0.38","7570","approach_avoid_sv1","""event"",""trial"",""time""
""fullscreenenter"",""1"",""3852""
""blur"",""68"",""208862""
""focus"",""68"",""211372""
","""event"",""trial"",""time""
""blur"",""68"",""208862""
","""event"",""trial"",""time""
""focus"",""68"",""211372""
","""event"",""trial"",""time""
""fullscreenenter"",""1"",""3852""
","
","","","","","","null","<div style=""font-size:60px;"">+</div>","null","","fixation","","",""
"memory-trial","120","275963","0.0-18.0-1.38","7570","approach_avoid_sv1","""event"",""trial"",""time""
""fullscreenenter"",""1"",""3852""
""blur"",""68"",""208862""
""focus"",""68"",""211372""
","""event"",""trial"",""time""
""blur"",""68"",""208862""
","""event"",""trial"",""time""
""focus"",""68"",""211372""
","""event"",""trial"",""time""
""fullscreenenter"",""1"",""3852""
","
","","","","","","847.3000001907349","images/apple4.png","","","memory_trial","4","definitely_new",""
"html-keyboard-response","121","276465","0.0-18.0-0.39","7570","approach_avoid_sv1","""event"",""trial"",""time""
""fullscreenenter"",""1"",""3852""
""blur"",""68"",""208862""
""focus"",""68"",""211372""
","""event"",""trial"",""time""
""blur"",""68"",""208862""
","""event"",""trial"",""time""
""focus"",""68"",""211372""
","""event"",""trial"",""time""
""fullscreenenter"",""1"",""3852""
","
","","","","","","null","<div style=""font-size:60px;"">+</div>","null","","fixation","","",""
"memory-trial","122","278079","0.0-18.0-1.39","7570","approach_avoid_sv1","""event"",""trial"",""time""
""fullscreenenter"",""1"",""3852""
""blur"",""68"",""208862""
""focus"",""68"",""211372""
","""event"",""trial"",""time""
""blur"",""68"",""208862""
","""event"",""trial"",""time""
""focus"",""68"",""211372""
","""event"",""trial"",""time""
""fullscreenenter"",""1"",""3852""
","
","","","","","","611.2999997138977","images/rabbit1.png","","","memory_trial","1","definitely_old",""
"html-keyboard-response","123","278582","0.0-18.0-0.40","7570","approach_avoid_sv1","""event"",""trial"",""time""
""fullscreenenter"",""1"",""3852""
""blur"",""68"",""208862""
""focus"",""68"",""211372""
","""event"",""trial"",""time""
""blur"",""68"",""208862""
","""event"",""trial"",""time""
""focus"",""68"",""211372""
","""event"",""trial"",""time""
""fullscreenenter"",""1"",""3852""
","
","","","","","","null","<div style=""font-size:60px;"">+</div>","null","","fixation","","",""
"memory-trial","124","280294","0.0-18.0-1.40","7570","approach_avoid_sv1","""event"",""trial"",""time""
""fullscreenenter"",""1"",""3852""
""blur"",""68"",""208862""
""focus"",""68"",""211372""
","""event"",""trial"",""time""
""blur"",""68"",""208862""
","""event"",""trial"",""time""
""focus"",""68"",""211372""
","""event"",""trial"",""time""
""fullscreenenter"",""1"",""3852""
","
","","","","","","694.0999999046326","images/straw3.png","","","memory_trial","4","definitely_new",""
"html-keyboard-response","125","280796","0.0-18.0-0.41","7570","approach_avoid_sv1","""event"",""trial"",""time""
""fullscreenenter"",""1"",""3852""
""blur"",""68"",""208862""
""focus"",""68"",""211372""
","""event"",""trial"",""time""
""blur"",""68"",""208862""
","""event"",""trial"",""time""
""focus"",""68"",""211372""
","""event"",""trial"",""time""
""fullscreenenter"",""1"",""3852""
","
","","","","","","null","<div style=""font-size:60px;"">+</div>","null","","fixation","","",""
"memory-trial","126","282739","0.0-18.0-1.41","7570","approach_avoid_sv1","""event"",""trial"",""time""
""fullscreenenter"",""1"",""3852""
""blur"",""68"",""208862""
""focus"",""68"",""211372""
","""event"",""trial"",""time""
""blur"",""68"",""208862""
","""event"",""trial"",""time""
""focus"",""68"",""211372""
","""event"",""trial"",""time""
""fullscreenenter"",""1"",""3852""
","
","","","","","","939.5","images/apple6.png","","","memory_trial","4","definitely_new",""
"html-button-response","127","285557","0.0-18.0-2.41-0.41","7570","approach_avoid_sv1","""event"",""trial"",""time""
""fullscreenenter"",""1"",""3852""
""blur"",""68"",""208862""
""focus"",""68"",""211372""
","""event"",""trial"",""time""
""blur"",""68"",""208862""
","""event"",""trial"",""time""
""focus"",""68"",""211372""
","""event"",""trial"",""time""
""fullscreenenter"",""1"",""3852""
","
","","","","","","2817.9000000953674","<p> Take a break! </p><p> Click the button to continue. </p>","0","","break","","",""
"html-keyboard-response","128","286059","0.0-18.0-0.42","7570","approach_avoid_sv1","""event"",""trial"",""time""
""fullscreenenter"",""1"",""3852""
""blur"",""68"",""208862""
""focus"",""68"",""211372""
","""event"",""trial"",""time""
""blur"",""68"",""208862""
","""event"",""trial"",""time""
""focus"",""68"",""211372""
","""event"",""trial"",""time""
""fullscreenenter"",""1"",""3852""
","
","","","","","","null","<div style=""font-size:60px;"">+</div>","null","","fixation","","",""
"memory-trial","129","288171","0.0-18.0-1.42","7570","approach_avoid_sv1","""event"",""trial"",""time""
""fullscreenenter"",""1"",""3852""
""blur"",""68"",""208862""
""focus"",""68"",""211372""
","""event"",""trial"",""time""
""blur"",""68"",""208862""
","""event"",""trial"",""time""
""focus"",""68"",""211372""
","""event"",""trial"",""time""
""fullscreenenter"",""1"",""3852""
","
","","","","","","1109.0999999046326","images/horse8.png","","","memory_trial","4","definitely_new",""
"html-keyboard-response","130","288673","0.0-18.0-0.43","7570","approach_avoid_sv1","""event"",""trial"",""time""
""fullscreenenter"",""1"",""3852""
""blur"",""68"",""208862""
""focus"",""68"",""211372""
","""event"",""trial"",""time""
""blur"",""68"",""208862""
","""event"",""trial"",""time""
""focus"",""68"",""211372""
","""event"",""trial"",""time""
""fullscreenenter"",""1"",""3852""
","
","","","","","","null","<div style=""font-size:60px;"">+</div>","null","","fixation","","",""
"memory-trial","131","290426","0.0-18.0-1.43","7570","approach_avoid_sv1","""event"",""trial"",""time""
""fullscreenenter"",""1"",""3852""
""blur"",""68"",""208862""
""focus"",""68"",""211372""
","""event"",""trial"",""time""
""blur"",""68"",""208862""
","""event"",""trial"",""time""
""focus"",""68"",""211372""
","""event"",""trial"",""time""
""fullscreenenter"",""1"",""3852""
","
","","","","","","751","images/banana4.png","","","memory_trial","1","definitely_old",""
"html-keyboard-response","132","290928","0.0-18.0-0.44","7570","approach_avoid_sv1","""event"",""trial"",""time""
""fullscreenenter"",""1"",""3852""
""blur"",""68"",""208862""
""focus"",""68"",""211372""
","""event"",""trial"",""time""
""blur"",""68"",""208862""
","""event"",""trial"",""time""
""focus"",""68"",""211372""
","""event"",""trial"",""time""
""fullscreenenter"",""1"",""3852""
","
","","","","","","null","<div style=""font-size:60px;"">+</div>","null","","fixation","","",""
"memory-trial","133","293113","0.0-18.0-1.44","7570","approach_avoid_sv1","""event"",""trial"",""time""
""fullscreenenter"",""1"",""3852""
""blur"",""68"",""208862""
""focus"",""68"",""211372""
","""event"",""trial"",""time""
""blur"",""68"",""208862""
","""event"",""trial"",""time""
""focus"",""68"",""211372""
","""event"",""trial"",""time""
""fullscreenenter"",""1"",""3852""
","
","","","","","","1178.8999996185303","images/truck7.png","","","memory_trial","4","definitely_new",""
"html-keyboard-response","134","293615","0.0-18.0-0.45","7570","approach_avoid_sv1","""event"",""trial"",""time""
""fullscreenenter"",""1"",""3852""
""blur"",""68"",""208862""
""focus"",""68"",""211372""
","""event"",""trial"",""time""
""blur"",""68"",""208862""
","""event"",""trial"",""time""
""focus"",""68"",""211372""
","""event"",""trial"",""time""
""fullscreenenter"",""1"",""3852""
","
","","","","","","null","<div style=""font-size:60px;"">+</div>","null","","fixation","","",""
"memory-trial","135","295705","0.0-18.0-1.45","7570","approach_avoid_sv1","""event"",""trial"",""time""
""fullscreenenter"",""1"",""3852""
""blur"",""68"",""208862""
""focus"",""68"",""211372""
","""event"",""trial"",""time""
""blur"",""68"",""208862""
","""event"",""trial"",""time""
""focus"",""68"",""211372""
","""event"",""trial"",""time""
""fullscreenenter"",""1"",""3852""
","
","","","","","","1087.4000000953674","images/cow8.png","","","memory_trial","1","definitely_old",""
"html-keyboard-response","136","296206","0.0-18.0-0.46","7570","approach_avoid_sv1","""event"",""trial"",""time""
""fullscreenenter"",""1"",""3852""
""blur"",""68"",""208862""
""focus"",""68"",""211372""
","""event"",""trial"",""time""
""blur"",""68"",""208862""
","""event"",""trial"",""time""
""focus"",""68"",""211372""
","""event"",""trial"",""time""
""fullscreenenter"",""1"",""3852""
","
","","","","","","null","<div style=""font-size:60px;"">+</div>","null","","fixation","","",""
"memory-trial","137","298092","0.0-18.0-1.46","7570","approach_avoid_sv1","""event"",""trial"",""time""
""fullscreenenter"",""1"",""3852""
""blur"",""68"",""208862""
""focus"",""68"",""211372""
","""event"",""trial"",""time""
""blur"",""68"",""208862""
","""event"",""trial"",""time""
""focus"",""68"",""211372""
","""event"",""trial"",""time""
""fullscreenenter"",""1"",""3852""
","
","","","","","","884.5","images/cat1.png","","","memory_trial","1","definitely_old",""
"html-keyboard-response","138","298595","0.0-18.0-0.47","7570","approach_avoid_sv1","""event"",""trial"",""time""
""fullscreenenter"",""1"",""3852""
""blur"",""68"",""208862""
""focus"",""68"",""211372""
","""event"",""trial"",""time""
""blur"",""68"",""208862""
","""event"",""trial"",""time""
""focus"",""68"",""211372""
","""event"",""trial"",""time""
""fullscreenenter"",""1"",""3852""
","
","","","","","","null","<div style=""font-size:60px;"">+</div>","null","","fixation","","",""
"memory-trial","139","300331","0.0-18.0-1.47","7570","approach_avoid_sv1","""event"",""trial"",""time""
""fullscreenenter"",""1"",""3852""
""blur"",""68"",""208862""
""focus"",""68"",""211372""
","""event"",""trial"",""time""
""blur"",""68"",""208862""
","""event"",""trial"",""time""
""focus"",""68"",""211372""
","""event"",""trial"",""time""
""fullscreenenter"",""1"",""3852""
","
","","","","","","732.3000001907349","images/cat7.png","","","memory_trial","1","definitely_old",""
"html-keyboard-response","140","300832","0.0-18.0-0.48","7570","approach_avoid_sv1","""event"",""trial"",""time""
""fullscreenenter"",""1"",""3852""
""blur"",""68"",""208862""
""focus"",""68"",""211372""
","""event"",""trial"",""time""
""blur"",""68"",""208862""
","""event"",""trial"",""time""
""focus"",""68"",""211372""
","""event"",""trial"",""time""
""fullscreenenter"",""1"",""3852""
","
","","","","","","null","<div style=""font-size:60px;"">+</div>","null","","fixation","","",""
"memory-trial","141","302605","0.0-18.0-1.48","7570","approach_avoid_sv1","""event"",""trial"",""time""
""fullscreenenter"",""1"",""3852""
""blur"",""68"",""208862""
""focus"",""68"",""211372""
","""event"",""trial"",""time""
""blur"",""68"",""208862""
","""event"",""trial"",""time""
""focus"",""68"",""211372""
","""event"",""trial"",""time""
""fullscreenenter"",""1"",""3852""
","
","","","","","","769","images/sheep3.png","","","memory_trial","4","definitely_new",""
"html-keyboard-response","142","303105","0.0-18.0-0.49","7570","approach_avoid_sv1","""event"",""trial"",""time""
""fullscreenenter"",""1"",""3852""
""blur"",""68"",""208862""
""focus"",""68"",""211372""
","""event"",""trial"",""time""
""blur"",""68"",""208862""
","""event"",""trial"",""time""
""focus"",""68"",""211372""
","""event"",""trial"",""time""
""fullscreenenter"",""1"",""3852""
","
","","","","","","null","<div style=""font-size:60px;"">+</div>","null","","fixation","","",""
"memory-trial","143","305035","0.0-18.0-1.49","7570","approach_avoid_sv1","""event"",""trial"",""time""
""fullscreenenter"",""1"",""3852""
""blur"",""68"",""208862""
""focus"",""68"",""211372""
","""event"",""trial"",""time""
""blur"",""68"",""208862""
","""event"",""trial"",""time""
""focus"",""68"",""211372""
","""event"",""trial"",""time""
""fullscreenenter"",""1"",""3852""
","
","","","","","","926.8999996185303","images/horse3.png","","","memory_trial","1","definitely_old",""
"html-keyboard-response","144","305536","0.0-18.0-0.50","7570","approach_avoid_sv1","""event"",""trial"",""time""
""fullscreenenter"",""1"",""3852""
""blur"",""68"",""208862""
""focus"",""68"",""211372""
","""event"",""trial"",""time""
""blur"",""68"",""208862""
","""event"",""trial"",""time""
""focus"",""68"",""211372""
","""event"",""trial"",""time""
""fullscreenenter"",""1"",""3852""
","
","","","","","","null","<div style=""font-size:60px;"">+</div>","null","","fixation","","",""
"memory-trial","145","307284","0.0-18.0-1.50","7570","approach_avoid_sv1","""event"",""trial"",""time""
""fullscreenenter"",""1"",""3852""
""blur"",""68"",""208862""
""focus"",""68"",""211372""
","""event"",""trial"",""time""
""blur"",""68"",""208862""
","""event"",""trial"",""time""
""focus"",""68"",""211372""
","""event"",""trial"",""time""
""fullscreenenter"",""1"",""3852""
","
","","","","","","743.9000000953674","images/rabbit8.png","","","memory_trial","4","definitely_new",""
"html-keyboard-response","146","307786","0.0-18.0-0.51","7570","approach_avoid_sv1","""event"",""trial"",""time""
""fullscreenenter"",""1"",""3852""
""blur"",""68"",""208862""
""focus"",""68"",""211372""
","""event"",""trial"",""time""
""blur"",""68"",""208862""
","""event"",""trial"",""time""
""focus"",""68"",""211372""
","""event"",""trial"",""time""
""fullscreenenter"",""1"",""3852""
","
","","","","","","null","<div style=""font-size:60px;"">+</div>","null","","fixation","","",""
"memory-trial","147","309332","0.0-18.0-1.51","7570","approach_avoid_sv1","""event"",""trial"",""time""
""fullscreenenter"",""1"",""3852""
""blur"",""68"",""208862""
""focus"",""68"",""211372""
","""event"",""trial"",""time""
""blur"",""68"",""208862""
","""event"",""trial"",""time""
""focus"",""68"",""211372""
","""event"",""trial"",""time""
""fullscreenenter"",""1"",""3852""
","
","","","","","","544.0999999046326","images/rabbit3.png","","","memory_trial","4","definitely_new",""
"html-keyboard-response","148","309834","0.0-18.0-0.52","7570","approach_avoid_sv1","""event"",""trial"",""time""
""fullscreenenter"",""1"",""3852""
""blur"",""68"",""208862""
""focus"",""68"",""211372""
","""event"",""trial"",""time""
""blur"",""68"",""208862""
","""event"",""trial"",""time""
""focus"",""68"",""211372""
","""event"",""trial"",""time""
""fullscreenenter"",""1"",""3852""
","
","","","","","","null","<div style=""font-size:60px;"">+</div>","null","","fixation","","",""
"memory-trial","149","311722","0.0-18.0-1.52","7570","approach_avoid_sv1","""event"",""trial"",""time""
""fullscreenenter"",""1"",""3852""
""blur"",""68"",""208862""
""focus"",""68"",""211372""
","""event"",""trial"",""time""
""blur"",""68"",""208862""
","""event"",""trial"",""time""
""focus"",""68"",""211372""
","""event"",""trial"",""time""
""fullscreenenter"",""1"",""3852""
","
","","","","","","884.7999997138977","images/truck6.png","","","memory_trial","4","definitely_new",""
"html-keyboard-response","150","312234","0.0-18.0-0.53","7570","approach_avoid_sv1","""event"",""trial"",""time""
""fullscreenenter"",""1"",""3852""
""blur"",""68"",""208862""
""focus"",""68"",""211372""
","""event"",""trial"",""time""
""blur"",""68"",""208862""
","""event"",""trial"",""time""
""focus"",""68"",""211372""
","""event"",""trial"",""time""
""fullscreenenter"",""1"",""3852""
","
","","","","","","null","<div style=""font-size:60px;"">+</div>","null","","fixation","","",""
"memory-trial","151","314311","0.0-18.0-1.53","7570","approach_avoid_sv1","""event"",""trial"",""time""
""fullscreenenter"",""1"",""3852""
""blur"",""68"",""208862""
""focus"",""68"",""211372""
","""event"",""trial"",""time""
""blur"",""68"",""208862""
","""event"",""trial"",""time""
""focus"",""68"",""211372""
","""event"",""trial"",""time""
""fullscreenenter"",""1"",""3852""
","
","","","","","","1073.2999997138977","images/goat2.png","","","memory_trial","4","definitely_new",""
"html-keyboard-response","152","314812","0.0-18.0-0.54","7570","approach_avoid_sv1","""event"",""trial"",""time""
""fullscreenenter"",""1"",""3852""
""blur"",""68"",""208862""
""focus"",""68"",""211372""
","""event"",""trial"",""time""
""blur"",""68"",""208862""
","""event"",""trial"",""time""
""focus"",""68"",""211372""
","""event"",""trial"",""time""
""fullscreenenter"",""1"",""3852""
","
","","","","","","null","<div style=""font-size:60px;"">+</div>","null","","fixation","","",""
"memory-trial","153","316568","0.0-18.0-1.54","7570","approach_avoid_sv1","""event"",""trial"",""time""
""fullscreenenter"",""1"",""3852""
""blur"",""68"",""208862""
""focus"",""68"",""211372""
","""event"",""trial"",""time""
""blur"",""68"",""208862""
","""event"",""trial"",""time""
""focus"",""68"",""211372""
","""event"",""trial"",""time""
""fullscreenenter"",""1"",""3852""
","
","","","","","","753","images/sheep5.png","","","memory_trial","1","definitely_old",""
"html-keyboard-response","154","317080","0.0-18.0-0.55","7570","approach_avoid_sv1","""event"",""trial"",""time""
""fullscreenenter"",""1"",""3852""
""blur"",""68"",""208862""
""focus"",""68"",""211372""
","""event"",""trial"",""time""
""blur"",""68"",""208862""
","""event"",""trial"",""time""
""focus"",""68"",""211372""
","""event"",""trial"",""time""
""fullscreenenter"",""1"",""3852""
","
","","","","","","null","<div style=""font-size:60px;"">+</div>","null","","fixation","","",""
"memory-trial","155","319014","0.0-18.0-1.55","7570","approach_avoid_sv1","""event"",""trial"",""time""
""fullscreenenter"",""1"",""3852""
""blur"",""68"",""208862""
""focus"",""68"",""211372""
","""event"",""trial"",""time""
""blur"",""68"",""208862""
","""event"",""trial"",""time""
""focus"",""68"",""211372""
","""event"",""trial"",""time""
""fullscreenenter"",""1"",""3852""
","
","","","","","","930.2000002861023","images/train2.png","","","memory_trial","4","definitely_new",""
"html-keyboard-response","156","319516","0.0-18.0-0.56","7570","approach_avoid_sv1","""event"",""trial"",""time""
""fullscreenenter"",""1"",""3852""
""blur"",""68"",""208862""
""focus"",""68"",""211372""
","""event"",""trial"",""time""
""blur"",""68"",""208862""
","""event"",""trial"",""time""
""focus"",""68"",""211372""
","""event"",""trial"",""time""
""fullscreenenter"",""1"",""3852""
","
","","","","","","null","<div style=""font-size:60px;"">+</div>","null","","fixation","","",""
"memory-trial","157","321433","0.0-18.0-1.56","7570","approach_avoid_sv1","""event"",""trial"",""time""
""fullscreenenter"",""1"",""3852""
""blur"",""68"",""208862""
""focus"",""68"",""211372""
","""event"",""trial"",""time""
""blur"",""68"",""208862""
","""event"",""trial"",""time""
""focus"",""68"",""211372""
","""event"",""trial"",""time""
""fullscreenenter"",""1"",""3852""
","
","","","","","","913.1999998092651","images/bed3.png","","","memory_trial","1","definitely_old",""
"html-keyboard-response","158","321935","0.0-18.0-0.57","7570","approach_avoid_sv1","""event"",""trial"",""time""
""fullscreenenter"",""1"",""3852""
""blur"",""68"",""208862""
""focus"",""68"",""211372""
","""event"",""trial"",""time""
""blur"",""68"",""208862""
","""event"",""trial"",""time""
""focus"",""68"",""211372""
","""event"",""trial"",""time""
""fullscreenenter"",""1"",""3852""
","
","","","","","","null","<div style=""font-size:60px;"">+</div>","null","","fixation","","",""
"memory-trial","159","323621","0.0-18.0-1.57","7570","approach_avoid_sv1","""event"",""trial"",""time""
""fullscreenenter"",""1"",""3852""
""blur"",""68"",""208862""
""focus"",""68"",""211372""
","""event"",""trial"",""time""
""blur"",""68"",""208862""
","""event"",""trial"",""time""
""focus"",""68"",""211372""
","""event"",""trial"",""time""
""fullscreenenter"",""1"",""3852""
","
","","","","","","682.5","images/plane7.png","","","memory_trial","1","definitely_old",""
"html-keyboard-response","160","324123","0.0-18.0-0.58","7570","approach_avoid_sv1","""event"",""trial"",""time""
""fullscreenenter"",""1"",""3852""
""blur"",""68"",""208862""
""focus"",""68"",""211372""
","""event"",""trial"",""time""
""blur"",""68"",""208862""
","""event"",""trial"",""time""
""focus"",""68"",""211372""
","""event"",""trial"",""time""
""fullscreenenter"",""1"",""3852""
","
","","","","","","null","<div style=""font-size:60px;"">+</div>","null","","fixation","","",""
"memory-trial","161","326057","0.0-18.0-1.58","7570","approach_avoid_sv1","""event"",""trial"",""time""
""fullscreenenter"",""1"",""3852""
""blur"",""68"",""208862""
""focus"",""68"",""211372""
","""event"",""trial"",""time""
""blur"",""68"",""208862""
","""event"",""trial"",""time""
""focus"",""68"",""211372""
","""event"",""trial"",""time""
""fullscreenenter"",""1"",""3852""
","
","","","","","","931.8000001907349","images/rodent2.png","","","memory_trial","1","definitely_old",""
"html-keyboard-response","162","326558","0.0-18.0-0.59","7570","approach_avoid_sv1","""event"",""trial"",""time""
""fullscreenenter"",""1"",""3852""
""blur"",""68"",""208862""
""focus"",""68"",""211372""
","""event"",""trial"",""time""
""blur"",""68"",""208862""
","""event"",""trial"",""time""
""focus"",""68"",""211372""
","""event"",""trial"",""time""
""fullscreenenter"",""1"",""3852""
","
","","","","","","null","<div style=""font-size:60px;"">+</div>","null","","fixation","","",""
"memory-trial","163","328398","0.0-18.0-1.59","7570","approach_avoid_sv1","""event"",""trial"",""time""
""fullscreenenter"",""1"",""3852""
""blur"",""68"",""208862""
""focus"",""68"",""211372""
","""event"",""trial"",""time""
""blur"",""68"",""208862""
","""event"",""trial"",""time""
""focus"",""68"",""211372""
","""event"",""trial"",""time""
""fullscreenenter"",""1"",""3852""
","
","","","","","","837.9000000953674","images/rodent3.png","","","memory_trial","4","definitely_new",""
"html-keyboard-response","164","328899","0.0-18.0-0.60","7570","approach_avoid_sv1","""event"",""trial"",""time""
""fullscreenenter"",""1"",""3852""
""blur"",""68"",""208862""
""focus"",""68"",""211372""
","""event"",""trial"",""time""
""blur"",""68"",""208862""
","""event"",""trial"",""time""
""focus"",""68"",""211372""
","""event"",""trial"",""time""
""fullscreenenter"",""1"",""3852""
","
","","","","","","null","<div style=""font-size:60px;"">+</div>","null","","fixation","","",""
"memory-trial","165","330803","0.0-18.0-1.60","7570","approach_avoid_sv1","""event"",""trial"",""time""
""fullscreenenter"",""1"",""3852""
""blur"",""68"",""208862""
""focus"",""68"",""211372""
","""event"",""trial"",""time""
""blur"",""68"",""208862""
","""event"",""trial"",""time""
""focus"",""68"",""211372""
","""event"",""trial"",""time""
""fullscreenenter"",""1"",""3852""
","
","","","","","","888.5999999046326","images/cat8.png","","","memory_trial","4","definitely_new",""
"html-keyboard-response","166","331305","0.0-18.0-0.61","7570","approach_avoid_sv1","""event"",""trial"",""time""
""fullscreenenter"",""1"",""3852""
""blur"",""68"",""208862""
""focus"",""68"",""211372""
","""event"",""trial"",""time""
""blur"",""68"",""208862""
","""event"",""trial"",""time""
""focus"",""68"",""211372""
","""event"",""trial"",""time""
""fullscreenenter"",""1"",""3852""
","
","","","","","","null","<div style=""font-size:60px;"">+</div>","null","","fixation","","",""
"memory-trial","167","333015","0.0-18.0-1.61","7570","approach_avoid_sv1","""event"",""trial"",""time""
""fullscreenenter"",""1"",""3852""
""blur"",""68"",""208862""
""focus"",""68"",""211372""
","""event"",""trial"",""time""
""blur"",""68"",""208862""
","""event"",""trial"",""time""
""focus"",""68"",""211372""
","""event"",""trial"",""time""
""fullscreenenter"",""1"",""3852""
","
","","","","","","707","images/goat8.png","","","memory_trial","1","definitely_old",""
"html-keyboard-response","168","333517","0.0-18.0-0.62","7570","approach_avoid_sv1","""event"",""trial"",""time""
""fullscreenenter"",""1"",""3852""
""blur"",""68"",""208862""
""focus"",""68"",""211372""
","""event"",""trial"",""time""
""blur"",""68"",""208862""
","""event"",""trial"",""time""
""focus"",""68"",""211372""
","""event"",""trial"",""time""
""fullscreenenter"",""1"",""3852""
","
","","","","","","null","<div style=""font-size:60px;"">+</div>","null","","fixation","","",""
"memory-trial","169","335317","0.0-18.0-1.62","7570","approach_avoid_sv1","""event"",""trial"",""time""
""fullscreenenter"",""1"",""3852""
""blur"",""68"",""208862""
""focus"",""68"",""211372""
","""event"",""trial"",""time""
""blur"",""68"",""208862""
","""event"",""trial"",""time""
""focus"",""68"",""211372""
","""event"",""trial"",""time""
""fullscreenenter"",""1"",""3852""
","
","","","","","","797.0999999046326","images/cat2.png","","","memory_trial","1","definitely_old",""
"html-keyboard-response","170","335818","0.0-18.0-0.63","7570","approach_avoid_sv1","""event"",""trial"",""time""
""fullscreenenter"",""1"",""3852""
""blur"",""68"",""208862""
""focus"",""68"",""211372""
","""event"",""trial"",""time""
""blur"",""68"",""208862""
","""event"",""trial"",""time""
""focus"",""68"",""211372""
","""event"",""trial"",""time""
""fullscreenenter"",""1"",""3852""
","
","","","","","","null","<div style=""font-size:60px;"">+</div>","null","","fixation","","",""
"memory-trial","171","337673","0.0-18.0-1.63","7570","approach_avoid_sv1","""event"",""trial"",""time""
""fullscreenenter"",""1"",""3852""
""blur"",""68"",""208862""
""focus"",""68"",""211372""
","""event"",""trial"",""time""
""blur"",""68"",""208862""
","""event"",""trial"",""time""
""focus"",""68"",""211372""
","""event"",""trial"",""time""
""fullscreenenter"",""1"",""3852""
","
","","","","","","851.7000002861023","images/boat1.png","","","memory_trial","1","definitely_old",""
"html-keyboard-response","172","338175","0.0-18.0-0.64","7570","approach_avoid_sv1","""event"",""trial"",""time""
""fullscreenenter"",""1"",""3852""
""blur"",""68"",""208862""
""focus"",""68"",""211372""
","""event"",""trial"",""time""
""blur"",""68"",""208862""
","""event"",""trial"",""time""
""focus"",""68"",""211372""
","""event"",""trial"",""time""
""fullscreenenter"",""1"",""3852""
","
","","","","","","null","<div style=""font-size:60px;"">+</div>","null","","fixation","","",""
"memory-trial","173","339890","0.0-18.0-1.64","7570","approach_avoid_sv1","""event"",""trial"",""time""
""fullscreenenter"",""1"",""3852""
""blur"",""68"",""208862""
""focus"",""68"",""211372""
","""event"",""trial"",""time""
""blur"",""68"",""208862""
","""event"",""trial"",""time""
""focus"",""68"",""211372""
","""event"",""trial"",""time""
""fullscreenenter"",""1"",""3852""
","
","","","","","","711.5","images/bed5.png","","","memory_trial","1","definitely_old",""
"html-keyboard-response","174","340392","0.0-18.0-0.65","7570","approach_avoid_sv1","""event"",""trial"",""time""
""fullscreenenter"",""1"",""3852""
""blur"",""68"",""208862""
""focus"",""68"",""211372""
","""event"",""trial"",""time""
""blur"",""68"",""208862""
","""event"",""trial"",""time""
""focus"",""68"",""211372""
","""event"",""trial"",""time""
""fullscreenenter"",""1"",""3852""
","
","","","","","","null","<div style=""font-size:60px;"">+</div>","null","","fixation","","",""
"memory-trial","175","342350","0.0-18.0-1.65","7570","approach_avoid_sv1","""event"",""trial"",""time""
""fullscreenenter"",""1"",""3852""
""blur"",""68"",""208862""
""focus"",""68"",""211372""
","""event"",""trial"",""time""
""blur"",""68"",""208862""
","""event"",""trial"",""time""
""focus"",""68"",""211372""
","""event"",""trial"",""time""
""fullscreenenter"",""1"",""3852""
","
","","","","","","953.9000000953674","images/plane6.png","","","memory_trial","4","definitely_new",""
"html-keyboard-response","176","342852","0.0-18.0-0.66","7570","approach_avoid_sv1","""event"",""trial"",""time""
""fullscreenenter"",""1"",""3852""
""blur"",""68"",""208862""
""focus"",""68"",""211372""
","""event"",""trial"",""time""
""blur"",""68"",""208862""
","""event"",""trial"",""time""
""focus"",""68"",""211372""
","""event"",""trial"",""time""
""fullscreenenter"",""1"",""3852""
","
","","","","","","null","<div style=""font-size:60px;"">+</div>","null","","fixation","","",""
"memory-trial","177","344811","0.0-18.0-1.66","7570","approach_avoid_sv1","""event"",""trial"",""time""
""fullscreenenter"",""1"",""3852""
""blur"",""68"",""208862""
""focus"",""68"",""211372""
","""event"",""trial"",""time""
""blur"",""68"",""208862""
","""event"",""trial"",""time""
""focus"",""68"",""211372""
","""event"",""trial"",""time""
""fullscreenenter"",""1"",""3852""
","
","","","","","","956.4000000953674","images/horse5.png","","","memory_trial","1","definitely_old",""
"html-keyboard-response","178","345312","0.0-18.0-0.67","7570","approach_avoid_sv1","""event"",""trial"",""time""
""fullscreenenter"",""1"",""3852""
""blur"",""68"",""208862""
""focus"",""68"",""211372""
","""event"",""trial"",""time""
""blur"",""68"",""208862""
","""event"",""trial"",""time""
""focus"",""68"",""211372""
","""event"",""trial"",""time""
""fullscreenenter"",""1"",""3852""
","
","","","","","","null","<div style=""font-size:60px;"">+</div>","null","","fixation","","",""
"memory-trial","179","347102","0.0-18.0-1.67","7570","approach_avoid_sv1","""event"",""trial"",""time""
""fullscreenenter"",""1"",""3852""
""blur"",""68"",""208862""
""focus"",""68"",""211372""
","""event"",""trial"",""time""
""blur"",""68"",""208862""
","""event"",""trial"",""time""
""focus"",""68"",""211372""
","""event"",""trial"",""time""
""fullscreenenter"",""1"",""3852""
","
","","","","","","786.7999997138977","images/sofa2.png","","","memory_trial","1","definitely_old",""
"html-keyboard-response","180","347604","0.0-18.0-0.68","7570","approach_avoid_sv1","""event"",""trial"",""time""
""fullscreenenter"",""1"",""3852""
""blur"",""68"",""208862""
""focus"",""68"",""211372""
","""event"",""trial"",""time""
""blur"",""68"",""208862""
","""event"",""trial"",""time""
""focus"",""68"",""211372""
","""event"",""trial"",""time""
""fullscreenenter"",""1"",""3852""
","
","","","","","","null","<div style=""font-size:60px;"">+</div>","null","","fixation","","",""
"memory-trial","181","349603","0.0-18.0-1.68","7570","approach_avoid_sv1","""event"",""trial"",""time""
""fullscreenenter"",""1"",""3852""
""blur"",""68"",""208862""
""focus"",""68"",""211372""
","""event"",""trial"",""time""
""blur"",""68"",""208862""
","""event"",""trial"",""time""
""focus"",""68"",""211372""
","""event"",""trial"",""time""
""fullscreenenter"",""1"",""3852""
","
","","","","","","996.3000001907349","images/table3.png","","","memory_trial","4","definitely_new",""
"html-keyboard-response","182","350104","0.0-18.0-0.69","7570","approach_avoid_sv1","""event"",""trial"",""time""
""fullscreenenter"",""1"",""3852""
""blur"",""68"",""208862""
""focus"",""68"",""211372""
","""event"",""trial"",""time""
""blur"",""68"",""208862""
","""event"",""trial"",""time""
""focus"",""68"",""211372""
","""event"",""trial"",""time""
""fullscreenenter"",""1"",""3852""
","
","","","","","","null","<div style=""font-size:60px;"">+</div>","null","","fixation","","",""
"memory-trial","183","351830","0.0-18.0-1.69","7570","approach_avoid_sv1","""event"",""trial"",""time""
""fullscreenenter"",""1"",""3852""
""blur"",""68"",""208862""
""focus"",""68"",""211372""
","""event"",""trial"",""time""
""blur"",""68"",""208862""
","""event"",""trial"",""time""
""focus"",""68"",""211372""
","""event"",""trial"",""time""
""fullscreenenter"",""1"",""3852""
","
","","","","","","721.8000001907349","images/boat5.png","","","memory_trial","1","definitely_old",""
"html-keyboard-response","184","352332","0.0-18.0-0.70","7570","approach_avoid_sv1","""event"",""trial"",""time""
""fullscreenenter"",""1"",""3852""
""blur"",""68"",""208862""
""focus"",""68"",""211372""
","""event"",""trial"",""time""
""blur"",""68"",""208862""
","""event"",""trial"",""time""
""focus"",""68"",""211372""
","""event"",""trial"",""time""
""fullscreenenter"",""1"",""3852""
","
","","","","","","null","<div style=""font-size:60px;"">+</div>","null","","fixation","","",""
"memory-trial","185","355288","0.0-18.0-1.70","7570","approach_avoid_sv1","""event"",""trial"",""time""
""fullscreenenter"",""1"",""3852""
""blur"",""68"",""208862""
""focus"",""68"",""211372""
","""event"",""trial"",""time""
""blur"",""68"",""208862""
","""event"",""trial"",""time""
""focus"",""68"",""211372""
","""event"",""trial"",""time""
""fullscreenenter"",""1"",""3852""
","
","","","","","","1953.9000000953674","images/boat3.png","","","memory_trial","2","maybe_old",""
"html-keyboard-response","186","355790","0.0-18.0-0.71","7570","approach_avoid_sv1","""event"",""trial"",""time""
""fullscreenenter"",""1"",""3852""
""blur"",""68"",""208862""
""focus"",""68"",""211372""
","""event"",""trial"",""time""
""blur"",""68"",""208862""
","""event"",""trial"",""time""
""focus"",""68"",""211372""
","""event"",""trial"",""time""
""fullscreenenter"",""1"",""3852""
","
","","","","","","null","<div style=""font-size:60px;"">+</div>","null","","fixation","","",""
"memory-trial","187","358448","0.0-18.0-1.71","7570","approach_avoid_sv1","""event"",""trial"",""time""
""fullscreenenter"",""1"",""3852""
""blur"",""68"",""208862""
""focus"",""68"",""211372""
","""event"",""trial"",""time""
""blur"",""68"",""208862""
","""event"",""trial"",""time""
""focus"",""68"",""211372""
","""event"",""trial"",""time""
""fullscreenenter"",""1"",""3852""
","
","","","","","","1655","images/sheep2.png","","","memory_trial","4","definitely_new",""
"html-keyboard-response","188","358949","0.0-18.0-0.72","7570","approach_avoid_sv1","""event"",""trial"",""time""
""fullscreenenter"",""1"",""3852""
""blur"",""68"",""208862""
""focus"",""68"",""211372""
","""event"",""trial"",""time""
""blur"",""68"",""208862""
","""event"",""trial"",""time""
""focus"",""68"",""211372""
","""event"",""trial"",""time""
""fullscreenenter"",""1"",""3852""
","
","","","","","","null","<div style=""font-size:60px;"">+</div>","null","","fixation","","",""
"memory-trial","189","360708","0.0-18.0-1.72","7570","approach_avoid_sv1","""event"",""trial"",""time""
""fullscreenenter"",""1"",""3852""
""blur"",""68"",""208862""
""focus"",""68"",""211372""
","""event"",""trial"",""time""
""blur"",""68"",""208862""
","""event"",""trial"",""time""
""focus"",""68"",""211372""
","""event"",""trial"",""time""
""fullscreenenter"",""1"",""3852""
","
","","","","","","757.1999998092651","images/boat2.png","","","memory_trial","1","definitely_old",""
"html-keyboard-response","190","361211","0.0-18.0-0.73","7570","approach_avoid_sv1","""event"",""trial"",""time""
""fullscreenenter"",""1"",""3852""
""blur"",""68"",""208862""
""focus"",""68"",""211372""
","""event"",""trial"",""time""
""blur"",""68"",""208862""
","""event"",""trial"",""time""
""focus"",""68"",""211372""
","""event"",""trial"",""time""
""fullscreenenter"",""1"",""3852""
","
","","","","","","null","<div style=""font-size:60px;"">+</div>","null","","fixation","","",""
"memory-trial","191","363090","0.0-18.0-1.73","7570","approach_avoid_sv1","""event"",""trial"",""time""
""fullscreenenter"",""1"",""3852""
""blur"",""68"",""208862""
""focus"",""68"",""211372""
","""event"",""trial"",""time""
""blur"",""68"",""208862""
","""event"",""trial"",""time""
""focus"",""68"",""211372""
","""event"",""trial"",""time""
""fullscreenenter"",""1"",""3852""
","
","","","","","","872.1999998092651","images/sofa6.png","","","memory_trial","1","definitely_old",""
"html-keyboard-response","192","363592","0.0-18.0-0.74","7570","approach_avoid_sv1","""event"",""trial"",""time""
""fullscreenenter"",""1"",""3852""
""blur"",""68"",""208862""
""focus"",""68"",""211372""
","""event"",""trial"",""time""
""blur"",""68"",""208862""
","""event"",""trial"",""time""
""focus"",""68"",""211372""
","""event"",""trial"",""time""
""fullscreenenter"",""1"",""3852""
","
","","","","","","null","<div style=""font-size:60px;"">+</div>","null","","fixation","","",""
"memory-trial","193","365360","0.0-18.0-1.74","7570","approach_avoid_sv1","""event"",""trial"",""time""
""fullscreenenter"",""1"",""3852""
""blur"",""68"",""208862""
""focus"",""68"",""211372""
","""event"",""trial"",""time""
""blur"",""68"",""208862""
","""event"",""trial"",""time""
""focus"",""68"",""211372""
","""event"",""trial"",""time""
""fullscreenenter"",""1"",""3852""
","
","","","","","","766.2000002861023","images/sofa1.png","","","memory_trial","1","definitely_old",""
"html-keyboard-response","194","365863","0.0-18.0-0.75","7570","approach_avoid_sv1","""event"",""trial"",""time""
""fullscreenenter"",""1"",""3852""
""blur"",""68"",""208862""
""focus"",""68"",""211372""
","""event"",""trial"",""time""
""blur"",""68"",""208862""
","""event"",""trial"",""time""
""focus"",""68"",""211372""
","""event"",""trial"",""time""
""fullscreenenter"",""1"",""3852""
","
","","","","","","null","<div style=""font-size:60px;"">+</div>","null","","fixation","","",""
"memory-trial","195","367625","0.0-18.0-1.75","7570","approach_avoid_sv1","""event"",""trial"",""time""
""fullscreenenter"",""1"",""3852""
""blur"",""68"",""208862""
""focus"",""68"",""211372""
","""event"",""trial"",""time""
""blur"",""68"",""208862""
","""event"",""trial"",""time""
""focus"",""68"",""211372""
","""event"",""trial"",""time""
""fullscreenenter"",""1"",""3852""
","
","","","","","","760.7999997138977","images/cat6.png","","","memory_trial","4","definitely_new",""
"html-keyboard-response","196","368127","0.0-18.0-0.76","7570","approach_avoid_sv1","""event"",""trial"",""time""
""fullscreenenter"",""1"",""3852""
""blur"",""68"",""208862""
""focus"",""68"",""211372""
","""event"",""trial"",""time""
""blur"",""68"",""208862""
","""event"",""trial"",""time""
""focus"",""68"",""211372""
","""event"",""trial"",""time""
""fullscreenenter"",""1"",""3852""
","
","","","","","","null","<div style=""font-size:60px;"">+</div>","null","","fixation","","",""
"memory-trial","197","370151","0.0-18.0-1.76","7570","approach_avoid_sv1","""event"",""trial"",""time""
""fullscreenenter"",""1"",""3852""
""blur"",""68"",""208862""
""focus"",""68"",""211372""
","""event"",""trial"",""time""
""blur"",""68"",""208862""
","""event"",""trial"",""time""
""focus"",""68"",""211372""
","""event"",""trial"",""time""
""fullscreenenter"",""1"",""3852""
","
","","","","","","1021","images/cactus5.png","","","memory_trial","4","definitely_new",""
"html-keyboard-response","198","370652","0.0-18.0-0.77","7570","approach_avoid_sv1","""event"",""trial"",""time""
""fullscreenenter"",""1"",""3852""
""blur"",""68"",""208862""
""focus"",""68"",""211372""
","""event"",""trial"",""time""
""blur"",""68"",""208862""
","""event"",""trial"",""time""
""focus"",""68"",""211372""
","""event"",""trial"",""time""
""fullscreenenter"",""1"",""3852""
","
","","","","","","null","<div style=""font-size:60px;"">+</div>","null","","fixation","","",""
"memory-trial","199","372650","0.0-18.0-1.77","7570","approach_avoid_sv1","""event"",""trial"",""time""
""fullscreenenter"",""1"",""3852""
""blur"",""68"",""208862""
""focus"",""68"",""211372""
","""event"",""trial"",""time""
""blur"",""68"",""208862""
","""event"",""trial"",""time""
""focus"",""68"",""211372""
","""event"",""trial"",""time""
""fullscreenenter"",""1"",""3852""
","
","","","","","","994.1000003814697","images/bush1.png","","","memory_trial","1","definitely_old",""
"html-keyboard-response","200","373152","0.0-18.0-0.78","7570","approach_avoid_sv1","""event"",""trial"",""time""
""fullscreenenter"",""1"",""3852""
""blur"",""68"",""208862""
""focus"",""68"",""211372""
","""event"",""trial"",""time""
""blur"",""68"",""208862""
","""event"",""trial"",""time""
""focus"",""68"",""211372""
","""event"",""trial"",""time""
""fullscreenenter"",""1"",""3852""
","
","","","","","","null","<div style=""font-size:60px;"">+</div>","null","","fixation","","",""
"memory-trial","201","374847","0.0-18.0-1.78","7570","approach_avoid_sv1","""event"",""trial"",""time""
""fullscreenenter"",""1"",""3852""
""blur"",""68"",""208862""
""focus"",""68"",""211372""
","""event"",""trial"",""time""
""blur"",""68"",""208862""
","""event"",""trial"",""time""
""focus"",""68"",""211372""
","""event"",""trial"",""time""
""fullscreenenter"",""1"",""3852""
","
","","","","","","693","images/apple3.png","","","memory_trial","4","definitely_new",""
"html-keyboard-response","202","375348","0.0-18.0-0.79","7570","approach_avoid_sv1","""event"",""trial"",""time""
""fullscreenenter"",""1"",""3852""
""blur"",""68"",""208862""
""focus"",""68"",""211372""
","""event"",""trial"",""time""
""blur"",""68"",""208862""
","""event"",""trial"",""time""
""focus"",""68"",""211372""
","""event"",""trial"",""time""
""fullscreenenter"",""1"",""3852""
","
","","","","","","null","<div style=""font-size:60px;"">+</div>","null","","fixation","","",""
"memory-trial","203","377090","0.0-18.0-1.79","7570","approach_avoid_sv1","""event"",""trial"",""time""
""fullscreenenter"",""1"",""3852""
""blur"",""68"",""208862""
""focus"",""68"",""211372""
","""event"",""trial"",""time""
""blur"",""68"",""208862""
","""event"",""trial"",""time""
""focus"",""68"",""211372""
","""event"",""trial"",""time""
""fullscreenenter"",""1"",""3852""
","
","","","","","","739.5999999046326","images/goat4.png","","","memory_trial","1","definitely_old",""
"html-keyboard-response","204","377592","0.0-18.0-0.80","7570","approach_avoid_sv1","""event"",""trial"",""time""
""fullscreenenter"",""1"",""3852""
""blur"",""68"",""208862""
""focus"",""68"",""211372""
","""event"",""trial"",""time""
""blur"",""68"",""208862""
","""event"",""trial"",""time""
""focus"",""68"",""211372""
","""event"",""trial"",""time""
""fullscreenenter"",""1"",""3852""
","
","","","","","","null","<div style=""font-size:60px;"">+</div>","null","","fixation","","",""
"memory-trial","205","379360","0.0-18.0-1.80","7570","approach_avoid_sv1","""event"",""trial"",""time""
""fullscreenenter"",""1"",""3852""
""blur"",""68"",""208862""
""focus"",""68"",""211372""
","""event"",""trial"",""time""
""blur"",""68"",""208862""
","""event"",""trial"",""time""
""focus"",""68"",""211372""
","""event"",""trial"",""time""
""fullscreenenter"",""1"",""3852""
","
","","","","","","765.0999999046326","images/cactus4.png","","","memory_trial","1","definitely_old",""
"html-keyboard-response","206","379879","0.0-18.0-0.81","7570","approach_avoid_sv1","""event"",""trial"",""time""
""fullscreenenter"",""1"",""3852""
""blur"",""68"",""208862""
""focus"",""68"",""211372""
","""event"",""trial"",""time""
""blur"",""68"",""208862""
","""event"",""trial"",""time""
""focus"",""68"",""211372""
","""event"",""trial"",""time""
""fullscreenenter"",""1"",""3852""
","
","","","","","","null","<div style=""font-size:60px;"">+</div>","null","","fixation","","",""
"memory-trial","207","381786","0.0-18.0-1.81","7570","approach_avoid_sv1","""event"",""trial"",""time""
""fullscreenenter"",""1"",""3852""
""blur"",""68"",""208862""
""focus"",""68"",""211372""
","""event"",""trial"",""time""
""blur"",""68"",""208862""
","""event"",""trial"",""time""
""focus"",""68"",""211372""
","""event"",""trial"",""time""
""fullscreenenter"",""1"",""3852""
","
","","","","","","904","images/plane8.png","","","memory_trial","4","definitely_new",""
"html-keyboard-response","208","382287","0.0-18.0-0.82","7570","approach_avoid_sv1","""event"",""trial"",""time""
""fullscreenenter"",""1"",""3852""
""blur"",""68"",""208862""
""focus"",""68"",""211372""
","""event"",""trial"",""time""
""blur"",""68"",""208862""
","""event"",""trial"",""time""
""focus"",""68"",""211372""
","""event"",""trial"",""time""
""fullscreenenter"",""1"",""3852""
","
","","","","","","null","<div style=""font-size:60px;"">+</div>","null","","fixation","","",""
"memory-trial","209","383936","0.0-18.0-1.82","7570","approach_avoid_sv1","""event"",""trial"",""time""
""fullscreenenter"",""1"",""3852""
""blur"",""68"",""208862""
""focus"",""68"",""211372""
","""event"",""trial"",""time""
""blur"",""68"",""208862""
","""event"",""trial"",""time""
""focus"",""68"",""211372""
","""event"",""trial"",""time""
""fullscreenenter"",""1"",""3852""
","
","","","","","","642.5","images/bed2.png","","","memory_trial","1","definitely_old",""
"html-keyboard-response","210","384438","0.0-18.0-0.83","7570","approach_avoid_sv1","""event"",""trial"",""time""
""fullscreenenter"",""1"",""3852""
""blur"",""68"",""208862""
""focus"",""68"",""211372""
","""event"",""trial"",""time""
""blur"",""68"",""208862""
","""event"",""trial"",""time""
""focus"",""68"",""211372""
","""event"",""trial"",""time""
""fullscreenenter"",""1"",""3852""
","
","","","","","","null","<div style=""font-size:60px;"">+</div>","null","","fixation","","",""
"memory-trial","211","386091","0.0-18.0-1.83","7570","approach_avoid_sv1","""event"",""trial"",""time""
""fullscreenenter"",""1"",""3852""
""blur"",""68"",""208862""
""focus"",""68"",""211372""
","""event"",""trial"",""time""
""blur"",""68"",""208862""
","""event"",""trial"",""time""
""focus"",""68"",""211372""
","""event"",""trial"",""time""
""fullscreenenter"",""1"",""3852""
","
","","","","","","649","images/goat3.png","","","memory_trial","4","definitely_new",""
"html-keyboard-response","212","386593","0.0-18.0-0.84","7570","approach_avoid_sv1","""event"",""trial"",""time""
""fullscreenenter"",""1"",""3852""
""blur"",""68"",""208862""
""focus"",""68"",""211372""
","""event"",""trial"",""time""
""blur"",""68"",""208862""
","""event"",""trial"",""time""
""focus"",""68"",""211372""
","""event"",""trial"",""time""
""fullscreenenter"",""1"",""3852""
","
","","","","","","null","<div style=""font-size:60px;"">+</div>","null","","fixation","","",""
"memory-trial","213","388497","0.0-18.0-1.84","7570","approach_avoid_sv1","""event"",""trial"",""time""
""fullscreenenter"",""1"",""3852""
""blur"",""68"",""208862""
""focus"",""68"",""211372""
","""event"",""trial"",""time""
""blur"",""68"",""208862""
","""event"",""trial"",""time""
""focus"",""68"",""211372""
","""event"",""trial"",""time""
""fullscreenenter"",""1"",""3852""
","
","","","","","","899.5999999046326","images/rodent8.png","","","memory_trial","1","definitely_old",""
"html-keyboard-response","214","388998","0.0-18.0-0.85","7570","approach_avoid_sv1","""event"",""trial"",""time""
""fullscreenenter"",""1"",""3852""
""blur"",""68"",""208862""
""focus"",""68"",""211372""
","""event"",""trial"",""time""
""blur"",""68"",""208862""
","""event"",""trial"",""time""
""focus"",""68"",""211372""
","""event"",""trial"",""time""
""fullscreenenter"",""1"",""3852""
","
","","","","","","null","<div style=""font-size:60px;"">+</div>","null","","fixation","","",""
"memory-trial","215","390746","0.0-18.0-1.85","7570","approach_avoid_sv1","""event"",""trial"",""time""
""fullscreenenter"",""1"",""3852""
""blur"",""68"",""208862""
""focus"",""68"",""211372""
","""event"",""trial"",""time""
""blur"",""68"",""208862""
","""event"",""trial"",""time""
""focus"",""68"",""211372""
","""event"",""trial"",""time""
""fullscreenenter"",""1"",""3852""
","
","","","","","","745.3000001907349","images/cactus2.png","","","memory_trial","4","definitely_new",""
"html-keyboard-response","216","391249","0.0-18.0-0.86","7570","approach_avoid_sv1","""event"",""trial"",""time""
""fullscreenenter"",""1"",""3852""
""blur"",""68"",""208862""
""focus"",""68"",""211372""
","""event"",""trial"",""time""
""blur"",""68"",""208862""
","""event"",""trial"",""time""
""focus"",""68"",""211372""
","""event"",""trial"",""time""
""fullscreenenter"",""1"",""3852""
","
","","","","","","null","<div style=""font-size:60px;"">+</div>","null","","fixation","","",""
"memory-trial","217","393158","0.0-18.0-1.86","7570","approach_avoid_sv1","""event"",""trial"",""time""
""fullscreenenter"",""1"",""3852""
""blur"",""68"",""208862""
""focus"",""68"",""211372""
","""event"",""trial"",""time""
""blur"",""68"",""208862""
","""event"",""trial"",""time""
""focus"",""68"",""211372""
","""event"",""trial"",""time""
""fullscreenenter"",""1"",""3852""
","
","","","","","","906.3000001907349","images/tree5.png","","","memory_trial","1","definitely_old",""
"html-keyboard-response","218","393660","0.0-18.0-0.87","7570","approach_avoid_sv1","""event"",""trial"",""time""
""fullscreenenter"",""1"",""3852""
""blur"",""68"",""208862""
""focus"",""68"",""211372""
","""event"",""trial"",""time""
""blur"",""68"",""208862""
","""event"",""trial"",""time""
""focus"",""68"",""211372""
","""event"",""trial"",""time""
""fullscreenenter"",""1"",""3852""
","
