"trial_type","trial_index","time_elapsed","internal_node_id","subject_id","task_version","interactions","blur_events","focus_events","fullscreenenter_events","fullscreenexit_events","success","timeout","failed_images","failed_audio","failed_video","rt","stimulus","response","button_pressed","task_part","key_press","answer","correct"
"pavlovia","0","3","0.0-0.0","6133","approach_avoid_sv1","""event"",""trial"",""time""
""fullscreenenter"",""1"",""1779""
","
","
","""event"",""trial"",""time""
""fullscreenenter"",""1"",""1779""
","
","","","","","","","","","","","","",""
"fullscreen","1","2779","0.0-1.0","6133","approach_avoid_sv1","""event"",""trial"",""time""
""fullscreenenter"",""1"",""1779""
""blur"",""2"",""3019""
","""event"",""trial"",""time""
""blur"",""2"",""3019""
","
","""event"",""trial"",""time""
""fullscreenenter"",""1"",""1779""
","
","true","","","","","","","","","","","",""
"preload","2","5394","0.0-2.0","6133","approach_avoid_sv1","""event"",""trial"",""time""
""fullscreenenter"",""1"",""1779""
""blur"",""2"",""3019""
","""event"",""trial"",""time""
""blur"",""2"",""3019""
","
","""event"",""trial"",""time""
""fullscreenenter"",""1"",""1779""
","
","true","false","[]","[]","[]","","","","","","","",""
"preload","3","7368","0.0-3.0","6133","approach_avoid_sv1","""event"",""trial"",""time""
""fullscreenenter"",""1"",""1779""
""blur"",""2"",""3019""
","""event"",""trial"",""time""
""blur"",""2"",""3019""
","
","""event"",""trial"",""time""
""fullscreenenter"",""1"",""1779""
","
","true","false","[]","[]","[]","","","","","","","",""
"preload","4","7652","0.0-4.0","6133","approach_avoid_sv1","""event"",""trial"",""time""
""fullscreenenter"",""1"",""1779""
""blur"",""2"",""3019""
""focus"",""5"",""11071""
","""event"",""trial"",""time""
""blur"",""2"",""3019""
","""event"",""trial"",""time""
""focus"",""5"",""11071""
","""event"",""trial"",""time""
""fullscreenenter"",""1"",""1779""
","
","true","false","[]","[]","[]","","","","","","","",""
"audio-keyboard-response","5","11641","0.0-5.0","6133","approach_avoid_sv1","""event"",""trial"",""time""
""fullscreenenter"",""1"",""1779""
""blur"",""2"",""3019""
""focus"",""5"",""11071""
","""event"",""trial"",""time""
""blur"",""2"",""3019""
","""event"",""trial"",""time""
""focus"",""5"",""11071""
","""event"",""trial"",""time""
""fullscreenenter"",""1"",""1779""
","
","","","","","","3989.3333333333335","audio/beep_loop.wav"," ","","","","",""
"audio-button-response","6","13135","0.0-6.0","6133","approach_avoid_sv1","""event"",""trial"",""time""
""fullscreenenter"",""1"",""1779""
""blur"",""2"",""3019""
""focus"",""5"",""11071""
","""event"",""trial"",""time""
""blur"",""2"",""3019""
","""event"",""trial"",""time""
""focus"",""5"",""11071""
","""event"",""trial"",""time""
""fullscreenenter"",""1"",""1779""
","
","","","","","","1493","audio/turtle.wav","3","","","","",""
"audio-button-response","7","15319","0.0-7.0","6133","approach_avoid_sv1","""event"",""trial"",""time""
""fullscreenenter"",""1"",""1779""
""blur"",""2"",""3019""
""focus"",""5"",""11071""
""blur"",""8"",""17800""
","""event"",""trial"",""time""
""blur"",""2"",""3019""
""blur"",""8"",""17800""
","""event"",""trial"",""time""
""focus"",""5"",""11071""
","""event"",""trial"",""time""
""fullscreenenter"",""1"",""1779""
","
","","","","","","1173","audio/shark.wav","2","","","","",""
"preload","8","19307","0.0-8.0","6133","approach_avoid_sv1","""event"",""trial"",""time""
""fullscreenenter"",""1"",""1779""
""blur"",""2"",""3019""
""focus"",""5"",""11071""
""blur"",""8"",""17800""
""focus"",""9"",""26890""
","""event"",""trial"",""time""
""blur"",""2"",""3019""
""blur"",""8"",""17800""
","""event"",""trial"",""time""
""focus"",""5"",""11071""
""focus"",""9"",""26890""
","""event"",""trial"",""time""
""fullscreenenter"",""1"",""1779""
","
","true","false","[]","[]","[]","","","","","","","",""
"learning-instructions","9","27738","0.0-9.0-0.0","6133","approach_avoid_sv1","""event"",""trial"",""time""
""fullscreenenter"",""1"",""1779""
""blur"",""2"",""3019""
""focus"",""5"",""11071""
""blur"",""8"",""17800""
""focus"",""9"",""26890""
","""event"",""trial"",""time""
""blur"",""2"",""3019""
""blur"",""8"",""17800""
","""event"",""trial"",""time""
""focus"",""5"",""11071""
""focus"",""9"",""26890""
","""event"",""trial"",""time""
""fullscreenenter"",""1"",""1779""
","
","","","","","","3948.600000023842","<p> Welcome back! </p><p> Last week, you had to make choices about lots of different items.  </p>","","0","instructions","","",""
"learning-instructions","10","32503","0.0-9.0-0.1","6133","approach_avoid_sv1","""event"",""trial"",""time""
""fullscreenenter"",""1"",""1779""
""blur"",""2"",""3019""
""focus"",""5"",""11071""
""blur"",""8"",""17800""
""focus"",""9"",""26890""
","""event"",""trial"",""time""
""blur"",""2"",""3019""
""blur"",""8"",""17800""
","""event"",""trial"",""time""
""focus"",""5"",""11071""
""focus"",""9"",""26890""
","""event"",""trial"",""time""
""fullscreenenter"",""1"",""1779""
","
","","","","","","655.1000000238419","<p> Today, we are going to ask you to try to remember all the items. </p>","","0","instructions","","",""
"learning-instructions","11","45035","0.0-9.0-0.2","6133","approach_avoid_sv1","""event"",""trial"",""time""
""fullscreenenter"",""1"",""1779""
""blur"",""2"",""3019""
""focus"",""5"",""11071""
""blur"",""8"",""17800""
""focus"",""9"",""26890""
""blur"",""12"",""48316""
""focus"",""12"",""54924""
","""event"",""trial"",""time""
""blur"",""2"",""3019""
""blur"",""8"",""17800""
""blur"",""12"",""48316""
","""event"",""trial"",""time""
""focus"",""5"",""11071""
""focus"",""9"",""26890""
""focus"",""12"",""54924""
","""event"",""trial"",""time""
""fullscreenenter"",""1"",""1779""
","
","","","","","","2392.5","<p> On every trial, you will see an image. </p><p> The image may be an OLD image you saw during the games last week or it may be a NEW image that was not presented. </p>","","0","instructions","","",""
"learning-instructions","12","55421","0.0-9.0-0.3","6133","approach_avoid_sv1","""event"",""trial"",""time""
""fullscreenenter"",""1"",""1779""
""blur"",""2"",""3019""
""focus"",""5"",""11071""
""blur"",""8"",""17800""
""focus"",""9"",""26890""
""blur"",""12"",""48316""
""focus"",""12"",""54924""
","""event"",""trial"",""time""
""blur"",""2"",""3019""
""blur"",""8"",""17800""
""blur"",""12"",""48316""
","""event"",""trial"",""time""
""focus"",""5"",""11071""
""focus"",""9"",""26890""
""focus"",""12"",""54924""
","""event"",""trial"",""time""
""fullscreenenter"",""1"",""1779""
","
","","","","","","1887","<p> You need to select whether the image is:  </p><p>  'Definitely old', 'Maybe old', 'Maybe new', or 'Definitely new.'  </p><div class=""mem-choice-instructions-grid""><div class=""choice-option"" id=""choice-option-1"" ><img src=""images/definitely_old_1.png"" id=""choice-option-img-1"" class=""choice-option-img"" stage=""1""></div><div class=""choice-option"" id=""choice-option-2"" ><img src=""images/maybe_old_1.png"" id=""choice-option-img-2"" class=""choice-option-img"" stage=""1""></div><div class=""choice-option"" id=""choice-option-3"" ><img src=""images/maybe_new_1.png"" id=""choice-option-img-3"" class=""choice-option-img"" stage=""1""></div><div class=""choice-option"" id=""choice-option-4"" > <img src=""images/definitely_new_1.png"" id=""choice-option-img-4"" class=""choice-option-img"" stage=""1""></div></div>","","0","instructions","","",""
"learning-instructions","13","62935","0.0-9.0-0.4","6133","approach_avoid_sv1","""event"",""trial"",""time""
""fullscreenenter"",""1"",""1779""
""blur"",""2"",""3019""
""focus"",""5"",""11071""
""blur"",""8"",""17800""
""focus"",""9"",""26890""
""blur"",""12"",""48316""
""focus"",""12"",""54924""
""blur"",""14"",""70374""
""focus"",""14"",""73755""
","""event"",""trial"",""time""
""blur"",""2"",""3019""
""blur"",""8"",""17800""
""blur"",""12"",""48316""
""blur"",""14"",""70374""
","""event"",""trial"",""time""
""focus"",""5"",""11071""
""focus"",""9"",""26890""
""focus"",""12"",""54924""
""focus"",""14"",""73755""
","""event"",""trial"",""time""
""fullscreenenter"",""1"",""1779""
","
","","","","","","1005.6999999880791","<p> You should use the 1, 2, 3, and 4 keys to make your responses.  </p><div class=""mem-choice-instructions-grid""><div class=""choice-option"" id=""choice-option-1"" ><img src=""images/definitely_old.png"" id=""choice-option-img-1"" class=""choice-option-img"" stage=""1""></div><div class=""choice-option"" id=""choice-option-2"" ><img src=""images/maybe_old.png"" id=""choice-option-img-2"" class=""choice-option-img"" stage=""1""></div><div class=""choice-option"" id=""choice-option-3"" ><img src=""images/maybe_new.png"" id=""choice-option-img-3"" class=""choice-option-img"" stage=""1""></div><div class=""choice-option"" id=""choice-option-4"" > <img src=""images/definitely_new.png"" id=""choice-option-img-4"" class=""choice-option-img"" stage=""1""></div></div>","","0","instructions","","",""
"learning-instructions","14","74134","0.0-9.0-0.5","6133","approach_avoid_sv1","""event"",""trial"",""time""
""fullscreenenter"",""1"",""1779""
""blur"",""2"",""3019""
""focus"",""5"",""11071""
""blur"",""8"",""17800""
""focus"",""9"",""26890""
""blur"",""12"",""48316""
""focus"",""12"",""54924""
""blur"",""14"",""70374""
""focus"",""14"",""73755""
""blur"",""15"",""75333""
""focus"",""15"",""83372""
","""event"",""trial"",""time""
""blur"",""2"",""3019""
""blur"",""8"",""17800""
""blur"",""12"",""48316""
""blur"",""14"",""70374""
""blur"",""15"",""75333""
","""event"",""trial"",""time""
""focus"",""5"",""11071""
""focus"",""9"",""26890""
""focus"",""12"",""54924""
""focus"",""14"",""73755""
""focus"",""15"",""83372""
","""event"",""trial"",""time""
""fullscreenenter"",""1"",""1779""
","
","","","","","","4868.5","<p> You will have 10 seconds to make each response.  </p><p>  Make sure to respond before time runs out! </p>","","0","instructions","","",""
"learning-instructions","15","84283","0.0-9.0-0.6","6133","approach_avoid_sv1","""event"",""trial"",""time""
""fullscreenenter"",""1"",""1779""
""blur"",""2"",""3019""
""focus"",""5"",""11071""
""blur"",""8"",""17800""
""focus"",""9"",""26890""
""blur"",""12"",""48316""
""focus"",""12"",""54924""
""blur"",""14"",""70374""
""focus"",""14"",""73755""
""blur"",""15"",""75333""
""focus"",""15"",""83372""
","""event"",""trial"",""time""
""blur"",""2"",""3019""
""blur"",""8"",""17800""
""blur"",""12"",""48316""
""blur"",""14"",""70374""
""blur"",""15"",""75333""
","""event"",""trial"",""time""
""focus"",""5"",""11071""
""focus"",""9"",""26890""
""focus"",""12"",""54924""
""focus"",""14"",""73755""
""focus"",""15"",""83372""
","""event"",""trial"",""time""
""fullscreenenter"",""1"",""1779""
","
","","","","","","3061.199999988079","<p> Today, you will see each image ONCE only.  </p><p>  That means none of the images will repeat. </p>","","0","instructions","","",""
"learning-instructions","16","98250","0.0-9.0-0.7","6133","approach_avoid_sv1","""event"",""trial"",""time""
""fullscreenenter"",""1"",""1779""
""blur"",""2"",""3019""
""focus"",""5"",""11071""
""blur"",""8"",""17800""
""focus"",""9"",""26890""
""blur"",""12"",""48316""
""focus"",""12"",""54924""
""blur"",""14"",""70374""
""focus"",""14"",""73755""
""blur"",""15"",""75333""
""focus"",""15"",""83372""
","""event"",""trial"",""time""
""blur"",""2"",""3019""
""blur"",""8"",""17800""
""blur"",""12"",""48316""
""blur"",""14"",""70374""
""blur"",""15"",""75333""
","""event"",""trial"",""time""
""focus"",""5"",""11071""
""focus"",""9"",""26890""
""focus"",""12"",""54924""
""focus"",""14"",""73755""
""focus"",""15"",""83372""
","""event"",""trial"",""time""
""fullscreenenter"",""1"",""1779""
","
","","","","","","1293.8999999761581","<p> Before you play the real game, it is time to practice. </p><p>  Just like in the real game, some of the images in the practice will be ones you have seen before. </p><p>  Others will be entirely new. </p>","","0","instructions","","",""
"html-button-response","17","100668","0.0-10.0","6133","approach_avoid_sv1","""event"",""trial"",""time""
""fullscreenenter"",""1"",""1779""
""blur"",""2"",""3019""
""focus"",""5"",""11071""
""blur"",""8"",""17800""
""focus"",""9"",""26890""
""blur"",""12"",""48316""
""focus"",""12"",""54924""
""blur"",""14"",""70374""
""focus"",""14"",""73755""
""blur"",""15"",""75333""
""focus"",""15"",""83372""
","""event"",""trial"",""time""
""blur"",""2"",""3019""
""blur"",""8"",""17800""
""blur"",""12"",""48316""
""blur"",""14"",""70374""
""blur"",""15"",""75333""
","""event"",""trial"",""time""
""focus"",""5"",""11071""
""focus"",""9"",""26890""
""focus"",""12"",""54924""
""focus"",""14"",""73755""
""focus"",""15"",""83372""
","""event"",""trial"",""time""
""fullscreenenter"",""1"",""1779""
","
","","","","","","2311.600000023842","<p> Ready to practice? </p><p> Remember, use the 1, 2, 3, and 4 keys to make your responses. </p>","0","","instructions","","",""
"html-keyboard-response","18","101284","0.0-11.0-0.0","6133","approach_avoid_sv1","""event"",""trial"",""time""
""fullscreenenter"",""1"",""1779""
""blur"",""2"",""3019""
""focus"",""5"",""11071""
""blur"",""8"",""17800""
""focus"",""9"",""26890""
""blur"",""12"",""48316""
""focus"",""12"",""54924""
""blur"",""14"",""70374""
""focus"",""14"",""73755""
""blur"",""15"",""75333""
""focus"",""15"",""83372""
","""event"",""trial"",""time""
""blur"",""2"",""3019""
""blur"",""8"",""17800""
""blur"",""12"",""48316""
""blur"",""14"",""70374""
""blur"",""15"",""75333""
","""event"",""trial"",""time""
""focus"",""5"",""11071""
""focus"",""9"",""26890""
""focus"",""12"",""54924""
""focus"",""14"",""73755""
""focus"",""15"",""83372""
","""event"",""trial"",""time""
""fullscreenenter"",""1"",""1779""
","
","","","","","","null","<div style=""font-size:60px;"">+</div>","null","","fixation","","",""
"memory-trial","19","104476","0.0-11.0-1.0","6133","approach_avoid_sv1","""event"",""trial"",""time""
""fullscreenenter"",""1"",""1779""
""blur"",""2"",""3019""
""focus"",""5"",""11071""
""blur"",""8"",""17800""
""focus"",""9"",""26890""
""blur"",""12"",""48316""
""focus"",""12"",""54924""
""blur"",""14"",""70374""
""focus"",""14"",""73755""
""blur"",""15"",""75333""
""focus"",""15"",""83372""
","""event"",""trial"",""time""
""blur"",""2"",""3019""
""blur"",""8"",""17800""
""blur"",""12"",""48316""
""blur"",""14"",""70374""
""blur"",""15"",""75333""
","""event"",""trial"",""time""
""focus"",""5"",""11071""
""focus"",""9"",""26890""
""focus"",""12"",""54924""
""focus"",""14"",""73755""
""focus"",""15"",""83372""
","""event"",""trial"",""time""
""fullscreenenter"",""1"",""1779""
","
","","","","","","2179.400000035763","images/racket5.png","","","practice","1","definitely_old",""
"html-keyboard-response","20","104985","0.0-11.0-0.1","6133","approach_avoid_sv1","""event"",""trial"",""time""
""fullscreenenter"",""1"",""1779""
""blur"",""2"",""3019""
""focus"",""5"",""11071""
""blur"",""8"",""17800""
""focus"",""9"",""26890""
""blur"",""12"",""48316""
""focus"",""12"",""54924""
""blur"",""14"",""70374""
""focus"",""14"",""73755""
""blur"",""15"",""75333""
""focus"",""15"",""83372""
","""event"",""trial"",""time""
""blur"",""2"",""3019""
""blur"",""8"",""17800""
""blur"",""12"",""48316""
""blur"",""14"",""70374""
""blur"",""15"",""75333""
","""event"",""trial"",""time""
""focus"",""5"",""11071""
""focus"",""9"",""26890""
""focus"",""12"",""54924""
""focus"",""14"",""73755""
""focus"",""15"",""83372""
","""event"",""trial"",""time""
""fullscreenenter"",""1"",""1779""
","
","","","","","","null","<div style=""font-size:60px;"">+</div>","null","","fixation","","",""
"memory-trial","21","107834","0.0-11.0-1.1","6133","approach_avoid_sv1","""event"",""trial"",""time""
""fullscreenenter"",""1"",""1779""
""blur"",""2"",""3019""
""focus"",""5"",""11071""
""blur"",""8"",""17800""
""focus"",""9"",""26890""
""blur"",""12"",""48316""
""focus"",""12"",""54924""
""blur"",""14"",""70374""
""focus"",""14"",""73755""
""blur"",""15"",""75333""
""focus"",""15"",""83372""
","""event"",""trial"",""time""
""blur"",""2"",""3019""
""blur"",""8"",""17800""
""blur"",""12"",""48316""
""blur"",""14"",""70374""
""blur"",""15"",""75333""
","""event"",""trial"",""time""
""focus"",""5"",""11071""
""focus"",""9"",""26890""
""focus"",""12"",""54924""
""focus"",""14"",""73755""
""focus"",""15"",""83372""
","""event"",""trial"",""time""
""fullscreenenter"",""1"",""1779""
","
","","","","","","1837.2999999523163","images/ball3.png","","","practice","3","maybe_new",""
"html-keyboard-response","22","108338","0.0-11.0-0.2","6133","approach_avoid_sv1","""event"",""trial"",""time""
""fullscreenenter"",""1"",""1779""
""blur"",""2"",""3019""
""focus"",""5"",""11071""
""blur"",""8"",""17800""
""focus"",""9"",""26890""
""blur"",""12"",""48316""
""focus"",""12"",""54924""
""blur"",""14"",""70374""
""focus"",""14"",""73755""
""blur"",""15"",""75333""
""focus"",""15"",""83372""
","""event"",""trial"",""time""
""blur"",""2"",""3019""
""blur"",""8"",""17800""
""blur"",""12"",""48316""
""blur"",""14"",""70374""
""blur"",""15"",""75333""
","""event"",""trial"",""time""
""focus"",""5"",""11071""
""focus"",""9"",""26890""
""focus"",""12"",""54924""
""focus"",""14"",""73755""
""focus"",""15"",""83372""
","""event"",""trial"",""time""
""fullscreenenter"",""1"",""1779""
","
","","","","","","null","<div style=""font-size:60px;"">+</div>","null","","fixation","","",""
"memory-trial","23","110813","0.0-11.0-1.2","6133","approach_avoid_sv1","""event"",""trial"",""time""
""fullscreenenter"",""1"",""1779""
""blur"",""2"",""3019""
""focus"",""5"",""11071""
""blur"",""8"",""17800""
""focus"",""9"",""26890""
""blur"",""12"",""48316""
""focus"",""12"",""54924""
""blur"",""14"",""70374""
""focus"",""14"",""73755""
""blur"",""15"",""75333""
""focus"",""15"",""83372""
","""event"",""trial"",""time""
""blur"",""2"",""3019""
""blur"",""8"",""17800""
""blur"",""12"",""48316""
""blur"",""14"",""70374""
""blur"",""15"",""75333""
","""event"",""trial"",""time""
""focus"",""5"",""11071""
""focus"",""9"",""26890""
""focus"",""12"",""54924""
""focus"",""14"",""73755""
""focus"",""15"",""83372""
","""event"",""trial"",""time""
""fullscreenenter"",""1"",""1779""
","
","","","","","","1461.3999999761581","images/racket2.png","","","practice","1","definitely_old",""
"html-keyboard-response","24","111321","0.0-11.0-0.3","6133","approach_avoid_sv1","""event"",""trial"",""time""
""fullscreenenter"",""1"",""1779""
""blur"",""2"",""3019""
""focus"",""5"",""11071""
""blur"",""8"",""17800""
""focus"",""9"",""26890""
""blur"",""12"",""48316""
""focus"",""12"",""54924""
""blur"",""14"",""70374""
""focus"",""14"",""73755""
""blur"",""15"",""75333""
""focus"",""15"",""83372""
","""event"",""trial"",""time""
""blur"",""2"",""3019""
""blur"",""8"",""17800""
""blur"",""12"",""48316""
""blur"",""14"",""70374""
""blur"",""15"",""75333""
","""event"",""trial"",""time""
""focus"",""5"",""11071""
""focus"",""9"",""26890""
""focus"",""12"",""54924""
""focus"",""14"",""73755""
""focus"",""15"",""83372""
","""event"",""trial"",""time""
""fullscreenenter"",""1"",""1779""
","
","","","","","","null","<div style=""font-size:60px;"">+</div>","null","","fixation","","",""
"memory-trial","25","113485","0.0-11.0-1.3","6133","approach_avoid_sv1","""event"",""trial"",""time""
""fullscreenenter"",""1"",""1779""
""blur"",""2"",""3019""
""focus"",""5"",""11071""
""blur"",""8"",""17800""
""focus"",""9"",""26890""
""blur"",""12"",""48316""
""focus"",""12"",""54924""
""blur"",""14"",""70374""
""focus"",""14"",""73755""
""blur"",""15"",""75333""
""focus"",""15"",""83372""
","""event"",""trial"",""time""
""blur"",""2"",""3019""
""blur"",""8"",""17800""
""blur"",""12"",""48316""
""blur"",""14"",""70374""
""blur"",""15"",""75333""
","""event"",""trial"",""time""
""focus"",""5"",""11071""
""focus"",""9"",""26890""
""focus"",""12"",""54924""
""focus"",""14"",""73755""
""focus"",""15"",""83372""
","""event"",""trial"",""time""
""fullscreenenter"",""1"",""1779""
","
","","","","","","1148.1000000238419","images/ball1.png","","","practice","1","definitely_old",""
"html-keyboard-response","26","113992","0.0-11.0-0.4","6133","approach_avoid_sv1","""event"",""trial"",""time""
""fullscreenenter"",""1"",""1779""
""blur"",""2"",""3019""
""focus"",""5"",""11071""
""blur"",""8"",""17800""
""focus"",""9"",""26890""
""blur"",""12"",""48316""
""focus"",""12"",""54924""
""blur"",""14"",""70374""
""focus"",""14"",""73755""
""blur"",""15"",""75333""
""focus"",""15"",""83372""
","""event"",""trial"",""time""
""blur"",""2"",""3019""
""blur"",""8"",""17800""
""blur"",""12"",""48316""
""blur"",""14"",""70374""
""blur"",""15"",""75333""
","""event"",""trial"",""time""
""focus"",""5"",""11071""
""focus"",""9"",""26890""
""focus"",""12"",""54924""
""focus"",""14"",""73755""
""focus"",""15"",""83372""
","""event"",""trial"",""time""
""fullscreenenter"",""1"",""1779""
","
","","","","","","null","<div style=""font-size:60px;"">+</div>","null","","fixation","","",""
"memory-trial","27","115820","0.0-11.0-1.4","6133","approach_avoid_sv1","""event"",""trial"",""time""
""fullscreenenter"",""1"",""1779""
""blur"",""2"",""3019""
""focus"",""5"",""11071""
""blur"",""8"",""17800""
""focus"",""9"",""26890""
""blur"",""12"",""48316""
""focus"",""12"",""54924""
""blur"",""14"",""70374""
""focus"",""14"",""73755""
""blur"",""15"",""75333""
""focus"",""15"",""83372""
","""event"",""trial"",""time""
""blur"",""2"",""3019""
""blur"",""8"",""17800""
""blur"",""12"",""48316""
""blur"",""14"",""70374""
""blur"",""15"",""75333""
","""event"",""trial"",""time""
""focus"",""5"",""11071""
""focus"",""9"",""26890""
""focus"",""12"",""54924""
""focus"",""14"",""73755""
""focus"",""15"",""83372""
","""event"",""trial"",""time""
""fullscreenenter"",""1"",""1779""
","
","","","","","","817.7000000476837","images/racket1.png","","","practice","1","definitely_old",""
"html-keyboard-response","28","116331","0.0-11.0-0.5","6133","approach_avoid_sv1","""event"",""trial"",""time""
""fullscreenenter"",""1"",""1779""
""blur"",""2"",""3019""
""focus"",""5"",""11071""
""blur"",""8"",""17800""
""focus"",""9"",""26890""
""blur"",""12"",""48316""
""focus"",""12"",""54924""
""blur"",""14"",""70374""
""focus"",""14"",""73755""
""blur"",""15"",""75333""
""focus"",""15"",""83372""
","""event"",""trial"",""time""
""blur"",""2"",""3019""
""blur"",""8"",""17800""
""blur"",""12"",""48316""
""blur"",""14"",""70374""
""blur"",""15"",""75333""
","""event"",""trial"",""time""
""focus"",""5"",""11071""
""focus"",""9"",""26890""
""focus"",""12"",""54924""
""focus"",""14"",""73755""
""focus"",""15"",""83372""
","""event"",""trial"",""time""
""fullscreenenter"",""1"",""1779""
","
","","","","","","null","<div style=""font-size:60px;"">+</div>","null","","fixation","","",""
"memory-trial","29","118868","0.0-11.0-1.5","6133","approach_avoid_sv1","""event"",""trial"",""time""
""fullscreenenter"",""1"",""1779""
""blur"",""2"",""3019""
""focus"",""5"",""11071""
""blur"",""8"",""17800""
""focus"",""9"",""26890""
""blur"",""12"",""48316""
""focus"",""12"",""54924""
""blur"",""14"",""70374""
""focus"",""14"",""73755""
""blur"",""15"",""75333""
""focus"",""15"",""83372""
","""event"",""trial"",""time""
""blur"",""2"",""3019""
""blur"",""8"",""17800""
""blur"",""12"",""48316""
""blur"",""14"",""70374""
""blur"",""15"",""75333""
","""event"",""trial"",""time""
""focus"",""5"",""11071""
""focus"",""9"",""26890""
""focus"",""12"",""54924""
""focus"",""14"",""73755""
""focus"",""15"",""83372""
","""event"",""trial"",""time""
""fullscreenenter"",""1"",""1779""
","
","","","","","","1527.9000000357628","images/ball2.png","","","practice","3","maybe_new",""
"html-keyboard-response","30","119381","0.0-11.0-0.6","6133","approach_avoid_sv1","""event"",""trial"",""time""
""fullscreenenter"",""1"",""1779""
""blur"",""2"",""3019""
""focus"",""5"",""11071""
""blur"",""8"",""17800""
""focus"",""9"",""26890""
""blur"",""12"",""48316""
""focus"",""12"",""54924""
""blur"",""14"",""70374""
""focus"",""14"",""73755""
""blur"",""15"",""75333""
""focus"",""15"",""83372""
","""event"",""trial"",""time""
""blur"",""2"",""3019""
""blur"",""8"",""17800""
""blur"",""12"",""48316""
""blur"",""14"",""70374""
""blur"",""15"",""75333""
","""event"",""trial"",""time""
""focus"",""5"",""11071""
""focus"",""9"",""26890""
""focus"",""12"",""54924""
""focus"",""14"",""73755""
""focus"",""15"",""83372""
","""event"",""trial"",""time""
""fullscreenenter"",""1"",""1779""
","
","","","","","","null","<div style=""font-size:60px;"">+</div>","null","","fixation","","",""
"memory-trial","31","121394","0.0-11.0-1.6","6133","approach_avoid_sv1","""event"",""trial"",""time""
""fullscreenenter"",""1"",""1779""
""blur"",""2"",""3019""
""focus"",""5"",""11071""
""blur"",""8"",""17800""
""focus"",""9"",""26890""
""blur"",""12"",""48316""
""focus"",""12"",""54924""
""blur"",""14"",""70374""
""focus"",""14"",""73755""
""blur"",""15"",""75333""
""focus"",""15"",""83372""
","""event"",""trial"",""time""
""blur"",""2"",""3019""
""blur"",""8"",""17800""
""blur"",""12"",""48316""
""blur"",""14"",""70374""
""blur"",""15"",""75333""
","""event"",""trial"",""time""
""focus"",""5"",""11071""
""focus"",""9"",""26890""
""focus"",""12"",""54924""
""focus"",""14"",""73755""
""focus"",""15"",""83372""
","""event"",""trial"",""time""
""fullscreenenter"",""1"",""1779""
","
","","","","","","1005.8000000119209","images/ball5.png","","","practice","3","maybe_new",""
"html-keyboard-response","32","121898","0.0-11.0-0.7","6133","approach_avoid_sv1","""event"",""trial"",""time""
""fullscreenenter"",""1"",""1779""
""blur"",""2"",""3019""
""focus"",""5"",""11071""
""blur"",""8"",""17800""
""focus"",""9"",""26890""
""blur"",""12"",""48316""
""focus"",""12"",""54924""
""blur"",""14"",""70374""
""focus"",""14"",""73755""
""blur"",""15"",""75333""
""focus"",""15"",""83372""
","""event"",""trial"",""time""
""blur"",""2"",""3019""
""blur"",""8"",""17800""
""blur"",""12"",""48316""
""blur"",""14"",""70374""
""blur"",""15"",""75333""
","""event"",""trial"",""time""
""focus"",""5"",""11071""
""focus"",""9"",""26890""
""focus"",""12"",""54924""
""focus"",""14"",""73755""
""focus"",""15"",""83372""
","""event"",""trial"",""time""
""fullscreenenter"",""1"",""1779""
","
","","","","","","null","<div style=""font-size:60px;"">+</div>","null","","fixation","","",""
"memory-trial","33","124809","0.0-11.0-1.7","6133","approach_avoid_sv1","""event"",""trial"",""time""
""fullscreenenter"",""1"",""1779""
""blur"",""2"",""3019""
""focus"",""5"",""11071""
""blur"",""8"",""17800""
""focus"",""9"",""26890""
""blur"",""12"",""48316""
""focus"",""12"",""54924""
""blur"",""14"",""70374""
""focus"",""14"",""73755""
""blur"",""15"",""75333""
""focus"",""15"",""83372""
""blur"",""34"",""128183""
""focus"",""34"",""134088""
","""event"",""trial"",""time""
""blur"",""2"",""3019""
""blur"",""8"",""17800""
""blur"",""12"",""48316""
""blur"",""14"",""70374""
""blur"",""15"",""75333""
""blur"",""34"",""128183""
","""event"",""trial"",""time""
""focus"",""5"",""11071""
""focus"",""9"",""26890""
""focus"",""12"",""54924""
""focus"",""14"",""73755""
""focus"",""15"",""83372""
""focus"",""34"",""134088""
","""event"",""trial"",""time""
""fullscreenenter"",""1"",""1779""
","
","","","","","","1907.1000000238419","images/racket3.png","","","practice","2","maybe_old",""
"learning-instructions","34","134451","0.0-12.0-0.0","6133","approach_avoid_sv1","""event"",""trial"",""time""
""fullscreenenter"",""1"",""1779""
""blur"",""2"",""3019""
""focus"",""5"",""11071""
""blur"",""8"",""17800""
""focus"",""9"",""26890""
""blur"",""12"",""48316""
""focus"",""12"",""54924""
""blur"",""14"",""70374""
""focus"",""14"",""73755""
""blur"",""15"",""75333""
""focus"",""15"",""83372""
""blur"",""34"",""128183""
""focus"",""34"",""134088""
","""event"",""trial"",""time""
""blur"",""2"",""3019""
""blur"",""8"",""17800""
""blur"",""12"",""48316""
""blur"",""14"",""70374""
""blur"",""15"",""75333""
""blur"",""34"",""128183""
","""event"",""trial"",""time""
""focus"",""5"",""11071""
""focus"",""9"",""26890""
""focus"",""12"",""54924""
""focus"",""14"",""73755""
""focus"",""15"",""83372""
""focus"",""34"",""134088""
","""event"",""trial"",""time""
""fullscreenenter"",""1"",""1779""
","
","","","","","","2337","<p> Great! You have completed the practice. </p><p> Before you start, we're going to ask you a few questions about how the game works.  </p>","","0","instructions","","",""
"preload","35","137129","0.0-13.0","6133","approach_avoid_sv1","""event"",""trial"",""time""
""fullscreenenter"",""1"",""1779""
""blur"",""2"",""3019""
""focus"",""5"",""11071""
""blur"",""8"",""17800""
""focus"",""9"",""26890""
""blur"",""12"",""48316""
""focus"",""12"",""54924""
""blur"",""14"",""70374""
""focus"",""14"",""73755""
""blur"",""15"",""75333""
""focus"",""15"",""83372""
""blur"",""34"",""128183""
""focus"",""34"",""134088""
","""event"",""trial"",""time""
""blur"",""2"",""3019""
""blur"",""8"",""17800""
""blur"",""12"",""48316""
""blur"",""14"",""70374""
""blur"",""15"",""75333""
""blur"",""34"",""128183""
","""event"",""trial"",""time""
""focus"",""5"",""11071""
""focus"",""9"",""26890""
""focus"",""12"",""54924""
""focus"",""14"",""73755""
""focus"",""15"",""83372""
""focus"",""34"",""134088""
","""event"",""trial"",""time""
""fullscreenenter"",""1"",""1779""
","
","true","false","[]","[]","[]","","","","","","","",""
"comp-q","36","143935","0.0-14.0-0.0","6133","approach_avoid_sv1","""event"",""trial"",""time""
""fullscreenenter"",""1"",""1779""
""blur"",""2"",""3019""
""focus"",""5"",""11071""
""blur"",""8"",""17800""
""focus"",""9"",""26890""
""blur"",""12"",""48316""
""focus"",""12"",""54924""
""blur"",""14"",""70374""
""focus"",""14"",""73755""
""blur"",""15"",""75333""
""focus"",""15"",""83372""
""blur"",""34"",""128183""
""focus"",""34"",""134088""
""blur"",""37"",""146642""
""focus"",""37"",""156259""
","""event"",""trial"",""time""
""blur"",""2"",""3019""
""blur"",""8"",""17800""
""blur"",""12"",""48316""
""blur"",""14"",""70374""
""blur"",""15"",""75333""
""blur"",""34"",""128183""
""blur"",""37"",""146642""
","""event"",""trial"",""time""
""focus"",""5"",""11071""
""focus"",""9"",""26890""
""focus"",""12"",""54924""
""focus"",""14"",""73755""
""focus"",""15"",""83372""
""focus"",""34"",""134088""
""focus"",""37"",""156259""
","""event"",""trial"",""time""
""fullscreenenter"",""1"",""1779""
","
","","","","","","975","<p> <b> True or False? </b> </p><p> In this game, you will only see each image once. </p>","","0","comp_question","","","true"
"comp-q","37","156666","0.0-14.0-1.0","6133","approach_avoid_sv1","""event"",""trial"",""time""
""fullscreenenter"",""1"",""1779""
""blur"",""2"",""3019""
""focus"",""5"",""11071""
""blur"",""8"",""17800""
""focus"",""9"",""26890""
""blur"",""12"",""48316""
""focus"",""12"",""54924""
""blur"",""14"",""70374""
""focus"",""14"",""73755""
""blur"",""15"",""75333""
""focus"",""15"",""83372""
""blur"",""34"",""128183""
""focus"",""34"",""134088""
""blur"",""37"",""146642""
""focus"",""37"",""156259""
","""event"",""trial"",""time""
""blur"",""2"",""3019""
""blur"",""8"",""17800""
""blur"",""12"",""48316""
""blur"",""14"",""70374""
""blur"",""15"",""75333""
""blur"",""34"",""128183""
""blur"",""37"",""146642""
","""event"",""trial"",""time""
""focus"",""5"",""11071""
""focus"",""9"",""26890""
""focus"",""12"",""54924""
""focus"",""14"",""73755""
""focus"",""15"",""83372""
""focus"",""34"",""134088""
""focus"",""37"",""156259""
","""event"",""trial"",""time""
""fullscreenenter"",""1"",""1779""
","
","","","","","","6388.800000011921","<p> <b> That's right! </b> You will see many different images <i> one time each </i> in this game. </p>","","0","comp_answer","","",""
"comp-q","38","162984","0.0-15.0-0.0","6133","approach_avoid_sv1","""event"",""trial"",""time""
""fullscreenenter"",""1"",""1779""
""blur"",""2"",""3019""
""focus"",""5"",""11071""
""blur"",""8"",""17800""
""focus"",""9"",""26890""
""blur"",""12"",""48316""
""focus"",""12"",""54924""
""blur"",""14"",""70374""
""focus"",""14"",""73755""
""blur"",""15"",""75333""
""focus"",""15"",""83372""
""blur"",""34"",""128183""
""focus"",""34"",""134088""
""blur"",""37"",""146642""
""focus"",""37"",""156259""
","""event"",""trial"",""time""
""blur"",""2"",""3019""
""blur"",""8"",""17800""
""blur"",""12"",""48316""
""blur"",""14"",""70374""
""blur"",""15"",""75333""
""blur"",""34"",""128183""
""blur"",""37"",""146642""
","""event"",""trial"",""time""
""focus"",""5"",""11071""
""focus"",""9"",""26890""
""focus"",""12"",""54924""
""focus"",""14"",""73755""
""focus"",""15"",""83372""
""focus"",""34"",""134088""
""focus"",""37"",""156259""
","""event"",""trial"",""time""
""fullscreenenter"",""1"",""1779""
","
","","","","","","1303.199999988079","<p> <b> True or False? </b> </p><p> You should use the mouse and click to make your response. </p>","","1","comp_question","","","true"
"comp-q","39","173584","0.0-15.0-1.0","6133","approach_avoid_sv1","""event"",""trial"",""time""
""fullscreenenter"",""1"",""1779""
""blur"",""2"",""3019""
""focus"",""5"",""11071""
""blur"",""8"",""17800""
""focus"",""9"",""26890""
""blur"",""12"",""48316""
""focus"",""12"",""54924""
""blur"",""14"",""70374""
""focus"",""14"",""73755""
""blur"",""15"",""75333""
""focus"",""15"",""83372""
""blur"",""34"",""128183""
""focus"",""34"",""134088""
""blur"",""37"",""146642""
""focus"",""37"",""156259""
","""event"",""trial"",""time""
""blur"",""2"",""3019""
""blur"",""8"",""17800""
""blur"",""12"",""48316""
""blur"",""14"",""70374""
""blur"",""15"",""75333""
""blur"",""34"",""128183""
""blur"",""37"",""146642""
","""event"",""trial"",""time""
""focus"",""5"",""11071""
""focus"",""9"",""26890""
""focus"",""12"",""54924""
""focus"",""14"",""73755""
""focus"",""15"",""83372""
""focus"",""34"",""134088""
""focus"",""37"",""156259""
","""event"",""trial"",""time""
""fullscreenenter"",""1"",""1779""
","
","","","","","","4096.599999964237","<p><b> That's right! </b> You should use the '1', '2', '3', and '4' keys to make your response. </p>","","0","comp_answer","","",""
"comp-q","40","180767","0.0-16.0-0.0","6133","approach_avoid_sv1","""event"",""trial"",""time""
""fullscreenenter"",""1"",""1779""
""blur"",""2"",""3019""
""focus"",""5"",""11071""
""blur"",""8"",""17800""
""focus"",""9"",""26890""
""blur"",""12"",""48316""
""focus"",""12"",""54924""
""blur"",""14"",""70374""
""focus"",""14"",""73755""
""blur"",""15"",""75333""
""focus"",""15"",""83372""
""blur"",""34"",""128183""
""focus"",""34"",""134088""
""blur"",""37"",""146642""
""focus"",""37"",""156259""
","""event"",""trial"",""time""
""blur"",""2"",""3019""
""blur"",""8"",""17800""
""blur"",""12"",""48316""
""blur"",""14"",""70374""
""blur"",""15"",""75333""
""blur"",""34"",""128183""
""blur"",""37"",""146642""
","""event"",""trial"",""time""
""focus"",""5"",""11071""
""focus"",""9"",""26890""
""focus"",""12"",""54924""
""focus"",""14"",""73755""
""focus"",""15"",""83372""
""focus"",""34"",""134088""
""focus"",""37"",""156259""
","""event"",""trial"",""time""
""fullscreenenter"",""1"",""1779""
","
","","","","","","1499.1000000238419","<p> <b> True or False? </b> </p><p> You will have as much time as you want to make each choice. </p>","","1","comp_question","","","true"
"comp-q","41","187384","0.0-16.0-1.0","6133","approach_avoid_sv1","""event"",""trial"",""time""
""fullscreenenter"",""1"",""1779""
""blur"",""2"",""3019""
""focus"",""5"",""11071""
""blur"",""8"",""17800""
""focus"",""9"",""26890""
""blur"",""12"",""48316""
""focus"",""12"",""54924""
""blur"",""14"",""70374""
""focus"",""14"",""73755""
""blur"",""15"",""75333""
""focus"",""15"",""83372""
""blur"",""34"",""128183""
""focus"",""34"",""134088""
""blur"",""37"",""146642""
""focus"",""37"",""156259""
""blur"",""42"",""190367""
""focus"",""42"",""197421""
","""event"",""trial"",""time""
""blur"",""2"",""3019""
""blur"",""8"",""17800""
""blur"",""12"",""48316""
""blur"",""14"",""70374""
""blur"",""15"",""75333""
""blur"",""34"",""128183""
""blur"",""37"",""146642""
""blur"",""42"",""190367""
","""event"",""trial"",""time""
""focus"",""5"",""11071""
""focus"",""9"",""26890""
""focus"",""12"",""54924""
""focus"",""14"",""73755""
""focus"",""15"",""83372""
""focus"",""34"",""134088""
""focus"",""37"",""156259""
""focus"",""42"",""197421""
","""event"",""trial"",""time""
""fullscreenenter"",""1"",""1779""
","
","","","","","","1901.699999988079","<p> <b> That's right! </b> You will only have 10 seconds to make each choice. </p>","","0","comp_answer","","",""
"learning-instructions","42","197866","0.0-17.0","6133","approach_avoid_sv1","""event"",""trial"",""time""
""fullscreenenter"",""1"",""1779""
""blur"",""2"",""3019""
""focus"",""5"",""11071""
""blur"",""8"",""17800""
""focus"",""9"",""26890""
""blur"",""12"",""48316""
""focus"",""12"",""54924""
""blur"",""14"",""70374""
""focus"",""14"",""73755""
""blur"",""15"",""75333""
""focus"",""15"",""83372""
""blur"",""34"",""128183""
""focus"",""34"",""134088""
""blur"",""37"",""146642""
""focus"",""37"",""156259""
""blur"",""42"",""190367""
""focus"",""42"",""197421""
","""event"",""trial"",""time""
""blur"",""2"",""3019""
""blur"",""8"",""17800""
""blur"",""12"",""48316""
""blur"",""14"",""70374""
""blur"",""15"",""75333""
""blur"",""34"",""128183""
""blur"",""37"",""146642""
""blur"",""42"",""190367""
","""event"",""trial"",""time""
""focus"",""5"",""11071""
""focus"",""9"",""26890""
""focus"",""12"",""54924""
""focus"",""14"",""73755""
""focus"",""15"",""83372""
""focus"",""34"",""134088""
""focus"",""37"",""156259""
""focus"",""42"",""197421""
","""event"",""trial"",""time""
""fullscreenenter"",""1"",""1779""
","
","","","","","","1808.3999999761581","<p> Great! You are now ready to begin the game. </p><p> Remember, use the 1, 2, 3, and 4 keys to make your responses. </p>","","0","instructions","","",""
"html-keyboard-response","43","198474","0.0-18.0-0.0","6133","approach_avoid_sv1","""event"",""trial"",""time""
""fullscreenenter"",""1"",""1779""
""blur"",""2"",""3019""
""focus"",""5"",""11071""
""blur"",""8"",""17800""
""focus"",""9"",""26890""
""blur"",""12"",""48316""
""focus"",""12"",""54924""
""blur"",""14"",""70374""
""focus"",""14"",""73755""
""blur"",""15"",""75333""
""focus"",""15"",""83372""
""blur"",""34"",""128183""
""focus"",""34"",""134088""
""blur"",""37"",""146642""
""focus"",""37"",""156259""
""blur"",""42"",""190367""
""focus"",""42"",""197421""
","""event"",""trial"",""time""
""blur"",""2"",""3019""
""blur"",""8"",""17800""
""blur"",""12"",""48316""
""blur"",""14"",""70374""
""blur"",""15"",""75333""
""blur"",""34"",""128183""
""blur"",""37"",""146642""
""blur"",""42"",""190367""
","""event"",""trial"",""time""
""focus"",""5"",""11071""
""focus"",""9"",""26890""
""focus"",""12"",""54924""
""focus"",""14"",""73755""
""focus"",""15"",""83372""
""focus"",""34"",""134088""
""focus"",""37"",""156259""
""focus"",""42"",""197421""
","""event"",""trial"",""time""
""fullscreenenter"",""1"",""1779""
","
","","","","","","null","<div style=""font-size:60px;"">+</div>","null","","fixation","","",""
"memory-trial","44","202064","0.0-18.0-1.0","6133","approach_avoid_sv1","""event"",""trial"",""time""
""fullscreenenter"",""1"",""1779""
""blur"",""2"",""3019""
""focus"",""5"",""11071""
""blur"",""8"",""17800""
""focus"",""9"",""26890""
""blur"",""12"",""48316""
""focus"",""12"",""54924""
""blur"",""14"",""70374""
""focus"",""14"",""73755""
""blur"",""15"",""75333""
""focus"",""15"",""83372""
""blur"",""34"",""128183""
""focus"",""34"",""134088""
""blur"",""37"",""146642""
""focus"",""37"",""156259""
""blur"",""42"",""190367""
""focus"",""42"",""197421""
","""event"",""trial"",""time""
""blur"",""2"",""3019""
""blur"",""8"",""17800""
""blur"",""12"",""48316""
""blur"",""14"",""70374""
""blur"",""15"",""75333""
""blur"",""34"",""128183""
""blur"",""37"",""146642""
""blur"",""42"",""190367""
","""event"",""trial"",""time""
""focus"",""5"",""11071""
""focus"",""9"",""26890""
""focus"",""12"",""54924""
""focus"",""14"",""73755""
""focus"",""15"",""83372""
""focus"",""34"",""134088""
""focus"",""37"",""156259""
""focus"",""42"",""197421""
","""event"",""trial"",""time""
""fullscreenenter"",""1"",""1779""
","
","","","","","","2580.300000011921","images/goat4.png","","","memory_trial","1","definitely_old",""
"html-keyboard-response","45","202567","0.0-18.0-0.1","6133","approach_avoid_sv1","""event"",""trial"",""time""
""fullscreenenter"",""1"",""1779""
""blur"",""2"",""3019""
""focus"",""5"",""11071""
""blur"",""8"",""17800""
""focus"",""9"",""26890""
""blur"",""12"",""48316""
""focus"",""12"",""54924""
""blur"",""14"",""70374""
""focus"",""14"",""73755""
""blur"",""15"",""75333""
""focus"",""15"",""83372""
""blur"",""34"",""128183""
""focus"",""34"",""134088""
""blur"",""37"",""146642""
""focus"",""37"",""156259""
""blur"",""42"",""190367""
""focus"",""42"",""197421""
","""event"",""trial"",""time""
""blur"",""2"",""3019""
""blur"",""8"",""17800""
""blur"",""12"",""48316""
""blur"",""14"",""70374""
""blur"",""15"",""75333""
""blur"",""34"",""128183""
""blur"",""37"",""146642""
""blur"",""42"",""190367""
","""event"",""trial"",""time""
""focus"",""5"",""11071""
""focus"",""9"",""26890""
""focus"",""12"",""54924""
""focus"",""14"",""73755""
""focus"",""15"",""83372""
""focus"",""34"",""134088""
""focus"",""37"",""156259""
""focus"",""42"",""197421""
","""event"",""trial"",""time""
""fullscreenenter"",""1"",""1779""
","
","","","","","","null","<div style=""font-size:60px;"">+</div>","null","","fixation","","",""
"memory-trial","46","205257","0.0-18.0-1.1","6133","approach_avoid_sv1","""event"",""trial"",""time""
""fullscreenenter"",""1"",""1779""
""blur"",""2"",""3019""
""focus"",""5"",""11071""
""blur"",""8"",""17800""
""focus"",""9"",""26890""
""blur"",""12"",""48316""
""focus"",""12"",""54924""
""blur"",""14"",""70374""
""focus"",""14"",""73755""
""blur"",""15"",""75333""
""focus"",""15"",""83372""
""blur"",""34"",""128183""
""focus"",""34"",""134088""
""blur"",""37"",""146642""
""focus"",""37"",""156259""
""blur"",""42"",""190367""
""focus"",""42"",""197421""
","""event"",""trial"",""time""
""blur"",""2"",""3019""
""blur"",""8"",""17800""
""blur"",""12"",""48316""
""blur"",""14"",""70374""
""blur"",""15"",""75333""
""blur"",""34"",""128183""
""blur"",""37"",""146642""
""blur"",""42"",""190367""
","""event"",""trial"",""time""
""focus"",""5"",""11071""
""focus"",""9"",""26890""
""focus"",""12"",""54924""
""focus"",""14"",""73755""
""focus"",""15"",""83372""
""focus"",""34"",""134088""
""focus"",""37"",""156259""
""focus"",""42"",""197421""
","""event"",""trial"",""time""
""fullscreenenter"",""1"",""1779""
","
","","","","","","1677.8999999761581","images/sofa2.png","","","memory_trial","2","maybe_old",""
"html-keyboard-response","47","205767","0.0-18.0-0.2","6133","approach_avoid_sv1","""event"",""trial"",""time""
""fullscreenenter"",""1"",""1779""
""blur"",""2"",""3019""
""focus"",""5"",""11071""
""blur"",""8"",""17800""
""focus"",""9"",""26890""
""blur"",""12"",""48316""
""focus"",""12"",""54924""
""blur"",""14"",""70374""
""focus"",""14"",""73755""
""blur"",""15"",""75333""
""focus"",""15"",""83372""
""blur"",""34"",""128183""
""focus"",""34"",""134088""
""blur"",""37"",""146642""
""focus"",""37"",""156259""
""blur"",""42"",""190367""
""focus"",""42"",""197421""
","""event"",""trial"",""time""
""blur"",""2"",""3019""
""blur"",""8"",""17800""
""blur"",""12"",""48316""
""blur"",""14"",""70374""
""blur"",""15"",""75333""
""blur"",""34"",""128183""
""blur"",""37"",""146642""
""blur"",""42"",""190367""
","""event"",""trial"",""time""
""focus"",""5"",""11071""
""focus"",""9"",""26890""
""focus"",""12"",""54924""
""focus"",""14"",""73755""
""focus"",""15"",""83372""
""focus"",""34"",""134088""
""focus"",""37"",""156259""
""focus"",""42"",""197421""
","""event"",""trial"",""time""
""fullscreenenter"",""1"",""1779""
","
","","","","","","null","<div style=""font-size:60px;"">+</div>","null","","fixation","","",""
"memory-trial","48","208068","0.0-18.0-1.2","6133","approach_avoid_sv1","""event"",""trial"",""time""
""fullscreenenter"",""1"",""1779""
""blur"",""2"",""3019""
""focus"",""5"",""11071""
""blur"",""8"",""17800""
""focus"",""9"",""26890""
""blur"",""12"",""48316""
""focus"",""12"",""54924""
""blur"",""14"",""70374""
""focus"",""14"",""73755""
""blur"",""15"",""75333""
""focus"",""15"",""83372""
""blur"",""34"",""128183""
""focus"",""34"",""134088""
""blur"",""37"",""146642""
""focus"",""37"",""156259""
""blur"",""42"",""190367""
""focus"",""42"",""197421""
","""event"",""trial"",""time""
""blur"",""2"",""3019""
""blur"",""8"",""17800""
""blur"",""12"",""48316""
""blur"",""14"",""70374""
""blur"",""15"",""75333""
""blur"",""34"",""128183""
""blur"",""37"",""146642""
""blur"",""42"",""190367""
","""event"",""trial"",""time""
""focus"",""5"",""11071""
""focus"",""9"",""26890""
""focus"",""12"",""54924""
""focus"",""14"",""73755""
""focus"",""15"",""83372""
""focus"",""34"",""134088""
""focus"",""37"",""156259""
""focus"",""42"",""197421""
","""event"",""trial"",""time""
""fullscreenenter"",""1"",""1779""
","
","","","","","","1294.5999999642372","images/goat7.png","","","memory_trial","1","definitely_old",""
"html-keyboard-response","49","208575","0.0-18.0-0.3","6133","approach_avoid_sv1","""event"",""trial"",""time""
""fullscreenenter"",""1"",""1779""
""blur"",""2"",""3019""
""focus"",""5"",""11071""
""blur"",""8"",""17800""
""focus"",""9"",""26890""
""blur"",""12"",""48316""
""focus"",""12"",""54924""
""blur"",""14"",""70374""
""focus"",""14"",""73755""
""blur"",""15"",""75333""
""focus"",""15"",""83372""
""blur"",""34"",""128183""
""focus"",""34"",""134088""
""blur"",""37"",""146642""
""focus"",""37"",""156259""
""blur"",""42"",""190367""
""focus"",""42"",""197421""
","""event"",""trial"",""time""
""blur"",""2"",""3019""
""blur"",""8"",""17800""
""blur"",""12"",""48316""
""blur"",""14"",""70374""
""blur"",""15"",""75333""
""blur"",""34"",""128183""
""blur"",""37"",""146642""
""blur"",""42"",""190367""
","""event"",""trial"",""time""
""focus"",""5"",""11071""
""focus"",""9"",""26890""
""focus"",""12"",""54924""
""focus"",""14"",""73755""
""focus"",""15"",""83372""
""focus"",""34"",""134088""
""focus"",""37"",""156259""
""focus"",""42"",""197421""
","""event"",""trial"",""time""
""fullscreenenter"",""1"",""1779""
","
","","","","","","null","<div style=""font-size:60px;"">+</div>","null","","fixation","","",""
"memory-trial","50","210784","0.0-18.0-1.3","6133","approach_avoid_sv1","""event"",""trial"",""time""
""fullscreenenter"",""1"",""1779""
""blur"",""2"",""3019""
""focus"",""5"",""11071""
""blur"",""8"",""17800""
""focus"",""9"",""26890""
""blur"",""12"",""48316""
""focus"",""12"",""54924""
""blur"",""14"",""70374""
""focus"",""14"",""73755""
""blur"",""15"",""75333""
""focus"",""15"",""83372""
""blur"",""34"",""128183""
""focus"",""34"",""134088""
""blur"",""37"",""146642""
""focus"",""37"",""156259""
""blur"",""42"",""190367""
""focus"",""42"",""197421""
","""event"",""trial"",""time""
""blur"",""2"",""3019""
""blur"",""8"",""17800""
""blur"",""12"",""48316""
""blur"",""14"",""70374""
""blur"",""15"",""75333""
""blur"",""34"",""128183""
""blur"",""37"",""146642""
""blur"",""42"",""190367""
","""event"",""trial"",""time""
""focus"",""5"",""11071""
""focus"",""9"",""26890""
""focus"",""12"",""54924""
""focus"",""14"",""73755""
""focus"",""15"",""83372""
""focus"",""34"",""134088""
""focus"",""37"",""156259""
""focus"",""42"",""197421""
","""event"",""trial"",""time""
""fullscreenenter"",""1"",""1779""
","
","","","","","","1196","images/sheep7.png","","","memory_trial","2","maybe_old",""
"html-keyboard-response","51","211288","0.0-18.0-0.4","6133","approach_avoid_sv1","""event"",""trial"",""time""
""fullscreenenter"",""1"",""1779""
""blur"",""2"",""3019""
""focus"",""5"",""11071""
""blur"",""8"",""17800""
""focus"",""9"",""26890""
""blur"",""12"",""48316""
""focus"",""12"",""54924""
""blur"",""14"",""70374""
""focus"",""14"",""73755""
""blur"",""15"",""75333""
""focus"",""15"",""83372""
""blur"",""34"",""128183""
""focus"",""34"",""134088""
""blur"",""37"",""146642""
""focus"",""37"",""156259""
""blur"",""42"",""190367""
""focus"",""42"",""197421""
","""event"",""trial"",""time""
""blur"",""2"",""3019""
""blur"",""8"",""17800""
""blur"",""12"",""48316""
""blur"",""14"",""70374""
""blur"",""15"",""75333""
""blur"",""34"",""128183""
""blur"",""37"",""146642""
""blur"",""42"",""190367""
","""event"",""trial"",""time""
""focus"",""5"",""11071""
""focus"",""9"",""26890""
""focus"",""12"",""54924""
""focus"",""14"",""73755""
""focus"",""15"",""83372""
""focus"",""34"",""134088""
""focus"",""37"",""156259""
""focus"",""42"",""197421""
","""event"",""trial"",""time""
""fullscreenenter"",""1"",""1779""
","
","","","","","","null","<div style=""font-size:60px;"">+</div>","null","","fixation","","",""
"memory-trial","52","213311","0.0-18.0-1.4","6133","approach_avoid_sv1","""event"",""trial"",""time""
""fullscreenenter"",""1"",""1779""
""blur"",""2"",""3019""
""focus"",""5"",""11071""
""blur"",""8"",""17800""
""focus"",""9"",""26890""
""blur"",""12"",""48316""
""focus"",""12"",""54924""
""blur"",""14"",""70374""
""focus"",""14"",""73755""
""blur"",""15"",""75333""
""focus"",""15"",""83372""
""blur"",""34"",""128183""
""focus"",""34"",""134088""
""blur"",""37"",""146642""
""focus"",""37"",""156259""
""blur"",""42"",""190367""
""focus"",""42"",""197421""
","""event"",""trial"",""time""
""blur"",""2"",""3019""
""blur"",""8"",""17800""
""blur"",""12"",""48316""
""blur"",""14"",""70374""
""blur"",""15"",""75333""
""blur"",""34"",""128183""
""blur"",""37"",""146642""
""blur"",""42"",""190367""
","""event"",""trial"",""time""
""focus"",""5"",""11071""
""focus"",""9"",""26890""
""focus"",""12"",""54924""
""focus"",""14"",""73755""
""focus"",""15"",""83372""
""focus"",""34"",""134088""
""focus"",""37"",""156259""
""focus"",""42"",""197421""
","""event"",""trial"",""time""
""fullscreenenter"",""1"",""1779""
","
","","","","","","1014.7999999523163","images/horse6.png","","","memory_trial","1","definitely_old",""
"html-keyboard-response","53","213815","0.0-18.0-0.5","6133","approach_avoid_sv1","""event"",""trial"",""time""
""fullscreenenter"",""1"",""1779""
""blur"",""2"",""3019""
""focus"",""5"",""11071""
""blur"",""8"",""17800""
""focus"",""9"",""26890""
""blur"",""12"",""48316""
""focus"",""12"",""54924""
""blur"",""14"",""70374""
""focus"",""14"",""73755""
""blur"",""15"",""75333""
""focus"",""15"",""83372""
""blur"",""34"",""128183""
""focus"",""34"",""134088""
""blur"",""37"",""146642""
""focus"",""37"",""156259""
""blur"",""42"",""190367""
""focus"",""42"",""197421""
","""event"",""trial"",""time""
""blur"",""2"",""3019""
""blur"",""8"",""17800""
""blur"",""12"",""48316""
""blur"",""14"",""70374""
""blur"",""15"",""75333""
""blur"",""34"",""128183""
""blur"",""37"",""146642""
""blur"",""42"",""190367""
","""event"",""trial"",""time""
""focus"",""5"",""11071""
""focus"",""9"",""26890""
""focus"",""12"",""54924""
""focus"",""14"",""73755""
""focus"",""15"",""83372""
""focus"",""34"",""134088""
""focus"",""37"",""156259""
""focus"",""42"",""197421""
","""event"",""trial"",""time""
""fullscreenenter"",""1"",""1779""
","
","","","","","","null","<div style=""font-size:60px;"">+</div>","null","","fixation","","",""
"memory-trial","54","215750","0.0-18.0-1.5","6133","approach_avoid_sv1","""event"",""trial"",""time""
""fullscreenenter"",""1"",""1779""
""blur"",""2"",""3019""
""focus"",""5"",""11071""
""blur"",""8"",""17800""
""focus"",""9"",""26890""
""blur"",""12"",""48316""
""focus"",""12"",""54924""
""blur"",""14"",""70374""
""focus"",""14"",""73755""
""blur"",""15"",""75333""
""focus"",""15"",""83372""
""blur"",""34"",""128183""
""focus"",""34"",""134088""
""blur"",""37"",""146642""
""focus"",""37"",""156259""
""blur"",""42"",""190367""
""focus"",""42"",""197421""
","""event"",""trial"",""time""
""blur"",""2"",""3019""
""blur"",""8"",""17800""
""blur"",""12"",""48316""
""blur"",""14"",""70374""
""blur"",""15"",""75333""
""blur"",""34"",""128183""
""blur"",""37"",""146642""
""blur"",""42"",""190367""
","""event"",""trial"",""time""
""focus"",""5"",""11071""
""focus"",""9"",""26890""
""focus"",""12"",""54924""
""focus"",""14"",""73755""
""focus"",""15"",""83372""
""focus"",""34"",""134088""
""focus"",""37"",""156259""
""focus"",""42"",""197421""
","""event"",""trial"",""time""
""fullscreenenter"",""1"",""1779""
","
","","","","","","928.6000000238419","images/sofa1.png","","","memory_trial","1","definitely_old",""
"html-keyboard-response","55","216257","0.0-18.0-0.6","6133","approach_avoid_sv1","""event"",""trial"",""time""
""fullscreenenter"",""1"",""1779""
""blur"",""2"",""3019""
""focus"",""5"",""11071""
""blur"",""8"",""17800""
""focus"",""9"",""26890""
""blur"",""12"",""48316""
""focus"",""12"",""54924""
""blur"",""14"",""70374""
""focus"",""14"",""73755""
""blur"",""15"",""75333""
""focus"",""15"",""83372""
""blur"",""34"",""128183""
""focus"",""34"",""134088""
""blur"",""37"",""146642""
""focus"",""37"",""156259""
""blur"",""42"",""190367""
""focus"",""42"",""197421""
","""event"",""trial"",""time""
""blur"",""2"",""3019""
""blur"",""8"",""17800""
""blur"",""12"",""48316""
""blur"",""14"",""70374""
""blur"",""15"",""75333""
""blur"",""34"",""128183""
""blur"",""37"",""146642""
""blur"",""42"",""190367""
","""event"",""trial"",""time""
""focus"",""5"",""11071""
""focus"",""9"",""26890""
""focus"",""12"",""54924""
""focus"",""14"",""73755""
""focus"",""15"",""83372""
""focus"",""34"",""134088""
""focus"",""37"",""156259""
""focus"",""42"",""197421""
","""event"",""trial"",""time""
""fullscreenenter"",""1"",""1779""
","
","","","","","","null","<div style=""font-size:60px;"">+</div>","null","","fixation","","",""
"memory-trial","56","219715","0.0-18.0-1.6","6133","approach_avoid_sv1","""event"",""trial"",""time""
""fullscreenenter"",""1"",""1779""
""blur"",""2"",""3019""
""focus"",""5"",""11071""
""blur"",""8"",""17800""
""focus"",""9"",""26890""
""blur"",""12"",""48316""
""focus"",""12"",""54924""
""blur"",""14"",""70374""
""focus"",""14"",""73755""
""blur"",""15"",""75333""
""focus"",""15"",""83372""
""blur"",""34"",""128183""
""focus"",""34"",""134088""
""blur"",""37"",""146642""
""focus"",""37"",""156259""
""blur"",""42"",""190367""
""focus"",""42"",""197421""
","""event"",""trial"",""time""
""blur"",""2"",""3019""
""blur"",""8"",""17800""
""blur"",""12"",""48316""
""blur"",""14"",""70374""
""blur"",""15"",""75333""
""blur"",""34"",""128183""
""blur"",""37"",""146642""
""blur"",""42"",""190367""
","""event"",""trial"",""time""
""focus"",""5"",""11071""
""focus"",""9"",""26890""
""focus"",""12"",""54924""
""focus"",""14"",""73755""
""focus"",""15"",""83372""
""focus"",""34"",""134088""
""focus"",""37"",""156259""
""focus"",""42"",""197421""
","""event"",""trial"",""time""
""fullscreenenter"",""1"",""1779""
","
","","","","","","2445.2000000476837","images/table6.png","","","memory_trial","2","maybe_old",""
"html-keyboard-response","57","220225","0.0-18.0-0.7","6133","approach_avoid_sv1","""event"",""trial"",""time""
""fullscreenenter"",""1"",""1779""
""blur"",""2"",""3019""
""focus"",""5"",""11071""
""blur"",""8"",""17800""
""focus"",""9"",""26890""
""blur"",""12"",""48316""
""focus"",""12"",""54924""
""blur"",""14"",""70374""
""focus"",""14"",""73755""
""blur"",""15"",""75333""
""focus"",""15"",""83372""
""blur"",""34"",""128183""
""focus"",""34"",""134088""
""blur"",""37"",""146642""
""focus"",""37"",""156259""
""blur"",""42"",""190367""
""focus"",""42"",""197421""
","""event"",""trial"",""time""
""blur"",""2"",""3019""
""blur"",""8"",""17800""
""blur"",""12"",""48316""
""blur"",""14"",""70374""
""blur"",""15"",""75333""
""blur"",""34"",""128183""
""blur"",""37"",""146642""
""blur"",""42"",""190367""
","""event"",""trial"",""time""
""focus"",""5"",""11071""
""focus"",""9"",""26890""
""focus"",""12"",""54924""
""focus"",""14"",""73755""
""focus"",""15"",""83372""
""focus"",""34"",""134088""
""focus"",""37"",""156259""
""focus"",""42"",""197421""
","""event"",""trial"",""time""
""fullscreenenter"",""1"",""1779""
","
","","","","","","null","<div style=""font-size:60px;"">+</div>","null","","fixation","","",""
"memory-trial","58","222113","0.0-18.0-1.7","6133","approach_avoid_sv1","""event"",""trial"",""time""
""fullscreenenter"",""1"",""1779""
""blur"",""2"",""3019""
""focus"",""5"",""11071""
""blur"",""8"",""17800""
""focus"",""9"",""26890""
""blur"",""12"",""48316""
""focus"",""12"",""54924""
""blur"",""14"",""70374""
""focus"",""14"",""73755""
""blur"",""15"",""75333""
""focus"",""15"",""83372""
""blur"",""34"",""128183""
""focus"",""34"",""134088""
""blur"",""37"",""146642""
""focus"",""37"",""156259""
""blur"",""42"",""190367""
""focus"",""42"",""197421""
","""event"",""trial"",""time""
""blur"",""2"",""3019""
""blur"",""8"",""17800""
""blur"",""12"",""48316""
""blur"",""14"",""70374""
""blur"",""15"",""75333""
""blur"",""34"",""128183""
""blur"",""37"",""146642""
""blur"",""42"",""190367""
","""event"",""trial"",""time""
""focus"",""5"",""11071""
""focus"",""9"",""26890""
""focus"",""12"",""54924""
""focus"",""14"",""73755""
""focus"",""15"",""83372""
""focus"",""34"",""134088""
""focus"",""37"",""156259""
""focus"",""42"",""197421""
","""event"",""trial"",""time""
""fullscreenenter"",""1"",""1779""
","
","","","","","","876.4000000357628","images/goat3.png","","","memory_trial","1","definitely_old",""
"html-keyboard-response","59","222625","0.0-18.0-0.8","6133","approach_avoid_sv1","""event"",""trial"",""time""
""fullscreenenter"",""1"",""1779""
""blur"",""2"",""3019""
""focus"",""5"",""11071""
""blur"",""8"",""17800""
""focus"",""9"",""26890""
""blur"",""12"",""48316""
""focus"",""12"",""54924""
""blur"",""14"",""70374""
""focus"",""14"",""73755""
""blur"",""15"",""75333""
""focus"",""15"",""83372""
""blur"",""34"",""128183""
""focus"",""34"",""134088""
""blur"",""37"",""146642""
""focus"",""37"",""156259""
""blur"",""42"",""190367""
""focus"",""42"",""197421""
","""event"",""trial"",""time""
""blur"",""2"",""3019""
""blur"",""8"",""17800""
""blur"",""12"",""48316""
""blur"",""14"",""70374""
""blur"",""15"",""75333""
""blur"",""34"",""128183""
""blur"",""37"",""146642""
""blur"",""42"",""190367""
","""event"",""trial"",""time""
""focus"",""5"",""11071""
""focus"",""9"",""26890""
""focus"",""12"",""54924""
""focus"",""14"",""73755""
""focus"",""15"",""83372""
""focus"",""34"",""134088""
""focus"",""37"",""156259""
""focus"",""42"",""197421""
","""event"",""trial"",""time""
""fullscreenenter"",""1"",""1779""
","
","","","","","","null","<div style=""font-size:60px;"">+</div>","null","","fixation","","",""
"memory-trial","60","224690","0.0-18.0-1.8","6133","approach_avoid_sv1","""event"",""trial"",""time""
""fullscreenenter"",""1"",""1779""
""blur"",""2"",""3019""
""focus"",""5"",""11071""
""blur"",""8"",""17800""
""focus"",""9"",""26890""
""blur"",""12"",""48316""
""focus"",""12"",""54924""
""blur"",""14"",""70374""
""focus"",""14"",""73755""
""blur"",""15"",""75333""
""focus"",""15"",""83372""
""blur"",""34"",""128183""
""focus"",""34"",""134088""
""blur"",""37"",""146642""
""focus"",""37"",""156259""
""blur"",""42"",""190367""
""focus"",""42"",""197421""
","""event"",""trial"",""time""
""blur"",""2"",""3019""
""blur"",""8"",""17800""
""blur"",""12"",""48316""
""blur"",""14"",""70374""
""blur"",""15"",""75333""
""blur"",""34"",""128183""
""blur"",""37"",""146642""
""blur"",""42"",""190367""
","""event"",""trial"",""time""
""focus"",""5"",""11071""
""focus"",""9"",""26890""
""focus"",""12"",""54924""
""focus"",""14"",""73755""
""focus"",""15"",""83372""
""focus"",""34"",""134088""
""focus"",""37"",""156259""
""focus"",""42"",""197421""
","""event"",""trial"",""time""
""fullscreenenter"",""1"",""1779""
","
","","","","","","1055.800000011921","images/sofa5.png","","","memory_trial","1","definitely_old",""
"html-keyboard-response","61","225200","0.0-18.0-0.9","6133","approach_avoid_sv1","""event"",""trial"",""time""
""fullscreenenter"",""1"",""1779""
""blur"",""2"",""3019""
""focus"",""5"",""11071""
""blur"",""8"",""17800""
""focus"",""9"",""26890""
""blur"",""12"",""48316""
""focus"",""12"",""54924""
""blur"",""14"",""70374""
""focus"",""14"",""73755""
""blur"",""15"",""75333""
""focus"",""15"",""83372""
""blur"",""34"",""128183""
""focus"",""34"",""134088""
""blur"",""37"",""146642""
""focus"",""37"",""156259""
""blur"",""42"",""190367""
""focus"",""42"",""197421""
","""event"",""trial"",""time""
""blur"",""2"",""3019""
""blur"",""8"",""17800""
""blur"",""12"",""48316""
""blur"",""14"",""70374""
""blur"",""15"",""75333""
""blur"",""34"",""128183""
""blur"",""37"",""146642""
""blur"",""42"",""190367""
","""event"",""trial"",""time""
""focus"",""5"",""11071""
""focus"",""9"",""26890""
""focus"",""12"",""54924""
""focus"",""14"",""73755""
""focus"",""15"",""83372""
""focus"",""34"",""134088""
""focus"",""37"",""156259""
""focus"",""42"",""197421""
","""event"",""trial"",""time""
""fullscreenenter"",""1"",""1779""
","
","","","","","","null","<div style=""font-size:60px;"">+</div>","null","","fixation","","",""
"memory-trial","62","227333","0.0-18.0-1.9","6133","approach_avoid_sv1","""event"",""trial"",""time""
""fullscreenenter"",""1"",""1779""
""blur"",""2"",""3019""
""focus"",""5"",""11071""
""blur"",""8"",""17800""
""focus"",""9"",""26890""
""blur"",""12"",""48316""
""focus"",""12"",""54924""
""blur"",""14"",""70374""
""focus"",""14"",""73755""
""blur"",""15"",""75333""
""focus"",""15"",""83372""
""blur"",""34"",""128183""
""focus"",""34"",""134088""
""blur"",""37"",""146642""
""focus"",""37"",""156259""
""blur"",""42"",""190367""
""focus"",""42"",""197421""
","""event"",""trial"",""time""
""blur"",""2"",""3019""
""blur"",""8"",""17800""
""blur"",""12"",""48316""
""blur"",""14"",""70374""
""blur"",""15"",""75333""
""blur"",""34"",""128183""
""blur"",""37"",""146642""
""blur"",""42"",""190367""
","""event"",""trial"",""time""
""focus"",""5"",""11071""
""focus"",""9"",""26890""
""focus"",""12"",""54924""
""focus"",""14"",""73755""
""focus"",""15"",""83372""
""focus"",""34"",""134088""
""focus"",""37"",""156259""
""focus"",""42"",""197421""
","""event"",""trial"",""time""
""fullscreenenter"",""1"",""1779""
","
","","","","","","1128.699999988079","images/banana4.png","","","memory_trial","1","definitely_old",""
"html-keyboard-response","63","227841","0.0-18.0-0.10","6133","approach_avoid_sv1","""event"",""trial"",""time""
""fullscreenenter"",""1"",""1779""
""blur"",""2"",""3019""
""focus"",""5"",""11071""
""blur"",""8"",""17800""
""focus"",""9"",""26890""
""blur"",""12"",""48316""
""focus"",""12"",""54924""
""blur"",""14"",""70374""
""focus"",""14"",""73755""
""blur"",""15"",""75333""
""focus"",""15"",""83372""
""blur"",""34"",""128183""
""focus"",""34"",""134088""
""blur"",""37"",""146642""
""focus"",""37"",""156259""
""blur"",""42"",""190367""
""focus"",""42"",""197421""
","""event"",""trial"",""time""
""blur"",""2"",""3019""
""blur"",""8"",""17800""
""blur"",""12"",""48316""
""blur"",""14"",""70374""
""blur"",""15"",""75333""
""blur"",""34"",""128183""
""blur"",""37"",""146642""
""blur"",""42"",""190367""
","""event"",""trial"",""time""
""focus"",""5"",""11071""
""focus"",""9"",""26890""
""focus"",""12"",""54924""
""focus"",""14"",""73755""
""focus"",""15"",""83372""
""focus"",""34"",""134088""
""focus"",""37"",""156259""
""focus"",""42"",""197421""
","""event"",""trial"",""time""
""fullscreenenter"",""1"",""1779""
","
","","","","","","null","<div style=""font-size:60px;"">+</div>","null","","fixation","","",""
"memory-trial","64","229608","0.0-18.0-1.10","6133","approach_avoid_sv1","""event"",""trial"",""time""
""fullscreenenter"",""1"",""1779""
""blur"",""2"",""3019""
""focus"",""5"",""11071""
""blur"",""8"",""17800""
""focus"",""9"",""26890""
""blur"",""12"",""48316""
""focus"",""12"",""54924""
""blur"",""14"",""70374""
""focus"",""14"",""73755""
""blur"",""15"",""75333""
""focus"",""15"",""83372""
""blur"",""34"",""128183""
""focus"",""34"",""134088""
""blur"",""37"",""146642""
""focus"",""37"",""156259""
""blur"",""42"",""190367""
""focus"",""42"",""197421""
","""event"",""trial"",""time""
""blur"",""2"",""3019""
""blur"",""8"",""17800""
""blur"",""12"",""48316""
""blur"",""14"",""70374""
""blur"",""15"",""75333""
""blur"",""34"",""128183""
""blur"",""37"",""146642""
""blur"",""42"",""190367""
","""event"",""trial"",""time""
""focus"",""5"",""11071""
""focus"",""9"",""26890""
""focus"",""12"",""54924""
""focus"",""14"",""73755""
""focus"",""15"",""83372""
""focus"",""34"",""134088""
""focus"",""37"",""156259""
""focus"",""42"",""197421""
","""event"",""trial"",""time""
""fullscreenenter"",""1"",""1779""
","
","","","","","","757.4000000357628","images/cow4.png","","","memory_trial","1","definitely_old",""
"html-keyboard-response","65","230122","0.0-18.0-0.11","6133","approach_avoid_sv1","""event"",""trial"",""time""
""fullscreenenter"",""1"",""1779""
""blur"",""2"",""3019""
""focus"",""5"",""11071""
""blur"",""8"",""17800""
""focus"",""9"",""26890""
""blur"",""12"",""48316""
""focus"",""12"",""54924""
""blur"",""14"",""70374""
""focus"",""14"",""73755""
""blur"",""15"",""75333""
""focus"",""15"",""83372""
""blur"",""34"",""128183""
""focus"",""34"",""134088""
""blur"",""37"",""146642""
""focus"",""37"",""156259""
""blur"",""42"",""190367""
""focus"",""42"",""197421""
","""event"",""trial"",""time""
""blur"",""2"",""3019""
""blur"",""8"",""17800""
""blur"",""12"",""48316""
""blur"",""14"",""70374""
""blur"",""15"",""75333""
""blur"",""34"",""128183""
""blur"",""37"",""146642""
""blur"",""42"",""190367""
","""event"",""trial"",""time""
""focus"",""5"",""11071""
""focus"",""9"",""26890""
""focus"",""12"",""54924""
""focus"",""14"",""73755""
""focus"",""15"",""83372""
""focus"",""34"",""134088""
""focus"",""37"",""156259""
""focus"",""42"",""197421""
","""event"",""trial"",""time""
""fullscreenenter"",""1"",""1779""
","
","","","","","","null","<div style=""font-size:60px;"">+</div>","null","","fixation","","",""
"memory-trial","66","232384","0.0-18.0-1.11","6133","approach_avoid_sv1","""event"",""trial"",""time""
""fullscreenenter"",""1"",""1779""
""blur"",""2"",""3019""
""focus"",""5"",""11071""
""blur"",""8"",""17800""
""focus"",""9"",""26890""
""blur"",""12"",""48316""
""focus"",""12"",""54924""
""blur"",""14"",""70374""
""focus"",""14"",""73755""
""blur"",""15"",""75333""
""focus"",""15"",""83372""
""blur"",""34"",""128183""
""focus"",""34"",""134088""
""blur"",""37"",""146642""
""focus"",""37"",""156259""
""blur"",""42"",""190367""
""focus"",""42"",""197421""
","""event"",""trial"",""time""
""blur"",""2"",""3019""
""blur"",""8"",""17800""
""blur"",""12"",""48316""
""blur"",""14"",""70374""
""blur"",""15"",""75333""
""blur"",""34"",""128183""
""blur"",""37"",""146642""
""blur"",""42"",""190367""
","""event"",""trial"",""time""
""focus"",""5"",""11071""
""focus"",""9"",""26890""
""focus"",""12"",""54924""
""focus"",""14"",""73755""
""focus"",""15"",""83372""
""focus"",""34"",""134088""
""focus"",""37"",""156259""
""focus"",""42"",""197421""
","""event"",""trial"",""time""
""fullscreenenter"",""1"",""1779""
","
","","","","","","1249.699999988079","images/bush3.png","","","memory_trial","4","definitely_new",""
"html-keyboard-response","67","232891","0.0-18.0-0.12","6133","approach_avoid_sv1","""event"",""trial"",""time""
""fullscreenenter"",""1"",""1779""
""blur"",""2"",""3019""
""focus"",""5"",""11071""
""blur"",""8"",""17800""
""focus"",""9"",""26890""
""blur"",""12"",""48316""
""focus"",""12"",""54924""
""blur"",""14"",""70374""
""focus"",""14"",""73755""
""blur"",""15"",""75333""
""focus"",""15"",""83372""
""blur"",""34"",""128183""
""focus"",""34"",""134088""
""blur"",""37"",""146642""
""focus"",""37"",""156259""
""blur"",""42"",""190367""
""focus"",""42"",""197421""
","""event"",""trial"",""time""
""blur"",""2"",""3019""
""blur"",""8"",""17800""
""blur"",""12"",""48316""
""blur"",""14"",""70374""
""blur"",""15"",""75333""
""blur"",""34"",""128183""
""blur"",""37"",""146642""
""blur"",""42"",""190367""
","""event"",""trial"",""time""
""focus"",""5"",""11071""
""focus"",""9"",""26890""
""focus"",""12"",""54924""
""focus"",""14"",""73755""
""focus"",""15"",""83372""
""focus"",""34"",""134088""
""focus"",""37"",""156259""
""focus"",""42"",""197421""
","""event"",""trial"",""time""
""fullscreenenter"",""1"",""1779""
","
","","","","","","null","<div style=""font-size:60px;"">+</div>","null","","fixation","","",""
"memory-trial","68","235882","0.0-18.0-1.12","6133","approach_avoid_sv1","""event"",""trial"",""time""
""fullscreenenter"",""1"",""1779""
""blur"",""2"",""3019""
""focus"",""5"",""11071""
""blur"",""8"",""17800""
""focus"",""9"",""26890""
""blur"",""12"",""48316""
""focus"",""12"",""54924""
""blur"",""14"",""70374""
""focus"",""14"",""73755""
""blur"",""15"",""75333""
""focus"",""15"",""83372""
""blur"",""34"",""128183""
""focus"",""34"",""134088""
""blur"",""37"",""146642""
""focus"",""37"",""156259""
""blur"",""42"",""190367""
""focus"",""42"",""197421""
","""event"",""trial"",""time""
""blur"",""2"",""3019""
""blur"",""8"",""17800""
""blur"",""12"",""48316""
""blur"",""14"",""70374""
""blur"",""15"",""75333""
""blur"",""34"",""128183""
""blur"",""37"",""146642""
""blur"",""42"",""190367""
","""event"",""trial"",""time""
""focus"",""5"",""11071""
""focus"",""9"",""26890""
""focus"",""12"",""54924""
""focus"",""14"",""73755""
""focus"",""15"",""83372""
""focus"",""34"",""134088""
""focus"",""37"",""156259""
""focus"",""42"",""197421""
","""event"",""trial"",""time""
""fullscreenenter"",""1"",""1779""
","
","","","","","","1978.5999999642372","images/sheep3.png","","","memory_trial","4","definitely_new",""
"html-keyboard-response","69","236392","0.0-18.0-0.13","6133","approach_avoid_sv1","""event"",""trial"",""time""
""fullscreenenter"",""1"",""1779""
""blur"",""2"",""3019""
""focus"",""5"",""11071""
""blur"",""8"",""17800""
""focus"",""9"",""26890""
""blur"",""12"",""48316""
""focus"",""12"",""54924""
""blur"",""14"",""70374""
""focus"",""14"",""73755""
""blur"",""15"",""75333""
""focus"",""15"",""83372""
""blur"",""34"",""128183""
""focus"",""34"",""134088""
""blur"",""37"",""146642""
""focus"",""37"",""156259""
""blur"",""42"",""190367""
""focus"",""42"",""197421""
","""event"",""trial"",""time""
""blur"",""2"",""3019""
""blur"",""8"",""17800""
""blur"",""12"",""48316""
""blur"",""14"",""70374""
""blur"",""15"",""75333""
""blur"",""34"",""128183""
""blur"",""37"",""146642""
""blur"",""42"",""190367""
","""event"",""trial"",""time""
""focus"",""5"",""11071""
""focus"",""9"",""26890""
""focus"",""12"",""54924""
""focus"",""14"",""73755""
""focus"",""15"",""83372""
""focus"",""34"",""134088""
""focus"",""37"",""156259""
""focus"",""42"",""197421""
","""event"",""trial"",""time""
""fullscreenenter"",""1"",""1779""
","
","","","","","","null","<div style=""font-size:60px;"">+</div>","null","","fixation","","",""
"memory-trial","70","238709","0.0-18.0-1.13","6133","approach_avoid_sv1","""event"",""trial"",""time""
""fullscreenenter"",""1"",""1779""
""blur"",""2"",""3019""
""focus"",""5"",""11071""
""blur"",""8"",""17800""
""focus"",""9"",""26890""
""blur"",""12"",""48316""
""focus"",""12"",""54924""
""blur"",""14"",""70374""
""focus"",""14"",""73755""
""blur"",""15"",""75333""
""focus"",""15"",""83372""
""blur"",""34"",""128183""
""focus"",""34"",""134088""
""blur"",""37"",""146642""
""focus"",""37"",""156259""
""blur"",""42"",""190367""
""focus"",""42"",""197421""
","""event"",""trial"",""time""
""blur"",""2"",""3019""
""blur"",""8"",""17800""
""blur"",""12"",""48316""
""blur"",""14"",""70374""
""blur"",""15"",""75333""
""blur"",""34"",""128183""
""blur"",""37"",""146642""
""blur"",""42"",""190367""
","""event"",""trial"",""time""
""focus"",""5"",""11071""
""focus"",""9"",""26890""
""focus"",""12"",""54924""
""focus"",""14"",""73755""
""focus"",""15"",""83372""
""focus"",""34"",""134088""
""focus"",""37"",""156259""
""focus"",""42"",""197421""
","""event"",""trial"",""time""
""fullscreenenter"",""1"",""1779""
","
","","","","","","1312.6000000238419","images/cow8.png","","","memory_trial","2","maybe_old",""
"html-keyboard-response","71","239218","0.0-18.0-0.14","6133","approach_avoid_sv1","""event"",""trial"",""time""
""fullscreenenter"",""1"",""1779""
""blur"",""2"",""3019""
""focus"",""5"",""11071""
""blur"",""8"",""17800""
""focus"",""9"",""26890""
""blur"",""12"",""48316""
""focus"",""12"",""54924""
""blur"",""14"",""70374""
""focus"",""14"",""73755""
""blur"",""15"",""75333""
""focus"",""15"",""83372""
""blur"",""34"",""128183""
""focus"",""34"",""134088""
""blur"",""37"",""146642""
""focus"",""37"",""156259""
""blur"",""42"",""190367""
""focus"",""42"",""197421""
","""event"",""trial"",""time""
""blur"",""2"",""3019""
""blur"",""8"",""17800""
""blur"",""12"",""48316""
""blur"",""14"",""70374""
""blur"",""15"",""75333""
""blur"",""34"",""128183""
""blur"",""37"",""146642""
""blur"",""42"",""190367""
","""event"",""trial"",""time""
""focus"",""5"",""11071""
""focus"",""9"",""26890""
""focus"",""12"",""54924""
""focus"",""14"",""73755""
""focus"",""15"",""83372""
""focus"",""34"",""134088""
""focus"",""37"",""156259""
""focus"",""42"",""197421""
","""event"",""trial"",""time""
""fullscreenenter"",""1"",""1779""
","
","","","","","","null","<div style=""font-size:60px;"">+</div>","null","","fixation","","",""
"memory-trial","72","241593","0.0-18.0-1.14","6133","approach_avoid_sv1","""event"",""trial"",""time""
""fullscreenenter"",""1"",""1779""
""blur"",""2"",""3019""
""focus"",""5"",""11071""
""blur"",""8"",""17800""
""focus"",""9"",""26890""
""blur"",""12"",""48316""
""focus"",""12"",""54924""
""blur"",""14"",""70374""
""focus"",""14"",""73755""
""blur"",""15"",""75333""
""focus"",""15"",""83372""
""blur"",""34"",""128183""
""focus"",""34"",""134088""
""blur"",""37"",""146642""
""focus"",""37"",""156259""
""blur"",""42"",""190367""
""focus"",""42"",""197421""
","""event"",""trial"",""time""
""blur"",""2"",""3019""
""blur"",""8"",""17800""
""blur"",""12"",""48316""
""blur"",""14"",""70374""
""blur"",""15"",""75333""
""blur"",""34"",""128183""
""blur"",""37"",""146642""
""blur"",""42"",""190367""
","""event"",""trial"",""time""
""focus"",""5"",""11071""
""focus"",""9"",""26890""
""focus"",""12"",""54924""
""focus"",""14"",""73755""
""focus"",""15"",""83372""
""focus"",""34"",""134088""
""focus"",""37"",""156259""
""focus"",""42"",""197421""
","""event"",""trial"",""time""
""fullscreenenter"",""1"",""1779""
","
","","","","","","1362","images/banana3.png","","","memory_trial","4","definitely_new",""
"html-keyboard-response","73","242105","0.0-18.0-0.15","6133","approach_avoid_sv1","""event"",""trial"",""time""
""fullscreenenter"",""1"",""1779""
""blur"",""2"",""3019""
""focus"",""5"",""11071""
""blur"",""8"",""17800""
""focus"",""9"",""26890""
""blur"",""12"",""48316""
""focus"",""12"",""54924""
""blur"",""14"",""70374""
""focus"",""14"",""73755""
""blur"",""15"",""75333""
""focus"",""15"",""83372""
""blur"",""34"",""128183""
""focus"",""34"",""134088""
""blur"",""37"",""146642""
""focus"",""37"",""156259""
""blur"",""42"",""190367""
""focus"",""42"",""197421""
","""event"",""trial"",""time""
""blur"",""2"",""3019""
""blur"",""8"",""17800""
""blur"",""12"",""48316""
""blur"",""14"",""70374""
""blur"",""15"",""75333""
""blur"",""34"",""128183""
""blur"",""37"",""146642""
""blur"",""42"",""190367""
","""event"",""trial"",""time""
""focus"",""5"",""11071""
""focus"",""9"",""26890""
""focus"",""12"",""54924""
""focus"",""14"",""73755""
""focus"",""15"",""83372""
""focus"",""34"",""134088""
""focus"",""37"",""156259""
""focus"",""42"",""197421""
","""event"",""trial"",""time""
""fullscreenenter"",""1"",""1779""
","
","","","","","","null","<div style=""font-size:60px;"">+</div>","null","","fixation","","",""
"memory-trial","74","244165","0.0-18.0-1.15","6133","approach_avoid_sv1","""event"",""trial"",""time""
""fullscreenenter"",""1"",""1779""
""blur"",""2"",""3019""
""focus"",""5"",""11071""
""blur"",""8"",""17800""
""focus"",""9"",""26890""
""blur"",""12"",""48316""
""focus"",""12"",""54924""
""blur"",""14"",""70374""
""focus"",""14"",""73755""
""blur"",""15"",""75333""
""focus"",""15"",""83372""
""blur"",""34"",""128183""
""focus"",""34"",""134088""
""blur"",""37"",""146642""
""focus"",""37"",""156259""
""blur"",""42"",""190367""
""focus"",""42"",""197421""
","""event"",""trial"",""time""
""blur"",""2"",""3019""
""blur"",""8"",""17800""
""blur"",""12"",""48316""
""blur"",""14"",""70374""
""blur"",""15"",""75333""
""blur"",""34"",""128183""
""blur"",""37"",""146642""
""blur"",""42"",""190367""
","""event"",""trial"",""time""
""focus"",""5"",""11071""
""focus"",""9"",""26890""
""focus"",""12"",""54924""
""focus"",""14"",""73755""
""focus"",""15"",""83372""
""focus"",""34"",""134088""
""focus"",""37"",""156259""
""focus"",""42"",""197421""
","""event"",""trial"",""time""
""fullscreenenter"",""1"",""1779""
","
","","","","","","1050.6000000238419","images/chair7.png","","","memory_trial","1","definitely_old",""
"html-keyboard-response","75","244673","0.0-18.0-0.16","6133","approach_avoid_sv1","""event"",""trial"",""time""
""fullscreenenter"",""1"",""1779""
""blur"",""2"",""3019""
""focus"",""5"",""11071""
""blur"",""8"",""17800""
""focus"",""9"",""26890""
""blur"",""12"",""48316""
""focus"",""12"",""54924""
""blur"",""14"",""70374""
""focus"",""14"",""73755""
""blur"",""15"",""75333""
""focus"",""15"",""83372""
""blur"",""34"",""128183""
""focus"",""34"",""134088""
""blur"",""37"",""146642""
""focus"",""37"",""156259""
""blur"",""42"",""190367""
""focus"",""42"",""197421""
","""event"",""trial"",""time""
""blur"",""2"",""3019""
""blur"",""8"",""17800""
""blur"",""12"",""48316""
""blur"",""14"",""70374""
""blur"",""15"",""75333""
""blur"",""34"",""128183""
""blur"",""37"",""146642""
""blur"",""42"",""190367""
","""event"",""trial"",""time""
""focus"",""5"",""11071""
""focus"",""9"",""26890""
""focus"",""12"",""54924""
""focus"",""14"",""73755""
""focus"",""15"",""83372""
""focus"",""34"",""134088""
""focus"",""37"",""156259""
""focus"",""42"",""197421""
","""event"",""trial"",""time""
""fullscreenenter"",""1"",""1779""
","
","","","","","","null","<div style=""font-size:60px;"">+</div>","null","","fixation","","",""
"memory-trial","76","248319","0.0-18.0-1.16","6133","approach_avoid_sv1","""event"",""trial"",""time""
""fullscreenenter"",""1"",""1779""
""blur"",""2"",""3019""
""focus"",""5"",""11071""
""blur"",""8"",""17800""
""focus"",""9"",""26890""
""blur"",""12"",""48316""
""focus"",""12"",""54924""
""blur"",""14"",""70374""
""focus"",""14"",""73755""
""blur"",""15"",""75333""
""focus"",""15"",""83372""
""blur"",""34"",""128183""
""focus"",""34"",""134088""
""blur"",""37"",""146642""
""focus"",""37"",""156259""
""blur"",""42"",""190367""
""focus"",""42"",""197421""
","""event"",""trial"",""time""
""blur"",""2"",""3019""
""blur"",""8"",""17800""
""blur"",""12"",""48316""
""blur"",""14"",""70374""
""blur"",""15"",""75333""
""blur"",""34"",""128183""
""blur"",""37"",""146642""
""blur"",""42"",""190367""
","""event"",""trial"",""time""
""focus"",""5"",""11071""
""focus"",""9"",""26890""
""focus"",""12"",""54924""
""focus"",""14"",""73755""
""focus"",""15"",""83372""
""focus"",""34"",""134088""
""focus"",""37"",""156259""
""focus"",""42"",""197421""
","""event"",""trial"",""time""
""fullscreenenter"",""1"",""1779""
","
","","","","","","2638.899999976158","images/tree3.png","","","memory_trial","2","maybe_old",""
"html-keyboard-response","77","248826","0.0-18.0-0.17","6133","approach_avoid_sv1","""event"",""trial"",""time""
""fullscreenenter"",""1"",""1779""
""blur"",""2"",""3019""
""focus"",""5"",""11071""
""blur"",""8"",""17800""
""focus"",""9"",""26890""
""blur"",""12"",""48316""
""focus"",""12"",""54924""
""blur"",""14"",""70374""
""focus"",""14"",""73755""
""blur"",""15"",""75333""
""focus"",""15"",""83372""
""blur"",""34"",""128183""
""focus"",""34"",""134088""
""blur"",""37"",""146642""
""focus"",""37"",""156259""
""blur"",""42"",""190367""
""focus"",""42"",""197421""
","""event"",""trial"",""time""
""blur"",""2"",""3019""
""blur"",""8"",""17800""
""blur"",""12"",""48316""
""blur"",""14"",""70374""
""blur"",""15"",""75333""
""blur"",""34"",""128183""
""blur"",""37"",""146642""
""blur"",""42"",""190367""
","""event"",""trial"",""time""
""focus"",""5"",""11071""
""focus"",""9"",""26890""
""focus"",""12"",""54924""
""focus"",""14"",""73755""
""focus"",""15"",""83372""
""focus"",""34"",""134088""
""focus"",""37"",""156259""
""focus"",""42"",""197421""
","""event"",""trial"",""time""
""fullscreenenter"",""1"",""1779""
","
","","","","","","null","<div style=""font-size:60px;"">+</div>","null","","fixation","","",""
"memory-trial","78","252141","0.0-18.0-1.17","6133","approach_avoid_sv1","""event"",""trial"",""time""
""fullscreenenter"",""1"",""1779""
""blur"",""2"",""3019""
""focus"",""5"",""11071""
""blur"",""8"",""17800""
""focus"",""9"",""26890""
""blur"",""12"",""48316""
""focus"",""12"",""54924""
""blur"",""14"",""70374""
""focus"",""14"",""73755""
""blur"",""15"",""75333""
""focus"",""15"",""83372""
""blur"",""34"",""128183""
""focus"",""34"",""134088""
""blur"",""37"",""146642""
""focus"",""37"",""156259""
""blur"",""42"",""190367""
""focus"",""42"",""197421""
","""event"",""trial"",""time""
""blur"",""2"",""3019""
""blur"",""8"",""17800""
""blur"",""12"",""48316""
""blur"",""14"",""70374""
""blur"",""15"",""75333""
""blur"",""34"",""128183""
""blur"",""37"",""146642""
""blur"",""42"",""190367""
","""event"",""trial"",""time""
""focus"",""5"",""11071""
""focus"",""9"",""26890""
""focus"",""12"",""54924""
""focus"",""14"",""73755""
""focus"",""15"",""83372""
""focus"",""34"",""134088""
""focus"",""37"",""156259""
""focus"",""42"",""197421""
","""event"",""trial"",""time""
""fullscreenenter"",""1"",""1779""
","
","","","","","","2303.600000023842","images/chair8.png","","","memory_trial","3","maybe_new",""
"html-keyboard-response","79","252643","0.0-18.0-0.18","6133","approach_avoid_sv1","""event"",""trial"",""time""
""fullscreenenter"",""1"",""1779""
""blur"",""2"",""3019""
""focus"",""5"",""11071""
""blur"",""8"",""17800""
""focus"",""9"",""26890""
""blur"",""12"",""48316""
""focus"",""12"",""54924""
""blur"",""14"",""70374""
""focus"",""14"",""73755""
""blur"",""15"",""75333""
""focus"",""15"",""83372""
""blur"",""34"",""128183""
""focus"",""34"",""134088""
""blur"",""37"",""146642""
""focus"",""37"",""156259""
""blur"",""42"",""190367""
""focus"",""42"",""197421""
","""event"",""trial"",""time""
""blur"",""2"",""3019""
""blur"",""8"",""17800""
""blur"",""12"",""48316""
""blur"",""14"",""70374""
""blur"",""15"",""75333""
""blur"",""34"",""128183""
""blur"",""37"",""146642""
""blur"",""42"",""190367""
","""event"",""trial"",""time""
""focus"",""5"",""11071""
""focus"",""9"",""26890""
""focus"",""12"",""54924""
""focus"",""14"",""73755""
""focus"",""15"",""83372""
""focus"",""34"",""134088""
""focus"",""37"",""156259""
""focus"",""42"",""197421""
","""event"",""trial"",""time""
""fullscreenenter"",""1"",""1779""
","
","","","","","","null","<div style=""font-size:60px;"">+</div>","null","","fixation","","",""
"memory-trial","80","256167","0.0-18.0-1.18","6133","approach_avoid_sv1","""event"",""trial"",""time""
""fullscreenenter"",""1"",""1779""
""blur"",""2"",""3019""
""focus"",""5"",""11071""
""blur"",""8"",""17800""
""focus"",""9"",""26890""
""blur"",""12"",""48316""
""focus"",""12"",""54924""
""blur"",""14"",""70374""
""focus"",""14"",""73755""
""blur"",""15"",""75333""
""focus"",""15"",""83372""
""blur"",""34"",""128183""
""focus"",""34"",""134088""
""blur"",""37"",""146642""
""focus"",""37"",""156259""
""blur"",""42"",""190367""
""focus"",""42"",""197421""
","""event"",""trial"",""time""
""blur"",""2"",""3019""
""blur"",""8"",""17800""
""blur"",""12"",""48316""
""blur"",""14"",""70374""
""blur"",""15"",""75333""
""blur"",""34"",""128183""
""blur"",""37"",""146642""
""blur"",""42"",""190367""
","""event"",""trial"",""time""
""focus"",""5"",""11071""
""focus"",""9"",""26890""
""focus"",""12"",""54924""
""focus"",""14"",""73755""
""focus"",""15"",""83372""
""focus"",""34"",""134088""
""focus"",""37"",""156259""
""focus"",""42"",""197421""
","""event"",""trial"",""time""
""fullscreenenter"",""1"",""1779""
","
","","","","","","2511.399999976158","images/chair6.png","","","memory_trial","3","maybe_new",""
"html-keyboard-response","81","256679","0.0-18.0-0.19","6133","approach_avoid_sv1","""event"",""trial"",""time""
""fullscreenenter"",""1"",""1779""
""blur"",""2"",""3019""
""focus"",""5"",""11071""
""blur"",""8"",""17800""
""focus"",""9"",""26890""
""blur"",""12"",""48316""
""focus"",""12"",""54924""
""blur"",""14"",""70374""
""focus"",""14"",""73755""
""blur"",""15"",""75333""
""focus"",""15"",""83372""
""blur"",""34"",""128183""
""focus"",""34"",""134088""
""blur"",""37"",""146642""
""focus"",""37"",""156259""
""blur"",""42"",""190367""
""focus"",""42"",""197421""
","""event"",""trial"",""time""
""blur"",""2"",""3019""
""blur"",""8"",""17800""
""blur"",""12"",""48316""
""blur"",""14"",""70374""
""blur"",""15"",""75333""
""blur"",""34"",""128183""
""blur"",""37"",""146642""
""blur"",""42"",""190367""
","""event"",""trial"",""time""
""focus"",""5"",""11071""
""focus"",""9"",""26890""
""focus"",""12"",""54924""
""focus"",""14"",""73755""
""focus"",""15"",""83372""
""focus"",""34"",""134088""
""focus"",""37"",""156259""
""focus"",""42"",""197421""
","""event"",""trial"",""time""
""fullscreenenter"",""1"",""1779""
","
","","","","","","null","<div style=""font-size:60px;"">+</div>","null","","fixation","","",""
"memory-trial","82","259460","0.0-18.0-1.19","6133","approach_avoid_sv1","""event"",""trial"",""time""
""fullscreenenter"",""1"",""1779""
""blur"",""2"",""3019""
""focus"",""5"",""11071""
""blur"",""8"",""17800""
""focus"",""9"",""26890""
""blur"",""12"",""48316""
""focus"",""12"",""54924""
""blur"",""14"",""70374""
""focus"",""14"",""73755""
""blur"",""15"",""75333""
""focus"",""15"",""83372""
""blur"",""34"",""128183""
""focus"",""34"",""134088""
""blur"",""37"",""146642""
""focus"",""37"",""156259""
""blur"",""42"",""190367""
""focus"",""42"",""197421""
","""event"",""trial"",""time""
""blur"",""2"",""3019""
""blur"",""8"",""17800""
""blur"",""12"",""48316""
""blur"",""14"",""70374""
""blur"",""15"",""75333""
""blur"",""34"",""128183""
""blur"",""37"",""146642""
""blur"",""42"",""190367""
","""event"",""trial"",""time""
""focus"",""5"",""11071""
""focus"",""9"",""26890""
""focus"",""12"",""54924""
""focus"",""14"",""73755""
""focus"",""15"",""83372""
""focus"",""34"",""134088""
""focus"",""37"",""156259""
""focus"",""42"",""197421""
","""event"",""trial"",""time""
""fullscreenenter"",""1"",""1779""
","
","","","","","","1775.5","images/banana1.png","","","memory_trial","3","maybe_new",""
"html-keyboard-response","83","259966","0.0-18.0-0.20","6133","approach_avoid_sv1","""event"",""trial"",""time""
""fullscreenenter"",""1"",""1779""
""blur"",""2"",""3019""
""focus"",""5"",""11071""
""blur"",""8"",""17800""
""focus"",""9"",""26890""
""blur"",""12"",""48316""
""focus"",""12"",""54924""
""blur"",""14"",""70374""
""focus"",""14"",""73755""
""blur"",""15"",""75333""
""focus"",""15"",""83372""
""blur"",""34"",""128183""
""focus"",""34"",""134088""
""blur"",""37"",""146642""
""focus"",""37"",""156259""
""blur"",""42"",""190367""
""focus"",""42"",""197421""
","""event"",""trial"",""time""
""blur"",""2"",""3019""
""blur"",""8"",""17800""
""blur"",""12"",""48316""
""blur"",""14"",""70374""
""blur"",""15"",""75333""
""blur"",""34"",""128183""
""blur"",""37"",""146642""
""blur"",""42"",""190367""
","""event"",""trial"",""time""
""focus"",""5"",""11071""
""focus"",""9"",""26890""
""focus"",""12"",""54924""
""focus"",""14"",""73755""
""focus"",""15"",""83372""
""focus"",""34"",""134088""
""focus"",""37"",""156259""
""focus"",""42"",""197421""
","""event"",""trial"",""time""
""fullscreenenter"",""1"",""1779""
","
","","","","","","null","<div style=""font-size:60px;"">+</div>","null","","fixation","","",""
"memory-trial","84","262413","0.0-18.0-1.20","6133","approach_avoid_sv1","""event"",""trial"",""time""
""fullscreenenter"",""1"",""1779""
""blur"",""2"",""3019""
""focus"",""5"",""11071""
""blur"",""8"",""17800""
""focus"",""9"",""26890""
""blur"",""12"",""48316""
""focus"",""12"",""54924""
""blur"",""14"",""70374""
""focus"",""14"",""73755""
""blur"",""15"",""75333""
""focus"",""15"",""83372""
""blur"",""34"",""128183""
""focus"",""34"",""134088""
""blur"",""37"",""146642""
""focus"",""37"",""156259""
""blur"",""42"",""190367""
""focus"",""42"",""197421""
","""event"",""trial"",""time""
""blur"",""2"",""3019""
""blur"",""8"",""17800""
""blur"",""12"",""48316""
""blur"",""14"",""70374""
""blur"",""15"",""75333""
""blur"",""34"",""128183""
""blur"",""37"",""146642""
""blur"",""42"",""190367""
","""event"",""trial"",""time""
""focus"",""5"",""11071""
""focus"",""9"",""26890""
""focus"",""12"",""54924""
""focus"",""14"",""73755""
""focus"",""15"",""83372""
""focus"",""34"",""134088""
""focus"",""37"",""156259""
""focus"",""42"",""197421""
","""event"",""trial"",""time""
""fullscreenenter"",""1"",""1779""
","
","","","","","","1443.8999999761581","images/goat8.png","","","memory_trial","4","definitely_new",""
"html-keyboard-response","85","262917","0.0-18.0-0.21","6133","approach_avoid_sv1","""event"",""trial"",""time""
""fullscreenenter"",""1"",""1779""
""blur"",""2"",""3019""
""focus"",""5"",""11071""
""blur"",""8"",""17800""
""focus"",""9"",""26890""
""blur"",""12"",""48316""
""focus"",""12"",""54924""
""blur"",""14"",""70374""
""focus"",""14"",""73755""
""blur"",""15"",""75333""
""focus"",""15"",""83372""
""blur"",""34"",""128183""
""focus"",""34"",""134088""
""blur"",""37"",""146642""
""focus"",""37"",""156259""
""blur"",""42"",""190367""
""focus"",""42"",""197421""
","""event"",""trial"",""time""
""blur"",""2"",""3019""
""blur"",""8"",""17800""
""blur"",""12"",""48316""
""blur"",""14"",""70374""
""blur"",""15"",""75333""
""blur"",""34"",""128183""
""blur"",""37"",""146642""
""blur"",""42"",""190367""
","""event"",""trial"",""time""
""focus"",""5"",""11071""
""focus"",""9"",""26890""
""focus"",""12"",""54924""
""focus"",""14"",""73755""
""focus"",""15"",""83372""
""focus"",""34"",""134088""
""focus"",""37"",""156259""
""focus"",""42"",""197421""
","""event"",""trial"",""time""
""fullscreenenter"",""1"",""1779""
","
","","","","","","null","<div style=""font-size:60px;"">+</div>","null","","fixation","","",""
"memory-trial","86","264935","0.0-18.0-1.21","6133","approach_avoid_sv1","""event"",""trial"",""time""
""fullscreenenter"",""1"",""1779""
""blur"",""2"",""3019""
""focus"",""5"",""11071""
""blur"",""8"",""17800""
""focus"",""9"",""26890""
""blur"",""12"",""48316""
""focus"",""12"",""54924""
""blur"",""14"",""70374""
""focus"",""14"",""73755""
""blur"",""15"",""75333""
""focus"",""15"",""83372""
""blur"",""34"",""128183""
""focus"",""34"",""134088""
""blur"",""37"",""146642""
""focus"",""37"",""156259""
""blur"",""42"",""190367""
""focus"",""42"",""197421""
","""event"",""trial"",""time""
""blur"",""2"",""3019""
""blur"",""8"",""17800""
""blur"",""12"",""48316""
""blur"",""14"",""70374""
""blur"",""15"",""75333""
""blur"",""34"",""128183""
""blur"",""37"",""146642""
""blur"",""42"",""190367""
","""event"",""trial"",""time""
""focus"",""5"",""11071""
""focus"",""9"",""26890""
""focus"",""12"",""54924""
""focus"",""14"",""73755""
""focus"",""15"",""83372""
""focus"",""34"",""134088""
""focus"",""37"",""156259""
""focus"",""42"",""197421""
","""event"",""trial"",""time""
""fullscreenenter"",""1"",""1779""
","
","","","","","","1004.1000000238419","images/banana7.png","","","memory_trial","4","definitely_new",""
"html-keyboard-response","87","265440","0.0-18.0-0.22","6133","approach_avoid_sv1","""event"",""trial"",""time""
""fullscreenenter"",""1"",""1779""
""blur"",""2"",""3019""
""focus"",""5"",""11071""
""blur"",""8"",""17800""
""focus"",""9"",""26890""
""blur"",""12"",""48316""
""focus"",""12"",""54924""
""blur"",""14"",""70374""
""focus"",""14"",""73755""
""blur"",""15"",""75333""
""focus"",""15"",""83372""
""blur"",""34"",""128183""
""focus"",""34"",""134088""
""blur"",""37"",""146642""
""focus"",""37"",""156259""
""blur"",""42"",""190367""
""focus"",""42"",""197421""
","""event"",""trial"",""time""
""blur"",""2"",""3019""
""blur"",""8"",""17800""
""blur"",""12"",""48316""
""blur"",""14"",""70374""
""blur"",""15"",""75333""
""blur"",""34"",""128183""
""blur"",""37"",""146642""
""blur"",""42"",""190367""
","""event"",""trial"",""time""
""focus"",""5"",""11071""
""focus"",""9"",""26890""
""focus"",""12"",""54924""
""focus"",""14"",""73755""
""focus"",""15"",""83372""
""focus"",""34"",""134088""
""focus"",""37"",""156259""
""focus"",""42"",""197421""
","""event"",""trial"",""time""
""fullscreenenter"",""1"",""1779""
","
","","","","","","null","<div style=""font-size:60px;"">+</div>","null","","fixation","","",""
"memory-trial","88","268091","0.0-18.0-1.22","6133","approach_avoid_sv1","""event"",""trial"",""time""
""fullscreenenter"",""1"",""1779""
""blur"",""2"",""3019""
""focus"",""5"",""11071""
""blur"",""8"",""17800""
""focus"",""9"",""26890""
""blur"",""12"",""48316""
""focus"",""12"",""54924""
""blur"",""14"",""70374""
""focus"",""14"",""73755""
""blur"",""15"",""75333""
""focus"",""15"",""83372""
""blur"",""34"",""128183""
""focus"",""34"",""134088""
""blur"",""37"",""146642""
""focus"",""37"",""156259""
""blur"",""42"",""190367""
""focus"",""42"",""197421""
","""event"",""trial"",""time""
""blur"",""2"",""3019""
""blur"",""8"",""17800""
""blur"",""12"",""48316""
""blur"",""14"",""70374""
""blur"",""15"",""75333""
""blur"",""34"",""128183""
""blur"",""37"",""146642""
""blur"",""42"",""190367""
","""event"",""trial"",""time""
""focus"",""5"",""11071""
""focus"",""9"",""26890""
""focus"",""12"",""54924""
""focus"",""14"",""73755""
""focus"",""15"",""83372""
""focus"",""34"",""134088""
""focus"",""37"",""156259""
""focus"",""42"",""197421""
","""event"",""trial"",""time""
""fullscreenenter"",""1"",""1779""
","
","","","","","","1640","images/train4.png","","","memory_trial","1","definitely_old",""
"html-keyboard-response","89","268603","0.0-18.0-0.23","6133","approach_avoid_sv1","""event"",""trial"",""time""
""fullscreenenter"",""1"",""1779""
""blur"",""2"",""3019""
""focus"",""5"",""11071""
""blur"",""8"",""17800""
""focus"",""9"",""26890""
""blur"",""12"",""48316""
""focus"",""12"",""54924""
""blur"",""14"",""70374""
""focus"",""14"",""73755""
""blur"",""15"",""75333""
""focus"",""15"",""83372""
""blur"",""34"",""128183""
""focus"",""34"",""134088""
""blur"",""37"",""146642""
""focus"",""37"",""156259""
""blur"",""42"",""190367""
""focus"",""42"",""197421""
","""event"",""trial"",""time""
""blur"",""2"",""3019""
""blur"",""8"",""17800""
""blur"",""12"",""48316""
""blur"",""14"",""70374""
""blur"",""15"",""75333""
""blur"",""34"",""128183""
""blur"",""37"",""146642""
""blur"",""42"",""190367""
","""event"",""trial"",""time""
""focus"",""5"",""11071""
""focus"",""9"",""26890""
""focus"",""12"",""54924""
""focus"",""14"",""73755""
""focus"",""15"",""83372""
""focus"",""34"",""134088""
""focus"",""37"",""156259""
""focus"",""42"",""197421""
","""event"",""trial"",""time""
""fullscreenenter"",""1"",""1779""
","
","","","","","","null","<div style=""font-size:60px;"">+</div>","null","","fixation","","",""
"memory-trial","90","270962","0.0-18.0-1.23","6133","approach_avoid_sv1","""event"",""trial"",""time""
""fullscreenenter"",""1"",""1779""
""blur"",""2"",""3019""
""focus"",""5"",""11071""
""blur"",""8"",""17800""
""focus"",""9"",""26890""
""blur"",""12"",""48316""
""focus"",""12"",""54924""
""blur"",""14"",""70374""
""focus"",""14"",""73755""
""blur"",""15"",""75333""
""focus"",""15"",""83372""
""blur"",""34"",""128183""
""focus"",""34"",""134088""
""blur"",""37"",""146642""
""focus"",""37"",""156259""
""blur"",""42"",""190367""
""focus"",""42"",""197421""
","""event"",""trial"",""time""
""blur"",""2"",""3019""
""blur"",""8"",""17800""
""blur"",""12"",""48316""
""blur"",""14"",""70374""
""blur"",""15"",""75333""
""blur"",""34"",""128183""
""blur"",""37"",""146642""
""blur"",""42"",""190367""
","""event"",""trial"",""time""
""focus"",""5"",""11071""
""focus"",""9"",""26890""
""focus"",""12"",""54924""
""focus"",""14"",""73755""
""focus"",""15"",""83372""
""focus"",""34"",""134088""
""focus"",""37"",""156259""
""focus"",""42"",""197421""
","""event"",""trial"",""time""
""fullscreenenter"",""1"",""1779""
","
","","","","","","1351.8999999761581","images/table8.png","","","memory_trial","3","maybe_new",""
"html-keyboard-response","91","271474","0.0-18.0-0.24","6133","approach_avoid_sv1","""event"",""trial"",""time""
""fullscreenenter"",""1"",""1779""
""blur"",""2"",""3019""
""focus"",""5"",""11071""
""blur"",""8"",""17800""
""focus"",""9"",""26890""
""blur"",""12"",""48316""
""focus"",""12"",""54924""
""blur"",""14"",""70374""
