"trial_type","trial_index","time_elapsed","internal_node_id","subject_id","task_version","interactions","blur_events","focus_events","fullscreenenter_events","fullscreenexit_events","success","timeout","failed_images","failed_audio","failed_video","rt","stimulus","response","button_pressed","task_part","key_press","answer","correct"
"pavlovia","0","1","0.0-0.0","7817","approach_avoid_sv1","""event"",""trial"",""time""
""fullscreenenter"",""1"",""2078""
","
","
","""event"",""trial"",""time""
""fullscreenenter"",""1"",""2078""
","
","","","","","","","","","","","","",""
"fullscreen","1","3034","0.0-1.0","7817","approach_avoid_sv1","""event"",""trial"",""time""
""fullscreenenter"",""1"",""2078""
","
","
","""event"",""trial"",""time""
""fullscreenenter"",""1"",""2078""
","
","true","","","","","","","","","","","",""
"preload","2","3050","0.0-2.0","7817","approach_avoid_sv1","""event"",""trial"",""time""
""fullscreenenter"",""1"",""2078""
","
","
","""event"",""trial"",""time""
""fullscreenenter"",""1"",""2078""
","
","true","false","[]","[]","[]","","","","","","","",""
"preload","3","3066","0.0-3.0","7817","approach_avoid_sv1","""event"",""trial"",""time""
""fullscreenenter"",""1"",""2078""
","
","
","""event"",""trial"",""time""
""fullscreenenter"",""1"",""2078""
","
","true","false","[]","[]","[]","","","","","","","",""
"preload","4","3093","0.0-4.0","7817","approach_avoid_sv1","""event"",""trial"",""time""
""fullscreenenter"",""1"",""2078""
","
","
","""event"",""trial"",""time""
""fullscreenenter"",""1"",""2078""
","
","true","false","[]","[]","[]","","","","","","","",""
"audio-keyboard-response","5","8384","0.0-5.0","7817","approach_avoid_sv1","""event"",""trial"",""time""
""fullscreenenter"",""1"",""2078""
","
","
","""event"",""trial"",""time""
""fullscreenenter"",""1"",""2078""
","
","","","","","","4749.333333333333","audio/beep_loop.wav","audiovolumedown","","","","",""
"audio-button-response","6","10068","0.0-6.0","7817","approach_avoid_sv1","""event"",""trial"",""time""
""fullscreenenter"",""1"",""2078""
","
","
","""event"",""trial"",""time""
""fullscreenenter"",""1"",""2078""
","
","","","","","","1680","audio/turtle.wav","3","","","","",""
"audio-button-response","7","12286","0.0-7.0","7817","approach_avoid_sv1","""event"",""trial"",""time""
""fullscreenenter"",""1"",""2078""
","
","
","""event"",""trial"",""time""
""fullscreenenter"",""1"",""2078""
","
","","","","","","1221","audio/shark.wav","2","","","","",""
"preload","8","28996","0.0-8.0","7817","approach_avoid_sv1","""event"",""trial"",""time""
""fullscreenenter"",""1"",""2078""
","
","
","""event"",""trial"",""time""
""fullscreenenter"",""1"",""2078""
","
","true","false","[]","[]","[]","","","","","","","",""
"learning-instructions","9","35872","0.0-9.0-0.0","7817","approach_avoid_sv1","""event"",""trial"",""time""
""fullscreenenter"",""1"",""2078""
","
","
","""event"",""trial"",""time""
""fullscreenenter"",""1"",""2078""
","
","","","","","","2395.600000023842","<p> Welcome back! </p><p> Last week, you had to make choices about lots of different items.  </p>","","0","instructions","","",""
"learning-instructions","10","41910","0.0-9.0-0.1","7817","approach_avoid_sv1","""event"",""trial"",""time""
""fullscreenenter"",""1"",""2078""
","
","
","""event"",""trial"",""time""
""fullscreenenter"",""1"",""2078""
","
","","","","","","1914","<p> Today, we are going to ask you to try to remember all the items. </p>","","0","instructions","","",""
"learning-instructions","11","53076","0.0-9.0-0.2","7817","approach_avoid_sv1","""event"",""trial"",""time""
""fullscreenenter"",""1"",""2078""
","
","
","""event"",""trial"",""time""
""fullscreenenter"",""1"",""2078""
","
","","","","","","1040.300000011921","<p> On every trial, you will see an image. </p><p> The image may be an OLD image you saw during the games last week or it may be a NEW image that was not presented. </p>","","0","instructions","","",""
"learning-instructions","12","62605","0.0-9.0-0.3","7817","approach_avoid_sv1","""event"",""trial"",""time""
""fullscreenenter"",""1"",""2078""
","
","
","""event"",""trial"",""time""
""fullscreenenter"",""1"",""2078""
","
","","","","","","1038","<p> You need to select whether the image is:  </p><p>  'Definitely old', 'Maybe old', 'Maybe new', or 'Definitely new.'  </p><div class=""mem-choice-instructions-grid""><div class=""choice-option"" id=""choice-option-1"" ><img src=""images/definitely_old_1.png"" id=""choice-option-img-1"" class=""choice-option-img"" stage=""1""></div><div class=""choice-option"" id=""choice-option-2"" ><img src=""images/maybe_old_1.png"" id=""choice-option-img-2"" class=""choice-option-img"" stage=""1""></div><div class=""choice-option"" id=""choice-option-3"" ><img src=""images/maybe_new_1.png"" id=""choice-option-img-3"" class=""choice-option-img"" stage=""1""></div><div class=""choice-option"" id=""choice-option-4"" > <img src=""images/definitely_new_1.png"" id=""choice-option-img-4"" class=""choice-option-img"" stage=""1""></div></div>","","0","instructions","","",""
"learning-instructions","13","82780","0.0-9.0-0.4","7817","approach_avoid_sv1","""event"",""trial"",""time""
""fullscreenenter"",""1"",""2078""
","
","
","""event"",""trial"",""time""
""fullscreenenter"",""1"",""2078""
","
","","","","","","13652.90000000596","<p> You should use the 1, 2, 3, and 4 keys to make your responses.  </p><div class=""mem-choice-instructions-grid""><div class=""choice-option"" id=""choice-option-1"" ><img src=""images/definitely_old.png"" id=""choice-option-img-1"" class=""choice-option-img"" stage=""1""></div><div class=""choice-option"" id=""choice-option-2"" ><img src=""images/maybe_old.png"" id=""choice-option-img-2"" class=""choice-option-img"" stage=""1""></div><div class=""choice-option"" id=""choice-option-3"" ><img src=""images/maybe_new.png"" id=""choice-option-img-3"" class=""choice-option-img"" stage=""1""></div><div class=""choice-option"" id=""choice-option-4"" > <img src=""images/definitely_new.png"" id=""choice-option-img-4"" class=""choice-option-img"" stage=""1""></div></div>","","0","instructions","","",""
"learning-instructions","14","200895","0.0-9.0-0.5","7817","approach_avoid_sv1","""event"",""trial"",""time""
""fullscreenenter"",""1"",""2078""
","
","
","""event"",""trial"",""time""
""fullscreenenter"",""1"",""2078""
","
","","","","","","111780.59999999404","<p> You will have 10 seconds to make each response.  </p><p>  Make sure to respond before time runs out! </p>","","0","instructions","","",""
"learning-instructions","15","209495","0.0-9.0-0.6","7817","approach_avoid_sv1","""event"",""trial"",""time""
""fullscreenenter"",""1"",""2078""
","
","
","""event"",""trial"",""time""
""fullscreenenter"",""1"",""2078""
","
","","","","","","454.59999999403954","<p> Today, you will see each image ONCE only.  </p><p>  That means none of the images will repeat. </p>","","0","instructions","","",""
"learning-instructions","16","222603","0.0-9.0-0.7","7817","approach_avoid_sv1","""event"",""trial"",""time""
""fullscreenenter"",""1"",""2078""
","
","
","""event"",""trial"",""time""
""fullscreenenter"",""1"",""2078""
","
","","","","","","433.2000000178814","<p> Before you play the real game, it is time to practice. </p><p>  Just like in the real game, some of the images in the practice will be ones you have seen before. </p><p>  Others will be entirely new. </p>","","0","instructions","","",""
"html-button-response","17","225682","0.0-10.0","7817","approach_avoid_sv1","""event"",""trial"",""time""
""fullscreenenter"",""1"",""2078""
","
","
","""event"",""trial"",""time""
""fullscreenenter"",""1"",""2078""
","
","","","","","","2967.300000011921","<p> Ready to practice? </p><p> Remember, use the 1, 2, 3, and 4 keys to make your responses. </p>","0","","instructions","","",""
"html-keyboard-response","18","226302","0.0-11.0-0.0","7817","approach_avoid_sv1","""event"",""trial"",""time""
""fullscreenenter"",""1"",""2078""
","
","
","""event"",""trial"",""time""
""fullscreenenter"",""1"",""2078""
","
","","","","","","null","<div style=""font-size:60px;"">+</div>","null","","fixation","","",""
"memory-trial","19","230622","0.0-11.0-1.0","7817","approach_avoid_sv1","""event"",""trial"",""time""
""fullscreenenter"",""1"",""2078""
","
","
","""event"",""trial"",""time""
""fullscreenenter"",""1"",""2078""
","
","","","","","","3314.0999999940395","images/racket1.png","","","practice","2","maybe_old",""
"html-keyboard-response","20","231132","0.0-11.0-0.1","7817","approach_avoid_sv1","""event"",""trial"",""time""
""fullscreenenter"",""1"",""2078""
","
","
","""event"",""trial"",""time""
""fullscreenenter"",""1"",""2078""
","
","","","","","","null","<div style=""font-size:60px;"">+</div>","null","","fixation","","",""
"memory-trial","21","235014","0.0-11.0-1.1","7817","approach_avoid_sv1","""event"",""trial"",""time""
""fullscreenenter"",""1"",""2078""
","
","
","""event"",""trial"",""time""
""fullscreenenter"",""1"",""2078""
","
","","","","","","2872.5","images/racket3.png","","","practice","2","maybe_old",""
"html-keyboard-response","22","235522","0.0-11.0-0.2","7817","approach_avoid_sv1","""event"",""trial"",""time""
""fullscreenenter"",""1"",""2078""
","
","
","""event"",""trial"",""time""
""fullscreenenter"",""1"",""2078""
","
","","","","","","null","<div style=""font-size:60px;"">+</div>","null","","fixation","","",""
"memory-trial","23","239962","0.0-11.0-1.2","7817","approach_avoid_sv1","""event"",""trial"",""time""
""fullscreenenter"",""1"",""2078""
","
","
","""event"",""trial"",""time""
""fullscreenenter"",""1"",""2078""
","
","","","","","","3436.4000000059605","images/racket2.png","","","practice","4","definitely_new",""
"html-keyboard-response","24","240464","0.0-11.0-0.3","7817","approach_avoid_sv1","""event"",""trial"",""time""
""fullscreenenter"",""1"",""2078""
","
","
","""event"",""trial"",""time""
""fullscreenenter"",""1"",""2078""
","
","","","","","","null","<div style=""font-size:60px;"">+</div>","null","","fixation","","",""
"memory-trial","25","243382","0.0-11.0-1.3","7817","approach_avoid_sv1","""event"",""trial"",""time""
""fullscreenenter"",""1"",""2078""
","
","
","""event"",""trial"",""time""
""fullscreenenter"",""1"",""2078""
","
","","","","","","1904.0999999940395","images/racket5.png","","","practice","4","definitely_new",""
"html-keyboard-response","26","243890","0.0-11.0-0.4","7817","approach_avoid_sv1","""event"",""trial"",""time""
""fullscreenenter"",""1"",""2078""
","
","
","""event"",""trial"",""time""
""fullscreenenter"",""1"",""2078""
","
","","","","","","null","<div style=""font-size:60px;"">+</div>","null","","fixation","","",""
"memory-trial","27","248157","0.0-11.0-1.4","7817","approach_avoid_sv1","""event"",""trial"",""time""
""fullscreenenter"",""1"",""2078""
","
","
","""event"",""trial"",""time""
""fullscreenenter"",""1"",""2078""
","
","","","","","","3256.800000011921","images/ball3.png","","","practice","2","maybe_old",""
"html-keyboard-response","28","248660","0.0-11.0-0.5","7817","approach_avoid_sv1","""event"",""trial"",""time""
""fullscreenenter"",""1"",""2078""
","
","
","""event"",""trial"",""time""
""fullscreenenter"",""1"",""2078""
","
","","","","","","null","<div style=""font-size:60px;"">+</div>","null","","fixation","","",""
"memory-trial","29","251816","0.0-11.0-1.5","7817","approach_avoid_sv1","""event"",""trial"",""time""
""fullscreenenter"",""1"",""2078""
","
","
","""event"",""trial"",""time""
""fullscreenenter"",""1"",""2078""
","
","","","","","","2149","images/ball2.png","","","practice","2","maybe_old",""
"html-keyboard-response","30","252318","0.0-11.0-0.6","7817","approach_avoid_sv1","""event"",""trial"",""time""
""fullscreenenter"",""1"",""2078""
","
","
","""event"",""trial"",""time""
""fullscreenenter"",""1"",""2078""
","
","","","","","","null","<div style=""font-size:60px;"">+</div>","null","","fixation","","",""
"memory-trial","31","254574","0.0-11.0-1.6","7817","approach_avoid_sv1","""event"",""trial"",""time""
""fullscreenenter"",""1"",""2078""
","
","
","""event"",""trial"",""time""
""fullscreenenter"",""1"",""2078""
","
","","","","","","1251.4000000059605","images/ball5.png","","","practice","2","maybe_old",""
"html-keyboard-response","32","255081","0.0-11.0-0.7","7817","approach_avoid_sv1","""event"",""trial"",""time""
""fullscreenenter"",""1"",""2078""
","
","
","""event"",""trial"",""time""
""fullscreenenter"",""1"",""2078""
","
","","","","","","null","<div style=""font-size:60px;"">+</div>","null","","fixation","","",""
"memory-trial","33","258476","0.0-11.0-1.7","7817","approach_avoid_sv1","""event"",""trial"",""time""
""fullscreenenter"",""1"",""2078""
","
","
","""event"",""trial"",""time""
""fullscreenenter"",""1"",""2078""
","
","","","","","","2392.0999999940395","images/ball1.png","","","practice","2","maybe_old",""
"learning-instructions","34","267181","0.0-12.0-0.0","7817","approach_avoid_sv1","""event"",""trial"",""time""
""fullscreenenter"",""1"",""2078""
","
","
","""event"",""trial"",""time""
""fullscreenenter"",""1"",""2078""
","
","","","","","","812.5","<p> Great! You have completed the practice. </p><p> Before you start, we're going to ask you a few questions about how the game works.  </p>","","0","instructions","","",""
"preload","35","301775","0.0-13.0","7817","approach_avoid_sv1","""event"",""trial"",""time""
""fullscreenenter"",""1"",""2078""
","
","
","""event"",""trial"",""time""
""fullscreenenter"",""1"",""2078""
","
","true","false","[]","[]","[]","","","","","","","",""
"comp-q","36","313103","0.0-14.0-0.0","7817","approach_avoid_sv1","""event"",""trial"",""time""
""fullscreenenter"",""1"",""2078""
","
","
","""event"",""trial"",""time""
""fullscreenenter"",""1"",""2078""
","
","","","","","","4913.800000011921","<p> <b> True or False? </b> </p><p> In this game, you will only see each image once. </p>","","1","comp_question","","","false"
"comp-q","37","320697","0.0-14.0-1.0","7817","approach_avoid_sv1","""event"",""trial"",""time""
""fullscreenenter"",""1"",""2078""
","
","
","""event"",""trial"",""time""
""fullscreenenter"",""1"",""2078""
","
","","","","","","1057.2000000178814","<p> <b>Incorrect.</b> You will see many different images <i> one time each </i> in this game. </p>","","0","comp_answer","","",""
"comp-q","38","327488","0.0-14.1-0.1","7817","approach_avoid_sv1","""event"",""trial"",""time""
""fullscreenenter"",""1"",""2078""
","
","
","""event"",""trial"",""time""
""fullscreenenter"",""1"",""2078""
","
","","","","","","860.3999999761581","<p> <b> True or False? </b> </p><p> In this game, you will only see each image once. </p>","","0","comp_question","","","true"
"comp-q","39","335208","0.0-14.1-1.1","7817","approach_avoid_sv1","""event"",""trial"",""time""
""fullscreenenter"",""1"",""2078""
","
","
","""event"",""trial"",""time""
""fullscreenenter"",""1"",""2078""
","
","","","","","","1380","<p> <b> That's right! </b> You will see many different images <i> one time each </i> in this game. </p>","","0","comp_answer","","",""
"comp-q","40","341282","0.0-15.0-0.0","7817","approach_avoid_sv1","""event"",""trial"",""time""
""fullscreenenter"",""1"",""2078""
","
","
","""event"",""trial"",""time""
""fullscreenenter"",""1"",""2078""
","
","","","","","","1064.5999999940395","<p> <b> True or False? </b> </p><p> You should use the mouse and click to make your response. </p>","","1","comp_question","","","true"
"comp-q","41","348703","0.0-15.0-1.0","7817","approach_avoid_sv1","""event"",""trial"",""time""
""fullscreenenter"",""1"",""2078""
","
","
","""event"",""trial"",""time""
""fullscreenenter"",""1"",""2078""
","
","","","","","","915.3000000119209","<p><b> That's right! </b> You should use the '1', '2', '3', and '4' keys to make your response. </p>","","0","comp_answer","","",""
"comp-q","42","355302","0.0-16.0-0.0","7817","approach_avoid_sv1","""event"",""trial"",""time""
""fullscreenenter"",""1"",""2078""
","
","
","""event"",""trial"",""time""
""fullscreenenter"",""1"",""2078""
","
","","","","","","923.6999999880791","<p> <b> True or False? </b> </p><p> You will have as much time as you want to make each choice. </p>","","1","comp_question","","","true"
"comp-q","43","420231","0.0-16.0-1.0","7817","approach_avoid_sv1","""event"",""trial"",""time""
""fullscreenenter"",""1"",""2078""
","
","
","""event"",""trial"",""time""
""fullscreenenter"",""1"",""2078""
","
","","","","","","60241.59999999404","<p> <b> That's right! </b> You will only have 10 seconds to make each choice. </p>","","0","comp_answer","","",""
"learning-instructions","44","715450","0.0-17.0","7817","approach_avoid_sv1","""event"",""trial"",""time""
""fullscreenenter"",""1"",""2078""
","
","
","""event"",""trial"",""time""
""fullscreenenter"",""1"",""2078""
","
","","","","","","285492.3000000119","<p> Great! You are now ready to begin the game. </p><p> Remember, use the 1, 2, 3, and 4 keys to make your responses. </p>","","0","instructions","","",""
"html-keyboard-response","45","716051","0.0-18.0-0.0","7817","approach_avoid_sv1","""event"",""trial"",""time""
""fullscreenenter"",""1"",""2078""
","
","
","""event"",""trial"",""time""
""fullscreenenter"",""1"",""2078""
","
","","","","","","null","<div style=""font-size:60px;"">+</div>","null","","fixation","","",""
"memory-trial","46","719058","0.0-18.0-1.0","7817","approach_avoid_sv1","""event"",""trial"",""time""
""fullscreenenter"",""1"",""2078""
","
","
","""event"",""trial"",""time""
""fullscreenenter"",""1"",""2078""
","
","","","","","","2002.699999988079","images/train4.png","","","memory_trial","2","maybe_old",""
"html-keyboard-response","47","719559","0.0-18.0-0.1","7817","approach_avoid_sv1","""event"",""trial"",""time""
""fullscreenenter"",""1"",""2078""
","
","
","""event"",""trial"",""time""
""fullscreenenter"",""1"",""2078""
","
","","","","","","null","<div style=""font-size:60px;"">+</div>","null","","fixation","","",""
"memory-trial","48","724729","0.0-18.0-1.1","7817","approach_avoid_sv1","""event"",""trial"",""time""
""fullscreenenter"",""1"",""2078""
","
","
","""event"",""trial"",""time""
""fullscreenenter"",""1"",""2078""
","
","","","","","","4168.300000011921","images/bed6.png","","","memory_trial","1","definitely_old",""
"html-keyboard-response","49","725231","0.0-18.0-0.2","7817","approach_avoid_sv1","""event"",""trial"",""time""
""fullscreenenter"",""1"",""2078""
","
","
","""event"",""trial"",""time""
""fullscreenenter"",""1"",""2078""
","
","","","","","","null","<div style=""font-size:60px;"">+</div>","null","","fixation","","",""
"memory-trial","50","727407","0.0-18.0-1.2","7817","approach_avoid_sv1","""event"",""trial"",""time""
""fullscreenenter"",""1"",""2078""
","
","
","""event"",""trial"",""time""
""fullscreenenter"",""1"",""2078""
","
","","","","","","1173","images/truck8.png","","","memory_trial","1","definitely_old",""
"html-keyboard-response","51","727908","0.0-18.0-0.3","7817","approach_avoid_sv1","""event"",""trial"",""time""
""fullscreenenter"",""1"",""2078""
","
","
","""event"",""trial"",""time""
""fullscreenenter"",""1"",""2078""
","
","","","","","","null","<div style=""font-size:60px;"">+</div>","null","","fixation","","",""
"memory-trial","52","731888","0.0-18.0-1.3","7817","approach_avoid_sv1","""event"",""trial"",""time""
""fullscreenenter"",""1"",""2078""
","
","
","""event"",""trial"",""time""
""fullscreenenter"",""1"",""2078""
","
","","","","","","2978.199999988079","images/truck4.png","","","memory_trial","4","definitely_new",""
"html-keyboard-response","53","732389","0.0-18.0-0.4","7817","approach_avoid_sv1","""event"",""trial"",""time""
""fullscreenenter"",""1"",""2078""
","
","
","""event"",""trial"",""time""
""fullscreenenter"",""1"",""2078""
","
","","","","","","null","<div style=""font-size:60px;"">+</div>","null","","fixation","","",""
"memory-trial","54","734966","0.0-18.0-1.4","7817","approach_avoid_sv1","""event"",""trial"",""time""
""fullscreenenter"",""1"",""2078""
","
","
","""event"",""trial"",""time""
""fullscreenenter"",""1"",""2078""
","
","","","","","","1573.300000011921","images/chair4.png","","","memory_trial","1","definitely_old",""
"html-keyboard-response","55","735467","0.0-18.0-0.5","7817","approach_avoid_sv1","""event"",""trial"",""time""
""fullscreenenter"",""1"",""2078""
","
","
","""event"",""trial"",""time""
""fullscreenenter"",""1"",""2078""
","
","","","","","","null","<div style=""font-size:60px;"">+</div>","null","","fixation","","",""
"memory-trial","56","737808","0.0-18.0-1.5","7817","approach_avoid_sv1","""event"",""trial"",""time""
""fullscreenenter"",""1"",""2078""
","
","
","""event"",""trial"",""time""
""fullscreenenter"",""1"",""2078""
","
","","","","","","1338.699999988079","images/rabbit3.png","","","memory_trial","4","definitely_new",""
"html-keyboard-response","57","738310","0.0-18.0-0.6","7817","approach_avoid_sv1","""event"",""trial"",""time""
""fullscreenenter"",""1"",""2078""
","
","
","""event"",""trial"",""time""
""fullscreenenter"",""1"",""2078""
","
","","","","","","null","<div style=""font-size:60px;"">+</div>","null","","fixation","","",""
"memory-trial","58","741442","0.0-18.0-1.6","7817","approach_avoid_sv1","""event"",""trial"",""time""
""fullscreenenter"",""1"",""2078""
","
","
","""event"",""trial"",""time""
""fullscreenenter"",""1"",""2078""
","
","","","","","","2129.5999999940395","images/cow4.png","","","memory_trial","1","definitely_old",""
"html-keyboard-response","59","741944","0.0-18.0-0.7","7817","approach_avoid_sv1","""event"",""trial"",""time""
""fullscreenenter"",""1"",""2078""
","
","
","""event"",""trial"",""time""
""fullscreenenter"",""1"",""2078""
","
","","","","","","null","<div style=""font-size:60px;"">+</div>","null","","fixation","","",""
"memory-trial","60","745816","0.0-18.0-1.7","7817","approach_avoid_sv1","""event"",""trial"",""time""
""fullscreenenter"",""1"",""2078""
","
","
","""event"",""trial"",""time""
""fullscreenenter"",""1"",""2078""
","
","","","","","","2869.5","images/table6.png","","","memory_trial","3","maybe_new",""
"html-keyboard-response","61","746317","0.0-18.0-0.8","7817","approach_avoid_sv1","""event"",""trial"",""time""
""fullscreenenter"",""1"",""2078""
","
","
","""event"",""trial"",""time""
""fullscreenenter"",""1"",""2078""
","
","","","","","","null","<div style=""font-size:60px;"">+</div>","null","","fixation","","",""
"memory-trial","62","748953","0.0-18.0-1.8","7817","approach_avoid_sv1","""event"",""trial"",""time""
""fullscreenenter"",""1"",""2078""
","
","
","""event"",""trial"",""time""
""fullscreenenter"",""1"",""2078""
","
","","","","","","1633.4000000059605","images/orange5.png","","","memory_trial","2","maybe_old",""
"html-keyboard-response","63","749454","0.0-18.0-0.9","7817","approach_avoid_sv1","""event"",""trial"",""time""
""fullscreenenter"",""1"",""2078""
","
","
","""event"",""trial"",""time""
""fullscreenenter"",""1"",""2078""
","
","","","","","","null","<div style=""font-size:60px;"">+</div>","null","","fixation","","",""
"memory-trial","64","752495","0.0-18.0-1.9","7817","approach_avoid_sv1","""event"",""trial"",""time""
""fullscreenenter"",""1"",""2078""
","
","
","""event"",""trial"",""time""
""fullscreenenter"",""1"",""2078""
","
","","","","","","2039.5999999940395","images/table8.png","","","memory_trial","3","maybe_new",""
"html-keyboard-response","65","752997","0.0-18.0-0.10","7817","approach_avoid_sv1","""event"",""trial"",""time""
""fullscreenenter"",""1"",""2078""
","
","
","""event"",""trial"",""time""
""fullscreenenter"",""1"",""2078""
","
","","","","","","null","<div style=""font-size:60px;"">+</div>","null","","fixation","","",""
"memory-trial","66","755947","0.0-18.0-1.10","7817","approach_avoid_sv1","""event"",""trial"",""time""
""fullscreenenter"",""1"",""2078""
","
","
","""event"",""trial"",""time""
""fullscreenenter"",""1"",""2078""
","
","","","","","","1947.199999988079","images/horse3.png","","","memory_trial","4","definitely_new",""
"html-keyboard-response","67","756449","0.0-18.0-0.11","7817","approach_avoid_sv1","""event"",""trial"",""time""
""fullscreenenter"",""1"",""2078""
","
","
","""event"",""trial"",""time""
""fullscreenenter"",""1"",""2078""
","
","","","","","","null","<div style=""font-size:60px;"">+</div>","null","","fixation","","",""
"memory-trial","68","758741","0.0-18.0-1.11","7817","approach_avoid_sv1","""event"",""trial"",""time""
""fullscreenenter"",""1"",""2078""
","
","
","""event"",""trial"",""time""
""fullscreenenter"",""1"",""2078""
","
","","","","","","1287.300000011921","images/sofa4.png","","","memory_trial","1","definitely_old",""
"html-keyboard-response","69","759242","0.0-18.0-0.12","7817","approach_avoid_sv1","""event"",""trial"",""time""
""fullscreenenter"",""1"",""2078""
","
","
","""event"",""trial"",""time""
""fullscreenenter"",""1"",""2078""
","
","","","","","","null","<div style=""font-size:60px;"">+</div>","null","","fixation","","",""
"memory-trial","70","761451","0.0-18.0-1.12","7817","approach_avoid_sv1","""event"",""trial"",""time""
""fullscreenenter"",""1"",""2078""
","
","
","""event"",""trial"",""time""
""fullscreenenter"",""1"",""2078""
","
","","","","","","1206.300000011921","images/flower1.png","","","memory_trial","1","definitely_old",""
"html-keyboard-response","71","761951","0.0-18.0-0.13","7817","approach_avoid_sv1","""event"",""trial"",""time""
""fullscreenenter"",""1"",""2078""
","
","
","""event"",""trial"",""time""
""fullscreenenter"",""1"",""2078""
","
","","","","","","null","<div style=""font-size:60px;"">+</div>","null","","fixation","","",""
"memory-trial","72","764640","0.0-18.0-1.13","7817","approach_avoid_sv1","""event"",""trial"",""time""
""fullscreenenter"",""1"",""2078""
","
","
","""event"",""trial"",""time""
""fullscreenenter"",""1"",""2078""
","
","","","","","","1686.5999999940395","images/goat5.png","","","memory_trial","3","maybe_new",""
"html-keyboard-response","73","765142","0.0-18.0-0.14","7817","approach_avoid_sv1","""event"",""trial"",""time""
""fullscreenenter"",""1"",""2078""
","
","
","""event"",""trial"",""time""
""fullscreenenter"",""1"",""2078""
","
","","","","","","null","<div style=""font-size:60px;"">+</div>","null","","fixation","","",""
"memory-trial","74","767372","0.0-18.0-1.14","7817","approach_avoid_sv1","""event"",""trial"",""time""
""fullscreenenter"",""1"",""2078""
","
","
","""event"",""trial"",""time""
""fullscreenenter"",""1"",""2078""
","
","","","","","","1226.699999988079","images/flower7.png","","","memory_trial","1","definitely_old",""
"html-keyboard-response","75","767877","0.0-18.0-0.15","7817","approach_avoid_sv1","""event"",""trial"",""time""
""fullscreenenter"",""1"",""2078""
","
","
","""event"",""trial"",""time""
""fullscreenenter"",""1"",""2078""
","
","","","","","","null","<div style=""font-size:60px;"">+</div>","null","","fixation","","",""
"memory-trial","76","770086","0.0-18.0-1.15","7817","approach_avoid_sv1","""event"",""trial"",""time""
""fullscreenenter"",""1"",""2078""
","
","
","""event"",""trial"",""time""
""fullscreenenter"",""1"",""2078""
","
","","","","","","1207.5999999940395","images/chair6.png","","","memory_trial","4","definitely_new",""
"html-keyboard-response","77","770588","0.0-18.0-0.16","7817","approach_avoid_sv1","""event"",""trial"",""time""
""fullscreenenter"",""1"",""2078""
","
","
","""event"",""trial"",""time""
""fullscreenenter"",""1"",""2078""
","
","","","","","","null","<div style=""font-size:60px;"">+</div>","null","","fixation","","",""
"memory-trial","78","775417","0.0-18.0-1.16","7817","approach_avoid_sv1","""event"",""trial"",""time""
""fullscreenenter"",""1"",""2078""
","
","
","""event"",""trial"",""time""
""fullscreenenter"",""1"",""2078""
","
","","","","","","3826.4000000059605","images/sheep8.png","","","memory_trial","2","maybe_old",""
"html-keyboard-response","79","775918","0.0-18.0-0.17","7817","approach_avoid_sv1","""event"",""trial"",""time""
""fullscreenenter"",""1"",""2078""
","
","
","""event"",""trial"",""time""
""fullscreenenter"",""1"",""2078""
","
","","","","","","null","<div style=""font-size:60px;"">+</div>","null","","fixation","","",""
"memory-trial","80","778126","0.0-18.0-1.17","7817","approach_avoid_sv1","""event"",""trial"",""time""
""fullscreenenter"",""1"",""2078""
","
","
","""event"",""trial"",""time""
""fullscreenenter"",""1"",""2078""
","
","","","","","","1204.5","images/bush3.png","","","memory_trial","2","maybe_old",""
"html-keyboard-response","81","778628","0.0-18.0-0.18","7817","approach_avoid_sv1","""event"",""trial"",""time""
""fullscreenenter"",""1"",""2078""
","
","
","""event"",""trial"",""time""
""fullscreenenter"",""1"",""2078""
","
","","","","","","null","<div style=""font-size:60px;"">+</div>","null","","fixation","","",""
"memory-trial","82","780816","0.0-18.0-1.18","7817","approach_avoid_sv1","""event"",""trial"",""time""
""fullscreenenter"",""1"",""2078""
","
","
","""event"",""trial"",""time""
""fullscreenenter"",""1"",""2078""
","
","","","","","","1185","images/dog7.png","","","memory_trial","2","maybe_old",""
"html-keyboard-response","83","781318","0.0-18.0-0.19","7817","approach_avoid_sv1","""event"",""trial"",""time""
""fullscreenenter"",""1"",""2078""
","
","
","""event"",""trial"",""time""
""fullscreenenter"",""1"",""2078""
","
","","","","","","null","<div style=""font-size:60px;"">+</div>","null","","fixation","","",""
"memory-trial","84","783580","0.0-18.0-1.19","7817","approach_avoid_sv1","""event"",""trial"",""time""
""fullscreenenter"",""1"",""2078""
","
","
","""event"",""trial"",""time""
""fullscreenenter"",""1"",""2078""
","
","","","","","","1260.6000000238419","images/rodent6.png","","","memory_trial","2","maybe_old",""
"html-keyboard-response","85","784081","0.0-18.0-0.20","7817","approach_avoid_sv1","""event"",""trial"",""time""
""fullscreenenter"",""1"",""2078""
","
","
","""event"",""trial"",""time""
""fullscreenenter"",""1"",""2078""
","
","","","","","","null","<div style=""font-size:60px;"">+</div>","null","","fixation","","",""
"memory-trial","86","786363","0.0-18.0-1.20","7817","approach_avoid_sv1","""event"",""trial"",""time""
""fullscreenenter"",""1"",""2078""
","
","
","""event"",""trial"",""time""
""fullscreenenter"",""1"",""2078""
","
","","","","","","1278.7000000178814","images/chair7.png","","","memory_trial","3","maybe_new",""
"html-keyboard-response","87","786878","0.0-18.0-0.21","7817","approach_avoid_sv1","""event"",""trial"",""time""
""fullscreenenter"",""1"",""2078""
","
","
","""event"",""trial"",""time""
""fullscreenenter"",""1"",""2078""
","
","","","","","","null","<div style=""font-size:60px;"">+</div>","null","","fixation","","",""
"memory-trial","88","789427","0.0-18.0-1.21","7817","approach_avoid_sv1","""event"",""trial"",""time""
""fullscreenenter"",""1"",""2078""
","
","
","""event"",""trial"",""time""
""fullscreenenter"",""1"",""2078""
","
","","","","","","1546.2999999821186","images/horse2.png","","","memory_trial","4","definitely_new",""
"html-keyboard-response","89","789928","0.0-18.0-0.22","7817","approach_avoid_sv1","""event"",""trial"",""time""
""fullscreenenter"",""1"",""2078""
","
","
","""event"",""trial"",""time""
""fullscreenenter"",""1"",""2078""
","
","","","","","","null","<div style=""font-size:60px;"">+</div>","null","","fixation","","",""
"memory-trial","90","792245","0.0-18.0-1.22","7817","approach_avoid_sv1","""event"",""trial"",""time""
""fullscreenenter"",""1"",""2078""
","
","
","""event"",""trial"",""time""
""fullscreenenter"",""1"",""2078""
","
","","","","","","1315.0999999940395","images/plane6.png","","","memory_trial","3","maybe_new",""
"html-keyboard-response","91","792747","0.0-18.0-0.23","7817","approach_avoid_sv1","""event"",""trial"",""time""
""fullscreenenter"",""1"",""2078""
","
","
","""event"",""trial"",""time""
""fullscreenenter"",""1"",""2078""
","
","","","","","","null","<div style=""font-size:60px;"">+</div>","null","","fixation","","",""
"memory-trial","92","794942","0.0-18.0-1.23","7817","approach_avoid_sv1","""event"",""trial"",""time""
""fullscreenenter"",""1"",""2078""
","
","
","""event"",""trial"",""time""
""fullscreenenter"",""1"",""2078""
","
","","","","","","1191.9000000059605","images/banana1.png","","","memory_trial","3","maybe_new",""
"html-keyboard-response","93","795443","0.0-18.0-0.24","7817","approach_avoid_sv1","""event"",""trial"",""time""
""fullscreenenter"",""1"",""2078""
","
","
","""event"",""trial"",""time""
""fullscreenenter"",""1"",""2078""
","
","","","","","","null","<div style=""font-size:60px;"">+</div>","null","","fixation","","",""
"memory-trial","94","797452","0.0-18.0-1.24","7817","approach_avoid_sv1","""event"",""trial"",""time""
""fullscreenenter"",""1"",""2078""
","
","
","""event"",""trial"",""time""
""fullscreenenter"",""1"",""2078""
","
","","","","","","1006.0999999940395","images/tree3.png","","","memory_trial","4","definitely_new",""
"html-keyboard-response","95","797953","0.0-18.0-0.25","7817","approach_avoid_sv1","""event"",""trial"",""time""
""fullscreenenter"",""1"",""2078""
","
","
","""event"",""trial"",""time""
""fullscreenenter"",""1"",""2078""
","
","","","","","","null","<div style=""font-size:60px;"">+</div>","null","","fixation","","",""
"memory-trial","96","800304","0.0-18.0-1.25","7817","approach_avoid_sv1","""event"",""trial"",""time""
""fullscreenenter"",""1"",""2078""
","
","
","""event"",""trial"",""time""
""fullscreenenter"",""1"",""2078""
","
","","","","","","1348.699999988079","images/cow6.png","","","memory_trial","2","maybe_old",""
"html-keyboard-response","97","800805","0.0-18.0-0.26","7817","approach_avoid_sv1","""event"",""trial"",""time""
""fullscreenenter"",""1"",""2078""
","
","
","""event"",""trial"",""time""
""fullscreenenter"",""1"",""2078""
","
","","","","","","null","<div style=""font-size:60px;"">+</div>","null","","fixation","","",""
"memory-trial","98","803068","0.0-18.0-1.26","7817","approach_avoid_sv1","""event"",""trial"",""time""
""fullscreenenter"",""1"",""2078""
","
","
","""event"",""trial"",""time""
""fullscreenenter"",""1"",""2078""
","
","","","","","","1260.300000011921","images/chair3.png","","","memory_trial","1","definitely_old",""
"html-keyboard-response","99","803569","0.0-18.0-0.27","7817","approach_avoid_sv1","""event"",""trial"",""time""
""fullscreenenter"",""1"",""2078""
","
","
","""event"",""trial"",""time""
""fullscreenenter"",""1"",""2078""
","
","","","","","","null","<div style=""font-size:60px;"">+</div>","null","","fixation","","",""
"memory-trial","100","805619","0.0-18.0-1.27","7817","approach_avoid_sv1","""event"",""trial"",""time""
""fullscreenenter"",""1"",""2078""
","
","
","""event"",""trial"",""time""
""fullscreenenter"",""1"",""2078""
","
","","","","","","1047.8999999761581","images/chair8.png","","","memory_trial","1","definitely_old",""
"html-keyboard-response","101","806124","0.0-18.0-0.28","7817","approach_avoid_sv1","""event"",""trial"",""time""
""fullscreenenter"",""1"",""2078""
","
","
","""event"",""trial"",""time""
""fullscreenenter"",""1"",""2078""
","
","","","","","","null","<div style=""font-size:60px;"">+</div>","null","","fixation","","",""
"memory-trial","102","808037","0.0-18.0-1.28","7817","approach_avoid_sv1","""event"",""trial"",""time""
""fullscreenenter"",""1"",""2078""
","
","
","""event"",""trial"",""time""
""fullscreenenter"",""1"",""2078""
","
","","","","","","909.7999999821186","images/plane2.png","","","memory_trial","1","definitely_old",""
"html-keyboard-response","103","808539","0.0-18.0-0.29","7817","approach_avoid_sv1","""event"",""trial"",""time""
""fullscreenenter"",""1"",""2078""
","
","
","""event"",""trial"",""time""
""fullscreenenter"",""1"",""2078""
","
","","","","","","null","<div style=""font-size:60px;"">+</div>","null","","fixation","","",""
"memory-trial","104","810720","0.0-18.0-1.29","7817","approach_avoid_sv1","""event"",""trial"",""time""
""fullscreenenter"",""1"",""2078""
","
","
","""event"",""trial"",""time""
""fullscreenenter"",""1"",""2078""
","
","","","","","","1164.9000000059605","images/sofa3.png","","","memory_trial","1","definitely_old",""
"html-keyboard-response","105","811222","0.0-18.0-0.30","7817","approach_avoid_sv1","""event"",""trial"",""time""
""fullscreenenter"",""1"",""2078""
","
","
","""event"",""trial"",""time""
""fullscreenenter"",""1"",""2078""
","
","","","","","","null","<div style=""font-size:60px;"">+</div>","null","","fixation","","",""
"memory-trial","106","814414","0.0-18.0-1.30","7817","approach_avoid_sv1","""event"",""trial"",""time""
""fullscreenenter"",""1"",""2078""
","
","
","""event"",""trial"",""time""
""fullscreenenter"",""1"",""2078""
","
","","","","","","2190.2000000178814","images/cactus3.png","","","memory_trial","2","maybe_old",""
"html-keyboard-response","107","814915","0.0-18.0-0.31","7817","approach_avoid_sv1","""event"",""trial"",""time""
""fullscreenenter"",""1"",""2078""
","
","
","""event"",""trial"",""time""
""fullscreenenter"",""1"",""2078""
","
","","","","","","null","<div style=""font-size:60px;"">+</div>","null","","fixation","","",""
"memory-trial","108","818223","0.0-18.0-1.31","7817","approach_avoid_sv1","""event"",""trial"",""time""
""fullscreenenter"",""1"",""2078""
","
","
","""event"",""trial"",""time""
""fullscreenenter"",""1"",""2078""
","
","","","","","","2305.100000023842","images/cat3.png","","","memory_trial","2","maybe_old",""
"html-keyboard-response","109","818725","0.0-18.0-0.32","7817","approach_avoid_sv1","""event"",""trial"",""time""
""fullscreenenter"",""1"",""2078""
","
","
","""event"",""trial"",""time""
""fullscreenenter"",""1"",""2078""
","
","","","","","","null","<div style=""font-size:60px;"">+</div>","null","","fixation","","",""
"memory-trial","110","821014","0.0-18.0-1.32","7817","approach_avoid_sv1","""event"",""trial"",""time""
""fullscreenenter"",""1"",""2078""
","
","
","""event"",""trial"",""time""
""fullscreenenter"",""1"",""2078""
","
","","","","","","1286.2999999821186","images/goat2.png","","","memory_trial","2","maybe_old",""
"html-keyboard-response","111","821516","0.0-18.0-0.33","7817","approach_avoid_sv1","""event"",""trial"",""time""
""fullscreenenter"",""1"",""2078""
","
","
","""event"",""trial"",""time""
""fullscreenenter"",""1"",""2078""
","
","","","","","","null","<div style=""font-size:60px;"">+</div>","null","","fixation","","",""
"memory-trial","112","825072","0.0-18.0-1.33","7817","approach_avoid_sv1","""event"",""trial"",""time""
""fullscreenenter"",""1"",""2078""
","
","
","""event"",""trial"",""time""
""fullscreenenter"",""1"",""2078""
","
","","","","","","2554.7000000178814","images/bed8.png","","","memory_trial","1","definitely_old",""
"html-keyboard-response","113","825573","0.0-18.0-0.34","7817","approach_avoid_sv1","""event"",""trial"",""time""
""fullscreenenter"",""1"",""2078""
","
","
","""event"",""trial"",""time""
""fullscreenenter"",""1"",""2078""
","
","","","","","","null","<div style=""font-size:60px;"">+</div>","null","","fixation","","",""
"memory-trial","114","828649","0.0-18.0-1.34","7817","approach_avoid_sv1","""event"",""trial"",""time""
""fullscreenenter"",""1"",""2078""
","
","
","""event"",""trial"",""time""
""fullscreenenter"",""1"",""2078""
","
","","","","","","2072.7999999821186","images/cactus5.png","","","memory_trial","2","maybe_old",""
"html-keyboard-response","115","829150","0.0-18.0-0.35","7817","approach_avoid_sv1","""event"",""trial"",""time""
""fullscreenenter"",""1"",""2078""
","
","
","""event"",""trial"",""time""
""fullscreenenter"",""1"",""2078""
","
","","","","","","null","<div style=""font-size:60px;"">+</div>","null","","fixation","","",""
"memory-trial","116","832072","0.0-18.0-1.35","7817","approach_avoid_sv1","""event"",""trial"",""time""
""fullscreenenter"",""1"",""2078""
","
","
","""event"",""trial"",""time""
""fullscreenenter"",""1"",""2078""
","
","","","","","","1919.4000000059605","images/boat4.png","","","memory_trial","4","definitely_new",""
"html-keyboard-response","117","832574","0.0-18.0-0.36","7817","approach_avoid_sv1","""event"",""trial"",""time""
""fullscreenenter"",""1"",""2078""
","
","
","""event"",""trial"",""time""
""fullscreenenter"",""1"",""2078""
","
","","","","","","null","<div style=""font-size:60px;"">+</div>","null","","fixation","","",""
"memory-trial","118","834916","0.0-18.0-1.36","7817","approach_avoid_sv1","""event"",""trial"",""time""
""fullscreenenter"",""1"",""2078""
","
","
","""event"",""trial"",""time""
""fullscreenenter"",""1"",""2078""
","
","","","","","","1327.699999988079","images/rabbit7.png","","","memory_trial","3","maybe_new",""
"html-keyboard-response","119","835417","0.0-18.0-0.37","7817","approach_avoid_sv1","""event"",""trial"",""time""
""fullscreenenter"",""1"",""2078""
","
","
","""event"",""trial"",""time""
""fullscreenenter"",""1"",""2078""
","
","","","","","","null","<div style=""font-size:60px;"">+</div>","null","","fixation","","",""
"memory-trial","120","837416","0.0-18.0-1.37","7817","approach_avoid_sv1","""event"",""trial"",""time""
""fullscreenenter"",""1"",""2078""
","
","
","""event"",""trial"",""time""
""fullscreenenter"",""1"",""2078""
","
","","","","","","996.8999999761581","images/horse7.png","","","memory_trial","4","definitely_new",""
"html-keyboard-response","121","837917","0.0-18.0-0.38","7817","approach_avoid_sv1","""event"",""trial"",""time""
""fullscreenenter"",""1"",""2078""
","
","
","""event"",""trial"",""time""
""fullscreenenter"",""1"",""2078""
","
","","","","","","null","<div style=""font-size:60px;"">+</div>","null","","fixation","","",""
"memory-trial","122","840263","0.0-18.0-1.38","7817","approach_avoid_sv1","""event"",""trial"",""time""
""fullscreenenter"",""1"",""2078""
","
","
","""event"",""trial"",""time""
""fullscreenenter"",""1"",""2078""
","
","","","","","","1343.9000000059605","images/rodent3.png","","","memory_trial","2","maybe_old",""
"html-keyboard-response","123","840764","0.0-18.0-0.39","7817","approach_avoid_sv1","""event"",""trial"",""time""
""fullscreenenter"",""1"",""2078""
","
","
","""event"",""trial"",""time""
""fullscreenenter"",""1"",""2078""
","
","","","","","","null","<div style=""font-size:60px;"">+</div>","null","","fixation","","",""
"memory-trial","124","842895","0.0-18.0-1.39","7817","approach_avoid_sv1","""event"",""trial"",""time""
""fullscreenenter"",""1"",""2078""
","
","
","""event"",""trial"",""time""
""fullscreenenter"",""1"",""2078""
","
","","","","","","1128.0999999940395","images/rodent8.png","","","memory_trial","1","definitely_old",""
"html-keyboard-response","125","843397","0.0-18.0-0.40","7817","approach_avoid_sv1","""event"",""trial"",""time""
""fullscreenenter"",""1"",""2078""
","
","
","""event"",""trial"",""time""
""fullscreenenter"",""1"",""2078""
","
","","","","","","null","<div style=""font-size:60px;"">+</div>","null","","fixation","","",""
"memory-trial","126","845609","0.0-18.0-1.40","7817","approach_avoid_sv1","""event"",""trial"",""time""
""fullscreenenter"",""1"",""2078""
","
","
","""event"",""trial"",""time""
""fullscreenenter"",""1"",""2078""
","
","","","","","","1209.800000011921","images/tree4.png","","","memory_trial","4","definitely_new",""
"html-keyboard-response","127","846110","0.0-18.0-0.41","7817","approach_avoid_sv1","""event"",""trial"",""time""
""fullscreenenter"",""1"",""2078""
","
","
","""event"",""trial"",""time""
""fullscreenenter"",""1"",""2078""
","
","","","","","","null","<div style=""font-size:60px;"">+</div>","null","","fixation","","",""
"memory-trial","128","847917","0.0-18.0-1.41","7817","approach_avoid_sv1","""event"",""trial"",""time""
""fullscreenenter"",""1"",""2078""
","
","
","""event"",""trial"",""time""
""fullscreenenter"",""1"",""2078""
","
","","","","","","804.0999999940395","images/boat3.png","","","memory_trial","4","definitely_new",""
"html-button-response","129","931783","0.0-18.0-2.41-0.41","7817","approach_avoid_sv1","""event"",""trial"",""time""
""fullscreenenter"",""1"",""2078""
","
","
","""event"",""trial"",""time""
""fullscreenenter"",""1"",""2078""
","
","","","","","","83864.59999999404","<p> Take a break! </p><p> Click the button to continue. </p>","0","","break","","",""
"html-keyboard-response","130","932284","0.0-18.0-0.42","7817","approach_avoid_sv1","""event"",""trial"",""time""
""fullscreenenter"",""1"",""2078""
","
","
","""event"",""trial"",""time""
""fullscreenenter"",""1"",""2078""
","
","","","","","","null","<div style=""font-size:60px;"">+</div>","null","","fixation","","",""
"memory-trial","131","935668","0.0-18.0-1.42","7817","approach_avoid_sv1","""event"",""trial"",""time""
""fullscreenenter"",""1"",""2078""
","
","
","""event"",""trial"",""time""
""fullscreenenter"",""1"",""2078""
","
","","","","","","2381.399999976158","images/truck5.png","","","memory_trial","4","definitely_new",""
"html-keyboard-response","132","936169","0.0-18.0-0.43","7817","approach_avoid_sv1","""event"",""trial"",""time""
""fullscreenenter"",""1"",""2078""
","
","
","""event"",""trial"",""time""
""fullscreenenter"",""1"",""2078""
","
","","","","","","null","<div style=""font-size:60px;"">+</div>","null","","fixation","","",""
"memory-trial","133","939071","0.0-18.0-1.43","7817","approach_avoid_sv1","""event"",""trial"",""time""
""fullscreenenter"",""1"",""2078""
","
","
","""event"",""trial"",""time""
""fullscreenenter"",""1"",""2078""
","
","","","","","","1900","images/apple6.png","","","memory_trial","3","maybe_new",""
"html-keyboard-response","134","939573","0.0-18.0-0.44","7817","approach_avoid_sv1","""event"",""trial"",""time""
""fullscreenenter"",""1"",""2078""
","
","
","""event"",""trial"",""time""
""fullscreenenter"",""1"",""2078""
","
","","","","","","null","<div style=""font-size:60px;"">+</div>","null","","fixation","","",""
"memory-trial","135","942013","0.0-18.0-1.44","7817","approach_avoid_sv1","""event"",""trial"",""time""
""fullscreenenter"",""1"",""2078""
","
","
","""event"",""trial"",""time""
""fullscreenenter"",""1"",""2078""
","
","","","","","","1437.800000011921","images/dog5.png","","","memory_trial","3","maybe_new",""
"html-keyboard-response","136","942515","0.0-18.0-0.45","7817","approach_avoid_sv1","""event"",""trial"",""time""
""fullscreenenter"",""1"",""2078""
","
","
","""event"",""trial"",""time""
""fullscreenenter"",""1"",""2078""
","
","","","","","","null","<div style=""font-size:60px;"">+</div>","null","","fixation","","",""
"memory-trial","137","945440","0.0-18.0-1.45","7817","approach_avoid_sv1","""event"",""trial"",""time""
""fullscreenenter"",""1"",""2078""
","
","
","""event"",""trial"",""time""
""fullscreenenter"",""1"",""2078""
","
","","","","","","1922.4000000059605","images/boat2.png","","","memory_trial","2","maybe_old",""
"html-keyboard-response","138","945942","0.0-18.0-0.46","7817","approach_avoid_sv1","""event"",""trial"",""time""
""fullscreenenter"",""1"",""2078""
","
","
","""event"",""trial"",""time""
""fullscreenenter"",""1"",""2078""
","
","","","","","","null","<div style=""font-size:60px;"">+</div>","null","","fixation","","",""
"memory-trial","139","948986","0.0-18.0-1.46","7817","approach_avoid_sv1","""event"",""trial"",""time""
""fullscreenenter"",""1"",""2078""
","
","
","""event"",""trial"",""time""
""fullscreenenter"",""1"",""2078""
","
","","","","","","2042.4000000059605","images/banana2.png","","","memory_trial","4","definitely_new",""
"html-keyboard-response","140","949487","0.0-18.0-0.47","7817","approach_avoid_sv1","""event"",""trial"",""time""
""fullscreenenter"",""1"",""2078""
","
","
","""event"",""trial"",""time""
""fullscreenenter"",""1"",""2078""
","
","","","","","","null","<div style=""font-size:60px;"">+</div>","null","","fixation","","",""
"memory-trial","141","952539","0.0-18.0-1.47","7817","approach_avoid_sv1","""event"",""trial"",""time""
""fullscreenenter"",""1"",""2078""
","
","
","""event"",""trial"",""time""
""fullscreenenter"",""1"",""2078""
","
","","","","","","2048.5999999940395","images/sofa2.png","","","memory_trial","1","definitely_old",""
"html-keyboard-response","142","953041","0.0-18.0-0.48","7817","approach_avoid_sv1","""event"",""trial"",""time""
""fullscreenenter"",""1"",""2078""
","
","
","""event"",""trial"",""time""
""fullscreenenter"",""1"",""2078""
","
","","","","","","null","<div style=""font-size:60px;"">+</div>","null","","fixation","","",""
"memory-trial","143","956404","0.0-18.0-1.48","7817","approach_avoid_sv1","""event"",""trial"",""time""
""fullscreenenter"",""1"",""2078""
","
","
","""event"",""trial"",""time""
""fullscreenenter"",""1"",""2078""
","
","","","","","","2360.9000000059605","images/bed2.png","","","memory_trial","4","definitely_new",""
"html-keyboard-response","144","956905","0.0-18.0-0.49","7817","approach_avoid_sv1","""event"",""trial"",""time""
""fullscreenenter"",""1"",""2078""
","
","
","""event"",""trial"",""time""
""fullscreenenter"",""1"",""2078""
","
","","","","","","null","<div style=""font-size:60px;"">+</div>","null","","fixation","","",""
"memory-trial","145","960857","0.0-18.0-1.49","7817","approach_avoid_sv1","""event"",""trial"",""time""
""fullscreenenter"",""1"",""2078""
","
","
","""event"",""trial"",""time""
""fullscreenenter"",""1"",""2078""
","
","","","","","","2947.2000000178814","images/train2.png","","","memory_trial","3","maybe_new",""
"html-keyboard-response","146","961358","0.0-18.0-0.50","7817","approach_avoid_sv1","""event"",""trial"",""time""
""fullscreenenter"",""1"",""2078""
","
","
","""event"",""trial"",""time""
""fullscreenenter"",""1"",""2078""
","
","","","","","","null","<div style=""font-size:60px;"">+</div>","null","","fixation","","",""
"memory-trial","147","964087","0.0-18.0-1.50","7817","approach_avoid_sv1","""event"",""trial"",""time""
""fullscreenenter"",""1"",""2078""
","
","
","""event"",""trial"",""time""
""fullscreenenter"",""1"",""2078""
","
","","","","","","1725.4000000059605","images/truck7.png","","","memory_trial","2","maybe_old",""
"html-keyboard-response","148","964589","0.0-18.0-0.51","7817","approach_avoid_sv1","""event"",""trial"",""time""
""fullscreenenter"",""1"",""2078""
","
","
","""event"",""trial"",""time""
""fullscreenenter"",""1"",""2078""
","
","","","","","","null","<div style=""font-size:60px;"">+</div>","null","","fixation","","",""
"memory-trial","149","967123","0.0-18.0-1.51","7817","approach_avoid_sv1","""event"",""trial"",""time""
""fullscreenenter"",""1"",""2078""
","
","
","""event"",""trial"",""time""
""fullscreenenter"",""1"",""2078""
","
","","","","","","1532.2999999821186","images/bush7.png","","","memory_trial","3","maybe_new",""
"html-keyboard-response","150","967625","0.0-18.0-0.52","7817","approach_avoid_sv1","""event"",""trial"",""time""
""fullscreenenter"",""1"",""2078""
","
","
","""event"",""trial"",""time""
""fullscreenenter"",""1"",""2078""
","
","","","","","","null","<div style=""font-size:60px;"">+</div>","null","","fixation","","",""
"memory-trial","151","969824","0.0-18.0-1.52","7817","approach_avoid_sv1","""event"",""trial"",""time""
""fullscreenenter"",""1"",""2078""
","
","
","""event"",""trial"",""time""
""fullscreenenter"",""1"",""2078""
","
","","","","","","1196.3999999761581","images/flower3.png","","","memory_trial","3","maybe_new",""
"html-keyboard-response","152","970325","0.0-18.0-0.53","7817","approach_avoid_sv1","""event"",""trial"",""time""
""fullscreenenter"",""1"",""2078""
","
","
","""event"",""trial"",""time""
""fullscreenenter"",""1"",""2078""
","
","","","","","","null","<div style=""font-size:60px;"">+</div>","null","","fixation","","",""
"memory-trial","153","973080","0.0-18.0-1.53","7817","approach_avoid_sv1","""event"",""trial"",""time""
""fullscreenenter"",""1"",""2078""
","
","
","""event"",""trial"",""time""
""fullscreenenter"",""1"",""2078""
","
","","","","","","1751.0999999940395","images/straw4.png","","","memory_trial","4","definitely_new",""
"html-keyboard-response","154","973580","0.0-18.0-0.54","7817","approach_avoid_sv1","""event"",""trial"",""time""
""fullscreenenter"",""1"",""2078""
","
","
","""event"",""trial"",""time""
""fullscreenenter"",""1"",""2078""
","
","","","","","","null","<div style=""font-size:60px;"">+</div>","null","","fixation","","",""
"memory-trial","155","976247","0.0-18.0-1.54","7817","approach_avoid_sv1","""event"",""trial"",""time""
""fullscreenenter"",""1"",""2078""
","
","
","""event"",""trial"",""time""
""fullscreenenter"",""1"",""2078""
","
","","","","","","1664.199999988079","images/goat3.png","","","memory_trial","3","maybe_new",""
"html-keyboard-response","156","976749","0.0-18.0-0.55","7817","approach_avoid_sv1","""event"",""trial"",""time""
""fullscreenenter"",""1"",""2078""
","
","
","""event"",""trial"",""time""
""fullscreenenter"",""1"",""2078""
","
","","","","","","null","<div style=""font-size:60px;"">+</div>","null","","fixation","","",""
"memory-trial","157","979028","0.0-18.0-1.55","7817","approach_avoid_sv1","""event"",""trial"",""time""
""fullscreenenter"",""1"",""2078""
","
","
","""event"",""trial"",""time""
""fullscreenenter"",""1"",""2078""
","
","","","","","","1276.5","images/rodent7.png","","","memory_trial","3","maybe_new",""
"html-keyboard-response","158","979530","0.0-18.0-0.56","7817","approach_avoid_sv1","""event"",""trial"",""time""
""fullscreenenter"",""1"",""2078""
","
","
","""event"",""trial"",""time""
""fullscreenenter"",""1"",""2078""
","
","","","","","","null","<div style=""font-size:60px;"">+</div>","null","","fixation","","",""
"memory-trial","159","981896","0.0-18.0-1.56","7817","approach_avoid_sv1","""event"",""trial"",""time""
""fullscreenenter"",""1"",""2078""
","
","
","""event"",""trial"",""time""
""fullscreenenter"",""1"",""2078""
","
","","","","","","1363.0999999940395","images/table2.png","","","memory_trial","4","definitely_new",""
"html-keyboard-response","160","982397","0.0-18.0-0.57","7817","approach_avoid_sv1","""event"",""trial"",""time""
""fullscreenenter"",""1"",""2078""
","
","
","""event"",""trial"",""time""
""fullscreenenter"",""1"",""2078""
","
","","","","","","null","<div style=""font-size:60px;"">+</div>","null","","fixation","","",""
"memory-trial","161","984763","0.0-18.0-1.57","7817","approach_avoid_sv1","""event"",""trial"",""time""
""fullscreenenter"",""1"",""2078""
","
","
","""event"",""trial"",""time""
""fullscreenenter"",""1"",""2078""
","
","","","","","","1362.5","images/plane8.png","","","memory_trial","3","maybe_new",""
"html-keyboard-response","162","985264","0.0-18.0-0.58","7817","approach_avoid_sv1","""event"",""trial"",""time""
""fullscreenenter"",""1"",""2078""
","
","
","""event"",""trial"",""time""
""fullscreenenter"",""1"",""2078""
","
","","","","","","null","<div style=""font-size:60px;"">+</div>","null","","fixation","","",""
"memory-trial","163","987496","0.0-18.0-1.58","7817","approach_avoid_sv1","""event"",""trial"",""time""
""fullscreenenter"",""1"",""2078""
","
","
","""event"",""trial"",""time""
""fullscreenenter"",""1"",""2078""
","
","","","","","","1227.9000000059605","images/goat4.png","","","memory_trial","2","maybe_old",""
"html-keyboard-response","164","987996","0.0-18.0-0.59","7817","approach_avoid_sv1","""event"",""trial"",""time""
""fullscreenenter"",""1"",""2078""
","
","
","""event"",""trial"",""time""
""fullscreenenter"",""1"",""2078""
","
","","","","","","null","<div style=""font-size:60px;"">+</div>","null","","fixation","","",""
"memory-trial","165","990282","0.0-18.0-1.59","7817","approach_avoid_sv1","""event"",""trial"",""time""
""fullscreenenter"",""1"",""2078""
","
","
","""event"",""trial"",""time""
""fullscreenenter"",""1"",""2078""
","
","","","","","","1283.4000000059605","images/cow5.png","","","memory_trial","3","maybe_new",""
"html-keyboard-response","166","990784","0.0-18.0-0.60","7817","approach_avoid_sv1","""event"",""trial"",""time""
""fullscreenenter"",""1"",""2078""
","
","
","""event"",""trial"",""time""
""fullscreenenter"",""1"",""2078""
","
","","","","","","null","<div style=""font-size:60px;"">+</div>","null","","fixation","","",""
"memory-trial","167","993056","0.0-18.0-1.60","7817","approach_avoid_sv1","""event"",""trial"",""time""
""fullscreenenter"",""1"",""2078""
","
","
","""event"",""trial"",""time""
""fullscreenenter"",""1"",""2078""
","
","","","","","","1268.9000000059605","images/sofa1.png","","","memory_trial","3","maybe_new",""
"html-keyboard-response","168","993557","0.0-18.0-0.61","7817","approach_avoid_sv1","""event"",""trial"",""time""
""fullscreenenter"",""1"",""2078""
","
","
","""event"",""trial"",""time""
""fullscreenenter"",""1"",""2078""
","
","","","","","","null","<div style=""font-size:60px;"">+</div>","null","","fixation","","",""
"memory-trial","169","995511","0.0-18.0-1.61","7817","approach_avoid_sv1","""event"",""trial"",""time""
""fullscreenenter"",""1"",""2078""
","
","
","""event"",""trial"",""time""
""fullscreenenter"",""1"",""2078""
","
","","","","","","950.5999999940395","images/train5.png","","","memory_trial","4","definitely_new",""
"html-keyboard-response","170","996012","0.0-18.0-0.62","7817","approach_avoid_sv1","""event"",""trial"",""time""
""fullscreenenter"",""1"",""2078""
","
","
","""event"",""trial"",""time""
""fullscreenenter"",""1"",""2078""
","
","","","","","","null","<div style=""font-size:60px;"">+</div>","null","","fixation","","",""
"memory-trial","171","998659","0.0-18.0-1.62","7817","approach_avoid_sv1","""event"",""trial"",""time""
""fullscreenenter"",""1"",""2078""
","
","
","""event"",""trial"",""time""
""fullscreenenter"",""1"",""2078""
","
","","","","","","1644.9000000059605","images/bush8.png","","","memory_trial","3","maybe_new",""
"html-keyboard-response","172","999161","0.0-18.0-0.63","7817","approach_avoid_sv1","""event"",""trial"",""time""
""fullscreenenter"",""1"",""2078""
","
","
","""event"",""trial"",""time""
""fullscreenenter"",""1"",""2078""
","
","","","","","","null","<div style=""font-size:60px;"">+</div>","null","","fixation","","",""
"memory-trial","173","1001323","0.0-18.0-1.63","7817","approach_avoid_sv1","""event"",""trial"",""time""
""fullscreenenter"",""1"",""2078""
","
","
","""event"",""trial"",""time""
""fullscreenenter"",""1"",""2078""
","
","","","","","","1160.0999999940395","images/cat6.png","","","memory_trial","3","maybe_new",""
"html-keyboard-response","174","1001825","0.0-18.0-0.64","7817","approach_avoid_sv1","""event"",""trial"",""time""
""fullscreenenter"",""1"",""2078""
","
","
","""event"",""trial"",""time""
""fullscreenenter"",""1"",""2078""
","
","","","","","","null","<div style=""font-size:60px;"">+</div>","null","","fixation","","",""
"memory-trial","175","1003809","0.0-18.0-1.64","7817","approach_avoid_sv1","""event"",""trial"",""time""
""fullscreenenter"",""1"",""2078""
","
","
","""event"",""trial"",""time""
""fullscreenenter"",""1"",""2078""
","
","","","","","","980.5999999940395","images/cactus1.png","","","memory_trial","3","maybe_new",""
"html-keyboard-response","176","1004310","0.0-18.0-0.65","7817","approach_avoid_sv1","""event"",""trial"",""time""
""fullscreenenter"",""1"",""2078""
","
","
","""event"",""trial"",""time""
""fullscreenenter"",""1"",""2078""
","
","","","","","","null","<div style=""font-size:60px;"">+</div>","null","","fixation","","",""
"memory-trial","177","1006119","0.0-18.0-1.65","7817","approach_avoid_sv1","""event"",""trial"",""time""
""fullscreenenter"",""1"",""2078""
","
","
","""event"",""trial"",""time""
""fullscreenenter"",""1"",""2078""
","
","","","","","","807.3000000119209","images/cat8.png","","","memory_trial","3","maybe_new",""
"html-keyboard-response","178","1006620","0.0-18.0-0.66","7817","approach_avoid_sv1","""event"",""trial"",""time""
""fullscreenenter"",""1"",""2078""
","
","
","""event"",""trial"",""time""
""fullscreenenter"",""1"",""2078""
","
","","","","","","null","<div style=""font-size:60px;"">+</div>","null","","fixation","","",""
"memory-trial","179","1009145","0.0-18.0-1.66","7817","approach_avoid_sv1","""event"",""trial"",""time""
""fullscreenenter"",""1"",""2078""
","
","
","""event"",""trial"",""time""
""fullscreenenter"",""1"",""2078""
","
","","","","","","1522.5999999940395","images/boat5.png","","","memory_trial","1","definitely_old",""
"html-keyboard-response","180","1009648","0.0-18.0-0.67","7817","approach_avoid_sv1","""event"",""trial"",""time""
""fullscreenenter"",""1"",""2078""
","
","
","""event"",""trial"",""time""
""fullscreenenter"",""1"",""2078""
","
","","","","","","null","<div style=""font-size:60px;"">+</div>","null","","fixation","","",""
"memory-trial","181","1012110","0.0-18.0-1.67","7817","approach_avoid_sv1","""event"",""trial"",""time""
""fullscreenenter"",""1"",""2078""
","
","
","""event"",""trial"",""time""
""fullscreenenter"",""1"",""2078""
","
","","","","","","1460.5","images/plane4.png","","","memory_trial","2","maybe_old",""
"html-keyboard-response","182","1012611","0.0-18.0-0.68","7817","approach_avoid_sv1","""event"",""trial"",""time""
""fullscreenenter"",""1"",""2078""
","
","
","""event"",""trial"",""time""
""fullscreenenter"",""1"",""2078""
","
","","","","","","null","<div style=""font-size:60px;"">+</div>","null","","fixation","","",""
"memory-trial","183","1014821","0.0-18.0-1.68","7817","approach_avoid_sv1","""event"",""trial"",""time""
""fullscreenenter"",""1"",""2078""
","
","
","""event"",""trial"",""time""
""fullscreenenter"",""1"",""2078""
","
","","","","","","1206.5","images/straw8.png","","","memory_trial","4","definitely_new",""
"html-keyboard-response","184","1015322","0.0-18.0-0.69","7817","approach_avoid_sv1","""event"",""trial"",""time""
""fullscreenenter"",""1"",""2078""
","
","
","""event"",""trial"",""time""
""fullscreenenter"",""1"",""2078""
","
","","","","","","null","<div style=""font-size:60px;"">+</div>","null","","fixation","","",""
"memory-trial","185","1017175","0.0-18.0-1.69","7817","approach_avoid_sv1","""event"",""trial"",""time""
""fullscreenenter"",""1"",""2078""
","
","
","""event"",""trial"",""time""
""fullscreenenter"",""1"",""2078""
","
","","","","","","850.9000000059605","images/table7.png","","","memory_trial","4","definitely_new",""
"html-keyboard-response","186","1017677","0.0-18.0-0.70","7817","approach_avoid_sv1","""event"",""trial"",""time""
""fullscreenenter"",""1"",""2078""
","
","
","""event"",""trial"",""time""
""fullscreenenter"",""1"",""2078""
","
","","","","","","null","<div style=""font-size:60px;"">+</div>","null","","fixation","","",""
"memory-trial","187","1019916","0.0-18.0-1.70","7817","approach_avoid_sv1","""event"",""trial"",""time""
""fullscreenenter"",""1"",""2078""
","
","
","""event"",""trial"",""time""
""fullscreenenter"",""1"",""2078""
","
","","","","","","1236.800000011921","images/straw2.png","","","memory_trial","4","definitely_new",""
"html-keyboard-response","188","1020417","0.0-18.0-0.71","7817","approach_avoid_sv1","""event"",""trial"",""time""
""fullscreenenter"",""1"",""2078""
","
","
","""event"",""trial"",""time""
""fullscreenenter"",""1"",""2078""
","
","","","","","","null","<div style=""font-size:60px;"">+</div>","null","","fixation","","",""
"memory-trial","189","1022369","0.0-18.0-1.71","7817","approach_avoid_sv1","""event"",""trial"",""time""
""fullscreenenter"",""1"",""2078""
","
","
","""event"",""trial"",""time""
""fullscreenenter"",""1"",""2078""
","
","","","","","","949.4000000059605","images/bush2.png","","","memory_trial","3","maybe_new",""
"html-keyboard-response","190","1022871","0.0-18.0-0.72","7817","approach_avoid_sv1","""event"",""trial"",""time""
""fullscreenenter"",""1"",""2078""
","
","
","""event"",""trial"",""time""
""fullscreenenter"",""1"",""2078""
","
","","","","","","null","<div style=""font-size:60px;"">+</div>","null","","fixation","","",""
"memory-trial","191","1024765","0.0-18.0-1.72","7817","approach_avoid_sv1","""event"",""trial"",""time""
""fullscreenenter"",""1"",""2078""
","
","
","""event"",""trial"",""time""
""fullscreenenter"",""1"",""2078""
","
","","","","","","892.1999999880791","images/dog6.png","","","memory_trial","3","maybe_new",""
"html-keyboard-response","192","1025266","0.0-18.0-0.73","7817","approach_avoid_sv1","""event"",""trial"",""time""
""fullscreenenter"",""1"",""2078""
","
","
","""event"",""trial"",""time""
""fullscreenenter"",""1"",""2078""
","
","","","","","","null","<div style=""font-size:60px;"">+</div>","null","","fixation","","",""
"memory-trial","193","1027669","0.0-18.0-1.73","7817","approach_avoid_sv1","""event"",""trial"",""time""
""fullscreenenter"",""1"",""2078""
","
","
","""event"",""trial"",""time""
""fullscreenenter"",""1"",""2078""
","
","","","","","","1400.0999999940395","images/dog3.png","","","memory_trial","1","definitely_old",""
"html-keyboard-response","194","1028170","0.0-18.0-0.74","7817","approach_avoid_sv1","""event"",""trial"",""time""
""fullscreenenter"",""1"",""2078""
","
","
","""event"",""trial"",""time""
""fullscreenenter"",""1"",""2078""
","
","","","","","","null","<div style=""font-size:60px;"">+</div>","null","","fixation","","",""
"memory-trial","195","1029962","0.0-18.0-1.74","7817","approach_avoid_sv1","""event"",""trial"",""time""
""fullscreenenter"",""1"",""2078""
","
","
","""event"",""trial"",""time""
""fullscreenenter"",""1"",""2078""
","
","","","","","","790.6999999880791","images/truck2.png","","","memory_trial","1","definitely_old",""
"html-keyboard-response","196","1030463","0.0-18.0-0.75","7817","approach_avoid_sv1","""event"",""trial"",""time""
""fullscreenenter"",""1"",""2078""
","
","
","""event"",""trial"",""time""
""fullscreenenter"",""1"",""2078""
","
","","","","","","null","<div style=""font-size:60px;"">+</div>","null","","fixation","","",""
"memory-trial","197","1032675","0.0-18.0-1.75","7817","approach_avoid_sv1","""event"",""trial"",""time""
""fullscreenenter"",""1"",""2078""
","
","
","""event"",""trial"",""time""
""fullscreenenter"",""1"",""2078""
","
","","","","","","1209.2000000178814","images/rabbit6.png","","","memory_trial","4","definitely_new",""
"html-keyboard-response","198","1033176","0.0-18.0-0.76","7817","approach_avoid_sv1","""event"",""trial"",""time""
""fullscreenenter"",""1"",""2078""
","
","
","""event"",""trial"",""time""
""fullscreenenter"",""1"",""2078""
","
","","","","","","null","<div style=""font-size:60px;"">+</div>","null","","fixation","","",""
"memory-trial","199","1036093","0.0-18.0-1.76","7817","approach_avoid_sv1","""event"",""trial"",""time""
""fullscreenenter"",""1"",""2078""
","
","
","""event"",""trial"",""time""
""fullscreenenter"",""1"",""2078""
","
","","","","","","1914.9000000059605","images/rodent5.png","","","memory_trial","2","maybe_old",""
"html-keyboard-response","200","1036595","0.0-18.0-0.77","7817","approach_avoid_sv1","""event"",""trial"",""time""
""fullscreenenter"",""1"",""2078""
","
","
","""event"",""trial"",""time""
""fullscreenenter"",""1"",""2078""
","
","","","","","","null","<div style=""font-size:60px;"">+</div>","null","","fixation","","",""
"memory-trial","201","1039107","0.0-18.0-1.77","7817","approach_avoid_sv1","""event"",""trial"",""time""
""fullscreenenter"",""1"",""2078""
","
","
","""event"",""trial"",""time""
""fullscreenenter"",""1"",""2078""
","
","","","","","","1509.0999999940395","images/chair5.png","","","memory_trial","1","definitely_old",""
"html-keyboard-response","202","1039608","0.0-18.0-0.78","7817","approach_avoid_sv1","""event"",""trial"",""time""
""fullscreenenter"",""1"",""2078""
","
","
","""event"",""trial"",""time""
""fullscreenenter"",""1"",""2078""
","
","","","","","","null","<div style=""font-size:60px;"">+</div>","null","","fixation","","",""
"memory-trial","203","1042541","0.0-18.0-1.78","7817","approach_avoid_sv1","""event"",""trial"",""time""
""fullscreenenter"",""1"",""2078""
","
","
","""event"",""trial"",""time""
""fullscreenenter"",""1"",""2078""
","
","","","","","","1930.5","images/rabbit2.png","","","memory_trial","4","definitely_new",""
"html-keyboard-response","204","1043042","0.0-18.0-0.79","7817","approach_avoid_sv1","""event"",""trial"",""time""
""fullscreenenter"",""1"",""2078""
","
","
","""event"",""trial"",""time""
""fullscreenenter"",""1"",""2078""
","
","","","","","","null","<div style=""font-size:60px;"">+</div>","null","","fixation","","",""
"memory-trial","205","1045036","0.0-18.0-1.79","7817","approach_avoid_sv1","""event"",""trial"",""time""
""fullscreenenter"",""1"",""2078""
","
","
","""event"",""trial"",""time""
""fullscreenenter"",""1"",""2078""
","
","","","","","","990.5999999940395","images/rodent1.png","","","memory_trial","4","definitely_new",""
"html-keyboard-response","206","1045536","0.0-18.0-0.80","7817","approach_avoid_sv1","""event"",""trial"",""time""
""fullscreenenter"",""1"",""2078""
","
","
","""event"",""trial"",""time""
""fullscreenenter"",""1"",""2078""
","
","","","","","","null","<div style=""font-size:60px;"">+</div>","null","","fixation","","",""
"memory-trial","207","1047781","0.0-18.0-1.80","7817","approach_avoid_sv1","""event"",""trial"",""time""
""fullscreenenter"",""1"",""2078""
","
","
","""event"",""trial"",""time""
""fullscreenenter"",""1"",""2078""
","
","","","","","","1242.300000011921","images/banana7.png","","","memory_trial","1","definitely_old",""
"html-keyboard-response","208","1048283","0.0-18.0-0.81","7817","approach_avoid_sv1","""event"",""trial"",""time""
""fullscreenenter"",""1"",""2078""
","
","
","""event"",""trial"",""time""
""fullscreenenter"",""1"",""2078""
","
","","","","","","null","<div style=""font-size:60px;"">+</div>","null","","fixation","","",""
"memory-trial","209","1050763","0.0-18.0-1.81","7817","approach_avoid_sv1","""event"",""trial"",""time""
""fullscreenenter"",""1"",""2078""
","
","
","""event"",""trial"",""time""
""fullscreenenter"",""1"",""2078""
","
","","","","","","1478","images/sofa6.png","","","memory_trial","1","definitely_old",""
"html-keyboard-response","210","1051265","0.0-18.0-0.82","7817","approach_avoid_sv1","""event"",""trial"",""time""
""fullscreenenter"",""1"",""2078""
","
","
","""event"",""trial"",""time""
""fullscreenenter"",""1"",""2078""
","
","","","","","","null","<div style=""font-size:60px;"">+</div>","null","","fixation","","",""
"memory-trial","211","1053689","0.0-18.0-1.82","7817","approach_avoid_sv1","""event"",""trial"",""time""
""fullscreenenter"",""1"",""2078""
","
","
","""event"",""trial"",""time""
""fullscreenenter"",""1"",""2078""
","
","","","","","","1420.699999988079","images/rabbit4.png","","","memory_trial","4","definitely_new",""
"html-keyboard-response","212","1054191","0.0-18.0-0.83","7817","approach_avoid_sv1","""event"",""trial"",""time""
""fullscreenenter"",""1"",""2078""
","
","
","""event"",""trial"",""time""
""fullscreenenter"",""1"",""2078""
","
","","","","","","null","<div style=""font-size:60px;"">+</div>","null","","fixation","","",""
"memory-trial","213","1056533","0.0-18.0-1.83","7817","approach_avoid_sv1","""event"",""trial"",""time""
""fullscreenenter"",""1"",""2078""
","
","
","""event"",""trial"",""time""
""fullscreenenter"",""1"",""2078""
","
","","","","","","1339","images/cactus7.png","","","memory_trial","2","maybe_old",""
"html-keyboard-response","214","1057036","0.0-18.0-0.84","7817","approach_avoid_sv1","""event"",""trial"",""time""
""fullscreenenter"",""1"",""2078""
","
","
","""event"",""trial"",""time""
""fullscreenenter"",""1"",""2078""
","
","","","","","","null","<div style=""font-size:60px;"">+</div>","null","","fixation","","",""
"memory-trial","215","1059241","0.0-18.0-1.84","7817","approach_avoid_sv1","""event"",""trial"",""time""
""fullscreenenter"",""1"",""2078""
","
","
","""event"",""trial"",""time""
""fullscreenenter"",""1"",""2078""
","
","","","","","","1202.5999999940395","images/orange1.png","","","memory_trial","2","maybe_old",""
"html-keyboard-response","216","1059743","0.0-18.0-0.85","7817","approach_avoid_sv1","""event"",""trial"",""time""
""fullscreenenter"",""1"",""2078""
","
","
","""event"",""trial"",""time""
""fullscreenenter"",""1"",""2078""
","
","","","","","","null","<div style=""font-size:60px;"">+</div>","null","","fixation","","",""
"memory-trial","217","1062550","0.0-18.0-1.85","7817","approach_avoid_sv1","""event"",""trial"",""time""
""fullscreenenter"",""1"",""2078""
","
","
","""event"",""trial"",""time""
""fullscreenenter"",""1"",""2078""
","
","","","","","","1805.300000011921","images/sofa8.png","","","memory_trial","4","definitely_new",""
"html-keyboard-response","218","1063051","0.0-18.0-0.86","7817","approach_avoid_sv1","""event"",""trial"",""time""
""fullscreenenter"",""1"",""2078""
","
","
","""event"",""trial"",""time""
""fullscreenenter"",""1"",""2078""
","
","","","","","","null","<div style=""font-size:60px;"">+</div>","null","","fixation","","",""
"memory-trial","219","1065265","0.0-18.0-1.86","7817","approach_avoid_sv1","""event"",""trial"",""time""
""fullscreenenter"",""1"",""2078""
","
","
","""event"",""trial"",""time""
""fullscreenenter"",""1"",""2078""
","
","","","","","","1212","images/straw1.png","","","memory_trial","4","definitely_new",""
"html-keyboard-response","220","1065767","0.0-18.0-0.87","7817","approach_avoid_sv1","""event"",""trial"",""time""
""fullscreenenter"",""1"",""2078""
","
","
","""event"",""trial"",""time""
""fullscreenenter"",""1"",""2078""
","
","","","","","","null","<div style=""font-size:60px;"">+</div>","null","","fixation","","",""
"memory-trial","221","1067640","0.0-18.0-1.87","7817","approach_avoid_sv1","""event"",""trial"",""time""
""fullscreenenter"",""1"",""2078""
","
","
","""event"",""trial"",""time""
""fullscreenenter"",""1"",""2078""
","
","","","","","","871","images/horse1.png","","","memory_trial","4","definitely_new",""
"html-keyboard-response","222","1068141","0.0-18.0-0.88","7817","approach_avoid_sv1","""event"",""trial"",""time""
""fullscreenenter"",""1"",""2078""
","
","
","""event"",""trial"",""time""
""fullscreenenter"",""1"",""2078""
","
","","","","","","null","<div style=""font-size:60px;"">+</div>","null","","fixation","","",""
"memory-trial","223","1070362","0.0-18.0-1.88","7817","approach_avoid_sv1","""event"",""trial"",""time""
""fullscreenenter"",""1"",""2078""
","
","
","""event"",""trial"",""time""
""fullscreenenter"",""1"",""2078""
","
","","","","","","1218.3999999761581","images/bed7.png","","","memory_trial","4","definitely_new",""
"html-keyboard-response","224","1070863","0.0-18.0-0.89","7817","approach_avoid_sv1","""event"",""trial"",""time""
""fullscreenenter"",""1"",""2078""
","
","
","""event"",""trial"",""time""
""fullscreenenter"",""1"",""2078""
","
","","","","","","null","<div style=""font-size:60px;"">+</div>","null","","fixation","","",""
"memory-trial","225","1072594","0.0-18.0-1.89","7817","approach_avoid_sv1","""event"",""trial"",""time""
""fullscreenenter"",""1"",""2078""
","
","
","""event"",""trial"",""time""
""fullscreenenter"",""1"",""2078""
","
","","","","","","728","images/horse6.png","","","memory_trial","4","definitely_new",""
"html-keyboard-response","226","1073095","0.0-18.0-0.90","7817","approach_avoid_sv1","""event"",""trial"",""time""
""fullscreenenter"",""1"",""2078""
","
","
","""event"",""trial"",""time""
""fullscreenenter"",""1"",""2078""
","
","","","","","","null","<div style=""font-size:60px;"">+</div>","null","","fixation","","",""
"memory-trial","227","1075063","0.0-18.0-1.90","7817","approach_avoid_sv1","""event"",""trial"",""time""
""fullscreenenter"",""1"",""2078""
","
","
","""event"",""trial"",""time""
""fullscreenenter"",""1"",""2078""
","
","","","","","","966.1000000238419","images/sheep1.png","","","memory_trial","3","maybe_new",""
"html-keyboard-response","228","1075565","0.0-18.0-0.91","7817","approach_avoid_sv1","""event"",""trial"",""time""
""fullscreenenter"",""1"",""2078""
","
","
","""event"",""trial"",""time""
""fullscreenenter"",""1"",""2078""
","
","","","","","","null","<div style=""font-size:60px;"">+</div>","null","","fixation","","",""
"memory-trial","229","1078151","0.0-18.0-1.91","7817","approach_avoid_sv1","""event"",""trial"",""time""
""fullscreenenter"",""1"",""2078""
","
","
","""event"",""trial"",""time""
""fullscreenenter"",""1"",""2078""
","
","","","","","","1583.9000000059605","images/sofa5.png","","","memory_trial","3","maybe_new",""
"html-button-response","230","1125285","0.0-18.0-2.91-0.91","7817","approach_avoid_sv1","""event"",""trial"",""time""
""fullscreenenter"",""1"",""2078""
","
","
","""event"",""trial"",""time""
""fullscreenenter"",""1"",""2078""
","
","","","","","","47133.40000000596","<p> Take a break! </p><p> Click the button to continue. </p>","0","","break","","",""
"html-keyboard-response","231","1125786","0.0-18.0-0.92","7817","approach_avoid_sv1","""event"",""trial"",""time""
""fullscreenenter"",""1"",""2078""
","
","
","""event"",""trial"",""time""
""fullscreenenter"",""1"",""2078""
","
","","","","","","null","<div style=""font-size:60px;"">+</div>","null","","fixation","","",""
"memory-trial","232","1128007","0.0-18.0-1.92","7817","approach_avoid_sv1","""event"",""trial"",""time""
""fullscreenenter"",""1"",""2078""
","
","
","""event"",""trial"",""time""
""fullscreenenter"",""1"",""2078""
","
","","","","","","1217.5999999940395","images/straw7.png","","","memory_trial","4","definitely_new",""
"html-keyboard-response","233","1128509","0.0-18.0-0.93","7817","approach_avoid_sv1","""event"",""trial"",""time""
""fullscreenenter"",""1"",""2078""
","
","
","""event"",""trial"",""time""
""fullscreenenter"",""1"",""2078""
","
","","","","","","null","<div style=""font-size:60px;"">+</div>","null","","fixation","","",""
"memory-trial","234","1130279","0.0-18.0-1.93","7817","approach_avoid_sv1","""event"",""trial"",""time""
""fullscreenenter"",""1"",""2078""
","
","
","""event"",""trial"",""time""
""fullscreenenter"",""1"",""2078""
","
","","","","","","767.9000000059605","images/horse8.png","","","memory_trial","4","definitely_new",""
"html-keyboard-response","235","1130780","0.0-18.0-0.94","7817","approach_avoid_sv1","""event"",""trial"",""time""
""fullscreenenter"",""1"",""2078""
","
","
","""event"",""trial"",""time""
""fullscreenenter"",""1"",""2078""
","
","","","","","","null","<div style=""font-size:60px;"">+</div>","null","","fixation","","",""
"memory-trial","236","1133022","0.0-18.0-1.94","7817","approach_avoid_sv1","""event"",""trial"",""time""
""fullscreenenter"",""1"",""2078""
","
","
","""event"",""trial"",""time""
""fullscreenenter"",""1"",""2078""
","
","","","","","","1239.800000011921","images/truck3.png","","","memory_trial","3","maybe_new",""
"html-keyboard-response","237","1133524","0.0-18.0-0.95","7817","approach_avoid_sv1","""event"",""trial"",""time""
""fullscreenenter"",""1"",""2078""
","
","
","""event"",""trial"",""time""
""fullscreenenter"",""1"",""2078""
","
","","","","","","null","<div style=""font-size:60px;"">+</div>","null","","fixation","","",""
"memory-trial","238","1135552","0.0-18.0-1.95","7817","approach_avoid_sv1","""event"",""trial"",""time""
""fullscreenenter"",""1"",""2078""
","
","
","""event"",""trial"",""time""
""fullscreenenter"",""1"",""2078""
","
","","","","","","1025.800000011921","images/dog2.png","","","memory_trial","3","maybe_new",""
"html-keyboard-response","239","1136054","0.0-18.0-0.96","7817","approach_avoid_sv1","""event"",""trial"",""time""
""fullscreenenter"",""1"",""2078""
","
","
","""event"",""trial"",""time""
""fullscreenenter"",""1"",""2078""
","
","","","","","","null","<div style=""font-size:60px;"">+</div>","null","","fixation","","",""
"memory-trial","240","1138208","0.0-18.0-1.96","7817","approach_avoid_sv1","""event"",""trial"",""time""
""fullscreenenter"",""1"",""2078""
","
","
","""event"",""trial"",""time""
""fullscreenenter"",""1"",""2078""
","
","","","","","","1151.4000000059605","images/train8.png","","","memory_trial","3","maybe_new",""
"html-keyboard-response","241","1138710","0.0-18.0-0.97","7817","approach_avoid_sv1","""event"",""trial"",""time""
""fullscreenenter"",""1"",""2078""
","
","
","""event"",""trial"",""time""
""fullscreenenter"",""1"",""2078""
","
","","","","","","null","<div style=""font-size:60px;"">+</div>","null","","fixation","","",""
"memory-trial","242","1141341","0.0-18.0-1.97","7817","approach_avoid_sv1","""event"",""trial"",""time""
""fullscreenenter"",""1"",""2078""
","
","
","""event"",""trial"",""time""
""fullscreenenter"",""1"",""2078""
","
","","","","","","1628.300000011921","images/rabbit8.png","","","memory_trial","4","definitely_new",""
"html-keyboard-response","243","1141842","0.0-18.0-0.98","7817","approach_avoid_sv1","""event"",""trial"",""time""
""fullscreenenter"",""1"",""2078""
","
","
","""event"",""trial"",""time""
""fullscreenenter"",""1"",""2078""
","
","","","","","","null","<div style=""font-size:60px;"">+</div>","null","","fixation","","",""
"memory-trial","244","1143612","0.0-18.0-1.98","7817","approach_avoid_sv1","""event"",""trial"",""time""
""fullscreenenter"",""1"",""2078""
","
","
","""event"",""trial"",""time""
""fullscreenenter"",""1"",""2078""
","
","","","","","","766.7000000178814","images/table5.png","","","memory_trial","4","definitely_new",""
"html-keyboard-response","245","1144114","0.0-18.0-0.99","7817","approach_avoid_sv1","""event"",""trial"",""time""
""fullscreenenter"",""1"",""2078""
","
","
","""event"",""trial"",""time""
""fullscreenenter"",""1"",""2078""
","
","","","","","","null","<div style=""font-size:60px;"">+</div>","null","","fixation","","",""
"memory-trial","246","1146815","0.0-18.0-1.99","7817","approach_avoid_sv1","""event"",""trial"",""time""
""fullscreenenter"",""1"",""2078""
","
","
","""event"",""trial"",""time""
""fullscreenenter"",""1"",""2078""
","
","","","","","","1699","images/cat2.png","","","memory_trial","2","maybe_old",""
"html-keyboard-response","247","1147317","0.0-18.0-0.100","7817","approach_avoid_sv1","""event"",""trial"",""time""
""fullscreenenter"",""1"",""2078""
","
","
","""event"",""trial"",""time""
""fullscreenenter"",""1"",""2078""
","
","","","","","","null","<div style=""font-size:60px;"">+</div>","null","","fixation","","",""
"memory-trial","248","1149496","0.0-18.0-1.100","7817","approach_avoid_sv1","""event"",""trial"",""time""
""fullscreenenter"",""1"",""2078""
","
","
","""event"",""trial"",""time""
""fullscreenenter"",""1"",""2078""
","
","","","","","","1176.7000000178814","images/straw6.png","","","memory_trial","4","definitely_new",""
"html-keyboard-response","249","1149998","0.0-18.0-0.101","7817","approach_avoid_sv1","""event"",""trial"",""time""
""fullscreenenter"",""1"",""2078""
","
","
","""event"",""trial"",""time""
""fullscreenenter"",""1"",""2078""
","
","","","","","","null","<div style=""font-size:60px;"">+</div>","null","","fixation","","",""
"memory-trial","250","1152575","0.0-18.0-1.101","7817","approach_avoid_sv1","""event"",""trial"",""time""
""fullscreenenter"",""1"",""2078""
","
","
","""event"",""trial"",""time""
""fullscreenenter"",""1"",""2078""
","
","","","","","","1574.199999988079","images/plane1.png","","","memory_trial","2","maybe_old",""
"html-keyboard-response","251","1153076","0.0-18.0-0.102","7817","approach_avoid_sv1","""event"",""trial"",""time""
""fullscreenenter"",""1"",""2078""
","
","
","""event"",""trial"",""time""
""fullscreenenter"",""1"",""2078""
","
","","","","","","null","<div style=""font-size:60px;"">+</div>","null","","fixation","","",""
"memory-trial","252","1156333","0.0-18.0-1.102","7817","approach_avoid_sv1","""event"",""trial"",""time""
""fullscreenenter"",""1"",""2078""
","
","
","""event"",""trial"",""time""
""fullscreenenter"",""1"",""2078""
","
","","","","","","2253.9000000059605","images/cactus6.png","","","memory_trial","1","definitely_old",""
"html-keyboard-response","253","1156835","0.0-18.0-0.103","7817","approach_avoid_sv1","""event"",""trial"",""time""
""fullscreenenter"",""1"",""2078""
","
","
","""event"",""trial"",""time""
""fullscreenenter"",""1"",""2078""
","
","","","","","","null","<div style=""font-size:60px;"">+</div>","null","","fixation","","",""
"memory-trial","254","1159015","0.0-18.0-1.103","7817","approach_avoid_sv1","""event"",""trial"",""time""
""fullscreenenter"",""1"",""2078""
","
","
","""event"",""trial"",""time""
""fullscreenenter"",""1"",""2078""
","
","","","","","","1176.5999999940395","images/flower8.png","","","memory_trial","2","maybe_old",""
"html-keyboard-response","255","1159516","0.0-18.0-0.104","7817","approach_avoid_sv1","""event"",""trial"",""time""
""fullscreenenter"",""1"",""2078""
","
","
","""event"",""trial"",""time""
""fullscreenenter"",""1"",""2078""
","
","","","","","","null","<div style=""font-size:60px;"">+</div>","null","","fixation","","",""
"memory-trial","256","1162866","0.0-18.0-1.104","7817","approach_avoid_sv1","""event"",""trial"",""time""
""fullscreenenter"",""1"",""2078""
","
","
","""event"",""trial"",""time""
""fullscreenenter"",""1"",""2078""
","
","","","","","","2347.5","images/plane7.png","","","memory_trial","3","maybe_new",""
"html-keyboard-response","257","1163367","0.0-18.0-0.105","7817","approach_avoid_sv1","""event"",""trial"",""time""
""fullscreenenter"",""1"",""2078""
","
","
","""event"",""trial"",""time""
""fullscreenenter"",""1"",""2078""
","
","","","","","","null","<div style=""font-size:60px;"">+</div>","null","","fixation","","",""
"memory-trial","258","1165605","0.0-18.0-1.105","7817","approach_avoid_sv1","""event"",""trial"",""time""
""fullscreenenter"",""1"",""2078""
","
","
","""event"",""trial"",""time""
""fullscreenenter"",""1"",""2078""
","
","","","","","","1235.0999999940395","images/bush4.png","","","memory_trial","3","maybe_new",""
"html-keyboard-response","259","1166108","0.0-18.0-0.106","7817","approach_avoid_sv1","""event"",""trial"",""time""
""fullscreenenter"",""1"",""2078""
","
","
","""event"",""trial"",""time""
""fullscreenenter"",""1"",""2078""
","
","","","","","","null","<div style=""font-size:60px;"">+</div>","null","","fixation","","",""
"memory-trial","260","1168136","0.0-18.0-1.106","7817","approach_avoid_sv1","""event"",""trial"",""time""
""fullscreenenter"",""1"",""2078""
","
","
","""event"",""trial"",""time""
""fullscreenenter"",""1"",""2078""
","
","","","","","","1025.5999999940395","images/dog4.png","","","memory_trial","3","maybe_new",""
"html-keyboard-response","261","1168637","0.0-18.0-0.107","7817","approach_avoid_sv1","""event"",""trial"",""time""
""fullscreenenter"",""1"",""2078""
","
","
","""event"",""trial"",""time""
""fullscreenenter"",""1"",""2078""
","
","","","","","","null","<div style=""font-size:60px;"">+</div>","null","","fixation","","",""
"memory-trial","262","1170855","0.0-18.0-1.107","7817","approach_avoid_sv1","""event"",""trial"",""time""
""fullscreenenter"",""1"",""2078""
","
","
","""event"",""trial"",""time""
""fullscreenenter"",""1"",""2078""
","
","","","","","","1215.9000000059605","images/orange2.png","","","memory_trial","2","maybe_old",""
"html-keyboard-response","263","1171356","0.0-18.0-0.108","7817","approach_avoid_sv1","""event"",""trial"",""time""
""fullscreenenter"",""1"",""2078""
","
","
","""event"",""trial"",""time""
""fullscreenenter"",""1"",""2078""
","
","","","","","","null","<div style=""font-size:60px;"">+</div>","null","","fixation","","",""
"memory-trial","264","1173709","0.0-18.0-1.108","7817","approach_avoid_sv1","""event"",""trial"",""time""
""fullscreenenter"",""1"",""2078""
","
","
","""event"",""trial"",""time""
""fullscreenenter"",""1"",""2078""
","
","","","","","","1350.5","images/tree2.png","","","memory_trial","4","definitely_new",""
"html-keyboard-response","265","1174211","0.0-18.0-0.109","7817","approach_avoid_sv1","""event"",""trial"",""time""
""fullscreenenter"",""1"",""2078""
","
","
","""event"",""trial"",""time""
""fullscreenenter"",""1"",""2078""
","
","","","","","","null","<div style=""font-size:60px;"">+</div>","null","","fixation","","",""
"memory-trial","266","1176549","0.0-18.0-1.109","7817","approach_avoid_sv1","""event"",""trial"",""time""
""fullscreenenter"",""1"",""2078""
","
","
","""event"",""trial"",""time""
""fullscreenenter"",""1"",""2078""
","
","","","","","","1335","images/sheep7.png","","","memory_trial","3","maybe_new",""
"html-keyboard-response","267","1177051","0.0-18.0-0.110","7817","approach_avoid_sv1","""event"",""trial"",""time""
""fullscreenenter"",""1"",""2078""
","
","
","""event"",""trial"",""time""
""fullscreenenter"",""1"",""2078""
","
","","","","","","null","<div style=""font-size:60px;"">+</div>","null","","fixation","","",""
"memory-trial","268","1180506","0.0-18.0-1.110","7817","approach_avoid_sv1","""event"",""trial"",""time""
""fullscreenenter"",""1"",""2078""
","
","
","""event"",""trial"",""time""
""fullscreenenter"",""1"",""2078""
","
","","","","","","2453","images/bush5.png","","","memory_trial","1","definitely_old",""
"html-keyboard-response","269","1181008","0.0-18.0-0.111","7817","approach_avoid_sv1","""event"",""trial"",""time""
""fullscreenenter"",""1"",""2078""
","
","
","""event"",""trial"",""time""
""fullscreenenter"",""1"",""2078""
","
","","","","","","null","<div style=""font-size:60px;"">+</div>","null","","fixation","","",""
"memory-trial","270","1183973","0.0-18.0-1.111","7817","approach_avoid_sv1","""event"",""trial"",""time""
""fullscreenenter"",""1"",""2078""
","
","
","""event"",""trial"",""time""
""fullscreenenter"",""1"",""2078""
","
","","","","","","1962.3999999761581","images/table3.png","","","memory_trial","4","definitely_new",""
"html-keyboard-response","271","1184475","0.0-18.0-0.112","7817","approach_avoid_sv1","""event"",""trial"",""time""
""fullscreenenter"",""1"",""2078""
","
","
","""event"",""trial"",""time""
""fullscreenenter"",""1"",""2078""
","
","","","","","","null","<div style=""font-size:60px;"">+</div>","null","","fixation","","",""
"memory-trial","272","1186486","0.0-18.0-1.112","7817","approach_avoid_sv1","""event"",""trial"",""time""
""fullscreenenter"",""1"",""2078""
","
","
","""event"",""trial"",""time""
""fullscreenenter"",""1"",""2078""
","
","","","","","","1008.4000000059605","images/bush6.png","","","memory_trial","3","maybe_new",""
"html-keyboard-response","273","1186988","0.0-18.0-0.113","7817","approach_avoid_sv1","""event"",""trial"",""time""
""fullscreenenter"",""1"",""2078""
","
","
","""event"",""trial"",""time""
""fullscreenenter"",""1"",""2078""
","
","","","","","","null","<div style=""font-size:60px;"">+</div>","null","","fixation","","",""
"memory-trial","274","1189217","0.0-18.0-1.113","7817","approach_avoid_sv1","""event"",""trial"",""time""
""fullscreenenter"",""1"",""2078""
","
","
","""event"",""trial"",""time""
""fullscreenenter"",""1"",""2078""
","
","","","","","","1226.2000000178814","images/train3.png","","","memory_trial","3","maybe_new",""
"html-keyboard-response","275","1189718","0.0-18.0-0.114","7817","approach_avoid_sv1","""event"",""trial"",""time""
""fullscreenenter"",""1"",""2078""
","
","
","""event"",""trial"",""time""
""fullscreenenter"",""1"",""2078""
","
","","","","","","null","<div style=""font-size:60px;"">+</div>","null","","fixation","","",""
"memory-trial","276","1193452","0.0-18.0-1.114","7817","approach_avoid_sv1","""event"",""trial"",""time""
""fullscreenenter"",""1"",""2078""
","
","
","""event"",""trial"",""time""
""fullscreenenter"",""1"",""2078""
","
","","","","","","2731.5","images/banana6.png","","","memory_trial","3","maybe_new",""
"html-keyboard-response","277","1193953","0.0-18.0-0.115","7817","approach_avoid_sv1","""event"",""trial"",""time""
""fullscreenenter"",""1"",""2078""
","
","
","""event"",""trial"",""time""
""fullscreenenter"",""1"",""2078""
","
","","","","","","null","<div style=""font-size:60px;"">+</div>","null","","fixation","","",""
"memory-trial","278","1196285","0.0-18.0-1.115","7817","approach_avoid_sv1","""event"",""trial"",""time""
""fullscreenenter"",""1"",""2078""
","
","
","""event"",""trial"",""time""
""fullscreenenter"",""1"",""2078""
","
","","","","","","1329.7000000178814","images/orange8.png","","","memory_trial","2","maybe_old",""
"html-keyboard-response","279","1196786","0.0-18.0-0.116","7817","approach_avoid_sv1","""event"",""trial"",""time""
""fullscreenenter"",""1"",""2078""
","
","
","""event"",""trial"",""time""
""fullscreenenter"",""1"",""2078""
","
","","","","","","null","<div style=""font-size:60px;"">+</div>","null","","fixation","","",""
"memory-trial","280","1199578","0.0-18.0-1.116","7817","approach_avoid_sv1","""event"",""trial"",""time""
""fullscreenenter"",""1"",""2078""
","
","
","""event"",""trial"",""time""
""fullscreenenter"",""1"",""2078""
","
","","","","","","1790.2000000178814","images/cow7.png","","","memory_trial","3","maybe_new",""
"html-keyboard-response","281","1200080","0.0-18.0-0.117","7817","approach_avoid_sv1","""event"",""trial"",""time""
""fullscreenenter"",""1"",""2078""
","
","
","""event"",""trial"",""time""
""fullscreenenter"",""1"",""2078""
","
","","","","","","null","<div style=""font-size:60px;"">+</div>","null","","fixation","","",""
"memory-trial","282","1202136","0.0-18.0-1.117","7817","approach_avoid_sv1","""event"",""trial"",""time""
""fullscreenenter"",""1"",""2078""
","
","
","""event"",""trial"",""time""
""fullscreenenter"",""1"",""2078""
","
","","","","","","1053","images/boat7.png","","","memory_trial","3","maybe_new",""
"html-keyboard-response","283","1202638","0.0-18.0-0.118","7817","approach_avoid_sv1","""event"",""trial"",""time""
""fullscreenenter"",""1"",""2078""
","
","
","""event"",""trial"",""time""
""fullscreenenter"",""1"",""2078""
","
","","","","","","null","<div style=""font-size:60px;"">+</div>","null","","fixation","","",""
"memory-trial","284","1204709","0.0-18.0-1.118","7817","approach_avoid_sv1","""event"",""trial"",""time""
""fullscreenenter"",""1"",""2078""
","
","
","""event"",""trial"",""time""
""fullscreenenter"",""1"",""2078""
","
","","","","","","1067.6000000238419","images/straw5.png","","","memory_trial","3","maybe_new",""
"html-keyboard-response","285","1205210","0.0-18.0-0.119","7817","approach_avoid_sv1","""event"",""trial"",""time""
""fullscreenenter"",""1"",""2078""
","
","
","""event"",""trial"",""time""
""fullscreenenter"",""1"",""2078""
","
","","","","","","null","<div style=""font-size:60px;"">+</div>","null","","fixation","","",""
"memory-trial","286","1207837","0.0-18.0-1.119","7817","approach_avoid_sv1","""event"",""trial"",""time""
""fullscreenenter"",""1"",""2078""
","
","
","""event"",""trial"",""time""
""fullscreenenter"",""1"",""2078""
","
","","","","","","1623.800000011921","images/apple3.png","","","memory_trial","1","definitely_old",""
"html-keyboard-response","287","1208338","0.0-18.0-0.120","7817","approach_avoid_sv1","""event"",""trial"",""time""
""fullscreenenter"",""1"",""2078""
","
","
","""event"",""trial"",""time""
""fullscreenenter"",""1"",""2078""
","
","","","","","","null","<div style=""font-size:60px;"">+</div>","null","","fixation","","",""
"memory-trial","288","1212310","0.0-18.0-1.120","7817","approach_avoid_sv1","""event"",""trial"",""time""
""fullscreenenter"",""1"",""2078""
","
","
","""event"",""trial"",""time""
""fullscreenenter"",""1"",""2078""
","
","","","","","","2968.699999988079","images/train6.png","","","memory_trial","2","maybe_old",""
"html-keyboard-response","289","1212811","0.0-18.0-0.121","7817","approach_avoid_sv1","""event"",""trial"",""time""
""fullscreenenter"",""1"",""2078""
","
","
","""event"",""trial"",""time""
""fullscreenenter"",""1"",""2078""
","
","","","","","","null","<div style=""font-size:60px;"">+</div>","null","","fixation","","",""
"memory-trial","290","1215705","0.0-18.0-1.121","7817","approach_avoid_sv1","""event"",""trial"",""time""
""fullscreenenter"",""1"",""2078""
","
","
","""event"",""trial"",""time""
""fullscreenenter"",""1"",""2078""
","
","","","","","","1891.2000000178814","images/tree8.png","","","memory_trial","4","definitely_new",""
"html-keyboard-response","291","1216207","0.0-18.0-0.122","7817","approach_avoid_sv1","""event"",""trial"",""time""
""fullscreenenter"",""1"",""2078""
","
","
","""event"",""trial"",""time""
""fullscreenenter"",""1"",""2078""
","
","","","","","","null","<div style=""font-size:60px;"">+</div>","null","","fixation","","",""
"memory-trial","292","1218974","0.0-18.0-1.122","7817","approach_avoid_sv1","""event"",""trial"",""time""
""fullscreenenter"",""1"",""2078""
","
","
","""event"",""trial"",""time""
""fullscreenenter"",""1"",""2078""
","
","","","","","","1764.4000000059605","images/cat7.png","","","memory_trial","3","maybe_new",""
"html-keyboard-response","293","1219476","0.0-18.0-0.123","7817","approach_avoid_sv1","""event"",""trial"",""time""
""fullscreenenter"",""1"",""2078""
","
","
","""event"",""trial"",""time""
""fullscreenenter"",""1"",""2078""
","
","","","","","","null","<div style=""font-size:60px;"">+</div>","null","","fixation","","",""
"memory-trial","294","1222216","0.0-18.0-1.123","7817","approach_avoid_sv1","""event"",""trial"",""time""
""fullscreenenter"",""1"",""2078""
","
","
","""event"",""trial"",""time""
""fullscreenenter"",""1"",""2078""
","
","","","","","","1738.2999999821186","images/orange7.png","","","memory_trial","1","definitely_old",""
"html-keyboard-response","295","1222718","0.0-18.0-0.124","7817","approach_avoid_sv1","""event"",""trial"",""time""
""fullscreenenter"",""1"",""2078""
","
","
","""event"",""trial"",""time""
""fullscreenenter"",""1"",""2078""
","
","","","","","","null","<div style=""font-size:60px;"">+</div>","null","","fixation","","",""
"memory-trial","296","1225399","0.0-18.0-1.124","7817","approach_avoid_sv1","""event"",""trial"",""time""
""fullscreenenter"",""1"",""2078""
","
","
","""event"",""trial"",""time""
""fullscreenenter"",""1"",""2078""
","
","","","","","","1672.800000011921","images/tree1.png","","","memory_trial","4","definitely_new",""
