"trial_type","trial_index","time_elapsed","internal_node_id","subject_id","task_version","interactions","blur_events","focus_events","fullscreenenter_events","fullscreenexit_events","success","timeout","failed_images","failed_audio","failed_video","rt","stimulus","response","button_pressed","task_part","key_press","answer","correct"
"pavlovia","0","3","0.0-0.0","7571","approach_avoid_sv1","""event"",""trial"",""time""
""fullscreenenter"",""1"",""7822""
","
","
","""event"",""trial"",""time""
""fullscreenenter"",""1"",""7822""
","
","","","","","","","","","","","","",""
"fullscreen","1","8816","0.0-1.0","7571","approach_avoid_sv1","""event"",""trial"",""time""
""fullscreenenter"",""1"",""7822""
","
","
","""event"",""trial"",""time""
""fullscreenenter"",""1"",""7822""
","
","true","","","","","","","","","","","",""
"preload","2","11056","0.0-2.0","7571","approach_avoid_sv1","""event"",""trial"",""time""
""fullscreenenter"",""1"",""7822""
","
","
","""event"",""trial"",""time""
""fullscreenenter"",""1"",""7822""
","
","true","false","[]","[]","[]","","","","","","","",""
"preload","3","12582","0.0-3.0","7571","approach_avoid_sv1","""event"",""trial"",""time""
""fullscreenenter"",""1"",""7822""
","
","
","""event"",""trial"",""time""
""fullscreenenter"",""1"",""7822""
","
","true","false","[]","[]","[]","","","","","","","",""
"preload","4","13510","0.0-4.0","7571","approach_avoid_sv1","""event"",""trial"",""time""
""fullscreenenter"",""1"",""7822""
","
","
","""event"",""trial"",""time""
""fullscreenenter"",""1"",""7822""
","
","true","false","[]","[]","[]","","","","","","","",""
"audio-keyboard-response","5","18599","0.0-5.0","7571","approach_avoid_sv1","""event"",""trial"",""time""
""fullscreenenter"",""1"",""7822""
","
","
","""event"",""trial"",""time""
""fullscreenenter"",""1"",""7822""
","
","","","","","","5088","audio/beep_loop.wav"," ","","","","",""
"audio-button-response","6","21977","0.0-6.0","7571","approach_avoid_sv1","""event"",""trial"",""time""
""fullscreenenter"",""1"",""7822""
","
","
","""event"",""trial"",""time""
""fullscreenenter"",""1"",""7822""
","
","","","","","","3371","audio/turtle.wav","0","","","","",""
"audio-button-response","7","23736","0.0-7.0","7571","approach_avoid_sv1","""event"",""trial"",""time""
""fullscreenenter"",""1"",""7822""
","
","
","""event"",""trial"",""time""
""fullscreenenter"",""1"",""7822""
","
","","","","","","741","audio/shark.wav","2","","","","",""
"preload","8","27304","0.0-8.0","7571","approach_avoid_sv1","""event"",""trial"",""time""
""fullscreenenter"",""1"",""7822""
","
","
","""event"",""trial"",""time""
""fullscreenenter"",""1"",""7822""
","
","true","false","[]","[]","[]","","","","","","","",""
"learning-instructions","9","34775","0.0-9.0-0.0","7571","approach_avoid_sv1","""event"",""trial"",""time""
""fullscreenenter"",""1"",""7822""
","
","
","""event"",""trial"",""time""
""fullscreenenter"",""1"",""7822""
","
","","","","","","2992.4000000059605","<p> Welcome back! </p><p> Last week, you had to make choices about lots of different items.  </p>","","0","instructions","","",""
"learning-instructions","10","40166","0.0-9.0-0.1","7571","approach_avoid_sv1","""event"",""trial"",""time""
""fullscreenenter"",""1"",""7822""
","
","
","""event"",""trial"",""time""
""fullscreenenter"",""1"",""7822""
","
","","","","","","1263.0999999940395","<p> Today, we are going to ask you to try to remember all the items. </p>","","0","instructions","","",""
"learning-instructions","11","50825","0.0-9.0-0.2","7571","approach_avoid_sv1","""event"",""trial"",""time""
""fullscreenenter"",""1"",""7822""
","
","
","""event"",""trial"",""time""
""fullscreenenter"",""1"",""7822""
","
","","","","","","522.1999999880791","<p> On every trial, you will see an image. </p><p> The image may be an OLD image you saw during the games last week or it may be a NEW image that was not presented. </p>","","0","instructions","","",""
"learning-instructions","12","61034","0.0-9.0-0.3","7571","approach_avoid_sv1","""event"",""trial"",""time""
""fullscreenenter"",""1"",""7822""
","
","
","""event"",""trial"",""time""
""fullscreenenter"",""1"",""7822""
","
","","","","","","1690.4000000059605","<p> You need to select whether the image is:  </p><p>  'Definitely old', 'Maybe old', 'Maybe new', or 'Definitely new.'  </p><div class=""mem-choice-instructions-grid""><div class=""choice-option"" id=""choice-option-1"" ><img src=""images/definitely_old_1.png"" id=""choice-option-img-1"" class=""choice-option-img"" stage=""1""></div><div class=""choice-option"" id=""choice-option-2"" ><img src=""images/maybe_old_1.png"" id=""choice-option-img-2"" class=""choice-option-img"" stage=""1""></div><div class=""choice-option"" id=""choice-option-3"" ><img src=""images/maybe_new_1.png"" id=""choice-option-img-3"" class=""choice-option-img"" stage=""1""></div><div class=""choice-option"" id=""choice-option-4"" > <img src=""images/definitely_new_1.png"" id=""choice-option-img-4"" class=""choice-option-img"" stage=""1""></div></div>","","0","instructions","","",""
"learning-instructions","13","68973","0.0-9.0-0.4","7571","approach_avoid_sv1","""event"",""trial"",""time""
""fullscreenenter"",""1"",""7822""
","
","
","""event"",""trial"",""time""
""fullscreenenter"",""1"",""7822""
","
","","","","","","1409.300000011921","<p> You should use the 1, 2, 3, and 4 keys to make your responses.  </p><div class=""mem-choice-instructions-grid""><div class=""choice-option"" id=""choice-option-1"" ><img src=""images/definitely_old.png"" id=""choice-option-img-1"" class=""choice-option-img"" stage=""1""></div><div class=""choice-option"" id=""choice-option-2"" ><img src=""images/maybe_old.png"" id=""choice-option-img-2"" class=""choice-option-img"" stage=""1""></div><div class=""choice-option"" id=""choice-option-3"" ><img src=""images/maybe_new.png"" id=""choice-option-img-3"" class=""choice-option-img"" stage=""1""></div><div class=""choice-option"" id=""choice-option-4"" > <img src=""images/definitely_new.png"" id=""choice-option-img-4"" class=""choice-option-img"" stage=""1""></div></div>","","0","instructions","","",""
"learning-instructions","14","75605","0.0-9.0-0.5","7571","approach_avoid_sv1","""event"",""trial"",""time""
""fullscreenenter"",""1"",""7822""
","
","
","""event"",""trial"",""time""
""fullscreenenter"",""1"",""7822""
","
","","","","","","302","<p> You will have 10 seconds to make each response.  </p><p>  Make sure to respond before time runs out! </p>","","0","instructions","","",""
"learning-instructions","15","83083","0.0-9.0-0.6","7571","approach_avoid_sv1","""event"",""trial"",""time""
""fullscreenenter"",""1"",""7822""
","
","
","""event"",""trial"",""time""
""fullscreenenter"",""1"",""7822""
","
","","","","","","400.09999999403954","<p> Today, you will see each image ONCE only.  </p><p>  That means none of the images will repeat. </p>","","0","instructions","","",""
"learning-instructions","16","95994","0.0-9.0-0.7","7571","approach_avoid_sv1","""event"",""trial"",""time""
""fullscreenenter"",""1"",""7822""
","
","
","""event"",""trial"",""time""
""fullscreenenter"",""1"",""7822""
","
","","","","","","232.19999998807907","<p> Before you play the real game, it is time to practice. </p><p>  Just like in the real game, some of the images in the practice will be ones you have seen before. </p><p>  Others will be entirely new. </p>","","0","instructions","","",""
"html-button-response","17","97993","0.0-10.0","7571","approach_avoid_sv1","""event"",""trial"",""time""
""fullscreenenter"",""1"",""7822""
","
","
","""event"",""trial"",""time""
""fullscreenenter"",""1"",""7822""
","
","","","","","","1889.9000000059605","<p> Ready to practice? </p><p> Remember, use the 1, 2, 3, and 4 keys to make your responses. </p>","0","","instructions","","",""
"html-keyboard-response","18","98611","0.0-11.0-0.0","7571","approach_avoid_sv1","""event"",""trial"",""time""
""fullscreenenter"",""1"",""7822""
","
","
","""event"",""trial"",""time""
""fullscreenenter"",""1"",""7822""
","
","","","","","","null","<div style=""font-size:60px;"">+</div>","null","","fixation","","",""
"memory-trial","19","101670","0.0-11.0-1.0","7571","approach_avoid_sv1","""event"",""trial"",""time""
""fullscreenenter"",""1"",""7822""
","
","
","""event"",""trial"",""time""
""fullscreenenter"",""1"",""7822""
","
","","","","","","2050.699999988079","images/ball5.png","","","practice","2","maybe_old",""
"html-keyboard-response","20","102184","0.0-11.0-0.1","7571","approach_avoid_sv1","""event"",""trial"",""time""
""fullscreenenter"",""1"",""7822""
","
","
","""event"",""trial"",""time""
""fullscreenenter"",""1"",""7822""
","
","","","","","","null","<div style=""font-size:60px;"">+</div>","null","","fixation","","",""
"memory-trial","21","104565","0.0-11.0-1.1","7571","approach_avoid_sv1","""event"",""trial"",""time""
""fullscreenenter"",""1"",""7822""
","
","
","""event"",""trial"",""time""
""fullscreenenter"",""1"",""7822""
","
","","","","","","1362.300000011921","images/racket1.png","","","practice","2","maybe_old",""
"html-keyboard-response","22","105077","0.0-11.0-0.2","7571","approach_avoid_sv1","""event"",""trial"",""time""
""fullscreenenter"",""1"",""7822""
","
","
","""event"",""trial"",""time""
""fullscreenenter"",""1"",""7822""
","
","","","","","","null","<div style=""font-size:60px;"">+</div>","null","","fixation","","",""
"memory-trial","23","106901","0.0-11.0-1.2","7571","approach_avoid_sv1","""event"",""trial"",""time""
""fullscreenenter"",""1"",""7822""
","
","
","""event"",""trial"",""time""
""fullscreenenter"",""1"",""7822""
","
","","","","","","807.0999999940395","images/ball3.png","","","practice","3","maybe_new",""
"html-keyboard-response","24","107418","0.0-11.0-0.3","7571","approach_avoid_sv1","""event"",""trial"",""time""
""fullscreenenter"",""1"",""7822""
","
","
","""event"",""trial"",""time""
""fullscreenenter"",""1"",""7822""
","
","","","","","","null","<div style=""font-size:60px;"">+</div>","null","","fixation","","",""
"memory-trial","25","109334","0.0-11.0-1.3","7571","approach_avoid_sv1","""event"",""trial"",""time""
""fullscreenenter"",""1"",""7822""
","
","
","""event"",""trial"",""time""
""fullscreenenter"",""1"",""7822""
","
","","","","","","897.3000000119209","images/racket2.png","","","practice","4","definitely_new",""
"html-keyboard-response","26","109847","0.0-11.0-0.4","7571","approach_avoid_sv1","""event"",""trial"",""time""
""fullscreenenter"",""1"",""7822""
","
","
","""event"",""trial"",""time""
""fullscreenenter"",""1"",""7822""
","
","","","","","","null","<div style=""font-size:60px;"">+</div>","null","","fixation","","",""
"memory-trial","27","111967","0.0-11.0-1.4","7571","approach_avoid_sv1","""event"",""trial"",""time""
""fullscreenenter"",""1"",""7822""
","
","
","""event"",""trial"",""time""
""fullscreenenter"",""1"",""7822""
","
","","","","","","1103","images/racket3.png","","","practice","1","definitely_old",""
"html-keyboard-response","28","112469","0.0-11.0-0.5","7571","approach_avoid_sv1","""event"",""trial"",""time""
""fullscreenenter"",""1"",""7822""
","
","
","""event"",""trial"",""time""
""fullscreenenter"",""1"",""7822""
","
","","","","","","null","<div style=""font-size:60px;"">+</div>","null","","fixation","","",""
"memory-trial","29","114197","0.0-11.0-1.5","7571","approach_avoid_sv1","""event"",""trial"",""time""
""fullscreenenter"",""1"",""7822""
","
","
","""event"",""trial"",""time""
""fullscreenenter"",""1"",""7822""
","
","","","","","","720.3000000119209","images/racket5.png","","","practice","2","maybe_old",""
"html-keyboard-response","30","114712","0.0-11.0-0.6","7571","approach_avoid_sv1","""event"",""trial"",""time""
""fullscreenenter"",""1"",""7822""
","
","
","""event"",""trial"",""time""
""fullscreenenter"",""1"",""7822""
","
","","","","","","null","<div style=""font-size:60px;"">+</div>","null","","fixation","","",""
"memory-trial","31","116634","0.0-11.0-1.6","7571","approach_avoid_sv1","""event"",""trial"",""time""
""fullscreenenter"",""1"",""7822""
","
","
","""event"",""trial"",""time""
""fullscreenenter"",""1"",""7822""
","
","","","","","","907.3999999761581","images/ball1.png","","","practice","2","maybe_old",""
"html-keyboard-response","32","117147","0.0-11.0-0.7","7571","approach_avoid_sv1","""event"",""trial"",""time""
""fullscreenenter"",""1"",""7822""
","
","
","""event"",""trial"",""time""
""fullscreenenter"",""1"",""7822""
","
","","","","","","null","<div style=""font-size:60px;"">+</div>","null","","fixation","","",""
"memory-trial","33","119699","0.0-11.0-1.7","7571","approach_avoid_sv1","""event"",""trial"",""time""
""fullscreenenter"",""1"",""7822""
","
","
","""event"",""trial"",""time""
""fullscreenenter"",""1"",""7822""
","
","","","","","","1548","images/ball2.png","","","practice","2","maybe_old",""
"learning-instructions","34","128148","0.0-12.0-0.0","7571","approach_avoid_sv1","""event"",""trial"",""time""
""fullscreenenter"",""1"",""7822""
","
","
","""event"",""trial"",""time""
""fullscreenenter"",""1"",""7822""
","
","","","","","","1145.0999999940395","<p> Great! You have completed the practice. </p><p> Before you start, we're going to ask you a few questions about how the game works.  </p>","","0","instructions","","",""
"preload","35","129663","0.0-13.0","7571","approach_avoid_sv1","""event"",""trial"",""time""
""fullscreenenter"",""1"",""7822""
","
","
","""event"",""trial"",""time""
""fullscreenenter"",""1"",""7822""
","
","true","false","[]","[]","[]","","","","","","","",""
"comp-q","36","136773","0.0-14.0-0.0","7571","approach_avoid_sv1","""event"",""trial"",""time""
""fullscreenenter"",""1"",""7822""
","
","
","""event"",""trial"",""time""
""fullscreenenter"",""1"",""7822""
","
","","","","","","1281.0999999940395","<p> <b> True or False? </b> </p><p> In this game, you will only see each image once. </p>","","0","comp_question","","","true"
"comp-q","37","143545","0.0-14.0-1.0","7571","approach_avoid_sv1","""event"",""trial"",""time""
""fullscreenenter"",""1"",""7822""
","
","
","""event"",""trial"",""time""
""fullscreenenter"",""1"",""7822""
","
","","","","","","421.5","<p> <b> That's right! </b> You will see many different images <i> one time each </i> in this game. </p>","","0","comp_answer","","",""
"comp-q","38","149047","0.0-15.0-0.0","7571","approach_avoid_sv1","""event"",""trial"",""time""
""fullscreenenter"",""1"",""7822""
","
","
","""event"",""trial"",""time""
""fullscreenenter"",""1"",""7822""
","
","","","","","","505.59999999403954","<p> <b> True or False? </b> </p><p> You should use the mouse and click to make your response. </p>","","1","comp_question","","","true"
"comp-q","39","156132","0.0-15.0-1.0","7571","approach_avoid_sv1","""event"",""trial"",""time""
""fullscreenenter"",""1"",""7822""
","
","
","""event"",""trial"",""time""
""fullscreenenter"",""1"",""7822""
","
","","","","","","590.2000000178814","<p><b> That's right! </b> You should use the '1', '2', '3', and '4' keys to make your response. </p>","","0","comp_answer","","",""
"comp-q","40","162776","0.0-16.0-0.0","7571","approach_avoid_sv1","""event"",""trial"",""time""
""fullscreenenter"",""1"",""7822""
","
","
","""event"",""trial"",""time""
""fullscreenenter"",""1"",""7822""
","
","","","","","","964.9000000059605","<p> <b> True or False? </b> </p><p> You will have as much time as you want to make each choice. </p>","","1","comp_question","","","true"
"comp-q","41","168119","0.0-16.0-1.0","7571","approach_avoid_sv1","""event"",""trial"",""time""
""fullscreenenter"",""1"",""7822""
","
","
","""event"",""trial"",""time""
""fullscreenenter"",""1"",""7822""
","
","","","","","","627.3999999761581","<p> <b> That's right! </b> You will only have 10 seconds to make each choice. </p>","","0","comp_answer","","",""
"learning-instructions","42","178937","0.0-17.0","7571","approach_avoid_sv1","""event"",""trial"",""time""
""fullscreenenter"",""1"",""7822""
","
","
","""event"",""trial"",""time""
""fullscreenenter"",""1"",""7822""
","
","","","","","","2144.300000011921","<p> Great! You are now ready to begin the game. </p><p> Remember, use the 1, 2, 3, and 4 keys to make your responses. </p>","","0","instructions","","",""
"html-keyboard-response","43","179565","0.0-18.0-0.0","7571","approach_avoid_sv1","""event"",""trial"",""time""
""fullscreenenter"",""1"",""7822""
","
","
","""event"",""trial"",""time""
""fullscreenenter"",""1"",""7822""
","
","","","","","","null","<div style=""font-size:60px;"">+</div>","null","","fixation","","",""
"memory-trial","44","183119","0.0-18.0-1.0","7571","approach_avoid_sv1","""event"",""trial"",""time""
""fullscreenenter"",""1"",""7822""
","
","
","""event"",""trial"",""time""
""fullscreenenter"",""1"",""7822""
","
","","","","","","2538.9000000059605","images/goat1.png","","","memory_trial","3","maybe_new",""
"html-keyboard-response","45","183632","0.0-18.0-0.1","7571","approach_avoid_sv1","""event"",""trial"",""time""
""fullscreenenter"",""1"",""7822""
","
","
","""event"",""trial"",""time""
""fullscreenenter"",""1"",""7822""
","
","","","","","","null","<div style=""font-size:60px;"">+</div>","null","","fixation","","",""
"memory-trial","46","187291","0.0-18.0-1.1","7571","approach_avoid_sv1","""event"",""trial"",""time""
""fullscreenenter"",""1"",""7822""
","
","
","""event"",""trial"",""time""
""fullscreenenter"",""1"",""7822""
","
","","","","","","2643.399999976158","images/flower3.png","","","memory_trial","2","maybe_old",""
"html-keyboard-response","47","187805","0.0-18.0-0.2","7571","approach_avoid_sv1","""event"",""trial"",""time""
""fullscreenenter"",""1"",""7822""
","
","
","""event"",""trial"",""time""
""fullscreenenter"",""1"",""7822""
","
","","","","","","null","<div style=""font-size:60px;"">+</div>","null","","fixation","","",""
"memory-trial","48","189844","0.0-18.0-1.2","7571","approach_avoid_sv1","""event"",""trial"",""time""
""fullscreenenter"",""1"",""7822""
","
","
","""event"",""trial"",""time""
""fullscreenenter"",""1"",""7822""
","
","","","","","","1030.5","images/tree6.png","","","memory_trial","3","maybe_new",""
"html-keyboard-response","49","190361","0.0-18.0-0.3","7571","approach_avoid_sv1","""event"",""trial"",""time""
""fullscreenenter"",""1"",""7822""
","
","
","""event"",""trial"",""time""
""fullscreenenter"",""1"",""7822""
","
","","","","","","null","<div style=""font-size:60px;"">+</div>","null","","fixation","","",""
"memory-trial","50","194031","0.0-18.0-1.3","7571","approach_avoid_sv1","""event"",""trial"",""time""
""fullscreenenter"",""1"",""7822""
","
","
","""event"",""trial"",""time""
""fullscreenenter"",""1"",""7822""
","
","","","","","","2663.300000011921","images/cat7.png","","","memory_trial","3","maybe_new",""
"html-keyboard-response","51","194533","0.0-18.0-0.4","7571","approach_avoid_sv1","""event"",""trial"",""time""
""fullscreenenter"",""1"",""7822""
","
","
","""event"",""trial"",""time""
""fullscreenenter"",""1"",""7822""
","
","","","","","","null","<div style=""font-size:60px;"">+</div>","null","","fixation","","",""
"memory-trial","52","196893","0.0-18.0-1.4","7571","approach_avoid_sv1","""event"",""trial"",""time""
""fullscreenenter"",""1"",""7822""
","
","
","""event"",""trial"",""time""
""fullscreenenter"",""1"",""7822""
","
","","","","","","1352.4000000059605","images/orange2.png","","","memory_trial","2","maybe_old",""
"html-keyboard-response","53","197408","0.0-18.0-0.5","7571","approach_avoid_sv1","""event"",""trial"",""time""
""fullscreenenter"",""1"",""7822""
","
","
","""event"",""trial"",""time""
""fullscreenenter"",""1"",""7822""
","
","","","","","","null","<div style=""font-size:60px;"">+</div>","null","","fixation","","",""
"memory-trial","54","200241","0.0-18.0-1.5","7571","approach_avoid_sv1","""event"",""trial"",""time""
""fullscreenenter"",""1"",""7822""
","
","
","""event"",""trial"",""time""
""fullscreenenter"",""1"",""7822""
","
","","","","","","1827.699999988079","images/sheep5.png","","","memory_trial","1","definitely_old",""
"html-keyboard-response","55","200743","0.0-18.0-0.6","7571","approach_avoid_sv1","""event"",""trial"",""time""
""fullscreenenter"",""1"",""7822""
","
","
","""event"",""trial"",""time""
""fullscreenenter"",""1"",""7822""
","
","","","","","","null","<div style=""font-size:60px;"">+</div>","null","","fixation","","",""
"memory-trial","56","203536","0.0-18.0-1.6","7571","approach_avoid_sv1","""event"",""trial"",""time""
""fullscreenenter"",""1"",""7822""
","
","
","""event"",""trial"",""time""
""fullscreenenter"",""1"",""7822""
","
","","","","","","1775.0999999940395","images/cat4.png","","","memory_trial","3","maybe_new",""
"html-keyboard-response","57","204053","0.0-18.0-0.7","7571","approach_avoid_sv1","""event"",""trial"",""time""
""fullscreenenter"",""1"",""7822""
","
","
","""event"",""trial"",""time""
""fullscreenenter"",""1"",""7822""
","
","","","","","","null","<div style=""font-size:60px;"">+</div>","null","","fixation","","",""
"memory-trial","58","206159","0.0-18.0-1.7","7571","approach_avoid_sv1","""event"",""trial"",""time""
""fullscreenenter"",""1"",""7822""
","
","
","""event"",""trial"",""time""
""fullscreenenter"",""1"",""7822""
","
","","","","","","1086.4000000059605","images/table8.png","","","memory_trial","1","definitely_old",""
"html-keyboard-response","59","206673","0.0-18.0-0.8","7571","approach_avoid_sv1","""event"",""trial"",""time""
""fullscreenenter"",""1"",""7822""
","
","
","""event"",""trial"",""time""
""fullscreenenter"",""1"",""7822""
","
","","","","","","null","<div style=""font-size:60px;"">+</div>","null","","fixation","","",""
"memory-trial","60","208797","0.0-18.0-1.8","7571","approach_avoid_sv1","""event"",""trial"",""time""
""fullscreenenter"",""1"",""7822""
","
","
","""event"",""trial"",""time""
""fullscreenenter"",""1"",""7822""
","
","","","","","","1119.2999999821186","images/cow7.png","","","memory_trial","1","definitely_old",""
"html-keyboard-response","61","209299","0.0-18.0-0.9","7571","approach_avoid_sv1","""event"",""trial"",""time""
""fullscreenenter"",""1"",""7822""
","
","
","""event"",""trial"",""time""
""fullscreenenter"",""1"",""7822""
","
","","","","","","null","<div style=""font-size:60px;"">+</div>","null","","fixation","","",""
"memory-trial","62","212075","0.0-18.0-1.9","7571","approach_avoid_sv1","""event"",""trial"",""time""
""fullscreenenter"",""1"",""7822""
","
","
","""event"",""trial"",""time""
""fullscreenenter"",""1"",""7822""
","
","","","","","","1772.5999999940395","images/plane3.png","","","memory_trial","3","maybe_new",""
"html-keyboard-response","63","212577","0.0-18.0-0.10","7571","approach_avoid_sv1","""event"",""trial"",""time""
""fullscreenenter"",""1"",""7822""
","
","
","""event"",""trial"",""time""
""fullscreenenter"",""1"",""7822""
","
","","","","","","null","<div style=""font-size:60px;"">+</div>","null","","fixation","","",""
"memory-trial","64","214469","0.0-18.0-1.10","7571","approach_avoid_sv1","""event"",""trial"",""time""
""fullscreenenter"",""1"",""7822""
","
","
","""event"",""trial"",""time""
""fullscreenenter"",""1"",""7822""
","
","","","","","","888.3000000119209","images/cow4.png","","","memory_trial","1","definitely_old",""
"html-keyboard-response","65","214970","0.0-18.0-0.11","7571","approach_avoid_sv1","""event"",""trial"",""time""
""fullscreenenter"",""1"",""7822""
","
","
","""event"",""trial"",""time""
""fullscreenenter"",""1"",""7822""
","
","","","","","","null","<div style=""font-size:60px;"">+</div>","null","","fixation","","",""
"memory-trial","66","216981","0.0-18.0-1.11","7571","approach_avoid_sv1","""event"",""trial"",""time""
""fullscreenenter"",""1"",""7822""
","
","
","""event"",""trial"",""time""
""fullscreenenter"",""1"",""7822""
","
","","","","","","1007.0999999940395","images/plane4.png","","","memory_trial","3","maybe_new",""
"html-keyboard-response","67","217483","0.0-18.0-0.12","7571","approach_avoid_sv1","""event"",""trial"",""time""
""fullscreenenter"",""1"",""7822""
","
","
","""event"",""trial"",""time""
""fullscreenenter"",""1"",""7822""
","
","","","","","","null","<div style=""font-size:60px;"">+</div>","null","","fixation","","",""
"memory-trial","68","219564","0.0-18.0-1.12","7571","approach_avoid_sv1","""event"",""trial"",""time""
""fullscreenenter"",""1"",""7822""
","
","
","""event"",""trial"",""time""
""fullscreenenter"",""1"",""7822""
","
","","","","","","1078","images/dog2.png","","","memory_trial","1","definitely_old",""
"html-keyboard-response","69","220066","0.0-18.0-0.13","7571","approach_avoid_sv1","""event"",""trial"",""time""
""fullscreenenter"",""1"",""7822""
","
","
","""event"",""trial"",""time""
""fullscreenenter"",""1"",""7822""
","
","","","","","","null","<div style=""font-size:60px;"">+</div>","null","","fixation","","",""
"memory-trial","70","222561","0.0-18.0-1.13","7571","approach_avoid_sv1","""event"",""trial"",""time""
""fullscreenenter"",""1"",""7822""
","
","
","""event"",""trial"",""time""
""fullscreenenter"",""1"",""7822""
","
","","","","","","1490","images/sofa3.png","","","memory_trial","3","maybe_new",""
"html-keyboard-response","71","223063","0.0-18.0-0.14","7571","approach_avoid_sv1","""event"",""trial"",""time""
""fullscreenenter"",""1"",""7822""
","
","
","""event"",""trial"",""time""
""fullscreenenter"",""1"",""7822""
","
","","","","","","null","<div style=""font-size:60px;"">+</div>","null","","fixation","","",""
"memory-trial","72","225460","0.0-18.0-1.14","7571","approach_avoid_sv1","""event"",""trial"",""time""
""fullscreenenter"",""1"",""7822""
","
","
","""event"",""trial"",""time""
""fullscreenenter"",""1"",""7822""
","
","","","","","","1393.1000000238419","images/bed8.png","","","memory_trial","1","definitely_old",""
"html-keyboard-response","73","225962","0.0-18.0-0.15","7571","approach_avoid_sv1","""event"",""trial"",""time""
""fullscreenenter"",""1"",""7822""
","
","
","""event"",""trial"",""time""
""fullscreenenter"",""1"",""7822""
","
","","","","","","null","<div style=""font-size:60px;"">+</div>","null","","fixation","","",""
"memory-trial","74","227916","0.0-18.0-1.15","7571","approach_avoid_sv1","""event"",""trial"",""time""
""fullscreenenter"",""1"",""7822""
","
","
","""event"",""trial"",""time""
""fullscreenenter"",""1"",""7822""
","
","","","","","","948.5","images/cow1.png","","","memory_trial","1","definitely_old",""
"html-keyboard-response","75","228417","0.0-18.0-0.16","7571","approach_avoid_sv1","""event"",""trial"",""time""
""fullscreenenter"",""1"",""7822""
","
","
","""event"",""trial"",""time""
""fullscreenenter"",""1"",""7822""
","
","","","","","","null","<div style=""font-size:60px;"">+</div>","null","","fixation","","",""
"memory-trial","76","230729","0.0-18.0-1.16","7571","approach_avoid_sv1","""event"",""trial"",""time""
""fullscreenenter"",""1"",""7822""
","
","
","""event"",""trial"",""time""
""fullscreenenter"",""1"",""7822""
","
","","","","","","1307.800000011921","images/banana5.png","","","memory_trial","3","maybe_new",""
"html-keyboard-response","77","231231","0.0-18.0-0.17","7571","approach_avoid_sv1","""event"",""trial"",""time""
""fullscreenenter"",""1"",""7822""
","
","
","""event"",""trial"",""time""
""fullscreenenter"",""1"",""7822""
","
","","","","","","null","<div style=""font-size:60px;"">+</div>","null","","fixation","","",""
"memory-trial","78","233196","0.0-18.0-1.17","7571","approach_avoid_sv1","""event"",""trial"",""time""
""fullscreenenter"",""1"",""7822""
","
","
","""event"",""trial"",""time""
""fullscreenenter"",""1"",""7822""
","
","","","","","","963.4000000059605","images/bush3.png","","","memory_trial","2","maybe_old",""
"html-keyboard-response","79","233699","0.0-18.0-0.18","7571","approach_avoid_sv1","""event"",""trial"",""time""
""fullscreenenter"",""1"",""7822""
","
","
","""event"",""trial"",""time""
""fullscreenenter"",""1"",""7822""
","
","","","","","","null","<div style=""font-size:60px;"">+</div>","null","","fixation","","",""
"memory-trial","80","235565","0.0-18.0-1.18","7571","approach_avoid_sv1","""event"",""trial"",""time""
""fullscreenenter"",""1"",""7822""
","
","
","""event"",""trial"",""time""
""fullscreenenter"",""1"",""7822""
","
","","","","","","862.7000000178814","images/table3.png","","","memory_trial","1","definitely_old",""
"html-keyboard-response","81","236066","0.0-18.0-0.19","7571","approach_avoid_sv1","""event"",""trial"",""time""
""fullscreenenter"",""1"",""7822""
","
","
","""event"",""trial"",""time""
""fullscreenenter"",""1"",""7822""
","
","","","","","","null","<div style=""font-size:60px;"">+</div>","null","","fixation","","",""
"memory-trial","82","237894","0.0-18.0-1.19","7571","approach_avoid_sv1","""event"",""trial"",""time""
""fullscreenenter"",""1"",""7822""
","
","
","""event"",""trial"",""time""
""fullscreenenter"",""1"",""7822""
","
","","","","","","823","images/boat7.png","","","memory_trial","1","definitely_old",""
"html-keyboard-response","83","238397","0.0-18.0-0.20","7571","approach_avoid_sv1","""event"",""trial"",""time""
""fullscreenenter"",""1"",""7822""
","
","
","""event"",""trial"",""time""
""fullscreenenter"",""1"",""7822""
","
","","","","","","null","<div style=""font-size:60px;"">+</div>","null","","fixation","","",""
"memory-trial","84","240676","0.0-18.0-1.20","7571","approach_avoid_sv1","""event"",""trial"",""time""
""fullscreenenter"",""1"",""7822""
","
","
","""event"",""trial"",""time""
""fullscreenenter"",""1"",""7822""
","
","","","","","","1274.9000000059605","images/dog5.png","","","memory_trial","3","maybe_new",""
"html-keyboard-response","85","241178","0.0-18.0-0.21","7571","approach_avoid_sv1","""event"",""trial"",""time""
""fullscreenenter"",""1"",""7822""
","
","
","""event"",""trial"",""time""
""fullscreenenter"",""1"",""7822""
","
","","","","","","null","<div style=""font-size:60px;"">+</div>","null","","fixation","","",""
"memory-trial","86","243176","0.0-18.0-1.21","7571","approach_avoid_sv1","""event"",""trial"",""time""
""fullscreenenter"",""1"",""7822""
","
","
","""event"",""trial"",""time""
""fullscreenenter"",""1"",""7822""
","
","","","","","","994.5999999940395","images/plane2.png","","","memory_trial","3","maybe_new",""
"html-keyboard-response","87","243677","0.0-18.0-0.22","7571","approach_avoid_sv1","""event"",""trial"",""time""
""fullscreenenter"",""1"",""7822""
","
","
","""event"",""trial"",""time""
""fullscreenenter"",""1"",""7822""
","
","","","","","","null","<div style=""font-size:60px;"">+</div>","null","","fixation","","",""
"memory-trial","88","245448","0.0-18.0-1.22","7571","approach_avoid_sv1","""event"",""trial"",""time""
""fullscreenenter"",""1"",""7822""
","
","
","""event"",""trial"",""time""
""fullscreenenter"",""1"",""7822""
","
","","","","","","769.0999999940395","images/bush8.png","","","memory_trial","2","maybe_old",""
"html-keyboard-response","89","245950","0.0-18.0-0.23","7571","approach_avoid_sv1","""event"",""trial"",""time""
""fullscreenenter"",""1"",""7822""
","
","
","""event"",""trial"",""time""
""fullscreenenter"",""1"",""7822""
","
","","","","","","null","<div style=""font-size:60px;"">+</div>","null","","fixation","","",""
"memory-trial","90","248192","0.0-18.0-1.23","7571","approach_avoid_sv1","""event"",""trial"",""time""
""fullscreenenter"",""1"",""7822""
","
","
","""event"",""trial"",""time""
""fullscreenenter"",""1"",""7822""
","
","","","","","","1238.699999988079","images/tree7.png","","","memory_trial","3","maybe_new",""
"html-keyboard-response","91","248694","0.0-18.0-0.24","7571","approach_avoid_sv1","""event"",""trial"",""time""
""fullscreenenter"",""1"",""7822""
","
","
","""event"",""trial"",""time""
""fullscreenenter"",""1"",""7822""
","
","","","","","","null","<div style=""font-size:60px;"">+</div>","null","","fixation","","",""
"memory-trial","92","250732","0.0-18.0-1.24","7571","approach_avoid_sv1","""event"",""trial"",""time""
""fullscreenenter"",""1"",""7822""
","
","
","""event"",""trial"",""time""
""fullscreenenter"",""1"",""7822""
","
","","","","","","1033.699999988079","images/goat6.png","","","memory_trial","3","maybe_new",""
"html-keyboard-response","93","251234","0.0-18.0-0.25","7571","approach_avoid_sv1","""event"",""trial"",""time""
""fullscreenenter"",""1"",""7822""
","
","
","""event"",""trial"",""time""
""fullscreenenter"",""1"",""7822""
","
","","","","","","null","<div style=""font-size:60px;"">+</div>","null","","fixation","","",""
"memory-trial","94","253402","0.0-18.0-1.25","7571","approach_avoid_sv1","""event"",""trial"",""time""
""fullscreenenter"",""1"",""7822""
","
","
","""event"",""trial"",""time""
""fullscreenenter"",""1"",""7822""
","
","","","","","","1164.199999988079","images/orange8.png","","","memory_trial","2","maybe_old",""
"html-keyboard-response","95","253904","0.0-18.0-0.26","7571","approach_avoid_sv1","""event"",""trial"",""time""
""fullscreenenter"",""1"",""7822""
","
","
","""event"",""trial"",""time""
""fullscreenenter"",""1"",""7822""
","
","","","","","","null","<div style=""font-size:60px;"">+</div>","null","","fixation","","",""
"memory-trial","96","256196","0.0-18.0-1.26","7571","approach_avoid_sv1","""event"",""trial"",""time""
""fullscreenenter"",""1"",""7822""
","
","
","""event"",""trial"",""time""
""fullscreenenter"",""1"",""7822""
","
","","","","","","1286.7000000178814","images/table6.png","","","memory_trial","3","maybe_new",""
"html-keyboard-response","97","256697","0.0-18.0-0.27","7571","approach_avoid_sv1","""event"",""trial"",""time""
""fullscreenenter"",""1"",""7822""
","
","
","""event"",""trial"",""time""
""fullscreenenter"",""1"",""7822""
","
","","","","","","null","<div style=""font-size:60px;"">+</div>","null","","fixation","","",""
"memory-trial","98","258652","0.0-18.0-1.27","7571","approach_avoid_sv1","""event"",""trial"",""time""
""fullscreenenter"",""1"",""7822""
","
","
","""event"",""trial"",""time""
""fullscreenenter"",""1"",""7822""
","
","","","","","","950.4000000059605","images/cactus7.png","","","memory_trial","3","maybe_new",""
"html-keyboard-response","99","259154","0.0-18.0-0.28","7571","approach_avoid_sv1","""event"",""trial"",""time""
""fullscreenenter"",""1"",""7822""
","
","
","""event"",""trial"",""time""
""fullscreenenter"",""1"",""7822""
","
","","","","","","null","<div style=""font-size:60px;"">+</div>","null","","fixation","","",""
"memory-trial","100","261024","0.0-18.0-1.28","7571","approach_avoid_sv1","""event"",""trial"",""time""
""fullscreenenter"",""1"",""7822""
","
","
","""event"",""trial"",""time""
""fullscreenenter"",""1"",""7822""
","
","","","","","","867.6000000238419","images/boat2.png","","","memory_trial","1","definitely_old",""
"html-keyboard-response","101","261526","0.0-18.0-0.29","7571","approach_avoid_sv1","""event"",""trial"",""time""
""fullscreenenter"",""1"",""7822""
","
","
","""event"",""trial"",""time""
""fullscreenenter"",""1"",""7822""
","
","","","","","","null","<div style=""font-size:60px;"">+</div>","null","","fixation","","",""
"memory-trial","102","264051","0.0-18.0-1.29","7571","approach_avoid_sv1","""event"",""trial"",""time""
""fullscreenenter"",""1"",""7822""
","
","
","""event"",""trial"",""time""
""fullscreenenter"",""1"",""7822""
","
","","","","","","1521.5999999940395","images/rodent8.png","","","memory_trial","2","maybe_old",""
"html-keyboard-response","103","264553","0.0-18.0-0.30","7571","approach_avoid_sv1","""event"",""trial"",""time""
""fullscreenenter"",""1"",""7822""
","
","
","""event"",""trial"",""time""
""fullscreenenter"",""1"",""7822""
","
","","","","","","null","<div style=""font-size:60px;"">+</div>","null","","fixation","","",""
"memory-trial","104","266651","0.0-18.0-1.30","7571","approach_avoid_sv1","""event"",""trial"",""time""
""fullscreenenter"",""1"",""7822""
","
","
","""event"",""trial"",""time""
""fullscreenenter"",""1"",""7822""
","
","","","","","","1092.5999999940395","images/sofa4.png","","","memory_trial","2","maybe_old",""
"html-keyboard-response","105","267152","0.0-18.0-0.31","7571","approach_avoid_sv1","""event"",""trial"",""time""
""fullscreenenter"",""1"",""7822""
","
","
","""event"",""trial"",""time""
""fullscreenenter"",""1"",""7822""
","
","","","","","","null","<div style=""font-size:60px;"">+</div>","null","","fixation","","",""
"memory-trial","106","269451","0.0-18.0-1.31","7571","approach_avoid_sv1","""event"",""trial"",""time""
""fullscreenenter"",""1"",""7822""
","
","
","""event"",""trial"",""time""
""fullscreenenter"",""1"",""7822""
","
","","","","","","1294.699999988079","images/truck5.png","","","memory_trial","2","maybe_old",""
"html-keyboard-response","107","269954","0.0-18.0-0.32","7571","approach_avoid_sv1","""event"",""trial"",""time""
""fullscreenenter"",""1"",""7822""
","
","
","""event"",""trial"",""time""
""fullscreenenter"",""1"",""7822""
","
","","","","","","null","<div style=""font-size:60px;"">+</div>","null","","fixation","","",""
"memory-trial","108","271726","0.0-18.0-1.32","7571","approach_avoid_sv1","""event"",""trial"",""time""
""fullscreenenter"",""1"",""7822""
","
","
","""event"",""trial"",""time""
""fullscreenenter"",""1"",""7822""
","
","","","","","","768.5","images/tree1.png","","","memory_trial","2","maybe_old",""
"html-keyboard-response","109","272239","0.0-18.0-0.33","7571","approach_avoid_sv1","""event"",""trial"",""time""
""fullscreenenter"",""1"",""7822""
","
","
","""event"",""trial"",""time""
""fullscreenenter"",""1"",""7822""
","
","","","","","","null","<div style=""font-size:60px;"">+</div>","null","","fixation","","",""
"memory-trial","110","274306","0.0-18.0-1.33","7571","approach_avoid_sv1","""event"",""trial"",""time""
""fullscreenenter"",""1"",""7822""
","
","
","""event"",""trial"",""time""
""fullscreenenter"",""1"",""7822""
","
","","","","","","1063","images/sofa5.png","","","memory_trial","1","definitely_old",""
"html-keyboard-response","111","274807","0.0-18.0-0.34","7571","approach_avoid_sv1","""event"",""trial"",""time""
""fullscreenenter"",""1"",""7822""
","
","
","""event"",""trial"",""time""
""fullscreenenter"",""1"",""7822""
","
","","","","","","null","<div style=""font-size:60px;"">+</div>","null","","fixation","","",""
"memory-trial","112","276435","0.0-18.0-1.34","7571","approach_avoid_sv1","""event"",""trial"",""time""
""fullscreenenter"",""1"",""7822""
","
","
","""event"",""trial"",""time""
""fullscreenenter"",""1"",""7822""
","
","","","","","","624.5","images/orange1.png","","","memory_trial","1","definitely_old",""
"html-keyboard-response","113","276937","0.0-18.0-0.35","7571","approach_avoid_sv1","""event"",""trial"",""time""
""fullscreenenter"",""1"",""7822""
","
","
","""event"",""trial"",""time""
""fullscreenenter"",""1"",""7822""
","
","","","","","","null","<div style=""font-size:60px;"">+</div>","null","","fixation","","",""
"memory-trial","114","278795","0.0-18.0-1.35","7571","approach_avoid_sv1","""event"",""trial"",""time""
""fullscreenenter"",""1"",""7822""
","
","
","""event"",""trial"",""time""
""fullscreenenter"",""1"",""7822""
","
","","","","","","854.3000000119209","images/plane5.png","","","memory_trial","1","definitely_old",""
"html-keyboard-response","115","279296","0.0-18.0-0.36","7571","approach_avoid_sv1","""event"",""trial"",""time""
""fullscreenenter"",""1"",""7822""
","
","
","""event"",""trial"",""time""
""fullscreenenter"",""1"",""7822""
","
","","","","","","null","<div style=""font-size:60px;"">+</div>","null","","fixation","","",""
"memory-trial","116","280975","0.0-18.0-1.36","7571","approach_avoid_sv1","""event"",""trial"",""time""
""fullscreenenter"",""1"",""7822""
","
","
","""event"",""trial"",""time""
""fullscreenenter"",""1"",""7822""
","
","","","","","","675.0999999940395","images/horse2.png","","","memory_trial","1","definitely_old",""
"html-keyboard-response","117","281478","0.0-18.0-0.37","7571","approach_avoid_sv1","""event"",""trial"",""time""
""fullscreenenter"",""1"",""7822""
","
","
","""event"",""trial"",""time""
""fullscreenenter"",""1"",""7822""
","
","","","","","","null","<div style=""font-size:60px;"">+</div>","null","","fixation","","",""
"memory-trial","118","283796","0.0-18.0-1.37","7571","approach_avoid_sv1","""event"",""trial"",""time""
""fullscreenenter"",""1"",""7822""
","
","
","""event"",""trial"",""time""
""fullscreenenter"",""1"",""7822""
","
","","","","","","1314.699999988079","images/boat1.png","","","memory_trial","3","maybe_new",""
"html-keyboard-response","119","284298","0.0-18.0-0.38","7571","approach_avoid_sv1","""event"",""trial"",""time""
""fullscreenenter"",""1"",""7822""
","
","
","""event"",""trial"",""time""
""fullscreenenter"",""1"",""7822""
","
","","","","","","null","<div style=""font-size:60px;"">+</div>","null","","fixation","","",""
"memory-trial","120","286416","0.0-18.0-1.38","7571","approach_avoid_sv1","""event"",""trial"",""time""
""fullscreenenter"",""1"",""7822""
","
","
","""event"",""trial"",""time""
""fullscreenenter"",""1"",""7822""
","
","","","","","","1112.199999988079","images/apple3.png","","","memory_trial","2","maybe_old",""
"html-keyboard-response","121","286918","0.0-18.0-0.39","7571","approach_avoid_sv1","""event"",""trial"",""time""
""fullscreenenter"",""1"",""7822""
","
","
","""event"",""trial"",""time""
""fullscreenenter"",""1"",""7822""
","
","","","","","","null","<div style=""font-size:60px;"">+</div>","null","","fixation","","",""
"memory-trial","122","290088","0.0-18.0-1.39","7571","approach_avoid_sv1","""event"",""trial"",""time""
""fullscreenenter"",""1"",""7822""
","
","
","""event"",""trial"",""time""
""fullscreenenter"",""1"",""7822""
","
","","","","","","2166.7999999821186","images/straw7.png","","","memory_trial","2","maybe_old",""
"html-keyboard-response","123","290589","0.0-18.0-0.40","7571","approach_avoid_sv1","""event"",""trial"",""time""
""fullscreenenter"",""1"",""7822""
","
","
","""event"",""trial"",""time""
""fullscreenenter"",""1"",""7822""
","
","","","","","","null","<div style=""font-size:60px;"">+</div>","null","","fixation","","",""
"memory-trial","124","293248","0.0-18.0-1.40","7571","approach_avoid_sv1","""event"",""trial"",""time""
""fullscreenenter"",""1"",""7822""
","
","
","""event"",""trial"",""time""
""fullscreenenter"",""1"",""7822""
","
","","","","","","1654.199999988079","images/tree2.png","","","memory_trial","3","maybe_new",""
"html-keyboard-response","125","293750","0.0-18.0-0.41","7571","approach_avoid_sv1","""event"",""trial"",""time""
""fullscreenenter"",""1"",""7822""
","
","
","""event"",""trial"",""time""
""fullscreenenter"",""1"",""7822""
","
","","","","","","null","<div style=""font-size:60px;"">+</div>","null","","fixation","","",""
"memory-trial","126","296123","0.0-18.0-1.41","7571","approach_avoid_sv1","""event"",""trial"",""time""
""fullscreenenter"",""1"",""7822""
""blur"",""127"",""299224""
""focus"",""127"",""301447""
""blur"",""127"",""302672""
""focus"",""127"",""306052""
""blur"",""127"",""307315""
""focus"",""127"",""316037""
""blur"",""127"",""318891""
""focus"",""127"",""321890""
","""event"",""trial"",""time""
""blur"",""127"",""299224""
""blur"",""127"",""302672""
""blur"",""127"",""307315""
""blur"",""127"",""318891""
","""event"",""trial"",""time""
""focus"",""127"",""301447""
""focus"",""127"",""306052""
""focus"",""127"",""316037""
""focus"",""127"",""321890""
","""event"",""trial"",""time""
""fullscreenenter"",""1"",""7822""
","
","","","","","","1368.699999988079","images/flower4.png","","","memory_trial","2","maybe_old",""
"html-button-response","127","322632","0.0-18.0-2.41-0.41","7571","approach_avoid_sv1","""event"",""trial"",""time""
""fullscreenenter"",""1"",""7822""
""blur"",""127"",""299224""
""focus"",""127"",""301447""
""blur"",""127"",""302672""
""focus"",""127"",""306052""
""blur"",""127"",""307315""
""focus"",""127"",""316037""
""blur"",""127"",""318891""
""focus"",""127"",""321890""
","""event"",""trial"",""time""
""blur"",""127"",""299224""
""blur"",""127"",""302672""
""blur"",""127"",""307315""
""blur"",""127"",""318891""
","""event"",""trial"",""time""
""focus"",""127"",""301447""
""focus"",""127"",""306052""
""focus"",""127"",""316037""
""focus"",""127"",""321890""
","""event"",""trial"",""time""
""fullscreenenter"",""1"",""7822""
","
","","","","","","26507.09999999404","<p> Take a break! </p><p> Click the button to continue. </p>","0","","break","","",""
"html-keyboard-response","128","323132","0.0-18.0-0.42","7571","approach_avoid_sv1","""event"",""trial"",""time""
""fullscreenenter"",""1"",""7822""
""blur"",""127"",""299224""
""focus"",""127"",""301447""
""blur"",""127"",""302672""
""focus"",""127"",""306052""
""blur"",""127"",""307315""
""focus"",""127"",""316037""
""blur"",""127"",""318891""
""focus"",""127"",""321890""
","""event"",""trial"",""time""
""blur"",""127"",""299224""
""blur"",""127"",""302672""
""blur"",""127"",""307315""
""blur"",""127"",""318891""
","""event"",""trial"",""time""
""focus"",""127"",""301447""
""focus"",""127"",""306052""
""focus"",""127"",""316037""
""focus"",""127"",""321890""
","""event"",""trial"",""time""
""fullscreenenter"",""1"",""7822""
","
","","","","","","null","<div style=""font-size:60px;"">+</div>","null","","fixation","","",""
"memory-trial","129","325752","0.0-18.0-1.42","7571","approach_avoid_sv1","""event"",""trial"",""time""
""fullscreenenter"",""1"",""7822""
""blur"",""127"",""299224""
""focus"",""127"",""301447""
""blur"",""127"",""302672""
""focus"",""127"",""306052""
""blur"",""127"",""307315""
""focus"",""127"",""316037""
""blur"",""127"",""318891""
""focus"",""127"",""321890""
","""event"",""trial"",""time""
""blur"",""127"",""299224""
""blur"",""127"",""302672""
""blur"",""127"",""307315""
""blur"",""127"",""318891""
","""event"",""trial"",""time""
""focus"",""127"",""301447""
""focus"",""127"",""306052""
""focus"",""127"",""316037""
""focus"",""127"",""321890""
","""event"",""trial"",""time""
""fullscreenenter"",""1"",""7822""
","
","","","","","","1613.699999988079","images/orange6.png","","","memory_trial","2","maybe_old",""
"html-keyboard-response","130","326254","0.0-18.0-0.43","7571","approach_avoid_sv1","""event"",""trial"",""time""
""fullscreenenter"",""1"",""7822""
""blur"",""127"",""299224""
""focus"",""127"",""301447""
""blur"",""127"",""302672""
""focus"",""127"",""306052""
""blur"",""127"",""307315""
""focus"",""127"",""316037""
""blur"",""127"",""318891""
""focus"",""127"",""321890""
","""event"",""trial"",""time""
""blur"",""127"",""299224""
""blur"",""127"",""302672""
""blur"",""127"",""307315""
""blur"",""127"",""318891""
","""event"",""trial"",""time""
""focus"",""127"",""301447""
""focus"",""127"",""306052""
""focus"",""127"",""316037""
""focus"",""127"",""321890""
","""event"",""trial"",""time""
""fullscreenenter"",""1"",""7822""
","
","","","","","","null","<div style=""font-size:60px;"">+</div>","null","","fixation","","",""
"memory-trial","131","328857","0.0-18.0-1.43","7571","approach_avoid_sv1","""event"",""trial"",""time""
""fullscreenenter"",""1"",""7822""
""blur"",""127"",""299224""
""focus"",""127"",""301447""
""blur"",""127"",""302672""
""focus"",""127"",""306052""
""blur"",""127"",""307315""
""focus"",""127"",""316037""
""blur"",""127"",""318891""
""focus"",""127"",""321890""
","""event"",""trial"",""time""
""blur"",""127"",""299224""
""blur"",""127"",""302672""
""blur"",""127"",""307315""
""blur"",""127"",""318891""
","""event"",""trial"",""time""
""focus"",""127"",""301447""
""focus"",""127"",""306052""
""focus"",""127"",""316037""
""focus"",""127"",""321890""
","""event"",""trial"",""time""
""fullscreenenter"",""1"",""7822""
","
","","","","","","1600.0999999940395","images/train4.png","","","memory_trial","4","definitely_new",""
"html-keyboard-response","132","329359","0.0-18.0-0.44","7571","approach_avoid_sv1","""event"",""trial"",""time""
""fullscreenenter"",""1"",""7822""
""blur"",""127"",""299224""
""focus"",""127"",""301447""
""blur"",""127"",""302672""
""focus"",""127"",""306052""
""blur"",""127"",""307315""
""focus"",""127"",""316037""
""blur"",""127"",""318891""
""focus"",""127"",""321890""
","""event"",""trial"",""time""
""blur"",""127"",""299224""
""blur"",""127"",""302672""
""blur"",""127"",""307315""
""blur"",""127"",""318891""
","""event"",""trial"",""time""
""focus"",""127"",""301447""
""focus"",""127"",""306052""
""focus"",""127"",""316037""
""focus"",""127"",""321890""
","""event"",""trial"",""time""
""fullscreenenter"",""1"",""7822""
","
","","","","","","null","<div style=""font-size:60px;"">+</div>","null","","fixation","","",""
"memory-trial","133","331336","0.0-18.0-1.44","7571","approach_avoid_sv1","""event"",""trial"",""time""
""fullscreenenter"",""1"",""7822""
""blur"",""127"",""299224""
""focus"",""127"",""301447""
""blur"",""127"",""302672""
""focus"",""127"",""306052""
""blur"",""127"",""307315""
""focus"",""127"",""316037""
""blur"",""127"",""318891""
""focus"",""127"",""321890""
","""event"",""trial"",""time""
""blur"",""127"",""299224""
""blur"",""127"",""302672""
""blur"",""127"",""307315""
""blur"",""127"",""318891""
","""event"",""trial"",""time""
""focus"",""127"",""301447""
""focus"",""127"",""306052""
""focus"",""127"",""316037""
""focus"",""127"",""321890""
","""event"",""trial"",""time""
""fullscreenenter"",""1"",""7822""
","
","","","","","","974.8999999761581","images/rodent5.png","","","memory_trial","1","definitely_old",""
"html-keyboard-response","134","331839","0.0-18.0-0.45","7571","approach_avoid_sv1","""event"",""trial"",""time""
""fullscreenenter"",""1"",""7822""
""blur"",""127"",""299224""
""focus"",""127"",""301447""
""blur"",""127"",""302672""
""focus"",""127"",""306052""
""blur"",""127"",""307315""
""focus"",""127"",""316037""
""blur"",""127"",""318891""
""focus"",""127"",""321890""
","""event"",""trial"",""time""
""blur"",""127"",""299224""
""blur"",""127"",""302672""
""blur"",""127"",""307315""
""blur"",""127"",""318891""
","""event"",""trial"",""time""
""focus"",""127"",""301447""
""focus"",""127"",""306052""
""focus"",""127"",""316037""
""focus"",""127"",""321890""
","""event"",""trial"",""time""
""fullscreenenter"",""1"",""7822""
","
","","","","","","null","<div style=""font-size:60px;"">+</div>","null","","fixation","","",""
"memory-trial","135","334477","0.0-18.0-1.45","7571","approach_avoid_sv1","""event"",""trial"",""time""
""fullscreenenter"",""1"",""7822""
""blur"",""127"",""299224""
""focus"",""127"",""301447""
""blur"",""127"",""302672""
""focus"",""127"",""306052""
""blur"",""127"",""307315""
""focus"",""127"",""316037""
""blur"",""127"",""318891""
""focus"",""127"",""321890""
","""event"",""trial"",""time""
""blur"",""127"",""299224""
""blur"",""127"",""302672""
""blur"",""127"",""307315""
""blur"",""127"",""318891""
","""event"",""trial"",""time""
""focus"",""127"",""301447""
""focus"",""127"",""306052""
""focus"",""127"",""316037""
""focus"",""127"",""321890""
","""event"",""trial"",""time""
""fullscreenenter"",""1"",""7822""
","
","","","","","","1635.9000000059605","images/dog1.png","","","memory_trial","3","maybe_new",""
"html-keyboard-response","136","334978","0.0-18.0-0.46","7571","approach_avoid_sv1","""event"",""trial"",""time""
""fullscreenenter"",""1"",""7822""
""blur"",""127"",""299224""
""focus"",""127"",""301447""
""blur"",""127"",""302672""
""focus"",""127"",""306052""
""blur"",""127"",""307315""
""focus"",""127"",""316037""
""blur"",""127"",""318891""
""focus"",""127"",""321890""
","""event"",""trial"",""time""
""blur"",""127"",""299224""
""blur"",""127"",""302672""
""blur"",""127"",""307315""
""blur"",""127"",""318891""
","""event"",""trial"",""time""
""focus"",""127"",""301447""
""focus"",""127"",""306052""
""focus"",""127"",""316037""
""focus"",""127"",""321890""
","""event"",""trial"",""time""
""fullscreenenter"",""1"",""7822""
","
","","","","","","null","<div style=""font-size:60px;"">+</div>","null","","fixation","","",""
"memory-trial","137","337002","0.0-18.0-1.46","7571","approach_avoid_sv1","""event"",""trial"",""time""
""fullscreenenter"",""1"",""7822""
""blur"",""127"",""299224""
""focus"",""127"",""301447""
""blur"",""127"",""302672""
""focus"",""127"",""306052""
""blur"",""127"",""307315""
""focus"",""127"",""316037""
""blur"",""127"",""318891""
""focus"",""127"",""321890""
","""event"",""trial"",""time""
""blur"",""127"",""299224""
""blur"",""127"",""302672""
""blur"",""127"",""307315""
""blur"",""127"",""318891""
","""event"",""trial"",""time""
""focus"",""127"",""301447""
""focus"",""127"",""306052""
""focus"",""127"",""316037""
""focus"",""127"",""321890""
","""event"",""trial"",""time""
""fullscreenenter"",""1"",""7822""
","
","","","","","","1019.7999999821186","images/chair2.png","","","memory_trial","3","maybe_new",""
"html-keyboard-response","138","337504","0.0-18.0-0.47","7571","approach_avoid_sv1","""event"",""trial"",""time""
""fullscreenenter"",""1"",""7822""
""blur"",""127"",""299224""
""focus"",""127"",""301447""
""blur"",""127"",""302672""
""focus"",""127"",""306052""
""blur"",""127"",""307315""
""focus"",""127"",""316037""
""blur"",""127"",""318891""
""focus"",""127"",""321890""
","""event"",""trial"",""time""
""blur"",""127"",""299224""
""blur"",""127"",""302672""
""blur"",""127"",""307315""
""blur"",""127"",""318891""
","""event"",""trial"",""time""
""focus"",""127"",""301447""
""focus"",""127"",""306052""
""focus"",""127"",""316037""
""focus"",""127"",""321890""
","""event"",""trial"",""time""
""fullscreenenter"",""1"",""7822""
","
","","","","","","null","<div style=""font-size:60px;"">+</div>","null","","fixation","","",""
"memory-trial","139","339857","0.0-18.0-1.47","7571","approach_avoid_sv1","""event"",""trial"",""time""
""fullscreenenter"",""1"",""7822""
""blur"",""127"",""299224""
""focus"",""127"",""301447""
""blur"",""127"",""302672""
""focus"",""127"",""306052""
""blur"",""127"",""307315""
""focus"",""127"",""316037""
""blur"",""127"",""318891""
""focus"",""127"",""321890""
","""event"",""trial"",""time""
""blur"",""127"",""299224""
""blur"",""127"",""302672""
""blur"",""127"",""307315""
""blur"",""127"",""318891""
","""event"",""trial"",""time""
""focus"",""127"",""301447""
""focus"",""127"",""306052""
""focus"",""127"",""316037""
""focus"",""127"",""321890""
","""event"",""trial"",""time""
""fullscreenenter"",""1"",""7822""
","
","","","","","","1348.2999999821186","images/horse7.png","","","memory_trial","2","maybe_old",""
"html-keyboard-response","140","340358","0.0-18.0-0.48","7571","approach_avoid_sv1","""event"",""trial"",""time""
""fullscreenenter"",""1"",""7822""
""blur"",""127"",""299224""
""focus"",""127"",""301447""
""blur"",""127"",""302672""
""focus"",""127"",""306052""
""blur"",""127"",""307315""
""focus"",""127"",""316037""
""blur"",""127"",""318891""
""focus"",""127"",""321890""
","""event"",""trial"",""time""
""blur"",""127"",""299224""
""blur"",""127"",""302672""
""blur"",""127"",""307315""
""blur"",""127"",""318891""
","""event"",""trial"",""time""
""focus"",""127"",""301447""
""focus"",""127"",""306052""
""focus"",""127"",""316037""
""focus"",""127"",""321890""
","""event"",""trial"",""time""
""fullscreenenter"",""1"",""7822""
","
","","","","","","null","<div style=""font-size:60px;"">+</div>","null","","fixation","","",""
"memory-trial","141","342346","0.0-18.0-1.48","7571","approach_avoid_sv1","""event"",""trial"",""time""
""fullscreenenter"",""1"",""7822""
""blur"",""127"",""299224""
""focus"",""127"",""301447""
""blur"",""127"",""302672""
""focus"",""127"",""306052""
""blur"",""127"",""307315""
""focus"",""127"",""316037""
""blur"",""127"",""318891""
""focus"",""127"",""321890""
","""event"",""trial"",""time""
""blur"",""127"",""299224""
""blur"",""127"",""302672""
""blur"",""127"",""307315""
""blur"",""127"",""318891""
","""event"",""trial"",""time""
""focus"",""127"",""301447""
""focus"",""127"",""306052""
""focus"",""127"",""316037""
""focus"",""127"",""321890""
","""event"",""trial"",""time""
""fullscreenenter"",""1"",""7822""
","
","","","","","","986.5","images/dog4.png","","","memory_trial","3","maybe_new",""
"html-keyboard-response","142","342847","0.0-18.0-0.49","7571","approach_avoid_sv1","""event"",""trial"",""time""
""fullscreenenter"",""1"",""7822""
""blur"",""127"",""299224""
""focus"",""127"",""301447""
""blur"",""127"",""302672""
""focus"",""127"",""306052""
""blur"",""127"",""307315""
""focus"",""127"",""316037""
""blur"",""127"",""318891""
""focus"",""127"",""321890""
","""event"",""trial"",""time""
""blur"",""127"",""299224""
""blur"",""127"",""302672""
""blur"",""127"",""307315""
""blur"",""127"",""318891""
","""event"",""trial"",""time""
""focus"",""127"",""301447""
""focus"",""127"",""306052""
""focus"",""127"",""316037""
""focus"",""127"",""321890""
","""event"",""trial"",""time""
""fullscreenenter"",""1"",""7822""
","
","","","","","","null","<div style=""font-size:60px;"">+</div>","null","","fixation","","",""
"memory-trial","143","345177","0.0-18.0-1.49","7571","approach_avoid_sv1","""event"",""trial"",""time""
""fullscreenenter"",""1"",""7822""
""blur"",""127"",""299224""
""focus"",""127"",""301447""
""blur"",""127"",""302672""
""focus"",""127"",""306052""
""blur"",""127"",""307315""
""focus"",""127"",""316037""
""blur"",""127"",""318891""
""focus"",""127"",""321890""
","""event"",""trial"",""time""
""blur"",""127"",""299224""
""blur"",""127"",""302672""
""blur"",""127"",""307315""
""blur"",""127"",""318891""
","""event"",""trial"",""time""
""focus"",""127"",""301447""
""focus"",""127"",""306052""
""focus"",""127"",""316037""
""focus"",""127"",""321890""
","""event"",""trial"",""time""
""fullscreenenter"",""1"",""7822""
","
","","","","","","1327.300000011921","images/bush1.png","","","memory_trial","3","maybe_new",""
"html-keyboard-response","144","345680","0.0-18.0-0.50","7571","approach_avoid_sv1","""event"",""trial"",""time""
""fullscreenenter"",""1"",""7822""
""blur"",""127"",""299224""
""focus"",""127"",""301447""
""blur"",""127"",""302672""
""focus"",""127"",""306052""
""blur"",""127"",""307315""
""focus"",""127"",""316037""
""blur"",""127"",""318891""
""focus"",""127"",""321890""
","""event"",""trial"",""time""
""blur"",""127"",""299224""
""blur"",""127"",""302672""
""blur"",""127"",""307315""
""blur"",""127"",""318891""
","""event"",""trial"",""time""
""focus"",""127"",""301447""
""focus"",""127"",""306052""
""focus"",""127"",""316037""
""focus"",""127"",""321890""
","""event"",""trial"",""time""
""fullscreenenter"",""1"",""7822""
","
","","","","","","null","<div style=""font-size:60px;"">+</div>","null","","fixation","","",""
"memory-trial","145","347931","0.0-18.0-1.50","7571","approach_avoid_sv1","""event"",""trial"",""time""
""fullscreenenter"",""1"",""7822""
""blur"",""127"",""299224""
""focus"",""127"",""301447""
""blur"",""127"",""302672""
""focus"",""127"",""306052""
""blur"",""127"",""307315""
""focus"",""127"",""316037""
""blur"",""127"",""318891""
""focus"",""127"",""321890""
","""event"",""trial"",""time""
""blur"",""127"",""299224""
""blur"",""127"",""302672""
""blur"",""127"",""307315""
""blur"",""127"",""318891""
","""event"",""trial"",""time""
""focus"",""127"",""301447""
""focus"",""127"",""306052""
""focus"",""127"",""316037""
""focus"",""127"",""321890""
","""event"",""trial"",""time""
""fullscreenenter"",""1"",""7822""
","
","","","","","","1248.0999999940395","images/straw3.png","","","memory_trial","3","maybe_new",""
"html-keyboard-response","146","348433","0.0-18.0-0.51","7571","approach_avoid_sv1","""event"",""trial"",""time""
""fullscreenenter"",""1"",""7822""
""blur"",""127"",""299224""
""focus"",""127"",""301447""
""blur"",""127"",""302672""
""focus"",""127"",""306052""
""blur"",""127"",""307315""
""focus"",""127"",""316037""
""blur"",""127"",""318891""
""focus"",""127"",""321890""
","""event"",""trial"",""time""
""blur"",""127"",""299224""
""blur"",""127"",""302672""
""blur"",""127"",""307315""
""blur"",""127"",""318891""
","""event"",""trial"",""time""
""focus"",""127"",""301447""
""focus"",""127"",""306052""
""focus"",""127"",""316037""
""focus"",""127"",""321890""
","""event"",""trial"",""time""
""fullscreenenter"",""1"",""7822""
","
","","","","","","null","<div style=""font-size:60px;"">+</div>","null","","fixation","","",""
"memory-trial","147","351112","0.0-18.0-1.51","7571","approach_avoid_sv1","""event"",""trial"",""time""
""fullscreenenter"",""1"",""7822""
""blur"",""127"",""299224""
""focus"",""127"",""301447""
""blur"",""127"",""302672""
""focus"",""127"",""306052""
""blur"",""127"",""307315""
""focus"",""127"",""316037""
""blur"",""127"",""318891""
""focus"",""127"",""321890""
","""event"",""trial"",""time""
""blur"",""127"",""299224""
""blur"",""127"",""302672""
""blur"",""127"",""307315""
""blur"",""127"",""318891""
","""event"",""trial"",""time""
""focus"",""127"",""301447""
""focus"",""127"",""306052""
""focus"",""127"",""316037""
""focus"",""127"",""321890""
","""event"",""trial"",""time""
""fullscreenenter"",""1"",""7822""
","
","","","","","","1674.800000011921","images/bed3.png","","","memory_trial","4","definitely_new",""
"html-keyboard-response","148","351614","0.0-18.0-0.52","7571","approach_avoid_sv1","""event"",""trial"",""time""
""fullscreenenter"",""1"",""7822""
""blur"",""127"",""299224""
""focus"",""127"",""301447""
""blur"",""127"",""302672""
""focus"",""127"",""306052""
""blur"",""127"",""307315""
""focus"",""127"",""316037""
""blur"",""127"",""318891""
""focus"",""127"",""321890""
","""event"",""trial"",""time""
""blur"",""127"",""299224""
""blur"",""127"",""302672""
""blur"",""127"",""307315""
""blur"",""127"",""318891""
","""event"",""trial"",""time""
""focus"",""127"",""301447""
""focus"",""127"",""306052""
""focus"",""127"",""316037""
""focus"",""127"",""321890""
","""event"",""trial"",""time""
""fullscreenenter"",""1"",""7822""
","
","","","","","","null","<div style=""font-size:60px;"">+</div>","null","","fixation","","",""
"memory-trial","149","353927","0.0-18.0-1.52","7571","approach_avoid_sv1","""event"",""trial"",""time""
""fullscreenenter"",""1"",""7822""
""blur"",""127"",""299224""
""focus"",""127"",""301447""
""blur"",""127"",""302672""
""focus"",""127"",""306052""
""blur"",""127"",""307315""
""focus"",""127"",""316037""
""blur"",""127"",""318891""
""focus"",""127"",""321890""
","""event"",""trial"",""time""
""blur"",""127"",""299224""
""blur"",""127"",""302672""
""blur"",""127"",""307315""
""blur"",""127"",""318891""
","""event"",""trial"",""time""
""focus"",""127"",""301447""
""focus"",""127"",""306052""
""focus"",""127"",""316037""
""focus"",""127"",""321890""
","""event"",""trial"",""time""
""fullscreenenter"",""1"",""7822""
","
","","","","","","1308.300000011921","images/banana6.png","","","memory_trial","1","definitely_old",""
"html-keyboard-response","150","354430","0.0-18.0-0.53","7571","approach_avoid_sv1","""event"",""trial"",""time""
""fullscreenenter"",""1"",""7822""
""blur"",""127"",""299224""
""focus"",""127"",""301447""
""blur"",""127"",""302672""
""focus"",""127"",""306052""
""blur"",""127"",""307315""
""focus"",""127"",""316037""
""blur"",""127"",""318891""
""focus"",""127"",""321890""
","""event"",""trial"",""time""
""blur"",""127"",""299224""
""blur"",""127"",""302672""
""blur"",""127"",""307315""
""blur"",""127"",""318891""
","""event"",""trial"",""time""
""focus"",""127"",""301447""
""focus"",""127"",""306052""
""focus"",""127"",""316037""
""focus"",""127"",""321890""
","""event"",""trial"",""time""
""fullscreenenter"",""1"",""7822""
","
","","","","","","null","<div style=""font-size:60px;"">+</div>","null","","fixation","","",""
"memory-trial","151","356345","0.0-18.0-1.53","7571","approach_avoid_sv1","""event"",""trial"",""time""
""fullscreenenter"",""1"",""7822""
""blur"",""127"",""299224""
""focus"",""127"",""301447""
""blur"",""127"",""302672""
""focus"",""127"",""306052""
""blur"",""127"",""307315""
""focus"",""127"",""316037""
""blur"",""127"",""318891""
""focus"",""127"",""321890""
","""event"",""trial"",""time""
""blur"",""127"",""299224""
""blur"",""127"",""302672""
""blur"",""127"",""307315""
""blur"",""127"",""318891""
","""event"",""trial"",""time""
""focus"",""127"",""301447""
""focus"",""127"",""306052""
""focus"",""127"",""316037""
""focus"",""127"",""321890""
","""event"",""trial"",""time""
""fullscreenenter"",""1"",""7822""
","
","","","","","","912.3000000119209","images/sofa6.png","","","memory_trial","3","maybe_new",""
"html-keyboard-response","152","356846","0.0-18.0-0.54","7571","approach_avoid_sv1","""event"",""trial"",""time""
""fullscreenenter"",""1"",""7822""
""blur"",""127"",""299224""
""focus"",""127"",""301447""
""blur"",""127"",""302672""
""focus"",""127"",""306052""
""blur"",""127"",""307315""
""focus"",""127"",""316037""
""blur"",""127"",""318891""
""focus"",""127"",""321890""
","""event"",""trial"",""time""
""blur"",""127"",""299224""
""blur"",""127"",""302672""
""blur"",""127"",""307315""
""blur"",""127"",""318891""
","""event"",""trial"",""time""
""focus"",""127"",""301447""
""focus"",""127"",""306052""
""focus"",""127"",""316037""
""focus"",""127"",""321890""
","""event"",""trial"",""time""
""fullscreenenter"",""1"",""7822""
","
","","","","","","null","<div style=""font-size:60px;"">+</div>","null","","fixation","","",""
"memory-trial","153","359669","0.0-18.0-1.54","7571","approach_avoid_sv1","""event"",""trial"",""time""
""fullscreenenter"",""1"",""7822""
""blur"",""127"",""299224""
""focus"",""127"",""301447""
""blur"",""127"",""302672""
""focus"",""127"",""306052""
""blur"",""127"",""307315""
""focus"",""127"",""316037""
""blur"",""127"",""318891""
""focus"",""127"",""321890""
","""event"",""trial"",""time""
""blur"",""127"",""299224""
""blur"",""127"",""302672""
""blur"",""127"",""307315""
""blur"",""127"",""318891""
","""event"",""trial"",""time""
""focus"",""127"",""301447""
""focus"",""127"",""306052""
""focus"",""127"",""316037""
""focus"",""127"",""321890""
","""event"",""trial"",""time""
""fullscreenenter"",""1"",""7822""
","
","","","","","","1820.5999999940395","images/straw1.png","","","memory_trial","3","maybe_new",""
"html-keyboard-response","154","360171","0.0-18.0-0.55","7571","approach_avoid_sv1","""event"",""trial"",""time""
""fullscreenenter"",""1"",""7822""
""blur"",""127"",""299224""
""focus"",""127"",""301447""
""blur"",""127"",""302672""
""focus"",""127"",""306052""
""blur"",""127"",""307315""
""focus"",""127"",""316037""
""blur"",""127"",""318891""
""focus"",""127"",""321890""
","""event"",""trial"",""time""
""blur"",""127"",""299224""
""blur"",""127"",""302672""
""blur"",""127"",""307315""
""blur"",""127"",""318891""
","""event"",""trial"",""time""
""focus"",""127"",""301447""
""focus"",""127"",""306052""
""focus"",""127"",""316037""
""focus"",""127"",""321890""
","""event"",""trial"",""time""
""fullscreenenter"",""1"",""7822""
","
","","","","","","null","<div style=""font-size:60px;"">+</div>","null","","fixation","","",""
"memory-trial","155","362250","0.0-18.0-1.55","7571","approach_avoid_sv1","""event"",""trial"",""time""
""fullscreenenter"",""1"",""7822""
""blur"",""127"",""299224""
""focus"",""127"",""301447""
""blur"",""127"",""302672""
""focus"",""127"",""306052""
""blur"",""127"",""307315""
""focus"",""127"",""316037""
""blur"",""127"",""318891""
""focus"",""127"",""321890""
","""event"",""trial"",""time""
""blur"",""127"",""299224""
""blur"",""127"",""302672""
""blur"",""127"",""307315""
""blur"",""127"",""318891""
","""event"",""trial"",""time""
""focus"",""127"",""301447""
""focus"",""127"",""306052""
""focus"",""127"",""316037""
""focus"",""127"",""321890""
","""event"",""trial"",""time""
""fullscreenenter"",""1"",""7822""
","
","","","","","","1073.5999999940395","images/bed5.png","","","memory_trial","3","maybe_new",""
"html-keyboard-response","156","362752","0.0-18.0-0.56","7571","approach_avoid_sv1","""event"",""trial"",""time""
""fullscreenenter"",""1"",""7822""
""blur"",""127"",""299224""
""focus"",""127"",""301447""
""blur"",""127"",""302672""
""focus"",""127"",""306052""
""blur"",""127"",""307315""
""focus"",""127"",""316037""
""blur"",""127"",""318891""
""focus"",""127"",""321890""
","""event"",""trial"",""time""
""blur"",""127"",""299224""
""blur"",""127"",""302672""
""blur"",""127"",""307315""
""blur"",""127"",""318891""
","""event"",""trial"",""time""
""focus"",""127"",""301447""
""focus"",""127"",""306052""
""focus"",""127"",""316037""
""focus"",""127"",""321890""
","""event"",""trial"",""time""
""fullscreenenter"",""1"",""7822""
","
","","","","","","null","<div style=""font-size:60px;"">+</div>","null","","fixation","","",""
"memory-trial","157","364589","0.0-18.0-1.56","7571","approach_avoid_sv1","""event"",""trial"",""time""
""fullscreenenter"",""1"",""7822""
""blur"",""127"",""299224""
""focus"",""127"",""301447""
""blur"",""127"",""302672""
""focus"",""127"",""306052""
""blur"",""127"",""307315""
""focus"",""127"",""316037""
""blur"",""127"",""318891""
""focus"",""127"",""321890""
","""event"",""trial"",""time""
""blur"",""127"",""299224""
""blur"",""127"",""302672""
""blur"",""127"",""307315""
""blur"",""127"",""318891""
","""event"",""trial"",""time""
""focus"",""127"",""301447""
""focus"",""127"",""306052""
""focus"",""127"",""316037""
""focus"",""127"",""321890""
","""event"",""trial"",""time""
""fullscreenenter"",""1"",""7822""
","
","","","","","","833.5","images/straw2.png","","","memory_trial","3","maybe_new",""
"html-keyboard-response","158","365091","0.0-18.0-0.57","7571","approach_avoid_sv1","""event"",""trial"",""time""
""fullscreenenter"",""1"",""7822""
""blur"",""127"",""299224""
""focus"",""127"",""301447""
""blur"",""127"",""302672""
""focus"",""127"",""306052""
""blur"",""127"",""307315""
""focus"",""127"",""316037""
""blur"",""127"",""318891""
""focus"",""127"",""321890""
","""event"",""trial"",""time""
""blur"",""127"",""299224""
""blur"",""127"",""302672""
""blur"",""127"",""307315""
""blur"",""127"",""318891""
","""event"",""trial"",""time""
""focus"",""127"",""301447""
""focus"",""127"",""306052""
""focus"",""127"",""316037""
""focus"",""127"",""321890""
","""event"",""trial"",""time""
""fullscreenenter"",""1"",""7822""
","
","","","","","","null","<div style=""font-size:60px;"">+</div>","null","","fixation","","",""
"memory-trial","159","367555","0.0-18.0-1.57","7571","approach_avoid_sv1","""event"",""trial"",""time""
""fullscreenenter"",""1"",""7822""
""blur"",""127"",""299224""
""focus"",""127"",""301447""
""blur"",""127"",""302672""
""focus"",""127"",""306052""
""blur"",""127"",""307315""
""focus"",""127"",""316037""
""blur"",""127"",""318891""
""focus"",""127"",""321890""
","""event"",""trial"",""time""
""blur"",""127"",""299224""
""blur"",""127"",""302672""
""blur"",""127"",""307315""
""blur"",""127"",""318891""
","""event"",""trial"",""time""
""focus"",""127"",""301447""
""focus"",""127"",""306052""
""focus"",""127"",""316037""
""focus"",""127"",""321890""
","""event"",""trial"",""time""
""fullscreenenter"",""1"",""7822""
","
","","","","","","1460.7000000178814","images/horse4.png","","","memory_trial","3","maybe_new",""
"html-keyboard-response","160","368058","0.0-18.0-0.58","7571","approach_avoid_sv1","""event"",""trial"",""time""
""fullscreenenter"",""1"",""7822""
""blur"",""127"",""299224""
""focus"",""127"",""301447""
""blur"",""127"",""302672""
""focus"",""127"",""306052""
""blur"",""127"",""307315""
""focus"",""127"",""316037""
""blur"",""127"",""318891""
""focus"",""127"",""321890""
","""event"",""trial"",""time""
""blur"",""127"",""299224""
""blur"",""127"",""302672""
""blur"",""127"",""307315""
""blur"",""127"",""318891""
","""event"",""trial"",""time""
""focus"",""127"",""301447""
""focus"",""127"",""306052""
""focus"",""127"",""316037""
""focus"",""127"",""321890""
","""event"",""trial"",""time""
""fullscreenenter"",""1"",""7822""
","
","","","","","","null","<div style=""font-size:60px;"">+</div>","null","","fixation","","",""
"memory-trial","161","370147","0.0-18.0-1.58","7571","approach_avoid_sv1","""event"",""trial"",""time""
""fullscreenenter"",""1"",""7822""
""blur"",""127"",""299224""
""focus"",""127"",""301447""
""blur"",""127"",""302672""
""focus"",""127"",""306052""
""blur"",""127"",""307315""
""focus"",""127"",""316037""
""blur"",""127"",""318891""
""focus"",""127"",""321890""
","""event"",""trial"",""time""
""blur"",""127"",""299224""
""blur"",""127"",""302672""
""blur"",""127"",""307315""
""blur"",""127"",""318891""
","""event"",""trial"",""time""
""focus"",""127"",""301447""
""focus"",""127"",""306052""
""focus"",""127"",""316037""
""focus"",""127"",""321890""
","""event"",""trial"",""time""
""fullscreenenter"",""1"",""7822""
","
","","","","","","1086.2000000178814","images/horse5.png","","","memory_trial","3","maybe_new",""
"html-keyboard-response","162","370649","0.0-18.0-0.59","7571","approach_avoid_sv1","""event"",""trial"",""time""
""fullscreenenter"",""1"",""7822""
""blur"",""127"",""299224""
""focus"",""127"",""301447""
""blur"",""127"",""302672""
""focus"",""127"",""306052""
""blur"",""127"",""307315""
""focus"",""127"",""316037""
""blur"",""127"",""318891""
""focus"",""127"",""321890""
","""event"",""trial"",""time""
""blur"",""127"",""299224""
""blur"",""127"",""302672""
""blur"",""127"",""307315""
""blur"",""127"",""318891""
","""event"",""trial"",""time""
""focus"",""127"",""301447""
""focus"",""127"",""306052""
""focus"",""127"",""316037""
""focus"",""127"",""321890""
","""event"",""trial"",""time""
""fullscreenenter"",""1"",""7822""
","
","","","","","","null","<div style=""font-size:60px;"">+</div>","null","","fixation","","",""
"memory-trial","163","371754","0.0-18.0-1.59","7571","approach_avoid_sv1","""event"",""trial"",""time""
""fullscreenenter"",""1"",""7822""
""blur"",""127"",""299224""
""focus"",""127"",""301447""
""blur"",""127"",""302672""
""focus"",""127"",""306052""
""blur"",""127"",""307315""
""focus"",""127"",""316037""
""blur"",""127"",""318891""
""focus"",""127"",""321890""
","""event"",""trial"",""time""
""blur"",""127"",""299224""
""blur"",""127"",""302672""
""blur"",""127"",""307315""
""blur"",""127"",""318891""
","""event"",""trial"",""time""
""focus"",""127"",""301447""
""focus"",""127"",""306052""
""focus"",""127"",""316037""
""focus"",""127"",""321890""
","""event"",""trial"",""time""
""fullscreenenter"",""1"",""7822""
","
","","","","","","101.7999999821186","images/apple5.png","","","memory_trial","2","maybe_old",""
"html-keyboard-response","164","372256","0.0-18.0-0.60","7571","approach_avoid_sv1","""event"",""trial"",""time""
""fullscreenenter"",""1"",""7822""
""blur"",""127"",""299224""
""focus"",""127"",""301447""
""blur"",""127"",""302672""
""focus"",""127"",""306052""
""blur"",""127"",""307315""
""focus"",""127"",""316037""
""blur"",""127"",""318891""
""focus"",""127"",""321890""
","""event"",""trial"",""time""
""blur"",""127"",""299224""
""blur"",""127"",""302672""
""blur"",""127"",""307315""
""blur"",""127"",""318891""
","""event"",""trial"",""time""
""focus"",""127"",""301447""
""focus"",""127"",""306052""
""focus"",""127"",""316037""
""focus"",""127"",""321890""
","""event"",""trial"",""time""
""fullscreenenter"",""1"",""7822""
","
","","","","","","null","<div style=""font-size:60px;"">+</div>","null","","fixation","","",""
"memory-trial","165","374842","0.0-18.0-1.60","7571","approach_avoid_sv1","""event"",""trial"",""time""
""fullscreenenter"",""1"",""7822""
""blur"",""127"",""299224""
""focus"",""127"",""301447""
""blur"",""127"",""302672""
""focus"",""127"",""306052""
""blur"",""127"",""307315""
""focus"",""127"",""316037""
""blur"",""127"",""318891""
""focus"",""127"",""321890""
","""event"",""trial"",""time""
""blur"",""127"",""299224""
""blur"",""127"",""302672""
""blur"",""127"",""307315""
""blur"",""127"",""318891""
","""event"",""trial"",""time""
""focus"",""127"",""301447""
""focus"",""127"",""306052""
""focus"",""127"",""316037""
""focus"",""127"",""321890""
","""event"",""trial"",""time""
""fullscreenenter"",""1"",""7822""
","
","","","","","","1582.5","images/cat8.png","","","memory_trial","3","maybe_new",""
"html-keyboard-response","166","375344","0.0-18.0-0.61","7571","approach_avoid_sv1","""event"",""trial"",""time""
""fullscreenenter"",""1"",""7822""
""blur"",""127"",""299224""
""focus"",""127"",""301447""
""blur"",""127"",""302672""
""focus"",""127"",""306052""
""blur"",""127"",""307315""
""focus"",""127"",""316037""
""blur"",""127"",""318891""
""focus"",""127"",""321890""
","""event"",""trial"",""time""
""blur"",""127"",""299224""
""blur"",""127"",""302672""
""blur"",""127"",""307315""
""blur"",""127"",""318891""
","""event"",""trial"",""time""
""focus"",""127"",""301447""
""focus"",""127"",""306052""
""focus"",""127"",""316037""
""focus"",""127"",""321890""
","""event"",""trial"",""time""
""fullscreenenter"",""1"",""7822""
","
","","","","","","null","<div style=""font-size:60px;"">+</div>","null","","fixation","","",""
"memory-trial","167","378333","0.0-18.0-1.61","7571","approach_avoid_sv1","""event"",""trial"",""time""
""fullscreenenter"",""1"",""7822""
""blur"",""127"",""299224""
""focus"",""127"",""301447""
""blur"",""127"",""302672""
""focus"",""127"",""306052""
""blur"",""127"",""307315""
""focus"",""127"",""316037""
""blur"",""127"",""318891""
""focus"",""127"",""321890""
","""event"",""trial"",""time""
""blur"",""127"",""299224""
""blur"",""127"",""302672""
""blur"",""127"",""307315""
""blur"",""127"",""318891""
","""event"",""trial"",""time""
""focus"",""127"",""301447""
""focus"",""127"",""306052""
""focus"",""127"",""316037""
""focus"",""127"",""321890""
","""event"",""trial"",""time""
""fullscreenenter"",""1"",""7822""
","
","","","","","","1987.2000000178814","images/sheep1.png","","","memory_trial","1","definitely_old",""
"html-keyboard-response","168","378834","0.0-18.0-0.62","7571","approach_avoid_sv1","""event"",""trial"",""time""
""fullscreenenter"",""1"",""7822""
""blur"",""127"",""299224""
""focus"",""127"",""301447""
""blur"",""127"",""302672""
""focus"",""127"",""306052""
""blur"",""127"",""307315""
""focus"",""127"",""316037""
""blur"",""127"",""318891""
""focus"",""127"",""321890""
","""event"",""trial"",""time""
""blur"",""127"",""299224""
""blur"",""127"",""302672""
""blur"",""127"",""307315""
""blur"",""127"",""318891""
","""event"",""trial"",""time""
""focus"",""127"",""301447""
""focus"",""127"",""306052""
""focus"",""127"",""316037""
""focus"",""127"",""321890""
","""event"",""trial"",""time""
""fullscreenenter"",""1"",""7822""
","
","","","","","","null","<div style=""font-size:60px;"">+</div>","null","","fixation","","",""
"memory-trial","169","380663","0.0-18.0-1.62","7571","approach_avoid_sv1","""event"",""trial"",""time""
""fullscreenenter"",""1"",""7822""
""blur"",""127"",""299224""
""focus"",""127"",""301447""
""blur"",""127"",""302672""
""focus"",""127"",""306052""
""blur"",""127"",""307315""
""focus"",""127"",""316037""
""blur"",""127"",""318891""
""focus"",""127"",""321890""
","""event"",""trial"",""time""
""blur"",""127"",""299224""
""blur"",""127"",""302672""
""blur"",""127"",""307315""
""blur"",""127"",""318891""
","""event"",""trial"",""time""
""focus"",""127"",""301447""
""focus"",""127"",""306052""
""focus"",""127"",""316037""
""focus"",""127"",""321890""
","""event"",""trial"",""time""
""fullscreenenter"",""1"",""7822""
","
","","","","","","825.7000000178814","images/straw5.png","","","memory_trial","3","maybe_new",""
"html-keyboard-response","170","381165","0.0-18.0-0.63","7571","approach_avoid_sv1","""event"",""trial"",""time""
""fullscreenenter"",""1"",""7822""
""blur"",""127"",""299224""
""focus"",""127"",""301447""
""blur"",""127"",""302672""
""focus"",""127"",""306052""
""blur"",""127"",""307315""
""focus"",""127"",""316037""
""blur"",""127"",""318891""
""focus"",""127"",""321890""
","""event"",""trial"",""time""
""blur"",""127"",""299224""
""blur"",""127"",""302672""
""blur"",""127"",""307315""
""blur"",""127"",""318891""
","""event"",""trial"",""time""
""focus"",""127"",""301447""
""focus"",""127"",""306052""
""focus"",""127"",""316037""
""focus"",""127"",""321890""
","""event"",""trial"",""time""
""fullscreenenter"",""1"",""7822""
","
","","","","","","null","<div style=""font-size:60px;"">+</div>","null","","fixation","","",""
"memory-trial","171","383211","0.0-18.0-1.63","7571","approach_avoid_sv1","""event"",""trial"",""time""
""fullscreenenter"",""1"",""7822""
""blur"",""127"",""299224""
""focus"",""127"",""301447""
""blur"",""127"",""302672""
""focus"",""127"",""306052""
""blur"",""127"",""307315""
""focus"",""127"",""316037""
""blur"",""127"",""318891""
""focus"",""127"",""321890""
","""event"",""trial"",""time""
""blur"",""127"",""299224""
""blur"",""127"",""302672""
""blur"",""127"",""307315""
""blur"",""127"",""318891""
","""event"",""trial"",""time""
""focus"",""127"",""301447""
""focus"",""127"",""306052""
""focus"",""127"",""316037""
""focus"",""127"",""321890""
","""event"",""trial"",""time""
""fullscreenenter"",""1"",""7822""
","
","","","","","","1041","images/rodent4.png","","","memory_trial","1","definitely_old",""
"html-keyboard-response","172","383713","0.0-18.0-0.64","7571","approach_avoid_sv1","""event"",""trial"",""time""
""fullscreenenter"",""1"",""7822""
""blur"",""127"",""299224""
""focus"",""127"",""301447""
""blur"",""127"",""302672""
""focus"",""127"",""306052""
""blur"",""127"",""307315""
""focus"",""127"",""316037""
""blur"",""127"",""318891""
""focus"",""127"",""321890""
","""event"",""trial"",""time""
""blur"",""127"",""299224""
""blur"",""127"",""302672""
""blur"",""127"",""307315""
""blur"",""127"",""318891""
","""event"",""trial"",""time""
""focus"",""127"",""301447""
""focus"",""127"",""306052""
""focus"",""127"",""316037""
""focus"",""127"",""321890""
","""event"",""trial"",""time""
""fullscreenenter"",""1"",""7822""
","
","","","","","","null","<div style=""font-size:60px;"">+</div>","null","","fixation","","",""
"memory-trial","173","385806","0.0-18.0-1.64","7571","approach_avoid_sv1","""event"",""trial"",""time""
""fullscreenenter"",""1"",""7822""
""blur"",""127"",""299224""
""focus"",""127"",""301447""
""blur"",""127"",""302672""
""focus"",""127"",""306052""
""blur"",""127"",""307315""
""focus"",""127"",""316037""
""blur"",""127"",""318891""
""focus"",""127"",""321890""
","""event"",""trial"",""time""
""blur"",""127"",""299224""
""blur"",""127"",""302672""
""blur"",""127"",""307315""
""blur"",""127"",""318891""
","""event"",""trial"",""time""
""focus"",""127"",""301447""
""focus"",""127"",""306052""
""focus"",""127"",""316037""
""focus"",""127"",""321890""
","""event"",""trial"",""time""
""fullscreenenter"",""1"",""7822""
","
","","","","","","1089.9000000059605","images/sheep8.png","","","memory_trial","3","maybe_new",""
"html-keyboard-response","174","386309","0.0-18.0-0.65","7571","approach_avoid_sv1","""event"",""trial"",""time""
""fullscreenenter"",""1"",""7822""
""blur"",""127"",""299224""
""focus"",""127"",""301447""
""blur"",""127"",""302672""
""focus"",""127"",""306052""
""blur"",""127"",""307315""
""focus"",""127"",""316037""
""blur"",""127"",""318891""
""focus"",""127"",""321890""
","""event"",""trial"",""time""
""blur"",""127"",""299224""
""blur"",""127"",""302672""
""blur"",""127"",""307315""
""blur"",""127"",""318891""
","""event"",""trial"",""time""
""focus"",""127"",""301447""
""focus"",""127"",""306052""
""focus"",""127"",""316037""
""focus"",""127"",""321890""
","""event"",""trial"",""time""
""fullscreenenter"",""1"",""7822""
","
","","","","","","null","<div style=""font-size:60px;"">+</div>","null","","fixation","","",""
"memory-trial","175","388590","0.0-18.0-1.65","7571","approach_avoid_sv1","""event"",""trial"",""time""
""fullscreenenter"",""1"",""7822""
""blur"",""127"",""299224""
""focus"",""127"",""301447""
""blur"",""127"",""302672""
""focus"",""127"",""306052""
""blur"",""127"",""307315""
""focus"",""127"",""316037""
""blur"",""127"",""318891""
""focus"",""127"",""321890""
","""event"",""trial"",""time""
""blur"",""127"",""299224""
""blur"",""127"",""302672""
""blur"",""127"",""307315""
""blur"",""127"",""318891""
","""event"",""trial"",""time""
""focus"",""127"",""301447""
""focus"",""127"",""306052""
""focus"",""127"",""316037""
""focus"",""127"",""321890""
","""event"",""trial"",""time""
""fullscreenenter"",""1"",""7822""
","
","","","","","","1276.9000000059605","images/dog3.png","","","memory_trial","3","maybe_new",""
"html-keyboard-response","176","389092","0.0-18.0-0.66","7571","approach_avoid_sv1","""event"",""trial"",""time""
""fullscreenenter"",""1"",""7822""
""blur"",""127"",""299224""
""focus"",""127"",""301447""
""blur"",""127"",""302672""
""focus"",""127"",""306052""
""blur"",""127"",""307315""
""focus"",""127"",""316037""
""blur"",""127"",""318891""
""focus"",""127"",""321890""
","""event"",""trial"",""time""
""blur"",""127"",""299224""
""blur"",""127"",""302672""
""blur"",""127"",""307315""
""blur"",""127"",""318891""
","""event"",""trial"",""time""
""focus"",""127"",""301447""
""focus"",""127"",""306052""
""focus"",""127"",""316037""
""focus"",""127"",""321890""
","""event"",""trial"",""time""
""fullscreenenter"",""1"",""7822""
","
","","","","","","null","<div style=""font-size:60px;"">+</div>","null","","fixation","","",""
"memory-trial","177","391240","0.0-18.0-1.66","7571","approach_avoid_sv1","""event"",""trial"",""time""
""fullscreenenter"",""1"",""7822""
""blur"",""127"",""299224""
""focus"",""127"",""301447""
""blur"",""127"",""302672""
""focus"",""127"",""306052""
""blur"",""127"",""307315""
""focus"",""127"",""316037""
""blur"",""127"",""318891""
""focus"",""127"",""321890""
","""event"",""trial"",""time""
""blur"",""127"",""299224""
""blur"",""127"",""302672""
""blur"",""127"",""307315""
""blur"",""127"",""318891""
","""event"",""trial"",""time""
""focus"",""127"",""301447""
""focus"",""127"",""306052""
""focus"",""127"",""316037""
""focus"",""127"",""321890""
","""event"",""trial"",""time""
""fullscreenenter"",""1"",""7822""
","
","","","","","","1143.5","images/train5.png","","","memory_trial","1","definitely_old",""
"html-keyboard-response","178","391743","0.0-18.0-0.67","7571","approach_avoid_sv1","""event"",""trial"",""time""
""fullscreenenter"",""1"",""7822""
""blur"",""127"",""299224""
""focus"",""127"",""301447""
""blur"",""127"",""302672""
""focus"",""127"",""306052""
""blur"",""127"",""307315""
""focus"",""127"",""316037""
""blur"",""127"",""318891""
""focus"",""127"",""321890""
","""event"",""trial"",""time""
""blur"",""127"",""299224""
""blur"",""127"",""302672""
""blur"",""127"",""307315""
""blur"",""127"",""318891""
","""event"",""trial"",""time""
""focus"",""127"",""301447""
""focus"",""127"",""306052""
""focus"",""127"",""316037""
""focus"",""127"",""321890""
","""event"",""trial"",""time""
""fullscreenenter"",""1"",""7822""
","
","","","","","","null","<div style=""font-size:60px;"">+</div>","null","","fixation","","",""
"memory-trial","179","393962","0.0-18.0-1.67","7571","approach_avoid_sv1","""event"",""trial"",""time""
""fullscreenenter"",""1"",""7822""
""blur"",""127"",""299224""
""focus"",""127"",""301447""
""blur"",""127"",""302672""
""focus"",""127"",""306052""
""blur"",""127"",""307315""
""focus"",""127"",""316037""
""blur"",""127"",""318891""
""focus"",""127"",""321890""
","""event"",""trial"",""time""
""blur"",""127"",""299224""
""blur"",""127"",""302672""
""blur"",""127"",""307315""
""blur"",""127"",""318891""
","""event"",""trial"",""time""
""focus"",""127"",""301447""
""focus"",""127"",""306052""
""focus"",""127"",""316037""
""focus"",""127"",""321890""
","""event"",""trial"",""time""
""fullscreenenter"",""1"",""7822""
","
","","","","","","1211.199999988079","images/apple2.png","","","memory_trial","2","maybe_old",""
"html-keyboard-response","180","394464","0.0-18.0-0.68","7571","approach_avoid_sv1","""event"",""trial"",""time""
""fullscreenenter"",""1"",""7822""
""blur"",""127"",""299224""
""focus"",""127"",""301447""
""blur"",""127"",""302672""
""focus"",""127"",""306052""
""blur"",""127"",""307315""
""focus"",""127"",""316037""
""blur"",""127"",""318891""
""focus"",""127"",""321890""
","""event"",""trial"",""time""
""blur"",""127"",""299224""
""blur"",""127"",""302672""
""blur"",""127"",""307315""
""blur"",""127"",""318891""
","""event"",""trial"",""time""
""focus"",""127"",""301447""
""focus"",""127"",""306052""
""focus"",""127"",""316037""
""focus"",""127"",""321890""
","""event"",""trial"",""time""
""fullscreenenter"",""1"",""7822""
","
","","","","","","null","<div style=""font-size:60px;"">+</div>","null","","fixation","","",""
"memory-trial","181","396189","0.0-18.0-1.68","7571","approach_avoid_sv1","""event"",""trial"",""time""
""fullscreenenter"",""1"",""7822""
""blur"",""127"",""299224""
""focus"",""127"",""301447""
""blur"",""127"",""302672""
""focus"",""127"",""306052""
""blur"",""127"",""307315""
""focus"",""127"",""316037""
""blur"",""127"",""318891""
""focus"",""127"",""321890""
","""event"",""trial"",""time""
""blur"",""127"",""299224""
""blur"",""127"",""302672""
""blur"",""127"",""307315""
""blur"",""127"",""318891""
","""event"",""trial"",""time""
""focus"",""127"",""301447""
""focus"",""127"",""306052""
""focus"",""127"",""316037""
""focus"",""127"",""321890""
","""event"",""trial"",""time""
""fullscreenenter"",""1"",""7822""
","
","","","","","","720.8999999761581","images/cat3.png","","","memory_trial","3","maybe_new",""
"html-keyboard-response","182","396690","0.0-18.0-0.69","7571","approach_avoid_sv1","""event"",""trial"",""time""
""fullscreenenter"",""1"",""7822""
""blur"",""127"",""299224""
""focus"",""127"",""301447""
""blur"",""127"",""302672""
""focus"",""127"",""306052""
""blur"",""127"",""307315""
""focus"",""127"",""316037""
""blur"",""127"",""318891""
""focus"",""127"",""321890""
","""event"",""trial"",""time""
""blur"",""127"",""299224""
""blur"",""127"",""302672""
""blur"",""127"",""307315""
""blur"",""127"",""318891""
","""event"",""trial"",""time""
""focus"",""127"",""301447""
""focus"",""127"",""306052""
""focus"",""127"",""316037""
""focus"",""127"",""321890""
","""event"",""trial"",""time""
""fullscreenenter"",""1"",""7822""
","
","","","","","","null","<div style=""font-size:60px;"">+</div>","null","","fixation","","",""
"memory-trial","183","398524","0.0-18.0-1.69","7571","approach_avoid_sv1","""event"",""trial"",""time""
""fullscreenenter"",""1"",""7822""
""blur"",""127"",""299224""
""focus"",""127"",""301447""
""blur"",""127"",""302672""
""focus"",""127"",""306052""
""blur"",""127"",""307315""
""focus"",""127"",""316037""
""blur"",""127"",""318891""
""focus"",""127"",""321890""
","""event"",""trial"",""time""
""blur"",""127"",""299224""
""blur"",""127"",""302672""
""blur"",""127"",""307315""
""blur"",""127"",""318891""
","""event"",""trial"",""time""
""focus"",""127"",""301447""
""focus"",""127"",""306052""
""focus"",""127"",""316037""
""focus"",""127"",""321890""
","""event"",""trial"",""time""
""fullscreenenter"",""1"",""7822""
","
","","","","","","828.8000000119209","images/bush4.png","","","memory_trial","3","maybe_new",""
"html-keyboard-response","184","399025","0.0-18.0-0.70","7571","approach_avoid_sv1","""event"",""trial"",""time""
""fullscreenenter"",""1"",""7822""
""blur"",""127"",""299224""
""focus"",""127"",""301447""
""blur"",""127"",""302672""
""focus"",""127"",""306052""
""blur"",""127"",""307315""
""focus"",""127"",""316037""
""blur"",""127"",""318891""
""focus"",""127"",""321890""
","""event"",""trial"",""time""
""blur"",""127"",""299224""
""blur"",""127"",""302672""
""blur"",""127"",""307315""
""blur"",""127"",""318891""
","""event"",""trial"",""time""
""focus"",""127"",""301447""
""focus"",""127"",""306052""
""focus"",""127"",""316037""
""focus"",""127"",""321890""
","""event"",""trial"",""time""
""fullscreenenter"",""1"",""7822""
","
","","","","","","null","<div style=""font-size:60px;"">+</div>","null","","fixation","","",""
"memory-trial","185","401087","0.0-18.0-1.70","7571","approach_avoid_sv1","""event"",""trial"",""time""
""fullscreenenter"",""1"",""7822""
""blur"",""127"",""299224""
""focus"",""127"",""301447""
""blur"",""127"",""302672""
""focus"",""127"",""306052""
""blur"",""127"",""307315""
""focus"",""127"",""316037""
""blur"",""127"",""318891""
""focus"",""127"",""321890""
","""event"",""trial"",""time""
""blur"",""127"",""299224""
""blur"",""127"",""302672""
""blur"",""127"",""307315""
""blur"",""127"",""318891""
","""event"",""trial"",""time""
""focus"",""127"",""301447""
""focus"",""127"",""306052""
""focus"",""127"",""316037""
""focus"",""127"",""321890""
","""event"",""trial"",""time""
""fullscreenenter"",""1"",""7822""
","
","","","","","","1058","images/boat6.png","","","memory_trial","2","maybe_old",""
"html-keyboard-response","186","401590","0.0-18.0-0.71","7571","approach_avoid_sv1","""event"",""trial"",""time""
""fullscreenenter"",""1"",""7822""
""blur"",""127"",""299224""
""focus"",""127"",""301447""
""blur"",""127"",""302672""
""focus"",""127"",""306052""
""blur"",""127"",""307315""
""focus"",""127"",""316037""
""blur"",""127"",""318891""
""focus"",""127"",""321890""
","""event"",""trial"",""time""
""blur"",""127"",""299224""
""blur"",""127"",""302672""
""blur"",""127"",""307315""
""blur"",""127"",""318891""
","""event"",""trial"",""time""
""focus"",""127"",""301447""
""focus"",""127"",""306052""
""focus"",""127"",""316037""
""focus"",""127"",""321890""
","""event"",""trial"",""time""
""fullscreenenter"",""1"",""7822""
","
","","","","","","null","<div style=""font-size:60px;"">+</div>","null","","fixation","","",""
"memory-trial","187","404429","0.0-18.0-1.71","7571","approach_avoid_sv1","""event"",""trial"",""time""
""fullscreenenter"",""1"",""7822""
""blur"",""127"",""299224""
""focus"",""127"",""301447""
""blur"",""127"",""302672""
""focus"",""127"",""306052""
""blur"",""127"",""307315""
""focus"",""127"",""316037""
""blur"",""127"",""318891""
""focus"",""127"",""321890""
","""event"",""trial"",""time""
""blur"",""127"",""299224""
""blur"",""127"",""302672""
""blur"",""127"",""307315""
""blur"",""127"",""318891""
","""event"",""trial"",""time""
""focus"",""127"",""301447""
""focus"",""127"",""306052""
""focus"",""127"",""316037""
""focus"",""127"",""321890""
","""event"",""trial"",""time""
""fullscreenenter"",""1"",""7822""
","
","","","","","","1832.9000000059605","images/orange4.png","","","memory_trial","1","definitely_old",""
"html-keyboard-response","188","404931","0.0-18.0-0.72","7571","approach_avoid_sv1","""event"",""trial"",""time""
""fullscreenenter"",""1"",""7822""
""blur"",""127"",""299224""
""focus"",""127"",""301447""
""blur"",""127"",""302672""
""focus"",""127"",""306052""
""blur"",""127"",""307315""
""focus"",""127"",""316037""
""blur"",""127"",""318891""
""focus"",""127"",""321890""
","""event"",""trial"",""time""
""blur"",""127"",""299224""
""blur"",""127"",""302672""
""blur"",""127"",""307315""
""blur"",""127"",""318891""
","""event"",""trial"",""time""
""focus"",""127"",""301447""
""focus"",""127"",""306052""
""focus"",""127"",""316037""
""focus"",""127"",""321890""
","""event"",""trial"",""time""
""fullscreenenter"",""1"",""7822""
","
","","","","","","null","<div style=""font-size:60px;"">+</div>","null","","fixation","","",""
"memory-trial","189","407010","0.0-18.0-1.72","7571","approach_avoid_sv1","""event"",""trial"",""time""
""fullscreenenter"",""1"",""7822""
""blur"",""127"",""299224""
""focus"",""127"",""301447""
""blur"",""127"",""302672""
""focus"",""127"",""306052""
""blur"",""127"",""307315""
""focus"",""127"",""316037""
""blur"",""127"",""318891""
""focus"",""127"",""321890""
","""event"",""trial"",""time""
""blur"",""127"",""299224""
""blur"",""127"",""302672""
""blur"",""127"",""307315""
""blur"",""127"",""318891""
","""event"",""trial"",""time""
""focus"",""127"",""301447""
""focus"",""127"",""306052""
""focus"",""127"",""316037""
""focus"",""127"",""321890""
","""event"",""trial"",""time""
""fullscreenenter"",""1"",""7822""
","
","","","","","","1074.5","images/truck8.png","","","memory_trial","2","maybe_old",""
"html-keyboard-response","190","407512","0.0-18.0-0.73","7571","approach_avoid_sv1","""event"",""trial"",""time""
""fullscreenenter"",""1"",""7822""
""blur"",""127"",""299224""
""focus"",""127"",""301447""
""blur"",""127"",""302672""
""focus"",""127"",""306052""
""blur"",""127"",""307315""
""focus"",""127"",""316037""
""blur"",""127"",""318891""
""focus"",""127"",""321890""
","""event"",""trial"",""time""
""blur"",""127"",""299224""
""blur"",""127"",""302672""
""blur"",""127"",""307315""
""blur"",""127"",""318891""
","""event"",""trial"",""time""
""focus"",""127"",""301447""
""focus"",""127"",""306052""
""focus"",""127"",""316037""
""focus"",""127"",""321890""
","""event"",""trial"",""time""
""fullscreenenter"",""1"",""7822""
","
","","","","","","null","<div style=""font-size:60px;"">+</div>","null","","fixation","","",""
"memory-trial","191","409239","0.0-18.0-1.73","7571","approach_avoid_sv1","""event"",""trial"",""time""
""fullscreenenter"",""1"",""7822""
""blur"",""127"",""299224""
""focus"",""127"",""301447""
""blur"",""127"",""302672""
""focus"",""127"",""306052""
""blur"",""127"",""307315""
""focus"",""127"",""316037""
""blur"",""127"",""318891""
""focus"",""127"",""321890""
","""event"",""trial"",""time""
""blur"",""127"",""299224""
""blur"",""127"",""302672""
""blur"",""127"",""307315""
""blur"",""127"",""318891""
","""event"",""trial"",""time""
""focus"",""127"",""301447""
""focus"",""127"",""306052""
""focus"",""127"",""316037""
""focus"",""127"",""321890""
","""event"",""trial"",""time""
""fullscreenenter"",""1"",""7822""
","
","","","","","","721.0999999940395","images/orange3.png","","","memory_trial","3","maybe_new",""
