"trial_type","trial_index","time_elapsed","internal_node_id","subject_id","task_version","interactions","blur_events","focus_events","fullscreenenter_events","fullscreenexit_events","success","timeout","failed_images","failed_audio","failed_video","rt","stimulus","response","button_pressed","task_part","key_press","answer","correct"
"pavlovia","0","3","0.0-0.0","6253","approach_avoid_sv1","""event"",""trial"",""time""
""fullscreenenter"",""1"",""3533""
","
","
","""event"",""trial"",""time""
""fullscreenenter"",""1"",""3533""
","
","","","","","","","","","","","","",""
"fullscreen","1","4532","0.0-1.0","6253","approach_avoid_sv1","""event"",""trial"",""time""
""fullscreenenter"",""1"",""3533""
","
","
","""event"",""trial"",""time""
""fullscreenenter"",""1"",""3533""
","
","true","","","","","","","","","","","",""
"preload","2","7126","0.0-2.0","6253","approach_avoid_sv1","""event"",""trial"",""time""
""fullscreenenter"",""1"",""3533""
","
","
","""event"",""trial"",""time""
""fullscreenenter"",""1"",""3533""
","
","true","false","[]","[]","[]","","","","","","","",""
"preload","3","11322","0.0-3.0","6253","approach_avoid_sv1","""event"",""trial"",""time""
""fullscreenenter"",""1"",""3533""
","
","
","""event"",""trial"",""time""
""fullscreenenter"",""1"",""3533""
","
","true","false","[]","[]","[]","","","","","","","",""
"preload","4","11697","0.0-4.0","6253","approach_avoid_sv1","""event"",""trial"",""time""
""fullscreenenter"",""1"",""3533""
","
","
","""event"",""trial"",""time""
""fullscreenenter"",""1"",""3533""
","
","true","false","[]","[]","[]","","","","","","","",""
"audio-keyboard-response","5","15894","0.0-5.0","6253","approach_avoid_sv1","""event"",""trial"",""time""
""fullscreenenter"",""1"",""3533""
","
","
","""event"",""trial"",""time""
""fullscreenenter"",""1"",""3533""
","
","","","","","","4200","audio/beep_loop.wav","m","","","","",""
"audio-button-response","6","18827","0.0-6.0","6253","approach_avoid_sv1","""event"",""trial"",""time""
""fullscreenenter"",""1"",""3533""
","
","
","""event"",""trial"",""time""
""fullscreenenter"",""1"",""3533""
","
","","","","","","2928","audio/turtle.wav","3","","","","",""
"audio-button-response","7","21095","0.0-7.0","6253","approach_avoid_sv1","""event"",""trial"",""time""
""fullscreenenter"",""1"",""3533""
","
","
","""event"",""trial"",""time""
""fullscreenenter"",""1"",""3533""
","
","","","","","","1272","audio/shark.wav","2","","","","",""
"preload","8","24173","0.0-8.0","6253","approach_avoid_sv1","""event"",""trial"",""time""
""fullscreenenter"",""1"",""3533""
","
","
","""event"",""trial"",""time""
""fullscreenenter"",""1"",""3533""
","
","true","false","[]","[]","[]","","","","","","","",""
"learning-instructions","9","31688","0.0-9.0-0.0","6253","approach_avoid_sv1","""event"",""trial"",""time""
""fullscreenenter"",""1"",""3533""
","
","
","""event"",""trial"",""time""
""fullscreenenter"",""1"",""3533""
","
","","","","","","3033.100000143051","<p> Welcome back! </p><p> Last week, you had to make choices about lots of different items.  </p>","","0","instructions","","",""
"learning-instructions","10","37624","0.0-9.0-0.1","6253","approach_avoid_sv1","""event"",""trial"",""time""
""fullscreenenter"",""1"",""3533""
","
","
","""event"",""trial"",""time""
""fullscreenenter"",""1"",""3533""
","
","","","","","","1819.6999998092651","<p> Today, we are going to ask you to try to remember all the items. </p>","","0","instructions","","",""
"learning-instructions","11","48200","0.0-9.0-0.2","6253","approach_avoid_sv1","""event"",""trial"",""time""
""fullscreenenter"",""1"",""3533""
","
","
","""event"",""trial"",""time""
""fullscreenenter"",""1"",""3533""
","
","","","","","","445.39999985694885","<p> On every trial, you will see an image. </p><p> The image may be an OLD image you saw during the games last week or it may be a NEW image that was not presented. </p>","","0","instructions","","",""
"learning-instructions","12","57523","0.0-9.0-0.3","6253","approach_avoid_sv1","""event"",""trial"",""time""
""fullscreenenter"",""1"",""3533""
","
","
","""event"",""trial"",""time""
""fullscreenenter"",""1"",""3533""
","
","","","","","","826.9000000953674","<p> You need to select whether the image is:  </p><p>  'Definitely old', 'Maybe old', 'Maybe new', or 'Definitely new.'  </p><div class=""mem-choice-instructions-grid""><div class=""choice-option"" id=""choice-option-1"" ><img src=""images/definitely_old_1.png"" id=""choice-option-img-1"" class=""choice-option-img"" stage=""1""></div><div class=""choice-option"" id=""choice-option-2"" ><img src=""images/maybe_old_1.png"" id=""choice-option-img-2"" class=""choice-option-img"" stage=""1""></div><div class=""choice-option"" id=""choice-option-3"" ><img src=""images/maybe_new_1.png"" id=""choice-option-img-3"" class=""choice-option-img"" stage=""1""></div><div class=""choice-option"" id=""choice-option-4"" > <img src=""images/definitely_new_1.png"" id=""choice-option-img-4"" class=""choice-option-img"" stage=""1""></div></div>","","0","instructions","","",""
"learning-instructions","13","65031","0.0-9.0-0.4","6253","approach_avoid_sv1","""event"",""trial"",""time""
""fullscreenenter"",""1"",""3533""
","
","
","""event"",""trial"",""time""
""fullscreenenter"",""1"",""3533""
","
","","","","","","986.0999999046326","<p> You should use the 1, 2, 3, and 4 keys to make your responses.  </p><div class=""mem-choice-instructions-grid""><div class=""choice-option"" id=""choice-option-1"" ><img src=""images/definitely_old.png"" id=""choice-option-img-1"" class=""choice-option-img"" stage=""1""></div><div class=""choice-option"" id=""choice-option-2"" ><img src=""images/maybe_old.png"" id=""choice-option-img-2"" class=""choice-option-img"" stage=""1""></div><div class=""choice-option"" id=""choice-option-3"" ><img src=""images/maybe_new.png"" id=""choice-option-img-3"" class=""choice-option-img"" stage=""1""></div><div class=""choice-option"" id=""choice-option-4"" > <img src=""images/definitely_new.png"" id=""choice-option-img-4"" class=""choice-option-img"" stage=""1""></div></div>","","0","instructions","","",""
"learning-instructions","14","72095","0.0-9.0-0.5","6253","approach_avoid_sv1","""event"",""trial"",""time""
""fullscreenenter"",""1"",""3533""
","
","
","""event"",""trial"",""time""
""fullscreenenter"",""1"",""3533""
","
","","","","","","730.7000000476837","<p> You will have 10 seconds to make each response.  </p><p>  Make sure to respond before time runs out! </p>","","0","instructions","","",""
"learning-instructions","15","79684","0.0-9.0-0.6","6253","approach_avoid_sv1","""event"",""trial"",""time""
""fullscreenenter"",""1"",""3533""
","
","
","""event"",""trial"",""time""
""fullscreenenter"",""1"",""3533""
","
","","","","","","510.39999985694885","<p> Today, you will see each image ONCE only.  </p><p>  That means none of the images will repeat. </p>","","0","instructions","","",""
"learning-instructions","16","92827","0.0-9.0-0.7","6253","approach_avoid_sv1","""event"",""trial"",""time""
""fullscreenenter"",""1"",""3533""
","
","
","""event"",""trial"",""time""
""fullscreenenter"",""1"",""3533""
","
","","","","","","473.10000014305115","<p> Before you play the real game, it is time to practice. </p><p>  Just like in the real game, some of the images in the practice will be ones you have seen before. </p><p>  Others will be entirely new. </p>","","0","instructions","","",""
"html-button-response","17","94631","0.0-10.0","6253","approach_avoid_sv1","""event"",""trial"",""time""
""fullscreenenter"",""1"",""3533""
","
","
","""event"",""trial"",""time""
""fullscreenenter"",""1"",""3533""
","
","","","","","","1693.5999999046326","<p> Ready to practice? </p><p> Remember, use the 1, 2, 3, and 4 keys to make your responses. </p>","0","","instructions","","",""
"html-keyboard-response","18","95252","0.0-11.0-0.0","6253","approach_avoid_sv1","""event"",""trial"",""time""
""fullscreenenter"",""1"",""3533""
","
","
","""event"",""trial"",""time""
""fullscreenenter"",""1"",""3533""
","
","","","","","","null","<div style=""font-size:60px;"">+</div>","null","","fixation","","",""
"memory-trial","19","97882","0.0-11.0-1.0","6253","approach_avoid_sv1","""event"",""trial"",""time""
""fullscreenenter"",""1"",""3533""
","
","
","""event"",""trial"",""time""
""fullscreenenter"",""1"",""3533""
","
","","","","","","1614.9000000953674","images/ball1.png","","","practice","1","definitely_old",""
"html-keyboard-response","20","98392","0.0-11.0-0.1","6253","approach_avoid_sv1","""event"",""trial"",""time""
""fullscreenenter"",""1"",""3533""
","
","
","""event"",""trial"",""time""
""fullscreenenter"",""1"",""3533""
","
","","","","","","null","<div style=""font-size:60px;"">+</div>","null","","fixation","","",""
"memory-trial","21","101842","0.0-11.0-1.1","6253","approach_avoid_sv1","""event"",""trial"",""time""
""fullscreenenter"",""1"",""3533""
","
","
","""event"",""trial"",""time""
""fullscreenenter"",""1"",""3533""
","
","","","","","","2430.5","images/racket5.png","","","practice","4","definitely_new",""
"html-keyboard-response","22","102362","0.0-11.0-0.2","6253","approach_avoid_sv1","""event"",""trial"",""time""
""fullscreenenter"",""1"",""3533""
","
","
","""event"",""trial"",""time""
""fullscreenenter"",""1"",""3533""
","
","","","","","","null","<div style=""font-size:60px;"">+</div>","null","","fixation","","",""
"memory-trial","23","107577","0.0-11.0-1.2","6253","approach_avoid_sv1","""event"",""trial"",""time""
""fullscreenenter"",""1"",""3533""
","
","
","""event"",""trial"",""time""
""fullscreenenter"",""1"",""3533""
","
","","","","","","4200.599999904633","images/ball3.png","","","practice","1","definitely_old",""
"html-keyboard-response","24","108091","0.0-11.0-0.3","6253","approach_avoid_sv1","""event"",""trial"",""time""
""fullscreenenter"",""1"",""3533""
","
","
","""event"",""trial"",""time""
""fullscreenenter"",""1"",""3533""
","
","","","","","","null","<div style=""font-size:60px;"">+</div>","null","","fixation","","",""
"memory-trial","25","110713","0.0-11.0-1.3","6253","approach_avoid_sv1","""event"",""trial"",""time""
""fullscreenenter"",""1"",""3533""
","
","
","""event"",""trial"",""time""
""fullscreenenter"",""1"",""3533""
","
","","","","","","1615.8999998569489","images/racket1.png","","","practice","1","definitely_old",""
"html-keyboard-response","26","111232","0.0-11.0-0.4","6253","approach_avoid_sv1","""event"",""trial"",""time""
""fullscreenenter"",""1"",""3533""
","
","
","""event"",""trial"",""time""
""fullscreenenter"",""1"",""3533""
","
","","","","","","null","<div style=""font-size:60px;"">+</div>","null","","fixation","","",""
"memory-trial","27","114022","0.0-11.0-1.4","6253","approach_avoid_sv1","""event"",""trial"",""time""
""fullscreenenter"",""1"",""3533""
","
","
","""event"",""trial"",""time""
""fullscreenenter"",""1"",""3533""
","
","","","","","","1782.7999999523163","images/racket2.png","","","practice","4","definitely_new",""
"html-keyboard-response","28","114542","0.0-11.0-0.5","6253","approach_avoid_sv1","""event"",""trial"",""time""
""fullscreenenter"",""1"",""3533""
","
","
","""event"",""trial"",""time""
""fullscreenenter"",""1"",""3533""
","
","","","","","","null","<div style=""font-size:60px;"">+</div>","null","","fixation","","",""
"memory-trial","29","117402","0.0-11.0-1.5","6253","approach_avoid_sv1","""event"",""trial"",""time""
""fullscreenenter"",""1"",""3533""
","
","
","""event"",""trial"",""time""
""fullscreenenter"",""1"",""3533""
","
","","","","","","1839.7000000476837","images/racket3.png","","","practice","1","definitely_old",""
"html-keyboard-response","30","117922","0.0-11.0-0.6","6253","approach_avoid_sv1","""event"",""trial"",""time""
""fullscreenenter"",""1"",""3533""
","
","
","""event"",""trial"",""time""
""fullscreenenter"",""1"",""3533""
","
","","","","","","null","<div style=""font-size:60px;"">+</div>","null","","fixation","","",""
"memory-trial","31","120022","0.0-11.0-1.6","6253","approach_avoid_sv1","""event"",""trial"",""time""
""fullscreenenter"",""1"",""3533""
","
","
","""event"",""trial"",""time""
""fullscreenenter"",""1"",""3533""
","
","","","","","","1074.3000001907349","images/ball2.png","","","practice","1","definitely_old",""
"html-keyboard-response","32","120542","0.0-11.0-0.7","6253","approach_avoid_sv1","""event"",""trial"",""time""
""fullscreenenter"",""1"",""3533""
","
","
","""event"",""trial"",""time""
""fullscreenenter"",""1"",""3533""
","
","","","","","","null","<div style=""font-size:60px;"">+</div>","null","","fixation","","",""
"memory-trial","33","124163","0.0-11.0-1.7","6253","approach_avoid_sv1","""event"",""trial"",""time""
""fullscreenenter"",""1"",""3533""
","
","
","""event"",""trial"",""time""
""fullscreenenter"",""1"",""3533""
","
","","","","","","2614","images/ball5.png","","","practice","2","maybe_old",""
"learning-instructions","34","132240","0.0-12.0-0.0","6253","approach_avoid_sv1","""event"",""trial"",""time""
""fullscreenenter"",""1"",""3533""
","
","
","""event"",""trial"",""time""
""fullscreenenter"",""1"",""3533""
","
","","","","","","785","<p> Great! You have completed the practice. </p><p> Before you start, we're going to ask you a few questions about how the game works.  </p>","","0","instructions","","",""
"preload","35","134182","0.0-13.0","6253","approach_avoid_sv1","""event"",""trial"",""time""
""fullscreenenter"",""1"",""3533""
","
","
","""event"",""trial"",""time""
""fullscreenenter"",""1"",""3533""
","
","true","false","[]","[]","[]","","","","","","","",""
"comp-q","36","141705","0.0-14.0-0.0","6253","approach_avoid_sv1","""event"",""trial"",""time""
""fullscreenenter"",""1"",""3533""
","
","
","""event"",""trial"",""time""
""fullscreenenter"",""1"",""3533""
","
","","","","","","1698.2000000476837","<p> <b> True or False? </b> </p><p> In this game, you will only see each image once. </p>","","0","comp_question","","","true"
"comp-q","37","149466","0.0-14.0-1.0","6253","approach_avoid_sv1","""event"",""trial"",""time""
""fullscreenenter"",""1"",""3533""
","
","
","""event"",""trial"",""time""
""fullscreenenter"",""1"",""3533""
","
","","","","","","1399.7000000476837","<p> <b> That's right! </b> You will see many different images <i> one time each </i> in this game. </p>","","0","comp_answer","","",""
"comp-q","38","155784","0.0-15.0-0.0","6253","approach_avoid_sv1","""event"",""trial"",""time""
""fullscreenenter"",""1"",""3533""
","
","
","""event"",""trial"",""time""
""fullscreenenter"",""1"",""3533""
","
","","","","","","1289.9000000953674","<p> <b> True or False? </b> </p><p> You should use the mouse and click to make your response. </p>","","1","comp_question","","","true"
"comp-q","39","164245","0.0-15.0-1.0","6253","approach_avoid_sv1","""event"",""trial"",""time""
""fullscreenenter"",""1"",""3533""
","
","
","""event"",""trial"",""time""
""fullscreenenter"",""1"",""3533""
","
","","","","","","1949.6000001430511","<p><b> That's right! </b> You should use the '1', '2', '3', and '4' keys to make your response. </p>","","0","comp_answer","","",""
"comp-q","40","170945","0.0-16.0-0.0","6253","approach_avoid_sv1","""event"",""trial"",""time""
""fullscreenenter"",""1"",""3533""
","
","
","""event"",""trial"",""time""
""fullscreenenter"",""1"",""3533""
","
","","","","","","1009.4000000953674","<p> <b> True or False? </b> </p><p> You will have as much time as you want to make each choice. </p>","","1","comp_question","","","true"
"comp-q","41","177091","0.0-16.0-1.0","6253","approach_avoid_sv1","""event"",""trial"",""time""
""fullscreenenter"",""1"",""3533""
","
","
","""event"",""trial"",""time""
""fullscreenenter"",""1"",""3533""
","
","","","","","","1435.5","<p> <b> That's right! </b> You will only have 10 seconds to make each choice. </p>","","0","comp_answer","","",""
"learning-instructions","42","187395","0.0-17.0","6253","approach_avoid_sv1","""event"",""trial"",""time""
""fullscreenenter"",""1"",""3533""
","
","
","""event"",""trial"",""time""
""fullscreenenter"",""1"",""3533""
","
","","","","","","1620.2999999523163","<p> Great! You are now ready to begin the game. </p><p> Remember, use the 1, 2, 3, and 4 keys to make your responses. </p>","","0","instructions","","",""
"html-keyboard-response","43","188023","0.0-18.0-0.0","6253","approach_avoid_sv1","""event"",""trial"",""time""
""fullscreenenter"",""1"",""3533""
","
","
","""event"",""trial"",""time""
""fullscreenenter"",""1"",""3533""
","
","","","","","","null","<div style=""font-size:60px;"">+</div>","null","","fixation","","",""
"memory-trial","44","191463","0.0-18.0-1.0","6253","approach_avoid_sv1","""event"",""trial"",""time""
""fullscreenenter"",""1"",""3533""
","
","
","""event"",""trial"",""time""
""fullscreenenter"",""1"",""3533""
","
","","","","","","2424.7000000476837","images/banana7.png","","","memory_trial","4","definitely_new",""
"html-keyboard-response","45","191973","0.0-18.0-0.1","6253","approach_avoid_sv1","""event"",""trial"",""time""
""fullscreenenter"",""1"",""3533""
","
","
","""event"",""trial"",""time""
""fullscreenenter"",""1"",""3533""
","
","","","","","","null","<div style=""font-size:60px;"">+</div>","null","","fixation","","",""
"memory-trial","46","194633","0.0-18.0-1.1","6253","approach_avoid_sv1","""event"",""trial"",""time""
""fullscreenenter"",""1"",""3533""
","
","
","""event"",""trial"",""time""
""fullscreenenter"",""1"",""3533""
","
","","","","","","1633.9000000953674","images/cactus5.png","","","memory_trial","4","definitely_new",""
"html-keyboard-response","47","195153","0.0-18.0-0.2","6253","approach_avoid_sv1","""event"",""trial"",""time""
""fullscreenenter"",""1"",""3533""
","
","
","""event"",""trial"",""time""
""fullscreenenter"",""1"",""3533""
","
","","","","","","null","<div style=""font-size:60px;"">+</div>","null","","fixation","","",""
"memory-trial","48","197793","0.0-18.0-1.2","6253","approach_avoid_sv1","""event"",""trial"",""time""
""fullscreenenter"",""1"",""3533""
","
","
","""event"",""trial"",""time""
""fullscreenenter"",""1"",""3533""
","
","","","","","","1632.8999998569489","images/rabbit3.png","","","memory_trial","1","definitely_old",""
"html-keyboard-response","49","198303","0.0-18.0-0.3","6253","approach_avoid_sv1","""event"",""trial"",""time""
""fullscreenenter"",""1"",""3533""
","
","
","""event"",""trial"",""time""
""fullscreenenter"",""1"",""3533""
","
","","","","","","null","<div style=""font-size:60px;"">+</div>","null","","fixation","","",""
"memory-trial","50","200713","0.0-18.0-1.3","6253","approach_avoid_sv1","""event"",""trial"",""time""
""fullscreenenter"",""1"",""3533""
","
","
","""event"",""trial"",""time""
""fullscreenenter"",""1"",""3533""
","
","","","","","","1399","images/cactus7.png","","","memory_trial","4","definitely_new",""
"html-keyboard-response","51","201223","0.0-18.0-0.4","6253","approach_avoid_sv1","""event"",""trial"",""time""
""fullscreenenter"",""1"",""3533""
","
","
","""event"",""trial"",""time""
""fullscreenenter"",""1"",""3533""
","
","","","","","","null","<div style=""font-size:60px;"">+</div>","null","","fixation","","",""
"memory-trial","52","204663","0.0-18.0-1.4","6253","approach_avoid_sv1","""event"",""trial"",""time""
""fullscreenenter"",""1"",""3533""
","
","
","""event"",""trial"",""time""
""fullscreenenter"",""1"",""3533""
","
","","","","","","2426.2000000476837","images/horse5.png","","","memory_trial","3","maybe_new",""
"html-keyboard-response","53","205183","0.0-18.0-0.5","6253","approach_avoid_sv1","""event"",""trial"",""time""
""fullscreenenter"",""1"",""3533""
","
","
","""event"",""trial"",""time""
""fullscreenenter"",""1"",""3533""
","
","","","","","","null","<div style=""font-size:60px;"">+</div>","null","","fixation","","",""
"memory-trial","54","207573","0.0-18.0-1.5","6253","approach_avoid_sv1","""event"",""trial"",""time""
""fullscreenenter"",""1"",""3533""
","
","
","""event"",""trial"",""time""
""fullscreenenter"",""1"",""3533""
","
","","","","","","1373.4000000953674","images/apple2.png","","","memory_trial","1","definitely_old",""
"html-keyboard-response","55","208088","0.0-18.0-0.6","6253","approach_avoid_sv1","""event"",""trial"",""time""
""fullscreenenter"",""1"",""3533""
","
","
","""event"",""trial"",""time""
""fullscreenenter"",""1"",""3533""
","
","","","","","","null","<div style=""font-size:60px;"">+</div>","null","","fixation","","",""
"memory-trial","56","210423","0.0-18.0-1.6","6253","approach_avoid_sv1","""event"",""trial"",""time""
""fullscreenenter"",""1"",""3533""
","
","
","""event"",""trial"",""time""
""fullscreenenter"",""1"",""3533""
","
","","","","","","1323.5","images/cactus1.png","","","memory_trial","4","definitely_new",""
"html-keyboard-response","57","210933","0.0-18.0-0.7","6253","approach_avoid_sv1","""event"",""trial"",""time""
""fullscreenenter"",""1"",""3533""
","
","
","""event"",""trial"",""time""
""fullscreenenter"",""1"",""3533""
","
","","","","","","null","<div style=""font-size:60px;"">+</div>","null","","fixation","","",""
"memory-trial","58","213153","0.0-18.0-1.7","6253","approach_avoid_sv1","""event"",""trial"",""time""
""fullscreenenter"",""1"",""3533""
","
","
","""event"",""trial"",""time""
""fullscreenenter"",""1"",""3533""
","
","","","","","","1209.5","images/flower4.png","","","memory_trial","1","definitely_old",""
"html-keyboard-response","59","213673","0.0-18.0-0.8","6253","approach_avoid_sv1","""event"",""trial"",""time""
""fullscreenenter"",""1"",""3533""
","
","
","""event"",""trial"",""time""
""fullscreenenter"",""1"",""3533""
","
","","","","","","null","<div style=""font-size:60px;"">+</div>","null","","fixation","","",""
"memory-trial","60","215543","0.0-18.0-1.8","6253","approach_avoid_sv1","""event"",""trial"",""time""
""fullscreenenter"",""1"",""3533""
","
","
","""event"",""trial"",""time""
""fullscreenenter"",""1"",""3533""
","
","","","","","","864.3999998569489","images/orange7.png","","","memory_trial","1","definitely_old",""
"html-keyboard-response","61","216047","0.0-18.0-0.9","6253","approach_avoid_sv1","""event"",""trial"",""time""
""fullscreenenter"",""1"",""3533""
","
","
","""event"",""trial"",""time""
""fullscreenenter"",""1"",""3533""
","
","","","","","","null","<div style=""font-size:60px;"">+</div>","null","","fixation","","",""
"memory-trial","62","217871","0.0-18.0-1.9","6253","approach_avoid_sv1","""event"",""trial"",""time""
""fullscreenenter"",""1"",""3533""
","
","
","""event"",""trial"",""time""
""fullscreenenter"",""1"",""3533""
","
","","","","","","816.0999999046326","images/bed5.png","","","memory_trial","1","definitely_old",""
"html-keyboard-response","63","218374","0.0-18.0-0.10","6253","approach_avoid_sv1","""event"",""trial"",""time""
""fullscreenenter"",""1"",""3533""
","
","
","""event"",""trial"",""time""
""fullscreenenter"",""1"",""3533""
","
","","","","","","null","<div style=""font-size:60px;"">+</div>","null","","fixation","","",""
"memory-trial","64","220102","0.0-18.0-1.10","6253","approach_avoid_sv1","""event"",""trial"",""time""
""fullscreenenter"",""1"",""3533""
","
","
","""event"",""trial"",""time""
""fullscreenenter"",""1"",""3533""
","
","","","","","","723.2000000476837","images/rodent1.png","","","memory_trial","1","definitely_old",""
"html-keyboard-response","65","220607","0.0-18.0-0.11","6253","approach_avoid_sv1","""event"",""trial"",""time""
""fullscreenenter"",""1"",""3533""
","
","
","""event"",""trial"",""time""
""fullscreenenter"",""1"",""3533""
","
","","","","","","null","<div style=""font-size:60px;"">+</div>","null","","fixation","","",""
"memory-trial","66","222358","0.0-18.0-1.11","6253","approach_avoid_sv1","""event"",""trial"",""time""
""fullscreenenter"",""1"",""3533""
","
","
","""event"",""trial"",""time""
""fullscreenenter"",""1"",""3533""
","
","","","","","","744.1999998092651","images/tree6.png","","","memory_trial","1","definitely_old",""
"html-keyboard-response","67","222862","0.0-18.0-0.12","6253","approach_avoid_sv1","""event"",""trial"",""time""
""fullscreenenter"",""1"",""3533""
","
","
","""event"",""trial"",""time""
""fullscreenenter"",""1"",""3533""
","
","","","","","","null","<div style=""font-size:60px;"">+</div>","null","","fixation","","",""
"memory-trial","68","224654","0.0-18.0-1.12","6253","approach_avoid_sv1","""event"",""trial"",""time""
""fullscreenenter"",""1"",""3533""
","
","
","""event"",""trial"",""time""
""fullscreenenter"",""1"",""3533""
","
","","","","","","784.7000000476837","images/straw2.png","","","memory_trial","1","definitely_old",""
"html-keyboard-response","69","225158","0.0-18.0-0.13","6253","approach_avoid_sv1","""event"",""trial"",""time""
""fullscreenenter"",""1"",""3533""
","
","
","""event"",""trial"",""time""
""fullscreenenter"",""1"",""3533""
","
","","","","","","null","<div style=""font-size:60px;"">+</div>","null","","fixation","","",""
"memory-trial","70","227438","0.0-18.0-1.13","6253","approach_avoid_sv1","""event"",""trial"",""time""
""fullscreenenter"",""1"",""3533""
","
","
","""event"",""trial"",""time""
""fullscreenenter"",""1"",""3533""
","
","","","","","","1270.7000000476837","images/cactus4.png","","","memory_trial","4","definitely_new",""
"html-keyboard-response","71","227943","0.0-18.0-0.14","6253","approach_avoid_sv1","""event"",""trial"",""time""
""fullscreenenter"",""1"",""3533""
","
","
","""event"",""trial"",""time""
""fullscreenenter"",""1"",""3533""
","
","","","","","","null","<div style=""font-size:60px;"">+</div>","null","","fixation","","",""
"memory-trial","72","230734","0.0-18.0-1.14","6253","approach_avoid_sv1","""event"",""trial"",""time""
""fullscreenenter"",""1"",""3533""
","
","
","""event"",""trial"",""time""
""fullscreenenter"",""1"",""3533""
","
","","","","","","1788.9000000953674","images/dog8.png","","","memory_trial","3","maybe_new",""
"html-keyboard-response","73","231238","0.0-18.0-0.15","6253","approach_avoid_sv1","""event"",""trial"",""time""
""fullscreenenter"",""1"",""3533""
","
","
","""event"",""trial"",""time""
""fullscreenenter"",""1"",""3533""
","
","","","","","","null","<div style=""font-size:60px;"">+</div>","null","","fixation","","",""
"memory-trial","74","233527","0.0-18.0-1.15","6253","approach_avoid_sv1","""event"",""trial"",""time""
""fullscreenenter"",""1"",""3533""
","
","
","""event"",""trial"",""time""
""fullscreenenter"",""1"",""3533""
","
","","","","","","1277.8999998569489","images/dog5.png","","","memory_trial","1","definitely_old",""
"html-keyboard-response","75","234030","0.0-18.0-0.16","6253","approach_avoid_sv1","""event"",""trial"",""time""
""fullscreenenter"",""1"",""3533""
","
","
","""event"",""trial"",""time""
""fullscreenenter"",""1"",""3533""
","
","","","","","","null","<div style=""font-size:60px;"">+</div>","null","","fixation","","",""
"memory-trial","76","236196","0.0-18.0-1.16","6253","approach_avoid_sv1","""event"",""trial"",""time""
""fullscreenenter"",""1"",""3533""
","
","
","""event"",""trial"",""time""
""fullscreenenter"",""1"",""3533""
","
","","","","","","1151.2000000476837","images/orange6.png","","","memory_trial","1","definitely_old",""
"html-keyboard-response","77","236702","0.0-18.0-0.17","6253","approach_avoid_sv1","""event"",""trial"",""time""
""fullscreenenter"",""1"",""3533""
","
","
","""event"",""trial"",""time""
""fullscreenenter"",""1"",""3533""
","
","","","","","","null","<div style=""font-size:60px;"">+</div>","null","","fixation","","",""
"memory-trial","78","239638","0.0-18.0-1.17","6253","approach_avoid_sv1","""event"",""trial"",""time""
""fullscreenenter"",""1"",""3533""
","
","
","""event"",""trial"",""time""
""fullscreenenter"",""1"",""3533""
","
","","","","","","1926.9000000953674","images/goat8.png","","","memory_trial","2","maybe_old",""
"html-keyboard-response","79","240143","0.0-18.0-0.18","6253","approach_avoid_sv1","""event"",""trial"",""time""
""fullscreenenter"",""1"",""3533""
","
","
","""event"",""trial"",""time""
""fullscreenenter"",""1"",""3533""
","
","","","","","","null","<div style=""font-size:60px;"">+</div>","null","","fixation","","",""
"memory-trial","80","242656","0.0-18.0-1.18","6253","approach_avoid_sv1","""event"",""trial"",""time""
""fullscreenenter"",""1"",""3533""
","
","
","""event"",""trial"",""time""
""fullscreenenter"",""1"",""3533""
","
","","","","","","1505.7000000476837","images/truck7.png","","","memory_trial","2","maybe_old",""
"html-keyboard-response","81","243158","0.0-18.0-0.19","6253","approach_avoid_sv1","""event"",""trial"",""time""
""fullscreenenter"",""1"",""3533""
","
","
","""event"",""trial"",""time""
""fullscreenenter"",""1"",""3533""
","
","","","","","","null","<div style=""font-size:60px;"">+</div>","null","","fixation","","",""
"memory-trial","82","245406","0.0-18.0-1.19","6253","approach_avoid_sv1","""event"",""trial"",""time""
""fullscreenenter"",""1"",""3533""
","
","
","""event"",""trial"",""time""
""fullscreenenter"",""1"",""3533""
","
","","","","","","1244.8000001907349","images/table4.png","","","memory_trial","1","definitely_old",""
"html-keyboard-response","83","245911","0.0-18.0-0.20","6253","approach_avoid_sv1","""event"",""trial"",""time""
""fullscreenenter"",""1"",""3533""
","
","
","""event"",""trial"",""time""
""fullscreenenter"",""1"",""3533""
","
","","","","","","null","<div style=""font-size:60px;"">+</div>","null","","fixation","","",""
"memory-trial","84","248294","0.0-18.0-1.20","6253","approach_avoid_sv1","""event"",""trial"",""time""
""fullscreenenter"",""1"",""3533""
","
","
","""event"",""trial"",""time""
""fullscreenenter"",""1"",""3533""
","
","","","","","","1380.3999998569489","images/sheep8.png","","","memory_trial","2","maybe_old",""
"html-keyboard-response","85","248799","0.0-18.0-0.21","6253","approach_avoid_sv1","""event"",""trial"",""time""
""fullscreenenter"",""1"",""3533""
","
","
","""event"",""trial"",""time""
""fullscreenenter"",""1"",""3533""
","
","","","","","","null","<div style=""font-size:60px;"">+</div>","null","","fixation","","",""
"memory-trial","86","251087","0.0-18.0-1.21","6253","approach_avoid_sv1","""event"",""trial"",""time""
""fullscreenenter"",""1"",""3533""
","
","
","""event"",""trial"",""time""
""fullscreenenter"",""1"",""3533""
","
","","","","","","1277.7999999523163","images/boat1.png","","","memory_trial","4","definitely_new",""
"html-keyboard-response","87","251590","0.0-18.0-0.22","6253","approach_avoid_sv1","""event"",""trial"",""time""
""fullscreenenter"",""1"",""3533""
","
","
","""event"",""trial"",""time""
""fullscreenenter"",""1"",""3533""
","
","","","","","","null","<div style=""font-size:60px;"">+</div>","null","","fixation","","",""
"memory-trial","88","253526","0.0-18.0-1.22","6253","approach_avoid_sv1","""event"",""trial"",""time""
""fullscreenenter"",""1"",""3533""
","
","
","""event"",""trial"",""time""
""fullscreenenter"",""1"",""3533""
","
","","","","","","927.4000000953674","images/train8.png","","","memory_trial","1","definitely_old",""
"html-keyboard-response","89","254030","0.0-18.0-0.23","6253","approach_avoid_sv1","""event"",""trial"",""time""
""fullscreenenter"",""1"",""3533""
","
","
","""event"",""trial"",""time""
""fullscreenenter"",""1"",""3533""
","
","","","","","","null","<div style=""font-size:60px;"">+</div>","null","","fixation","","",""
"memory-trial","90","255942","0.0-18.0-1.23","6253","approach_avoid_sv1","""event"",""trial"",""time""
""fullscreenenter"",""1"",""3533""
","
","
","""event"",""trial"",""time""
""fullscreenenter"",""1"",""3533""
","
","","","","","","907.7000000476837","images/dog6.png","","","memory_trial","1","definitely_old",""
"html-keyboard-response","91","256447","0.0-18.0-0.24","6253","approach_avoid_sv1","""event"",""trial"",""time""
""fullscreenenter"",""1"",""3533""
","
","
","""event"",""trial"",""time""
""fullscreenenter"",""1"",""3533""
","
","","","","","","null","<div style=""font-size:60px;"">+</div>","null","","fixation","","",""
"memory-trial","92","258038","0.0-18.0-1.24","6253","approach_avoid_sv1","""event"",""trial"",""time""
""fullscreenenter"",""1"",""3533""
","
","
","""event"",""trial"",""time""
""fullscreenenter"",""1"",""3533""
","
","","","","","","584.2999999523163","images/goat3.png","","","memory_trial","1","definitely_old",""
"html-keyboard-response","93","258542","0.0-18.0-0.25","6253","approach_avoid_sv1","""event"",""trial"",""time""
""fullscreenenter"",""1"",""3533""
","
","
","""event"",""trial"",""time""
""fullscreenenter"",""1"",""3533""
","
","","","","","","null","<div style=""font-size:60px;"">+</div>","null","","fixation","","",""
"memory-trial","94","261198","0.0-18.0-1.25","6253","approach_avoid_sv1","""event"",""trial"",""time""
""fullscreenenter"",""1"",""3533""
","
","
","""event"",""trial"",""time""
""fullscreenenter"",""1"",""3533""
","
","","","","","","1652.2000000476837","images/bed6.png","","","memory_trial","3","maybe_new",""
"html-keyboard-response","95","261702","0.0-18.0-0.26","6253","approach_avoid_sv1","""event"",""trial"",""time""
""fullscreenenter"",""1"",""3533""
","
","
","""event"",""trial"",""time""
""fullscreenenter"",""1"",""3533""
","
","","","","","","null","<div style=""font-size:60px;"">+</div>","null","","fixation","","",""
"memory-trial","96","263471","0.0-18.0-1.26","6253","approach_avoid_sv1","""event"",""trial"",""time""
""fullscreenenter"",""1"",""3533""
","
","
","""event"",""trial"",""time""
""fullscreenenter"",""1"",""3533""
","
","","","","","","761.8999998569489","images/truck8.png","","","memory_trial","1","definitely_old",""
"html-keyboard-response","97","263974","0.0-18.0-0.27","6253","approach_avoid_sv1","""event"",""trial"",""time""
""fullscreenenter"",""1"",""3533""
","
","
","""event"",""trial"",""time""
""fullscreenenter"",""1"",""3533""
","
","","","","","","null","<div style=""font-size:60px;"">+</div>","null","","fixation","","",""
"memory-trial","98","266591","0.0-18.0-1.27","6253","approach_avoid_sv1","""event"",""trial"",""time""
""fullscreenenter"",""1"",""3533""
","
","
","""event"",""trial"",""time""
""fullscreenenter"",""1"",""3533""
","
","","","","","","1610.2000000476837","images/cat4.png","","","memory_trial","3","maybe_new",""
"html-keyboard-response","99","267095","0.0-18.0-0.28","6253","approach_avoid_sv1","""event"",""trial"",""time""
""fullscreenenter"",""1"",""3533""
","
","
","""event"",""trial"",""time""
""fullscreenenter"",""1"",""3533""
","
","","","","","","null","<div style=""font-size:60px;"">+</div>","null","","fixation","","",""
"memory-trial","100","268757","0.0-18.0-1.28","6253","approach_avoid_sv1","""event"",""trial"",""time""
""fullscreenenter"",""1"",""3533""
","
","
","""event"",""trial"",""time""
""fullscreenenter"",""1"",""3533""
","
","","","","","","638.5999999046326","images/orange5.png","","","memory_trial","1","definitely_old",""
"html-keyboard-response","101","269262","0.0-18.0-0.29","6253","approach_avoid_sv1","""event"",""trial"",""time""
""fullscreenenter"",""1"",""3533""
","
","
","""event"",""trial"",""time""
""fullscreenenter"",""1"",""3533""
","
","","","","","","null","<div style=""font-size:60px;"">+</div>","null","","fixation","","",""
"memory-trial","102","272086","0.0-18.0-1.29","6253","approach_avoid_sv1","""event"",""trial"",""time""
""fullscreenenter"",""1"",""3533""
","
","
","""event"",""trial"",""time""
""fullscreenenter"",""1"",""3533""
","
","","","","","","1820.3999998569489","images/orange3.png","","","memory_trial","2","maybe_old",""
"html-keyboard-response","103","272590","0.0-18.0-0.30","6253","approach_avoid_sv1","""event"",""trial"",""time""
""fullscreenenter"",""1"",""3533""
","
","
","""event"",""trial"",""time""
""fullscreenenter"",""1"",""3533""
","
","","","","","","null","<div style=""font-size:60px;"">+</div>","null","","fixation","","",""
"memory-trial","104","274471","0.0-18.0-1.30","6253","approach_avoid_sv1","""event"",""trial"",""time""
""fullscreenenter"",""1"",""3533""
","
","
","""event"",""trial"",""time""
""fullscreenenter"",""1"",""3533""
","
","","","","","","871.1000001430511","images/boat5.png","","","memory_trial","4","definitely_new",""
"html-keyboard-response","105","274975","0.0-18.0-0.31","6253","approach_avoid_sv1","""event"",""trial"",""time""
""fullscreenenter"",""1"",""3533""
","
","
","""event"",""trial"",""time""
""fullscreenenter"",""1"",""3533""
","
","","","","","","null","<div style=""font-size:60px;"">+</div>","null","","fixation","","",""
"memory-trial","106","277094","0.0-18.0-1.31","6253","approach_avoid_sv1","""event"",""trial"",""time""
""fullscreenenter"",""1"",""3533""
","
","
","""event"",""trial"",""time""
""fullscreenenter"",""1"",""3533""
","
","","","","","","1112.8999998569489","images/plane7.png","","","memory_trial","4","definitely_new",""
"html-keyboard-response","107","277598","0.0-18.0-0.32","6253","approach_avoid_sv1","""event"",""trial"",""time""
""fullscreenenter"",""1"",""3533""
","
","
","""event"",""trial"",""time""
""fullscreenenter"",""1"",""3533""
","
","","","","","","null","<div style=""font-size:60px;"">+</div>","null","","fixation","","",""
"memory-trial","108","279550","0.0-18.0-1.32","6253","approach_avoid_sv1","""event"",""trial"",""time""
""fullscreenenter"",""1"",""3533""
","
","
","""event"",""trial"",""time""
""fullscreenenter"",""1"",""3533""
","
","","","","","","947","images/goat5.png","","","memory_trial","1","definitely_old",""
"html-keyboard-response","109","280054","0.0-18.0-0.33","6253","approach_avoid_sv1","""event"",""trial"",""time""
""fullscreenenter"",""1"",""3533""
","
","
","""event"",""trial"",""time""
""fullscreenenter"",""1"",""3533""
","
","","","","","","null","<div style=""font-size:60px;"">+</div>","null","","fixation","","",""
"memory-trial","110","282462","0.0-18.0-1.33","6253","approach_avoid_sv1","""event"",""trial"",""time""
""fullscreenenter"",""1"",""3533""
","
","
","""event"",""trial"",""time""
""fullscreenenter"",""1"",""3533""
","
","","","","","","1405.5999999046326","images/chair5.png","","","memory_trial","2","maybe_old",""
"html-keyboard-response","111","282967","0.0-18.0-0.34","6253","approach_avoid_sv1","""event"",""trial"",""time""
""fullscreenenter"",""1"",""3533""
","
","
","""event"",""trial"",""time""
""fullscreenenter"",""1"",""3533""
","
","","","","","","null","<div style=""font-size:60px;"">+</div>","null","","fixation","","",""
"memory-trial","112","285391","0.0-18.0-1.34","6253","approach_avoid_sv1","""event"",""trial"",""time""
""fullscreenenter"",""1"",""3533""
","
","
","""event"",""trial"",""time""
""fullscreenenter"",""1"",""3533""
","
","","","","","","1414.8000001907349","images/sofa6.png","","","memory_trial","4","definitely_new",""
"html-keyboard-response","113","285895","0.0-18.0-0.35","6253","approach_avoid_sv1","""event"",""trial"",""time""
""fullscreenenter"",""1"",""3533""
","
","
","""event"",""trial"",""time""
""fullscreenenter"",""1"",""3533""
","
","","","","","","null","<div style=""font-size:60px;"">+</div>","null","","fixation","","",""
"memory-trial","114","288679","0.0-18.0-1.35","6253","approach_avoid_sv1","""event"",""trial"",""time""
""fullscreenenter"",""1"",""3533""
","
","
","""event"",""trial"",""time""
""fullscreenenter"",""1"",""3533""
","
","","","","","","1778.0999999046326","images/sheep1.png","","","memory_trial","2","maybe_old",""
"html-keyboard-response","115","289182","0.0-18.0-0.36","6253","approach_avoid_sv1","""event"",""trial"",""time""
""fullscreenenter"",""1"",""3533""
","
","
","""event"",""trial"",""time""
""fullscreenenter"",""1"",""3533""
","
","","","","","","null","<div style=""font-size:60px;"">+</div>","null","","fixation","","",""
"memory-trial","116","291558","0.0-18.0-1.36","6253","approach_avoid_sv1","""event"",""trial"",""time""
""fullscreenenter"",""1"",""3533""
","
","
","""event"",""trial"",""time""
""fullscreenenter"",""1"",""3533""
","
","","","","","","1368.6000001430511","images/horse1.png","","","memory_trial","4","definitely_new",""
"html-keyboard-response","117","292062","0.0-18.0-0.37","6253","approach_avoid_sv1","""event"",""trial"",""time""
""fullscreenenter"",""1"",""3533""
","
","
","""event"",""trial"",""time""
""fullscreenenter"",""1"",""3533""
","
","","","","","","null","<div style=""font-size:60px;"">+</div>","null","","fixation","","",""
"memory-trial","118","293919","0.0-18.0-1.37","6253","approach_avoid_sv1","""event"",""trial"",""time""
""fullscreenenter"",""1"",""3533""
","
","
","""event"",""trial"",""time""
""fullscreenenter"",""1"",""3533""
","
","","","","","","854","images/cat5.png","","","memory_trial","4","definitely_new",""
"html-keyboard-response","119","294422","0.0-18.0-0.38","6253","approach_avoid_sv1","""event"",""trial"",""time""
""fullscreenenter"",""1"",""3533""
","
","
","""event"",""trial"",""time""
""fullscreenenter"",""1"",""3533""
","
","","","","","","null","<div style=""font-size:60px;"">+</div>","null","","fixation","","",""
"memory-trial","120","296983","0.0-18.0-1.38","6253","approach_avoid_sv1","""event"",""trial"",""time""
""fullscreenenter"",""1"",""3533""
","
","
","""event"",""trial"",""time""
""fullscreenenter"",""1"",""3533""
","
","","","","","","1554.0999999046326","images/table7.png","","","memory_trial","1","definitely_old",""
"html-keyboard-response","121","297487","0.0-18.0-0.39","6253","approach_avoid_sv1","""event"",""trial"",""time""
""fullscreenenter"",""1"",""3533""
","
","
","""event"",""trial"",""time""
""fullscreenenter"",""1"",""3533""
","
","","","","","","null","<div style=""font-size:60px;"">+</div>","null","","fixation","","",""
"memory-trial","122","299958","0.0-18.0-1.39","6253","approach_avoid_sv1","""event"",""trial"",""time""
""fullscreenenter"",""1"",""3533""
","
","
","""event"",""trial"",""time""
""fullscreenenter"",""1"",""3533""
","
","","","","","","1467","images/chair2.png","","","memory_trial","2","maybe_old",""
"html-keyboard-response","123","300463","0.0-18.0-0.40","6253","approach_avoid_sv1","""event"",""trial"",""time""
""fullscreenenter"",""1"",""3533""
","
","
","""event"",""trial"",""time""
""fullscreenenter"",""1"",""3533""
","
","","","","","","null","<div style=""font-size:60px;"">+</div>","null","","fixation","","",""
"memory-trial","124","303014","0.0-18.0-1.40","6253","approach_avoid_sv1","""event"",""trial"",""time""
""fullscreenenter"",""1"",""3533""
","
","
","""event"",""trial"",""time""
""fullscreenenter"",""1"",""3533""
","
","","","","","","1546.9000000953674","images/table2.png","","","memory_trial","4","definitely_new",""
"html-keyboard-response","125","303518","0.0-18.0-0.41","6253","approach_avoid_sv1","""event"",""trial"",""time""
""fullscreenenter"",""1"",""3533""
","
","
","""event"",""trial"",""time""
""fullscreenenter"",""1"",""3533""
","
","","","","","","null","<div style=""font-size:60px;"">+</div>","null","","fixation","","",""
"memory-trial","126","305470","0.0-18.0-1.41","6253","approach_avoid_sv1","""event"",""trial"",""time""
""fullscreenenter"",""1"",""3533""
","
","
","""event"",""trial"",""time""
""fullscreenenter"",""1"",""3533""
","
","","","","","","942.0999999046326","images/cat8.png","","","memory_trial","4","definitely_new",""
"html-button-response","127","311815","0.0-18.0-2.41-0.41","6253","approach_avoid_sv1","""event"",""trial"",""time""
""fullscreenenter"",""1"",""3533""
","
","
","""event"",""trial"",""time""
""fullscreenenter"",""1"",""3533""
","
","","","","","","6343.799999952316","<p> Take a break! </p><p> Click the button to continue. </p>","0","","break","","",""
"html-keyboard-response","128","312318","0.0-18.0-0.42","6253","approach_avoid_sv1","""event"",""trial"",""time""
""fullscreenenter"",""1"",""3533""
","
","
","""event"",""trial"",""time""
""fullscreenenter"",""1"",""3533""
","
","","","","","","null","<div style=""font-size:60px;"">+</div>","null","","fixation","","",""
"memory-trial","129","314398","0.0-18.0-1.42","6253","approach_avoid_sv1","""event"",""trial"",""time""
""fullscreenenter"",""1"",""3533""
","
","
","""event"",""trial"",""time""
""fullscreenenter"",""1"",""3533""
","
","","","","","","1076.4000000953674","images/bush7.png","","","memory_trial","1","definitely_old",""
"html-keyboard-response","130","314902","0.0-18.0-0.43","6253","approach_avoid_sv1","""event"",""trial"",""time""
""fullscreenenter"",""1"",""3533""
","
","
","""event"",""trial"",""time""
""fullscreenenter"",""1"",""3533""
","
","","","","","","null","<div style=""font-size:60px;"">+</div>","null","","fixation","","",""
"memory-trial","131","317142","0.0-18.0-1.43","6253","approach_avoid_sv1","""event"",""trial"",""time""
""fullscreenenter"",""1"",""3533""
","
","
","""event"",""trial"",""time""
""fullscreenenter"",""1"",""3533""
","
","","","","","","1231.7999999523163","images/plane3.png","","","memory_trial","2","maybe_old",""
"html-keyboard-response","132","317651","0.0-18.0-0.44","6253","approach_avoid_sv1","""event"",""trial"",""time""
""fullscreenenter"",""1"",""3533""
","
","
","""event"",""trial"",""time""
""fullscreenenter"",""1"",""3533""
","
","","","","","","null","<div style=""font-size:60px;"">+</div>","null","","fixation","","",""
"memory-trial","133","320312","0.0-18.0-1.44","6253","approach_avoid_sv1","""event"",""trial"",""time""
""fullscreenenter"",""1"",""3533""
","
","
","""event"",""trial"",""time""
""fullscreenenter"",""1"",""3533""
","
","","","","","","1649.5999999046326","images/chair6.png","","","memory_trial","4","definitely_new",""
"html-keyboard-response","134","320815","0.0-18.0-0.45","6253","approach_avoid_sv1","""event"",""trial"",""time""
""fullscreenenter"",""1"",""3533""
","
","
","""event"",""trial"",""time""
""fullscreenenter"",""1"",""3533""
","
","","","","","","null","<div style=""font-size:60px;"">+</div>","null","","fixation","","",""
"memory-trial","135","323319","0.0-18.0-1.45","6253","approach_avoid_sv1","""event"",""trial"",""time""
""fullscreenenter"",""1"",""3533""
","
","
","""event"",""trial"",""time""
""fullscreenenter"",""1"",""3533""
","
","","","","","","1496.2999999523163","images/plane8.png","","","memory_trial","1","definitely_old",""
"html-keyboard-response","136","323822","0.0-18.0-0.46","6253","approach_avoid_sv1","""event"",""trial"",""time""
""fullscreenenter"",""1"",""3533""
","
","
","""event"",""trial"",""time""
""fullscreenenter"",""1"",""3533""
","
","","","","","","null","<div style=""font-size:60px;"">+</div>","null","","fixation","","",""
"memory-trial","137","325686","0.0-18.0-1.46","6253","approach_avoid_sv1","""event"",""trial"",""time""
""fullscreenenter"",""1"",""3533""
","
","
","""event"",""trial"",""time""
""fullscreenenter"",""1"",""3533""
","
","","","","","","855.8999998569489","images/goat7.png","","","memory_trial","1","definitely_old",""
"html-keyboard-response","138","326190","0.0-18.0-0.47","6253","approach_avoid_sv1","""event"",""trial"",""time""
""fullscreenenter"",""1"",""3533""
","
","
","""event"",""trial"",""time""
""fullscreenenter"",""1"",""3533""
","
","","","","","","null","<div style=""font-size:60px;"">+</div>","null","","fixation","","",""
"memory-trial","139","328518","0.0-18.0-1.47","6253","approach_avoid_sv1","""event"",""trial"",""time""
""fullscreenenter"",""1"",""3533""
","
","
","""event"",""trial"",""time""
""fullscreenenter"",""1"",""3533""
","
","","","","","","1325","images/rabbit6.png","","","memory_trial","2","maybe_old",""
"html-keyboard-response","140","329022","0.0-18.0-0.48","6253","approach_avoid_sv1","""event"",""trial"",""time""
""fullscreenenter"",""1"",""3533""
","
","
","""event"",""trial"",""time""
""fullscreenenter"",""1"",""3533""
","
","","","","","","null","<div style=""font-size:60px;"">+</div>","null","","fixation","","",""
"memory-trial","141","332374","0.0-18.0-1.48","6253","approach_avoid_sv1","""event"",""trial"",""time""
""fullscreenenter"",""1"",""3533""
","
","
","""event"",""trial"",""time""
""fullscreenenter"",""1"",""3533""
","
","","","","","","2346.2999999523163","images/apple1.png","","","memory_trial","2","maybe_old",""
"html-keyboard-response","142","332878","0.0-18.0-0.49","6253","approach_avoid_sv1","""event"",""trial"",""time""
""fullscreenenter"",""1"",""3533""
","
","
","""event"",""trial"",""time""
""fullscreenenter"",""1"",""3533""
","
","","","","","","null","<div style=""font-size:60px;"">+</div>","null","","fixation","","",""
"memory-trial","143","335263","0.0-18.0-1.49","6253","approach_avoid_sv1","""event"",""trial"",""time""
""fullscreenenter"",""1"",""3533""
","
","
","""event"",""trial"",""time""
""fullscreenenter"",""1"",""3533""
","
","","","","","","1377.5","images/train2.png","","","memory_trial","3","maybe_new",""
"html-keyboard-response","144","335766","0.0-18.0-0.50","6253","approach_avoid_sv1","""event"",""trial"",""time""
""fullscreenenter"",""1"",""3533""
","
","
","""event"",""trial"",""time""
""fullscreenenter"",""1"",""3533""
","
","","","","","","null","<div style=""font-size:60px;"">+</div>","null","","fixation","","",""
"memory-trial","145","337878","0.0-18.0-1.50","6253","approach_avoid_sv1","""event"",""trial"",""time""
""fullscreenenter"",""1"",""3533""
","
","
","""event"",""trial"",""time""
""fullscreenenter"",""1"",""3533""
","
","","","","","","1106","images/cat7.png","","","memory_trial","4","definitely_new",""
"html-keyboard-response","146","338382","0.0-18.0-0.51","6253","approach_avoid_sv1","""event"",""trial"",""time""
""fullscreenenter"",""1"",""3533""
","
","
","""event"",""trial"",""time""
""fullscreenenter"",""1"",""3533""
","
","","","","","","null","<div style=""font-size:60px;"">+</div>","null","","fixation","","",""
"memory-trial","147","340270","0.0-18.0-1.51","6253","approach_avoid_sv1","""event"",""trial"",""time""
""fullscreenenter"",""1"",""3533""
","
","
","""event"",""trial"",""time""
""fullscreenenter"",""1"",""3533""
","
","","","","","","884","images/rabbit5.png","","","memory_trial","1","definitely_old",""
"html-keyboard-response","148","340774","0.0-18.0-0.52","6253","approach_avoid_sv1","""event"",""trial"",""time""
""fullscreenenter"",""1"",""3533""
","
","
","""event"",""trial"",""time""
""fullscreenenter"",""1"",""3533""
","
","","","","","","null","<div style=""font-size:60px;"">+</div>","null","","fixation","","",""
"memory-trial","149","343542","0.0-18.0-1.52","6253","approach_avoid_sv1","""event"",""trial"",""time""
""fullscreenenter"",""1"",""3533""
","
","
","""event"",""trial"",""time""
""fullscreenenter"",""1"",""3533""
","
","","","","","","1761.0999999046326","images/banana4.png","","","memory_trial","3","maybe_new",""
"html-keyboard-response","150","344046","0.0-18.0-0.53","6253","approach_avoid_sv1","""event"",""trial"",""time""
""fullscreenenter"",""1"",""3533""
","
","
","""event"",""trial"",""time""
""fullscreenenter"",""1"",""3533""
","
","","","","","","null","<div style=""font-size:60px;"">+</div>","null","","fixation","","",""
"memory-trial","151","346231","0.0-18.0-1.53","6253","approach_avoid_sv1","""event"",""trial"",""time""
""fullscreenenter"",""1"",""3533""
","
","
","""event"",""trial"",""time""
""fullscreenenter"",""1"",""3533""
","
","","","","","","1174.0999999046326","images/horse3.png","","","memory_trial","4","definitely_new",""
"html-keyboard-response","152","346733","0.0-18.0-0.54","6253","approach_avoid_sv1","""event"",""trial"",""time""
""fullscreenenter"",""1"",""3533""
","
","
","""event"",""trial"",""time""
""fullscreenenter"",""1"",""3533""
","
","","","","","","null","<div style=""font-size:60px;"">+</div>","null","","fixation","","",""
"memory-trial","153","349639","0.0-18.0-1.54","6253","approach_avoid_sv1","""event"",""trial"",""time""
""fullscreenenter"",""1"",""3533""
","
","
","""event"",""trial"",""time""
""fullscreenenter"",""1"",""3533""
","
","","","","","","1894.7000000476837","images/bed7.png","","","memory_trial","3","maybe_new",""
"html-keyboard-response","154","350142","0.0-18.0-0.55","6253","approach_avoid_sv1","""event"",""trial"",""time""
""fullscreenenter"",""1"",""3533""
","
","
","""event"",""trial"",""time""
""fullscreenenter"",""1"",""3533""
","
","","","","","","null","<div style=""font-size:60px;"">+</div>","null","","fixation","","",""
"memory-trial","155","352671","0.0-18.0-1.55","6253","approach_avoid_sv1","""event"",""trial"",""time""
""fullscreenenter"",""1"",""3533""
","
","
","""event"",""trial"",""time""
""fullscreenenter"",""1"",""3533""
","
","","","","","","1524.8000001907349","images/cow4.png","","","memory_trial","2","maybe_old",""
"html-keyboard-response","156","353174","0.0-18.0-0.56","6253","approach_avoid_sv1","""event"",""trial"",""time""
""fullscreenenter"",""1"",""3533""
","
","
","""event"",""trial"",""time""
""fullscreenenter"",""1"",""3533""
","
","","","","","","null","<div style=""font-size:60px;"">+</div>","null","","fixation","","",""
"memory-trial","157","355471","0.0-18.0-1.56","6253","approach_avoid_sv1","""event"",""trial"",""time""
""fullscreenenter"",""1"",""3533""
","
","
","""event"",""trial"",""time""
""fullscreenenter"",""1"",""3533""
","
","","","","","","1292.6999998092651","images/flower8.png","","","memory_trial","1","definitely_old",""
"html-keyboard-response","158","355974","0.0-18.0-0.57","6253","approach_avoid_sv1","""event"",""trial"",""time""
""fullscreenenter"",""1"",""3533""
","
","
","""event"",""trial"",""time""
""fullscreenenter"",""1"",""3533""
","
","","","","","","null","<div style=""font-size:60px;"">+</div>","null","","fixation","","",""
"memory-trial","159","357783","0.0-18.0-1.57","6253","approach_avoid_sv1","""event"",""trial"",""time""
""fullscreenenter"",""1"",""3533""
","
","
","""event"",""trial"",""time""
""fullscreenenter"",""1"",""3533""
","
","","","","","","802.2999999523163","images/apple7.png","","","memory_trial","1","definitely_old",""
"html-keyboard-response","160","358286","0.0-18.0-0.58","6253","approach_avoid_sv1","""event"",""trial"",""time""
""fullscreenenter"",""1"",""3533""
","
","
","""event"",""trial"",""time""
""fullscreenenter"",""1"",""3533""
","
","","","","","","null","<div style=""font-size:60px;"">+</div>","null","","fixation","","",""
"memory-trial","161","359984","0.0-18.0-1.58","6253","approach_avoid_sv1","""event"",""trial"",""time""
""fullscreenenter"",""1"",""3533""
","
","
","""event"",""trial"",""time""
""fullscreenenter"",""1"",""3533""
","
","","","","","","691.9000000953674","images/flower6.png","","","memory_trial","1","definitely_old",""
"html-keyboard-response","162","360486","0.0-18.0-0.59","6253","approach_avoid_sv1","""event"",""trial"",""time""
""fullscreenenter"",""1"",""3533""
","
","
","""event"",""trial"",""time""
""fullscreenenter"",""1"",""3533""
","
","","","","","","null","<div style=""font-size:60px;"">+</div>","null","","fixation","","",""
"memory-trial","163","362882","0.0-18.0-1.59","6253","approach_avoid_sv1","""event"",""trial"",""time""
""fullscreenenter"",""1"",""3533""
","
","
","""event"",""trial"",""time""
""fullscreenenter"",""1"",""3533""
","
","","","","","","1382.4000000953674","images/flower7.png","","","memory_trial","3","maybe_new",""
"html-keyboard-response","164","363390","0.0-18.0-0.60","6253","approach_avoid_sv1","""event"",""trial"",""time""
""fullscreenenter"",""1"",""3533""
","
","
","""event"",""trial"",""time""
""fullscreenenter"",""1"",""3533""
","
","","","","","","null","<div style=""font-size:60px;"">+</div>","null","","fixation","","",""
"memory-trial","165","365918","0.0-18.0-1.60","6253","approach_avoid_sv1","""event"",""trial"",""time""
""fullscreenenter"",""1"",""3533""
","
","
","""event"",""trial"",""time""
""fullscreenenter"",""1"",""3533""
","
","","","","","","1522.7999999523163","images/table1.png","","","memory_trial","4","definitely_new",""
"html-keyboard-response","166","366422","0.0-18.0-0.61","6253","approach_avoid_sv1","""event"",""trial"",""time""
""fullscreenenter"",""1"",""3533""
","
","
","""event"",""trial"",""time""
""fullscreenenter"",""1"",""3533""
","
","","","","","","null","<div style=""font-size:60px;"">+</div>","null","","fixation","","",""
"memory-trial","167","368959","0.0-18.0-1.61","6253","approach_avoid_sv1","""event"",""trial"",""time""
""fullscreenenter"",""1"",""3533""
","
","
","""event"",""trial"",""time""
""fullscreenenter"",""1"",""3533""
","
","","","","","","1529.7000000476837","images/rodent3.png","","","memory_trial","1","definitely_old",""
"html-keyboard-response","168","369462","0.0-18.0-0.62","6253","approach_avoid_sv1","""event"",""trial"",""time""
""fullscreenenter"",""1"",""3533""
","
","
","""event"",""trial"",""time""
""fullscreenenter"",""1"",""3533""
","
","","","","","","null","<div style=""font-size:60px;"">+</div>","null","","fixation","","",""
"memory-trial","169","371663","0.0-18.0-1.62","6253","approach_avoid_sv1","""event"",""trial"",""time""
""fullscreenenter"",""1"",""3533""
","
","
","""event"",""trial"",""time""
""fullscreenenter"",""1"",""3533""
","
","","","","","","1195.5","images/table8.png","","","memory_trial","3","maybe_new",""
"html-keyboard-response","170","372166","0.0-18.0-0.63","6253","approach_avoid_sv1","""event"",""trial"",""time""
""fullscreenenter"",""1"",""3533""
","
","
","""event"",""trial"",""time""
""fullscreenenter"",""1"",""3533""
","
","","","","","","null","<div style=""font-size:60px;"">+</div>","null","","fixation","","",""
"memory-trial","171","374039","0.0-18.0-1.63","6253","approach_avoid_sv1","""event"",""trial"",""time""
""fullscreenenter"",""1"",""3533""
","
","
","""event"",""trial"",""time""
""fullscreenenter"",""1"",""3533""
","
","","","","","","865.1000001430511","images/chair7.png","","","memory_trial","3","maybe_new",""
"html-keyboard-response","172","374543","0.0-18.0-0.64","6253","approach_avoid_sv1","""event"",""trial"",""time""
""fullscreenenter"",""1"",""3533""
","
","
","""event"",""trial"",""time""
""fullscreenenter"",""1"",""3533""
","
","","","","","","null","<div style=""font-size:60px;"">+</div>","null","","fixation","","",""
"memory-trial","173","376478","0.0-18.0-1.64","6253","approach_avoid_sv1","""event"",""trial"",""time""
""fullscreenenter"",""1"",""3533""
","
","
","""event"",""trial"",""time""
""fullscreenenter"",""1"",""3533""
","
","","","","","","926.5","images/banana1.png","","","memory_trial","3","maybe_new",""
"html-keyboard-response","174","376982","0.0-18.0-0.65","6253","approach_avoid_sv1","""event"",""trial"",""time""
""fullscreenenter"",""1"",""3533""
","
","
","""event"",""trial"",""time""
""fullscreenenter"",""1"",""3533""
","
","","","","","","null","<div style=""font-size:60px;"">+</div>","null","","fixation","","",""
"memory-trial","175","379031","0.0-18.0-1.65","6253","approach_avoid_sv1","""event"",""trial"",""time""
""fullscreenenter"",""1"",""3533""
","
","
","""event"",""trial"",""time""
""fullscreenenter"",""1"",""3533""
","
","","","","","","1038.8999998569489","images/boat8.png","","","memory_trial","4","definitely_new",""
"html-keyboard-response","176","379534","0.0-18.0-0.66","6253","approach_avoid_sv1","""event"",""trial"",""time""
""fullscreenenter"",""1"",""3533""
","
","
","""event"",""trial"",""time""
""fullscreenenter"",""1"",""3533""
","
","","","","","","null","<div style=""font-size:60px;"">+</div>","null","","fixation","","",""
"memory-trial","177","380694","0.0-18.0-1.66","6253","approach_avoid_sv1","""event"",""trial"",""time""
""fullscreenenter"",""1"",""3533""
","
","
","""event"",""trial"",""time""
""fullscreenenter"",""1"",""3533""
","
","","","","","","157.59999990463257","images/bush8.png","","","memory_trial","4","definitely_new",""
"html-keyboard-response","178","381199","0.0-18.0-0.67","6253","approach_avoid_sv1","""event"",""trial"",""time""
""fullscreenenter"",""1"",""3533""
","
","
","""event"",""trial"",""time""
""fullscreenenter"",""1"",""3533""
","
","","","","","","null","<div style=""font-size:60px;"">+</div>","null","","fixation","","",""
"memory-trial","179","383063","0.0-18.0-1.67","6253","approach_avoid_sv1","""event"",""trial"",""time""
""fullscreenenter"",""1"",""3533""
","
","
","""event"",""trial"",""time""
""fullscreenenter"",""1"",""3533""
","
","","","","","","861","images/cactus2.png","","","memory_trial","4","definitely_new",""
"html-keyboard-response","180","383567","0.0-18.0-0.68","6253","approach_avoid_sv1","""event"",""trial"",""time""
""fullscreenenter"",""1"",""3533""
","
","
","""event"",""trial"",""time""
""fullscreenenter"",""1"",""3533""
","
","","","","","","null","<div style=""font-size:60px;"">+</div>","null","","fixation","","",""
"memory-trial","181","385790","0.0-18.0-1.68","6253","approach_avoid_sv1","""event"",""trial"",""time""
""fullscreenenter"",""1"",""3533""
","
","
","""event"",""trial"",""time""
""fullscreenenter"",""1"",""3533""
","
","","","","","","1218.9000000953674","images/sheep4.png","","","memory_trial","2","maybe_old",""
"html-keyboard-response","182","386294","0.0-18.0-0.69","6253","approach_avoid_sv1","""event"",""trial"",""time""
""fullscreenenter"",""1"",""3533""
","
","
","""event"",""trial"",""time""
""fullscreenenter"",""1"",""3533""
","
","","","","","","null","<div style=""font-size:60px;"">+</div>","null","","fixation","","",""
"memory-trial","183","388495","0.0-18.0-1.69","6253","approach_avoid_sv1","""event"",""trial"",""time""
""fullscreenenter"",""1"",""3533""
","
","
","""event"",""trial"",""time""
""fullscreenenter"",""1"",""3533""
","
","","","","","","1191.1000001430511","images/cow6.png","","","memory_trial","3","maybe_new",""
"html-keyboard-response","184","388998","0.0-18.0-0.70","6253","approach_avoid_sv1","""event"",""trial"",""time""
""fullscreenenter"",""1"",""3533""
","
","
","""event"",""trial"",""time""
""fullscreenenter"",""1"",""3533""
","
","","","","","","null","<div style=""font-size:60px;"">+</div>","null","","fixation","","",""
"memory-trial","185","391591","0.0-18.0-1.70","6253","approach_avoid_sv1","""event"",""trial"",""time""
""fullscreenenter"",""1"",""3533""
","
","
","""event"",""trial"",""time""
""fullscreenenter"",""1"",""3533""
","
","","","","","","1582.5999999046326","images/chair8.png","","","memory_trial","2","maybe_old",""
"html-keyboard-response","186","392095","0.0-18.0-0.71","6253","approach_avoid_sv1","""event"",""trial"",""time""
""fullscreenenter"",""1"",""3533""
","
","
","""event"",""trial"",""time""
""fullscreenenter"",""1"",""3533""
","
","","","","","","null","<div style=""font-size:60px;"">+</div>","null","","fixation","","",""
"memory-trial","187","395383","0.0-18.0-1.71","6253","approach_avoid_sv1","""event"",""trial"",""time""
""fullscreenenter"",""1"",""3533""
","
","
","""event"",""trial"",""time""
""fullscreenenter"",""1"",""3533""
","
","","","","","","2278.5","images/rodent2.png","","","memory_trial","3","maybe_new",""
"html-keyboard-response","188","395886","0.0-18.0-0.72","6253","approach_avoid_sv1","""event"",""trial"",""time""
""fullscreenenter"",""1"",""3533""
","
","
","""event"",""trial"",""time""
""fullscreenenter"",""1"",""3533""
","
","","","","","","null","<div style=""font-size:60px;"">+</div>","null","","fixation","","",""
"memory-trial","189","398030","0.0-18.0-1.72","6253","approach_avoid_sv1","""event"",""trial"",""time""
""fullscreenenter"",""1"",""3533""
","
","
","""event"",""trial"",""time""
""fullscreenenter"",""1"",""3533""
","
","","","","","","1139.4000000953674","images/tree8.png","","","memory_trial","1","definitely_old",""
"html-keyboard-response","190","398534","0.0-18.0-0.73","6253","approach_avoid_sv1","""event"",""trial"",""time""
""fullscreenenter"",""1"",""3533""
","
","
","""event"",""trial"",""time""
""fullscreenenter"",""1"",""3533""
","
","","","","","","null","<div style=""font-size:60px;"">+</div>","null","","fixation","","",""
"memory-trial","191","400999","0.0-18.0-1.73","6253","approach_avoid_sv1","""event"",""trial"",""time""
""fullscreenenter"",""1"",""3533""
","
","
","""event"",""trial"",""time""
""fullscreenenter"",""1"",""3533""
","
","","","","","","1459","images/dog2.png","","","memory_trial","1","definitely_old",""
"html-keyboard-response","192","401503","0.0-18.0-0.74","6253","approach_avoid_sv1","""event"",""trial"",""time""
""fullscreenenter"",""1"",""3533""
","
","
","""event"",""trial"",""time""
""fullscreenenter"",""1"",""3533""
","
","","","","","","null","<div style=""font-size:60px;"">+</div>","null","","fixation","","",""
"memory-trial","193","404030","0.0-18.0-1.74","6253","approach_avoid_sv1","""event"",""trial"",""time""
""fullscreenenter"",""1"",""3533""
","
","
","""event"",""trial"",""time""
""fullscreenenter"",""1"",""3533""
","
","","","","","","1519","images/bed8.png","","","memory_trial","4","definitely_new",""
"html-keyboard-response","194","404535","0.0-18.0-0.75","6253","approach_avoid_sv1","""event"",""trial"",""time""
""fullscreenenter"",""1"",""3533""
","
","
","""event"",""trial"",""time""
""fullscreenenter"",""1"",""3533""
","
","","","","","","null","<div style=""font-size:60px;"">+</div>","null","","fixation","","",""
"memory-trial","195","407600","0.0-18.0-1.75","6253","approach_avoid_sv1","""event"",""trial"",""time""
""fullscreenenter"",""1"",""3533""
","
","
","""event"",""trial"",""time""
""fullscreenenter"",""1"",""3533""
","
","","","","","","2055.2999999523163","images/flower5.png","","","memory_trial","2","maybe_old",""
"html-keyboard-response","196","408103","0.0-18.0-0.76","6253","approach_avoid_sv1","""event"",""trial"",""time""
""fullscreenenter"",""1"",""3533""
","
","
","""event"",""trial"",""time""
""fullscreenenter"",""1"",""3533""
","
","","","","","","null","<div style=""font-size:60px;"">+</div>","null","","fixation","","",""
"memory-trial","197","410423","0.0-18.0-1.76","6253","approach_avoid_sv1","""event"",""trial"",""time""
""fullscreenenter"",""1"",""3533""
","
","
","""event"",""trial"",""time""
""fullscreenenter"",""1"",""3533""
","
","","","","","","1312.1999998092651","images/sheep2.png","","","memory_trial","3","maybe_new",""
"html-keyboard-response","198","410927","0.0-18.0-0.77","6253","approach_avoid_sv1","""event"",""trial"",""time""
""fullscreenenter"",""1"",""3533""
","
","
","""event"",""trial"",""time""
""fullscreenenter"",""1"",""3533""
","
","","","","","","null","<div style=""font-size:60px;"">+</div>","null","","fixation","","",""
"memory-trial","199","413871","0.0-18.0-1.77","6253","approach_avoid_sv1","""event"",""trial"",""time""
""fullscreenenter"",""1"",""3533""
","
","
","""event"",""trial"",""time""
""fullscreenenter"",""1"",""3533""
","
","","","","","","1939.1999998092651","images/cow1.png","","","memory_trial","3","maybe_new",""
"html-keyboard-response","200","414374","0.0-18.0-0.78","6253","approach_avoid_sv1","""event"",""trial"",""time""
""fullscreenenter"",""1"",""3533""
","
","
","""event"",""trial"",""time""
""fullscreenenter"",""1"",""3533""
","
","","","","","","null","<div style=""font-size:60px;"">+</div>","null","","fixation","","",""
"memory-trial","201","417231","0.0-18.0-1.78","6253","approach_avoid_sv1","""event"",""trial"",""time""
""fullscreenenter"",""1"",""3533""
","
","
","""event"",""trial"",""time""
""fullscreenenter"",""1"",""3533""
","
","","","","","","1849.0999999046326","images/apple8.png","","","memory_trial","3","maybe_new",""
"html-keyboard-response","202","417735","0.0-18.0-0.79","6253","approach_avoid_sv1","""event"",""trial"",""time""
""fullscreenenter"",""1"",""3533""
","
","
","""event"",""trial"",""time""
""fullscreenenter"",""1"",""3533""
","
","","","","","","null","<div style=""font-size:60px;"">+</div>","null","","fixation","","",""
"memory-trial","203","420639","0.0-18.0-1.79","6253","approach_avoid_sv1","""event"",""trial"",""time""
""fullscreenenter"",""1"",""3533""
","
","
","""event"",""trial"",""time""
""fullscreenenter"",""1"",""3533""
","
","","","","","","1898.2999999523163","images/dog4.png","","","memory_trial","2","maybe_old",""
"html-keyboard-response","204","421143","0.0-18.0-0.80","6253","approach_avoid_sv1","""event"",""trial"",""time""
""fullscreenenter"",""1"",""3533""
","
","
","""event"",""trial"",""time""
""fullscreenenter"",""1"",""3533""
","
","","","","","","null","<div style=""font-size:60px;"">+</div>","null","","fixation","","",""
"memory-trial","205","424095","0.0-18.0-1.80","6253","approach_avoid_sv1","""event"",""trial"",""time""
""fullscreenenter"",""1"",""3533""
","
","
","""event"",""trial"",""time""
""fullscreenenter"",""1"",""3533""
","
","","","","","","1947.5","images/bush5.png","","","memory_trial","3","maybe_new",""
"html-keyboard-response","206","424599","0.0-18.0-0.81","6253","approach_avoid_sv1","""event"",""trial"",""time""
""fullscreenenter"",""1"",""3533""
","
","
","""event"",""trial"",""time""
""fullscreenenter"",""1"",""3533""
","
","","","","","","null","<div style=""font-size:60px;"">+</div>","null","","fixation","","",""
"memory-trial","207","426783","0.0-18.0-1.81","6253","approach_avoid_sv1","""event"",""trial"",""time""
""fullscreenenter"",""1"",""3533""
","
","
","""event"",""trial"",""time""
""fullscreenenter"",""1"",""3533""
","
","","","","","","1174.3999998569489","images/tree1.png","","","memory_trial","1","definitely_old",""
"html-keyboard-response","208","427287","0.0-18.0-0.82","6253","approach_avoid_sv1","""event"",""trial"",""time""
""fullscreenenter"",""1"",""3533""
","
","
","""event"",""trial"",""time""
""fullscreenenter"",""1"",""3533""
","
","","","","","","null","<div style=""font-size:60px;"">+</div>","null","","fixation","","",""
"memory-trial","209","429255","0.0-18.0-1.82","6253","approach_avoid_sv1","""event"",""trial"",""time""
""fullscreenenter"",""1"",""3533""
","
","
","""event"",""trial"",""time""
""fullscreenenter"",""1"",""3533""
","
","","","","","","957.0999999046326","images/cat2.png","","","memory_trial","3","maybe_new",""
"html-keyboard-response","210","429759","0.0-18.0-0.83","6253","approach_avoid_sv1","""event"",""trial"",""time""
""fullscreenenter"",""1"",""3533""
","
","
","""event"",""trial"",""time""
""fullscreenenter"",""1"",""3533""
","
","","","","","","null","<div style=""font-size:60px;"">+</div>","null","","fixation","","",""
"memory-trial","211","431862","0.0-18.0-1.83","6253","approach_avoid_sv1","""event"",""trial"",""time""
""fullscreenenter"",""1"",""3533""
","
","
","""event"",""trial"",""time""
""fullscreenenter"",""1"",""3533""
","
","","","","","","1096.5999999046326","images/sofa8.png","","","memory_trial","4","definitely_new",""
"html-keyboard-response","212","432367","0.0-18.0-0.84","6253","approach_avoid_sv1","""event"",""trial"",""time""
""fullscreenenter"",""1"",""3533""
","
","
","""event"",""trial"",""time""
""fullscreenenter"",""1"",""3533""
","
","","","","","","null","<div style=""font-size:60px;"">+</div>","null","","fixation","","",""
"memory-trial","213","434334","0.0-18.0-1.84","6253","approach_avoid_sv1","""event"",""trial"",""time""
""fullscreenenter"",""1"",""3533""
","
","
","""event"",""trial"",""time""
""fullscreenenter"",""1"",""3533""
","
","","","","","","957.7000000476837","images/train7.png","","","memory_trial","4","definitely_new",""
"html-keyboard-response","214","434842","0.0-18.0-0.85","6253","approach_avoid_sv1","""event"",""trial"",""time""
""fullscreenenter"",""1"",""3533""
","
","
","""event"",""trial"",""time""
""fullscreenenter"",""1"",""3533""
","
","","","","","","null","<div style=""font-size:60px;"">+</div>","null","","fixation","","",""
"memory-trial","215","436671","0.0-18.0-1.85","6253","approach_avoid_sv1","""event"",""trial"",""time""
""fullscreenenter"",""1"",""3533""
","
","
","""event"",""trial"",""time""
""fullscreenenter"",""1"",""3533""
","
","","","","","","824.9000000953674","images/straw4.png","","","memory_trial","1","definitely_old",""
"html-keyboard-response","216","437174","0.0-18.0-0.86","6253","approach_avoid_sv1","""event"",""trial"",""time""
""fullscreenenter"",""1"",""3533""
","
","
","""event"",""trial"",""time""
""fullscreenenter"",""1"",""3533""
","
","","","","","","null","<div style=""font-size:60px;"">+</div>","null","","fixation","","",""
"memory-trial","217","438967","0.0-18.0-1.86","6253","approach_avoid_sv1","""event"",""trial"",""time""
""fullscreenenter"",""1"",""3533""
","
","
","""event"",""trial"",""time""
""fullscreenenter"",""1"",""3533""
","
","","","","","","785.2999999523163","images/straw8.png","","","memory_trial","1","definitely_old",""
"html-keyboard-response","218","439471","0.0-18.0-0.87","6253","approach_avoid_sv1","""event"",""trial"",""time""
""fullscreenenter"",""1"",""3533""
","
","
","""event"",""trial"",""time""
""fullscreenenter"",""1"",""3533""
","
","","","","","","null","<div style=""font-size:60px;"">+</div>","null","","fixation","","",""
"memory-trial","219","442063","0.0-18.0-1.87","6253","approach_avoid_sv1","""event"",""trial"",""time""
""fullscreenenter"",""1"",""3533""
","
","
","""event"",""trial"",""time""
""fullscreenenter"",""1"",""3533""
","
","","","","","","1584.5","images/rabbit4.png","","","memory_trial","2","maybe_old",""
"html-keyboard-response","220","442567","0.0-18.0-0.88","6253","approach_avoid_sv1","""event"",""trial"",""time""
""fullscreenenter"",""1"",""3533""
","
","
","""event"",""trial"",""time""
""fullscreenenter"",""1"",""3533""
","
","","","","","","null","<div style=""font-size:60px;"">+</div>","null","","fixation","","",""
"memory-trial","221","444407","0.0-18.0-1.88","6253","approach_avoid_sv1","""event"",""trial"",""time""
""fullscreenenter"",""1"",""3533""
","
","
","""event"",""trial"",""time""
""fullscreenenter"",""1"",""3533""
","
","","","","","","836.1000001430511","images/boat7.png","","","memory_trial","4","definitely_new",""
"html-keyboard-response","222","444910","0.0-18.0-0.89","6253","approach_avoid_sv1","""event"",""trial"",""time""
""fullscreenenter"",""1"",""3533""
","
","
","""event"",""trial"",""time""
""fullscreenenter"",""1"",""3533""
","
","","","","","","null","<div style=""font-size:60px;"">+</div>","null","","fixation","","",""
"memory-trial","223","447039","0.0-18.0-1.89","6253","approach_avoid_sv1","""event"",""trial"",""time""
""fullscreenenter"",""1"",""3533""
","
","
","""event"",""trial"",""time""
""fullscreenenter"",""1"",""3533""
","
","","","","","","1119.5","images/sheep3.png","","","memory_trial","2","maybe_old",""
"html-keyboard-response","224","447542","0.0-18.0-0.90","6253","approach_avoid_sv1","""event"",""trial"",""time""
""fullscreenenter"",""1"",""3533""
","
","
","""event"",""trial"",""time""
""fullscreenenter"",""1"",""3533""
","
","","","","","","null","<div style=""font-size:60px;"">+</div>","null","","fixation","","",""
"memory-trial","225","450207","0.0-18.0-1.90","6253","approach_avoid_sv1","""event"",""trial"",""time""
""fullscreenenter"",""1"",""3533""
","
","
","""event"",""trial"",""time""
""fullscreenenter"",""1"",""3533""
","
","","","","","","1653.9000000953674","images/flower1.png","","","memory_trial","2","maybe_old",""
"html-keyboard-response","226","450710","0.0-18.0-0.91","6253","approach_avoid_sv1","""event"",""trial"",""time""
""fullscreenenter"",""1"",""3533""
","
","
","""event"",""trial"",""time""
""fullscreenenter"",""1"",""3533""
","
","","","","","","null","<div style=""font-size:60px;"">+</div>","null","","fixation","","",""
"memory-trial","227","453903","0.0-18.0-1.91","6253","approach_avoid_sv1","""event"",""trial"",""time""
""fullscreenenter"",""1"",""3533""
","
","
","""event"",""trial"",""time""
""fullscreenenter"",""1"",""3533""
","
","","","","","","2185.5","images/straw5.png","","","memory_trial","2","maybe_old",""
"html-button-response","228","460092","0.0-18.0-2.91-0.91","6253","approach_avoid_sv1","""event"",""trial"",""time""
""fullscreenenter"",""1"",""3533""
","
","
","""event"",""trial"",""time""
""fullscreenenter"",""1"",""3533""
","
","","","","","","6188.200000047684","<p> Take a break! </p><p> Click the button to continue. </p>","0","","break","","",""
"html-keyboard-response","229","460598","0.0-18.0-0.92","6253","approach_avoid_sv1","""event"",""trial"",""time""
""fullscreenenter"",""1"",""3533""
","
","
","""event"",""trial"",""time""
""fullscreenenter"",""1"",""3533""
","
","","","","","","null","<div style=""font-size:60px;"">+</div>","null","","fixation","","",""
"memory-trial","230","463513","0.0-18.0-1.92","6253","approach_avoid_sv1","""event"",""trial"",""time""
""fullscreenenter"",""1"",""3533""
","
","
","""event"",""trial"",""time""
""fullscreenenter"",""1"",""3533""
","
","","","","","","1905.7999999523163","images/straw6.png","","","memory_trial","4","definitely_new",""
"html-keyboard-response","231","464014","0.0-18.0-0.93","6253","approach_avoid_sv1","""event"",""trial"",""time""
""fullscreenenter"",""1"",""3533""
","
","
","""event"",""trial"",""time""
""fullscreenenter"",""1"",""3533""
","
","","","","","","null","<div style=""font-size:60px;"">+</div>","null","","fixation","","",""
"memory-trial","232","466255","0.0-18.0-1.93","6253","approach_avoid_sv1","""event"",""trial"",""time""
""fullscreenenter"",""1"",""3533""
","
","
","""event"",""trial"",""time""
""fullscreenenter"",""1"",""3533""
","
","","","","","","1233.8999998569489","images/bush2.png","","","memory_trial","1","definitely_old",""
"html-keyboard-response","233","466759","0.0-18.0-0.94","6253","approach_avoid_sv1","""event"",""trial"",""time""
""fullscreenenter"",""1"",""3533""
","
","
","""event"",""trial"",""time""
""fullscreenenter"",""1"",""3533""
","
","","","","","","null","<div style=""font-size:60px;"">+</div>","null","","fixation","","",""
"memory-trial","234","469791","0.0-18.0-1.94","6253","approach_avoid_sv1","""event"",""trial"",""time""
""fullscreenenter"",""1"",""3533""
","
","
","""event"",""trial"",""time""
""fullscreenenter"",""1"",""3533""
","
","","","","","","2024.6000001430511","images/cow7.png","","","memory_trial","3","maybe_new",""
"html-keyboard-response","235","470294","0.0-18.0-0.95","6253","approach_avoid_sv1","""event"",""trial"",""time""
""fullscreenenter"",""1"",""3533""
","
","
","""event"",""trial"",""time""
""fullscreenenter"",""1"",""3533""
","
","","","","","","null","<div style=""font-size:60px;"">+</div>","null","","fixation","","",""
"memory-trial","236","472879","0.0-18.0-1.95","6253","approach_avoid_sv1","""event"",""trial"",""time""
""fullscreenenter"",""1"",""3533""
","
","
","""event"",""trial"",""time""
""fullscreenenter"",""1"",""3533""
","
","","","","","","1579.3999998569489","images/rodent7.png","","","memory_trial","4","definitely_new",""
"html-keyboard-response","237","473382","0.0-18.0-0.96","6253","approach_avoid_sv1","""event"",""trial"",""time""
""fullscreenenter"",""1"",""3533""
","
","
","""event"",""trial"",""time""
""fullscreenenter"",""1"",""3533""
","
","","","","","","null","<div style=""font-size:60px;"">+</div>","null","","fixation","","",""
"memory-trial","238","475615","0.0-18.0-1.96","6253","approach_avoid_sv1","""event"",""trial"",""time""
""fullscreenenter"",""1"",""3533""
","
","
","""event"",""trial"",""time""
""fullscreenenter"",""1"",""3533""
","
","","","","","","1227.4000000953674","images/rodent8.png","","","memory_trial","1","definitely_old",""
"html-keyboard-response","239","476118","0.0-18.0-0.97","6253","approach_avoid_sv1","""event"",""trial"",""time""
""fullscreenenter"",""1"",""3533""
","
","
","""event"",""trial"",""time""
""fullscreenenter"",""1"",""3533""
","
","","","","","","null","<div style=""font-size:60px;"">+</div>","null","","fixation","","",""
"memory-trial","240","478015","0.0-18.0-1.97","6253","approach_avoid_sv1","""event"",""trial"",""time""
""fullscreenenter"",""1"",""3533""
","
","
","""event"",""trial"",""time""
""fullscreenenter"",""1"",""3533""
","
","","","","","","892.7999999523163","images/truck2.png","","","memory_trial","1","definitely_old",""
"html-keyboard-response","241","478519","0.0-18.0-0.98","6253","approach_avoid_sv1","""event"",""trial"",""time""
""fullscreenenter"",""1"",""3533""
","
","
","""event"",""trial"",""time""
""fullscreenenter"",""1"",""3533""
","
","","","","","","null","<div style=""font-size:60px;"">+</div>","null","","fixation","","",""
"memory-trial","242","481032","0.0-18.0-1.98","6253","approach_avoid_sv1","""event"",""trial"",""time""
""fullscreenenter"",""1"",""3533""
","
","
","""event"",""trial"",""time""
""fullscreenenter"",""1"",""3533""
","
","","","","","","1506.4000000953674","images/sheep5.png","","","memory_trial","4","definitely_new",""
"html-keyboard-response","243","481534","0.0-18.0-0.99","6253","approach_avoid_sv1","""event"",""trial"",""time""
""fullscreenenter"",""1"",""3533""
","
","
","""event"",""trial"",""time""
""fullscreenenter"",""1"",""3533""
","
","","","","","","null","<div style=""font-size:60px;"">+</div>","null","","fixation","","",""
"memory-trial","244","483998","0.0-18.0-1.99","6253","approach_avoid_sv1","""event"",""trial"",""time""
""fullscreenenter"",""1"",""3533""
","
","
","""event"",""trial"",""time""
""fullscreenenter"",""1"",""3533""
","
","","","","","","1457.7999999523163","images/banana2.png","","","memory_trial","4","definitely_new",""
"html-keyboard-response","245","484502","0.0-18.0-0.100","6253","approach_avoid_sv1","""event"",""trial"",""time""
""fullscreenenter"",""1"",""3533""
","
","
","""event"",""trial"",""time""
""fullscreenenter"",""1"",""3533""
","
","","","","","","null","<div style=""font-size:60px;"">+</div>","null","","fixation","","",""
"memory-trial","246","487655","0.0-18.0-1.100","6253","approach_avoid_sv1","""event"",""trial"",""time""
""fullscreenenter"",""1"",""3533""
","
","
","""event"",""trial"",""time""
""fullscreenenter"",""1"",""3533""
","
","","","","","","2144.5","images/plane4.png","","","memory_trial","1","definitely_old",""
"html-keyboard-response","247","488158","0.0-18.0-0.101","6253","approach_avoid_sv1","""event"",""trial"",""time""
""fullscreenenter"",""1"",""3533""
","
","
","""event"",""trial"",""time""
""fullscreenenter"",""1"",""3533""
","
","","","","","","null","<div style=""font-size:60px;"">+</div>","null","","fixation","","",""
"memory-trial","248","490262","0.0-18.0-1.101","6253","approach_avoid_sv1","""event"",""trial"",""time""
""fullscreenenter"",""1"",""3533""
","
","
","""event"",""trial"",""time""
""fullscreenenter"",""1"",""3533""
","
","","","","","","1095.7999999523163","images/goat2.png","","","memory_trial","4","definitely_new",""
"html-keyboard-response","249","490766","0.0-18.0-0.102","6253","approach_avoid_sv1","""event"",""trial"",""time""
""fullscreenenter"",""1"",""3533""
","
","
","""event"",""trial"",""time""
""fullscreenenter"",""1"",""3533""
","
","","","","","","null","<div style=""font-size:60px;"">+</div>","null","","fixation","","",""
"memory-trial","250","492582","0.0-18.0-1.102","6253","approach_avoid_sv1","""event"",""trial"",""time""
""fullscreenenter"",""1"",""3533""
","
","
","""event"",""trial"",""time""
""fullscreenenter"",""1"",""3533""
","
","","","","","","808.4000000953674","images/horse2.png","","","memory_trial","4","definitely_new",""
"html-keyboard-response","251","493086","0.0-18.0-0.103","6253","approach_avoid_sv1","""event"",""trial"",""time""
""fullscreenenter"",""1"",""3533""
","
","
","""event"",""trial"",""time""
""fullscreenenter"",""1"",""3533""
","
","","","","","","null","<div style=""font-size:60px;"">+</div>","null","","fixation","","",""
"memory-trial","252","495583","0.0-18.0-1.103","6253","approach_avoid_sv1","""event"",""trial"",""time""
""fullscreenenter"",""1"",""3533""
","
","
","""event"",""trial"",""time""
""fullscreenenter"",""1"",""3533""
","
","","","","","","1487.5999999046326","images/flower2.png","","","memory_trial","2","maybe_old",""
"html-keyboard-response","253","496087","0.0-18.0-0.104","6253","approach_avoid_sv1","""event"",""trial"",""time""
""fullscreenenter"",""1"",""3533""
","
","
","""event"",""trial"",""time""
""fullscreenenter"",""1"",""3533""
","
","","","","","","null","<div style=""font-size:60px;"">+</div>","null","","fixation","","",""
"memory-trial","254","498495","0.0-18.0-1.104","6253","approach_avoid_sv1","""event"",""trial"",""time""
""fullscreenenter"",""1"",""3533""
","
","
","""event"",""trial"",""time""
""fullscreenenter"",""1"",""3533""
","
","","","","","","1405.7000000476837","images/cow5.png","","","memory_trial","4","definitely_new",""
"html-keyboard-response","255","498998","0.0-18.0-0.105","6253","approach_avoid_sv1","""event"",""trial"",""time""
""fullscreenenter"",""1"",""3533""
","
","
","""event"",""trial"",""time""
""fullscreenenter"",""1"",""3533""
","
","","","","","","null","<div style=""font-size:60px;"">+</div>","null","","fixation","","",""
"memory-trial","256","500910","0.0-18.0-1.105","6253","approach_avoid_sv1","""event"",""trial"",""time""
""fullscreenenter"",""1"",""3533""
","
","
","""event"",""trial"",""time""
""fullscreenenter"",""1"",""3533""
","
","","","","","","908.2000000476837","images/rabbit2.png","","","memory_trial","1","definitely_old",""
"html-keyboard-response","257","501416","0.0-18.0-0.106","6253","approach_avoid_sv1","""event"",""trial"",""time""
""fullscreenenter"",""1"",""3533""
","
","
","""event"",""trial"",""time""
""fullscreenenter"",""1"",""3533""
","
","","","","","","null","<div style=""font-size:60px;"">+</div>","null","","fixation","","",""
"memory-trial","258","503822","0.0-18.0-1.106","6253","approach_avoid_sv1","""event"",""trial"",""time""
""fullscreenenter"",""1"",""3533""
","
","
","""event"",""trial"",""time""
""fullscreenenter"",""1"",""3533""
","
","","","","","","1397.2999999523163","images/table6.png","","","memory_trial","2","maybe_old",""
"html-keyboard-response","259","504326","0.0-18.0-0.107","6253","approach_avoid_sv1","""event"",""trial"",""time""
""fullscreenenter"",""1"",""3533""
","
","
","""event"",""trial"",""time""
""fullscreenenter"",""1"",""3533""
","
","","","","","","null","<div style=""font-size:60px;"">+</div>","null","","fixation","","",""
"memory-trial","260","506358","0.0-18.0-1.107","6253","approach_avoid_sv1","""event"",""trial"",""time""
""fullscreenenter"",""1"",""3533""
","
","
","""event"",""trial"",""time""
""fullscreenenter"",""1"",""3533""
","
","","","","","","1027.2999999523163","images/horse7.png","","","memory_trial","4","definitely_new",""
"html-keyboard-response","261","506863","0.0-18.0-0.108","6253","approach_avoid_sv1","""event"",""trial"",""time""
""fullscreenenter"",""1"",""3533""
","
","
","""event"",""trial"",""time""
""fullscreenenter"",""1"",""3533""
","
","","","","","","null","<div style=""font-size:60px;"">+</div>","null","","fixation","","",""
"memory-trial","262","510623","0.0-18.0-1.108","6253","approach_avoid_sv1","""event"",""trial"",""time""
""fullscreenenter"",""1"",""3533""
","
","
","""event"",""trial"",""time""
""fullscreenenter"",""1"",""3533""
","
","","","","","","2750.4000000953674","images/train1.png","","","memory_trial","2","maybe_old",""
"html-keyboard-response","263","511127","0.0-18.0-0.109","6253","approach_avoid_sv1","""event"",""trial"",""time""
""fullscreenenter"",""1"",""3533""
","
","
","""event"",""trial"",""time""
""fullscreenenter"",""1"",""3533""
","
","","","","","","null","<div style=""font-size:60px;"">+</div>","null","","fixation","","",""
"memory-trial","264","513502","0.0-18.0-1.109","6253","approach_avoid_sv1","""event"",""trial"",""time""
""fullscreenenter"",""1"",""3533""
","
","
","""event"",""trial"",""time""
""fullscreenenter"",""1"",""3533""
","
","","","","","","1370.2000000476837","images/bush3.png","","","memory_trial","1","definitely_old",""
"html-keyboard-response","265","514007","0.0-18.0-0.110","6253","approach_avoid_sv1","""event"",""trial"",""time""
""fullscreenenter"",""1"",""3533""
","
","
","""event"",""trial"",""time""
""fullscreenenter"",""1"",""3533""
","
","","","","","","null","<div style=""font-size:60px;"">+</div>","null","","fixation","","",""
"memory-trial","266","517150","0.0-18.0-1.110","6253","approach_avoid_sv1","""event"",""trial"",""time""
""fullscreenenter"",""1"",""3533""
","
","
","""event"",""trial"",""time""
""fullscreenenter"",""1"",""3533""
","
","","","","","","2135.7000000476837","images/train5.png","","","memory_trial","2","maybe_old",""
"html-keyboard-response","267","517655","0.0-18.0-0.111","6253","approach_avoid_sv1","""event"",""trial"",""time""
""fullscreenenter"",""1"",""3533""
","
","
","""event"",""trial"",""time""
""fullscreenenter"",""1"",""3533""
","
","","","","","","null","<div style=""font-size:60px;"">+</div>","null","","fixation","","",""
"memory-trial","268","519590","0.0-18.0-1.111","6253","approach_avoid_sv1","""event"",""trial"",""time""
""fullscreenenter"",""1"",""3533""
","
","
","""event"",""trial"",""time""
""fullscreenenter"",""1"",""3533""
","
","","","","","","931.5","images/boat3.png","","","memory_trial","4","definitely_new",""
"html-keyboard-response","269","520094","0.0-18.0-0.112","6253","approach_avoid_sv1","""event"",""trial"",""time""
""fullscreenenter"",""1"",""3533""
","
","
","""event"",""trial"",""time""
""fullscreenenter"",""1"",""3533""
","
","","","","","","null","<div style=""font-size:60px;"">+</div>","null","","fixation","","",""
"memory-trial","270","523174","0.0-18.0-1.112","6253","approach_avoid_sv1","""event"",""trial"",""time""
""fullscreenenter"",""1"",""3533""
","
","
","""event"",""trial"",""time""
""fullscreenenter"",""1"",""3533""
","
","","","","","","2070.5999999046326","images/dog3.png","","","memory_trial","1","definitely_old",""
"html-keyboard-response","271","523679","0.0-18.0-0.113","6253","approach_avoid_sv1","""event"",""trial"",""time""
""fullscreenenter"",""1"",""3533""
","
","
","""event"",""trial"",""time""
""fullscreenenter"",""1"",""3533""
","
","","","","","","null","<div style=""font-size:60px;"">+</div>","null","","fixation","","",""
"memory-trial","272","525951","0.0-18.0-1.113","6253","approach_avoid_sv1","""event"",""trial"",""time""
""fullscreenenter"",""1"",""3533""
","
","
","""event"",""trial"",""time""
""fullscreenenter"",""1"",""3533""
","
","","","","","","1263.9000000953674","images/apple4.png","","","memory_trial","4","definitely_new",""
"html-keyboard-response","273","526454","0.0-18.0-0.114","6253","approach_avoid_sv1","""event"",""trial"",""time""
""fullscreenenter"",""1"",""3533""
","
","
","""event"",""trial"",""time""
""fullscreenenter"",""1"",""3533""
","
","","","","","","null","<div style=""font-size:60px;"">+</div>","null","","fixation","","",""
"memory-trial","274","528102","0.0-18.0-1.114","6253","approach_avoid_sv1","""event"",""trial"",""time""
""fullscreenenter"",""1"",""3533""
","
","
","""event"",""trial"",""time""
""fullscreenenter"",""1"",""3533""
","
","","","","","","643.8000001907349","images/sofa4.png","","","memory_trial","4","definitely_new",""
"html-keyboard-response","275","528617","0.0-18.0-0.115","6253","approach_avoid_sv1","""event"",""trial"",""time""
""fullscreenenter"",""1"",""3533""
","
","
","""event"",""trial"",""time""
""fullscreenenter"",""1"",""3533""
","
","","","","","","null","<div style=""font-size:60px;"">+</div>","null","","fixation","","",""
"memory-trial","276","530255","0.0-18.0-1.115","6253","approach_avoid_sv1","""event"",""trial"",""time""
""fullscreenenter"",""1"",""3533""
","
","
","""event"",""trial"",""time""
""fullscreenenter"",""1"",""3533""
","
","","","","","","629","images/horse4.png","","","memory_trial","4","definitely_new",""
"html-keyboard-response","277","530758","0.0-18.0-0.116","6253","approach_avoid_sv1","""event"",""trial"",""time""
""fullscreenenter"",""1"",""3533""
","
","
","""event"",""trial"",""time""
""fullscreenenter"",""1"",""3533""
","
","","","","","","null","<div style=""font-size:60px;"">+</div>","null","","fixation","","",""
"memory-trial","278","533559","0.0-18.0-1.116","6253","approach_avoid_sv1","""event"",""trial"",""time""
""fullscreenenter"",""1"",""3533""
","
","
","""event"",""trial"",""time""
""fullscreenenter"",""1"",""3533""
","
","","","","","","1792.2999999523163","images/goat4.png","","","memory_trial","2","maybe_old",""
"html-keyboard-response","279","534062","0.0-18.0-0.117","6253","approach_avoid_sv1","""event"",""trial"",""time""
""fullscreenenter"",""1"",""3533""
","
","
","""event"",""trial"",""time""
""fullscreenenter"",""1"",""3533""
","
","","","","","","null","<div style=""font-size:60px;"">+</div>","null","","fixation","","",""
"memory-trial","280","536494","0.0-18.0-1.117","6253","approach_avoid_sv1","""event"",""trial"",""time""
""fullscreenenter"",""1"",""3533""
","
","
","""event"",""trial"",""time""
""fullscreenenter"",""1"",""3533""
","
","","","","","","1422.5999999046326","images/train3.png","","","memory_trial","2","maybe_old",""
"html-keyboard-response","281","536998","0.0-18.0-0.118","6253","approach_avoid_sv1","""event"",""trial"",""time""
""fullscreenenter"",""1"",""3533""
","
","
","""event"",""trial"",""time""
""fullscreenenter"",""1"",""3533""
","
","","","","","","null","<div style=""font-size:60px;"">+</div>","null","","fixation","","",""
"memory-trial","282","538943","0.0-18.0-1.118","6253","approach_avoid_sv1","""event"",""trial"",""time""
""fullscreenenter"",""1"",""3533""
","
","
","""event"",""trial"",""time""
""fullscreenenter"",""1"",""3533""
","
","","","","","","934.2000000476837","images/orange2.png","","","memory_trial","4","definitely_new",""
"html-keyboard-response","283","539447","0.0-18.0-0.119","6253","approach_avoid_sv1","""event"",""trial"",""time""
""fullscreenenter"",""1"",""3533""
","
","
","""event"",""trial"",""time""
""fullscreenenter"",""1"",""3533""
","
","","","","","","null","<div style=""font-size:60px;"">+</div>","null","","fixation","","",""
"memory-trial","284","541559","0.0-18.0-1.119","6253","approach_avoid_sv1","""event"",""trial"",""time""
""fullscreenenter"",""1"",""3533""
","
","
","""event"",""trial"",""time""
""fullscreenenter"",""1"",""3533""
","
","","","","","","1108.5","images/tree4.png","","","memory_trial","1","definitely_old",""
"html-keyboard-response","285","542062","0.0-18.0-0.120","6253","approach_avoid_sv1","""event"",""trial"",""time""
""fullscreenenter"",""1"",""3533""
","
","
","""event"",""trial"",""time""
""fullscreenenter"",""1"",""3533""
","
","","","","","","null","<div style=""font-size:60px;"">+</div>","null","","fixation","","",""
"memory-trial","286","544062","0.0-18.0-1.120","6253","approach_avoid_sv1","""event"",""trial"",""time""
""fullscreenenter"",""1"",""3533""
","
","
","""event"",""trial"",""time""
""fullscreenenter"",""1"",""3533""
","
","","","","","","990.2000000476837","images/sofa3.png","","","memory_trial","4","definitely_new",""
"html-keyboard-response","287","544566","0.0-18.0-0.121","6253","approach_avoid_sv1","""event"",""trial"",""time""
""fullscreenenter"",""1"",""3533""
","
","
","""event"",""trial"",""time""
""fullscreenenter"",""1"",""3533""
","
","","","","","","null","<div style=""font-size:60px;"">+</div>","null","","fixation","","",""
"memory-trial","288","546511","0.0-18.0-1.121","6253","approach_avoid_sv1","""event"",""trial"",""time""
""fullscreenenter"",""1"",""3533""
","
","
","""event"",""trial"",""time""
""fullscreenenter"",""1"",""3533""
","
","","","","","","934.5","images/apple3.png","","","memory_trial","4","definitely_new",""
"html-keyboard-response","289","547014","0.0-18.0-0.122","6253","approach_avoid_sv1","""event"",""trial"",""time""
""fullscreenenter"",""1"",""3533""
","
","
","""event"",""trial"",""time""
""fullscreenenter"",""1"",""3533""
","
","","","","","","null","<div style=""font-size:60px;"">+</div>","null","","fixation","","",""
"memory-trial","290","548678","0.0-18.0-1.122","6253","approach_avoid_sv1","""event"",""trial"",""time""
""fullscreenenter"",""1"",""3533""
","
","
","""event"",""trial"",""time""
""fullscreenenter"",""1"",""3533""
","
","","","","","","660.6000001430511","images/sofa7.png","","","memory_trial","4","definitely_new",""
"html-keyboard-response","291","549183","0.0-18.0-0.123","6253","approach_avoid_sv1","""event"",""trial"",""time""
""fullscreenenter"",""1"",""3533""
","
","
","""event"",""trial"",""time""
""fullscreenenter"",""1"",""3533""
","
","","","","","","null","<div style=""font-size:60px;"">+</div>","null","","fixation","","",""
"memory-trial","292","551711","0.0-18.0-1.123","6253","approach_avoid_sv1","""event"",""trial"",""time""
""fullscreenenter"",""1"",""3533""
","
","
","""event"",""trial"",""time""
""fullscreenenter"",""1"",""3533""
","
","","","","","","1518","images/banana3.png","","","memory_trial","2","maybe_old",""
"html-keyboard-response","293","552215","0.0-18.0-0.124","6253","approach_avoid_sv1","""event"",""trial"",""time""
""fullscreenenter"",""1"",""3533""
","
","
","""event"",""trial"",""time""
""fullscreenenter"",""1"",""3533""
","
","","","","","","null","<div style=""font-size:60px;"">+</div>","null","","fixation","","",""
"memory-trial","294","554206","0.0-18.0-1.124","6253","approach_avoid_sv1","""event"",""trial"",""time""
""fullscreenenter"",""1"",""3533""
","
","
","""event"",""trial"",""time""
""fullscreenenter"",""1"",""3533""
","
","","","","","","983.9000000953674","images/plane6.png","","","memory_trial","1","definitely_old",""
"html-keyboard-response","295","554710","0.0-18.0-0.125","6253","approach_avoid_sv1","""event"",""trial"",""time""
""fullscreenenter"",""1"",""3533""
","
","
","""event"",""trial"",""time""
""fullscreenenter"",""1"",""3533""
","
","","","","","","null","<div style=""font-size:60px;"">+</div>","null","","fixation","","",""
"memory-trial","296","556582","0.0-18.0-1.125","6253","approach_avoid_sv1","""event"",""trial"",""time""
""fullscreenenter"",""1"",""3533""
","
","
","""event"",""trial"",""time""
""fullscreenenter"",""1"",""3533""
","
","","","","","","861.7000000476837","images/truck5.png","","","memory_trial","1","definitely_old",""
"html-keyboard-response","297","557086","0.0-18.0-0.126","6253","approach_avoid_sv1","""event"",""trial"",""time""
""fullscreenenter"",""1"",""3533""
","
","
