"trial_type","trial_index","time_elapsed","internal_node_id","subject_id","task_version","interactions","blur_events","focus_events","fullscreenenter_events","fullscreenexit_events","success","timeout","failed_images","failed_audio","failed_video","rt","stimulus","response","button_pressed","task_part","key_press","answer","correct"
"pavlovia","0","10","0.0-0.0","7702","approach_avoid_sv1","""event"",""trial"",""time""
""fullscreenenter"",""1"",""3759""
","
","
","""event"",""trial"",""time""
""fullscreenenter"",""1"",""3759""
","
","","","","","","","","","","","","",""
"fullscreen","1","4743","0.0-1.0","7702","approach_avoid_sv1","""event"",""trial"",""time""
""fullscreenenter"",""1"",""3759""
","
","
","""event"",""trial"",""time""
""fullscreenenter"",""1"",""3759""
","
","true","","","","","","","","","","","",""
"preload","2","8732","0.0-2.0","7702","approach_avoid_sv1","""event"",""trial"",""time""
""fullscreenenter"",""1"",""3759""
","
","
","""event"",""trial"",""time""
""fullscreenenter"",""1"",""3759""
","
","true","false","[]","[]","[]","","","","","","","",""
"preload","3","11674","0.0-3.0","7702","approach_avoid_sv1","""event"",""trial"",""time""
""fullscreenenter"",""1"",""3759""
","
","
","""event"",""trial"",""time""
""fullscreenenter"",""1"",""3759""
","
","true","false","[]","[]","[]","","","","","","","",""
"preload","4","12025","0.0-4.0","7702","approach_avoid_sv1","""event"",""trial"",""time""
""fullscreenenter"",""1"",""3759""
","
","
","""event"",""trial"",""time""
""fullscreenenter"",""1"",""3759""
","
","true","false","[]","[]","[]","","","","","","","",""
"audio-keyboard-response","5","16076","0.0-5.0","7702","approach_avoid_sv1","""event"",""trial"",""time""
""fullscreenenter"",""1"",""3759""
","
","
","""event"",""trial"",""time""
""fullscreenenter"",""1"",""3759""
","
","","","","","","4053.3333333333326","audio/beep_loop.wav"," ","","","","",""
"audio-button-response","6","20531","0.0-6.0","7702","approach_avoid_sv1","""event"",""trial"",""time""
""fullscreenenter"",""1"",""3759""
","
","
","""event"",""trial"",""time""
""fullscreenenter"",""1"",""3759""
","
","","","","","","4448","audio/turtle.wav","3","","","","",""
"audio-button-response","7","22676","0.0-7.0","7702","approach_avoid_sv1","""event"",""trial"",""time""
""fullscreenenter"",""1"",""3759""
","
","
","""event"",""trial"",""time""
""fullscreenenter"",""1"",""3759""
","
","","","","","","1131","audio/shark.wav","2","","","","",""
"preload","8","28674","0.0-8.0","7702","approach_avoid_sv1","""event"",""trial"",""time""
""fullscreenenter"",""1"",""3759""
","
","
","""event"",""trial"",""time""
""fullscreenenter"",""1"",""3759""
","
","true","false","[]","[]","[]","","","","","","","",""
"learning-instructions","9","38919","0.0-9.0-0.0","7702","approach_avoid_sv1","""event"",""trial"",""time""
""fullscreenenter"",""1"",""3759""
","
","
","""event"",""trial"",""time""
""fullscreenenter"",""1"",""3759""
","
","","","","","","5761.100000000035","<p> Welcome back! </p><p> Last week, you had to make choices about lots of different items.  </p>","","0","instructions","","",""
"learning-instructions","10","45841","0.0-9.0-0.1","7702","approach_avoid_sv1","""event"",""trial"",""time""
""fullscreenenter"",""1"",""3759""
","
","
","""event"",""trial"",""time""
""fullscreenenter"",""1"",""3759""
","
","","","","","","2806.7000000000116","<p> Today, we are going to ask you to try to remember all the items. </p>","","0","instructions","","",""
"learning-instructions","11","56699","0.0-9.0-0.2","7702","approach_avoid_sv1","""event"",""trial"",""time""
""fullscreenenter"",""1"",""3759""
","
","
","""event"",""trial"",""time""
""fullscreenenter"",""1"",""3759""
","
","","","","","","716","<p> On every trial, you will see an image. </p><p> The image may be an OLD image you saw during the games last week or it may be a NEW image that was not presented. </p>","","0","instructions","","",""
"learning-instructions","12","67244","0.0-9.0-0.3","7702","approach_avoid_sv1","""event"",""trial"",""time""
""fullscreenenter"",""1"",""3759""
","
","
","""event"",""trial"",""time""
""fullscreenenter"",""1"",""3759""
","
","","","","","","2028.3000000000466","<p> You need to select whether the image is:  </p><p>  'Definitely old', 'Maybe old', 'Maybe new', or 'Definitely new.'  </p><div class=""mem-choice-instructions-grid""><div class=""choice-option"" id=""choice-option-1"" ><img src=""images/definitely_old_1.png"" id=""choice-option-img-1"" class=""choice-option-img"" stage=""1""></div><div class=""choice-option"" id=""choice-option-2"" ><img src=""images/maybe_old_1.png"" id=""choice-option-img-2"" class=""choice-option-img"" stage=""1""></div><div class=""choice-option"" id=""choice-option-3"" ><img src=""images/maybe_new_1.png"" id=""choice-option-img-3"" class=""choice-option-img"" stage=""1""></div><div class=""choice-option"" id=""choice-option-4"" > <img src=""images/definitely_new_1.png"" id=""choice-option-img-4"" class=""choice-option-img"" stage=""1""></div></div>","","0","instructions","","",""
"learning-instructions","13","74436","0.0-9.0-0.4","7702","approach_avoid_sv1","""event"",""trial"",""time""
""fullscreenenter"",""1"",""3759""
","
","
","""event"",""trial"",""time""
""fullscreenenter"",""1"",""3759""
","
","","","","","","665.7999999999884","<p> You should use the 1, 2, 3, and 4 keys to make your responses.  </p><div class=""mem-choice-instructions-grid""><div class=""choice-option"" id=""choice-option-1"" ><img src=""images/definitely_old.png"" id=""choice-option-img-1"" class=""choice-option-img"" stage=""1""></div><div class=""choice-option"" id=""choice-option-2"" ><img src=""images/maybe_old.png"" id=""choice-option-img-2"" class=""choice-option-img"" stage=""1""></div><div class=""choice-option"" id=""choice-option-3"" ><img src=""images/maybe_new.png"" id=""choice-option-img-3"" class=""choice-option-img"" stage=""1""></div><div class=""choice-option"" id=""choice-option-4"" > <img src=""images/definitely_new.png"" id=""choice-option-img-4"" class=""choice-option-img"" stage=""1""></div></div>","","0","instructions","","",""
"learning-instructions","14","81358","0.0-9.0-0.5","7702","approach_avoid_sv1","""event"",""trial"",""time""
""fullscreenenter"",""1"",""3759""
","
","
","""event"",""trial"",""time""
""fullscreenenter"",""1"",""3759""
","
","","","","","","586.2000000000116","<p> You will have 10 seconds to make each response.  </p><p>  Make sure to respond before time runs out! </p>","","0","instructions","","",""
"learning-instructions","15","89185","0.0-9.0-0.6","7702","approach_avoid_sv1","""event"",""trial"",""time""
""fullscreenenter"",""1"",""3759""
","
","
","""event"",""trial"",""time""
""fullscreenenter"",""1"",""3759""
","
","","","","","","743.3999999999651","<p> Today, you will see each image ONCE only.  </p><p>  That means none of the images will repeat. </p>","","0","instructions","","",""
"learning-instructions","16","102493","0.0-9.0-0.7","7702","approach_avoid_sv1","""event"",""trial"",""time""
""fullscreenenter"",""1"",""3759""
","
","
","""event"",""trial"",""time""
""fullscreenenter"",""1"",""3759""
","
","","","","","","633.5","<p> Before you play the real game, it is time to practice. </p><p>  Just like in the real game, some of the images in the practice will be ones you have seen before. </p><p>  Others will be entirely new. </p>","","0","instructions","","",""
"html-button-response","17","105823","0.0-10.0","7702","approach_avoid_sv1","""event"",""trial"",""time""
""fullscreenenter"",""1"",""3759""
","
","
","""event"",""trial"",""time""
""fullscreenenter"",""1"",""3759""
","
","","","","","","3216.1999999999534","<p> Ready to practice? </p><p> Remember, use the 1, 2, 3, and 4 keys to make your responses. </p>","0","","instructions","","",""
"html-keyboard-response","18","106434","0.0-11.0-0.0","7702","approach_avoid_sv1","""event"",""trial"",""time""
""fullscreenenter"",""1"",""3759""
","
","
","""event"",""trial"",""time""
""fullscreenenter"",""1"",""3759""
","
","","","","","","null","<div style=""font-size:60px;"">+</div>","null","","fixation","","",""
"memory-trial","19","114080","0.0-11.0-1.0","7702","approach_avoid_sv1","""event"",""trial"",""time""
""fullscreenenter"",""1"",""3759""
","
","
","""event"",""trial"",""time""
""fullscreenenter"",""1"",""3759""
","
","","","","","","6627.5","images/ball3.png","","","practice","4","definitely_new",""
"html-keyboard-response","20","114591","0.0-11.0-0.1","7702","approach_avoid_sv1","""event"",""trial"",""time""
""fullscreenenter"",""1"",""3759""
","
","
","""event"",""trial"",""time""
""fullscreenenter"",""1"",""3759""
","
","","","","","","null","<div style=""font-size:60px;"">+</div>","null","","fixation","","",""
"memory-trial","21","118607","0.0-11.0-1.1","7702","approach_avoid_sv1","""event"",""trial"",""time""
""fullscreenenter"",""1"",""3759""
","
","
","""event"",""trial"",""time""
""fullscreenenter"",""1"",""3759""
","
","","","","","","3000.5","images/racket3.png","","","practice","4","definitely_new",""
"html-keyboard-response","22","119119","0.0-11.0-0.2","7702","approach_avoid_sv1","""event"",""trial"",""time""
""fullscreenenter"",""1"",""3759""
","
","
","""event"",""trial"",""time""
""fullscreenenter"",""1"",""3759""
","
","","","","","","null","<div style=""font-size:60px;"">+</div>","null","","fixation","","",""
"memory-trial","23","122895","0.0-11.0-1.2","7702","approach_avoid_sv1","""event"",""trial"",""time""
""fullscreenenter"",""1"",""3759""
","
","
","""event"",""trial"",""time""
""fullscreenenter"",""1"",""3759""
","
","","","","","","2757.2000000000116","images/ball2.png","","","practice","4","definitely_new",""
"html-keyboard-response","24","123406","0.0-11.0-0.3","7702","approach_avoid_sv1","""event"",""trial"",""time""
""fullscreenenter"",""1"",""3759""
","
","
","""event"",""trial"",""time""
""fullscreenenter"",""1"",""3759""
","
","","","","","","null","<div style=""font-size:60px;"">+</div>","null","","fixation","","",""
"memory-trial","25","125719","0.0-11.0-1.3","7702","approach_avoid_sv1","""event"",""trial"",""time""
""fullscreenenter"",""1"",""3759""
","
","
","""event"",""trial"",""time""
""fullscreenenter"",""1"",""3759""
","
","","","","","","1293.0999999999767","images/racket5.png","","","practice","4","definitely_new",""
"html-keyboard-response","26","126223","0.0-11.0-0.4","7702","approach_avoid_sv1","""event"",""trial"",""time""
""fullscreenenter"",""1"",""3759""
","
","
","""event"",""trial"",""time""
""fullscreenenter"",""1"",""3759""
","
","","","","","","null","<div style=""font-size:60px;"">+</div>","null","","fixation","","",""
"memory-trial","27","128055","0.0-11.0-1.4","7702","approach_avoid_sv1","""event"",""trial"",""time""
""fullscreenenter"",""1"",""3759""
","
","
","""event"",""trial"",""time""
""fullscreenenter"",""1"",""3759""
","
","","","","","","819.0999999999767","images/ball5.png","","","practice","4","definitely_new",""
"html-keyboard-response","28","128558","0.0-11.0-0.5","7702","approach_avoid_sv1","""event"",""trial"",""time""
""fullscreenenter"",""1"",""3759""
","
","
","""event"",""trial"",""time""
""fullscreenenter"",""1"",""3759""
","
","","","","","","null","<div style=""font-size:60px;"">+</div>","null","","fixation","","",""
"memory-trial","29","131919","0.0-11.0-1.5","7702","approach_avoid_sv1","""event"",""trial"",""time""
""fullscreenenter"",""1"",""3759""
","
","
","""event"",""trial"",""time""
""fullscreenenter"",""1"",""3759""
","
","","","","","","2345.5","images/ball1.png","","","practice","1","definitely_old",""
"html-keyboard-response","30","132423","0.0-11.0-0.6","7702","approach_avoid_sv1","""event"",""trial"",""time""
""fullscreenenter"",""1"",""3759""
","
","
","""event"",""trial"",""time""
""fullscreenenter"",""1"",""3759""
","
","","","","","","null","<div style=""font-size:60px;"">+</div>","null","","fixation","","",""
"memory-trial","31","134558","0.0-11.0-1.6","7702","approach_avoid_sv1","""event"",""trial"",""time""
""fullscreenenter"",""1"",""3759""
","
","
","""event"",""trial"",""time""
""fullscreenenter"",""1"",""3759""
","
","","","","","","1122.100000000035","images/racket1.png","","","practice","4","definitely_new",""
"html-keyboard-response","32","135063","0.0-11.0-0.7","7702","approach_avoid_sv1","""event"",""trial"",""time""
""fullscreenenter"",""1"",""3759""
","
","
","""event"",""trial"",""time""
""fullscreenenter"",""1"",""3759""
","
","","","","","","null","<div style=""font-size:60px;"">+</div>","null","","fixation","","",""
"memory-trial","33","137231","0.0-11.0-1.7","7702","approach_avoid_sv1","""event"",""trial"",""time""
""fullscreenenter"",""1"",""3759""
","
","
","""event"",""trial"",""time""
""fullscreenenter"",""1"",""3759""
","
","","","","","","1150","images/racket2.png","","","practice","4","definitely_new",""
"learning-instructions","34","146498","0.0-12.0-0.0","7702","approach_avoid_sv1","""event"",""trial"",""time""
""fullscreenenter"",""1"",""3759""
","
","
","""event"",""trial"",""time""
""fullscreenenter"",""1"",""3759""
","
","","","","","","1962.5","<p> Great! You have completed the practice. </p><p> Before you start, we're going to ask you a few questions about how the game works.  </p>","","0","instructions","","",""
"preload","35","150426","0.0-13.0","7702","approach_avoid_sv1","""event"",""trial"",""time""
""fullscreenenter"",""1"",""3759""
","
","
","""event"",""trial"",""time""
""fullscreenenter"",""1"",""3759""
","
","true","false","[]","[]","[]","","","","","","","",""
"comp-q","36","160543","0.0-14.0-0.0","7702","approach_avoid_sv1","""event"",""trial"",""time""
""fullscreenenter"",""1"",""3759""
","
","
","""event"",""trial"",""time""
""fullscreenenter"",""1"",""3759""
","
","","","","","","4273.200000000012","<p> <b> True or False? </b> </p><p> In this game, you will only see each image once. </p>","","0","comp_question","","","true"
"comp-q","37","169370","0.0-14.0-1.0","7702","approach_avoid_sv1","""event"",""trial"",""time""
""fullscreenenter"",""1"",""3759""
","
","
","""event"",""trial"",""time""
""fullscreenenter"",""1"",""3759""
","
","","","","","","2476.399999999965","<p> <b> That's right! </b> You will see many different images <i> one time each </i> in this game. </p>","","0","comp_answer","","",""
"comp-q","38","179698","0.0-15.0-0.0","7702","approach_avoid_sv1","""event"",""trial"",""time""
""fullscreenenter"",""1"",""3759""
","
","
","""event"",""trial"",""time""
""fullscreenenter"",""1"",""3759""
","
","","","","","","5305.900000000023","<p> <b> True or False? </b> </p><p> You should use the mouse and click to make your response. </p>","","1","comp_question","","","true"
"comp-q","39","189125","0.0-15.0-1.0","7702","approach_avoid_sv1","""event"",""trial"",""time""
""fullscreenenter"",""1"",""3759""
","
","
","""event"",""trial"",""time""
""fullscreenenter"",""1"",""3759""
","
","","","","","","2915.2999999999884","<p><b> That's right! </b> You should use the '1', '2', '3', and '4' keys to make your response. </p>","","0","comp_answer","","",""
"comp-q","40","196579","0.0-16.0-0.0","7702","approach_avoid_sv1","""event"",""trial"",""time""
""fullscreenenter"",""1"",""3759""
","
","
","""event"",""trial"",""time""
""fullscreenenter"",""1"",""3759""
","
","","","","","","1760.2999999999302","<p> <b> True or False? </b> </p><p> You will have as much time as you want to make each choice. </p>","","1","comp_question","","","true"
"comp-q","41","202181","0.0-16.0-1.0","7702","approach_avoid_sv1","""event"",""trial"",""time""
""fullscreenenter"",""1"",""3759""
","
","
","""event"",""trial"",""time""
""fullscreenenter"",""1"",""3759""
","
","","","","","","888.3000000000466","<p> <b> That's right! </b> You will only have 10 seconds to make each choice. </p>","","0","comp_answer","","",""
"learning-instructions","42","214611","0.0-17.0","7702","approach_avoid_sv1","""event"",""trial"",""time""
""fullscreenenter"",""1"",""3759""
","
","
","""event"",""trial"",""time""
""fullscreenenter"",""1"",""3759""
","
","","","","","","3751.29999999993","<p> Great! You are now ready to begin the game. </p><p> Remember, use the 1, 2, 3, and 4 keys to make your responses. </p>","","0","instructions","","",""
"html-keyboard-response","43","215222","0.0-18.0-0.0","7702","approach_avoid_sv1","""event"",""trial"",""time""
""fullscreenenter"",""1"",""3759""
","
","
","""event"",""trial"",""time""
""fullscreenenter"",""1"",""3759""
","
","","","","","","null","<div style=""font-size:60px;"">+</div>","null","","fixation","","",""
"memory-trial","44","219303","0.0-18.0-1.0","7702","approach_avoid_sv1","""event"",""trial"",""time""
""fullscreenenter"",""1"",""3759""
","
","
","""event"",""trial"",""time""
""fullscreenenter"",""1"",""3759""
","
","","","","","","3059.0999999999767","images/table2.png","","","memory_trial","1","definitely_old",""
"html-keyboard-response","45","219814","0.0-18.0-0.1","7702","approach_avoid_sv1","""event"",""trial"",""time""
""fullscreenenter"",""1"",""3759""
","
","
","""event"",""trial"",""time""
""fullscreenenter"",""1"",""3759""
","
","","","","","","null","<div style=""font-size:60px;"">+</div>","null","","fixation","","",""
"memory-trial","46","222966","0.0-18.0-1.1","7702","approach_avoid_sv1","""event"",""trial"",""time""
""fullscreenenter"",""1"",""3759""
","
","
","""event"",""trial"",""time""
""fullscreenenter"",""1"",""3759""
","
","","","","","","2140.20000000007","images/train5.png","","","memory_trial","4","definitely_new",""
"html-keyboard-response","47","223470","0.0-18.0-0.2","7702","approach_avoid_sv1","""event"",""trial"",""time""
""fullscreenenter"",""1"",""3759""
","
","
","""event"",""trial"",""time""
""fullscreenenter"",""1"",""3759""
","
","","","","","","null","<div style=""font-size:60px;"">+</div>","null","","fixation","","",""
"memory-trial","48","226607","0.0-18.0-1.2","7702","approach_avoid_sv1","""event"",""trial"",""time""
""fullscreenenter"",""1"",""3759""
","
","
","""event"",""trial"",""time""
""fullscreenenter"",""1"",""3759""
","
","","","","","","2117.1999999999534","images/boat8.png","","","memory_trial","1","definitely_old",""
"html-keyboard-response","49","227119","0.0-18.0-0.3","7702","approach_avoid_sv1","""event"",""trial"",""time""
""fullscreenenter"",""1"",""3759""
","
","
","""event"",""trial"",""time""
""fullscreenenter"",""1"",""3759""
","
","","","","","","null","<div style=""font-size:60px;"">+</div>","null","","fixation","","",""
"memory-trial","50","230431","0.0-18.0-1.3","7702","approach_avoid_sv1","""event"",""trial"",""time""
""fullscreenenter"",""1"",""3759""
","
","
","""event"",""trial"",""time""
""fullscreenenter"",""1"",""3759""
","
","","","","","","2280.5999999999767","images/bush6.png","","","memory_trial","3","maybe_new",""
"html-keyboard-response","51","230935","0.0-18.0-0.4","7702","approach_avoid_sv1","""event"",""trial"",""time""
""fullscreenenter"",""1"",""3759""
","
","
","""event"",""trial"",""time""
""fullscreenenter"",""1"",""3759""
","
","","","","","","null","<div style=""font-size:60px;"">+</div>","null","","fixation","","",""
"memory-trial","52","235655","0.0-18.0-1.4","7702","approach_avoid_sv1","""event"",""trial"",""time""
""fullscreenenter"",""1"",""3759""
","
","
","""event"",""trial"",""time""
""fullscreenenter"",""1"",""3759""
","
","","","","","","3698.8000000000466","images/orange6.png","","","memory_trial","4","definitely_new",""
"html-keyboard-response","53","236167","0.0-18.0-0.5","7702","approach_avoid_sv1","""event"",""trial"",""time""
""fullscreenenter"",""1"",""3759""
","
","
","""event"",""trial"",""time""
""fullscreenenter"",""1"",""3759""
","
","","","","","","null","<div style=""font-size:60px;"">+</div>","null","","fixation","","",""
"memory-trial","54","239663","0.0-18.0-1.5","7702","approach_avoid_sv1","""event"",""trial"",""time""
""fullscreenenter"",""1"",""3759""
","
","
","""event"",""trial"",""time""
""fullscreenenter"",""1"",""3759""
","
","","","","","","2477.1999999999534","images/cactus7.png","","","memory_trial","2","maybe_old",""
"html-keyboard-response","55","240174","0.0-18.0-0.6","7702","approach_avoid_sv1","""event"",""trial"",""time""
""fullscreenenter"",""1"",""3759""
","
","
","""event"",""trial"",""time""
""fullscreenenter"",""1"",""3759""
","
","","","","","","null","<div style=""font-size:60px;"">+</div>","null","","fixation","","",""
"memory-trial","56","242831","0.0-18.0-1.6","7702","approach_avoid_sv1","""event"",""trial"",""time""
""fullscreenenter"",""1"",""3759""
","
","
","""event"",""trial"",""time""
""fullscreenenter"",""1"",""3759""
","
","","","","","","1637","images/cat7.png","","","memory_trial","2","maybe_old",""
"html-keyboard-response","57","243335","0.0-18.0-0.7","7702","approach_avoid_sv1","""event"",""trial"",""time""
""fullscreenenter"",""1"",""3759""
","
","
","""event"",""trial"",""time""
""fullscreenenter"",""1"",""3759""
","
","","","","","","null","<div style=""font-size:60px;"">+</div>","null","","fixation","","",""
"memory-trial","58","246687","0.0-18.0-1.7","7702","approach_avoid_sv1","""event"",""trial"",""time""
""fullscreenenter"",""1"",""3759""
","
","
","""event"",""trial"",""time""
""fullscreenenter"",""1"",""3759""
","
","","","","","","2332.5999999999767","images/sheep7.png","","","memory_trial","2","maybe_old",""
"html-keyboard-response","59","247191","0.0-18.0-0.8","7702","approach_avoid_sv1","""event"",""trial"",""time""
""fullscreenenter"",""1"",""3759""
","
","
","""event"",""trial"",""time""
""fullscreenenter"",""1"",""3759""
","
","","","","","","null","<div style=""font-size:60px;"">+</div>","null","","fixation","","",""
"memory-trial","60","249343","0.0-18.0-1.8","7702","approach_avoid_sv1","""event"",""trial"",""time""
""fullscreenenter"",""1"",""3759""
","
","
","""event"",""trial"",""time""
""fullscreenenter"",""1"",""3759""
","
","","","","","","1135.3000000000466","images/bush2.png","","","memory_trial","2","maybe_old",""
"html-keyboard-response","61","249847","0.0-18.0-0.9","7702","approach_avoid_sv1","""event"",""trial"",""time""
""fullscreenenter"",""1"",""3759""
","
","
","""event"",""trial"",""time""
""fullscreenenter"",""1"",""3759""
","
","","","","","","null","<div style=""font-size:60px;"">+</div>","null","","fixation","","",""
"memory-trial","62","253803","0.0-18.0-1.9","7702","approach_avoid_sv1","""event"",""trial"",""time""
""fullscreenenter"",""1"",""3759""
","
","
","""event"",""trial"",""time""
""fullscreenenter"",""1"",""3759""
","
","","","","","","2934.20000000007","images/horse6.png","","","memory_trial","2","maybe_old",""
"html-keyboard-response","63","254310","0.0-18.0-0.10","7702","approach_avoid_sv1","""event"",""trial"",""time""
""fullscreenenter"",""1"",""3759""
","
","
","""event"",""trial"",""time""
""fullscreenenter"",""1"",""3759""
","
","","","","","","null","<div style=""font-size:60px;"">+</div>","null","","fixation","","",""
"memory-trial","64","257063","0.0-18.0-1.10","7702","approach_avoid_sv1","""event"",""trial"",""time""
""fullscreenenter"",""1"",""3759""
","
","
","""event"",""trial"",""time""
""fullscreenenter"",""1"",""3759""
","
","","","","","","1735.7999999999302","images/orange8.png","","","memory_trial","4","definitely_new",""
"html-keyboard-response","65","257574","0.0-18.0-0.11","7702","approach_avoid_sv1","""event"",""trial"",""time""
""fullscreenenter"",""1"",""3759""
","
","
","""event"",""trial"",""time""
""fullscreenenter"",""1"",""3759""
","
","","","","","","null","<div style=""font-size:60px;"">+</div>","null","","fixation","","",""
"memory-trial","66","260734","0.0-18.0-1.11","7702","approach_avoid_sv1","""event"",""trial"",""time""
""fullscreenenter"",""1"",""3759""
","
","
","""event"",""trial"",""time""
""fullscreenenter"",""1"",""3759""
","
","","","","","","2146.3000000000466","images/straw4.png","","","memory_trial","1","definitely_old",""
"html-keyboard-response","67","261238","0.0-18.0-0.12","7702","approach_avoid_sv1","""event"",""trial"",""time""
""fullscreenenter"",""1"",""3759""
","
","
","""event"",""trial"",""time""
""fullscreenenter"",""1"",""3759""
","
","","","","","","null","<div style=""font-size:60px;"">+</div>","null","","fixation","","",""
"memory-trial","68","263455","0.0-18.0-1.12","7702","approach_avoid_sv1","""event"",""trial"",""time""
""fullscreenenter"",""1"",""3759""
","
","
","""event"",""trial"",""time""
""fullscreenenter"",""1"",""3759""
","
","","","","","","1201.2000000000698","images/rabbit4.png","","","memory_trial","1","definitely_old",""
"html-keyboard-response","69","263958","0.0-18.0-0.13","7702","approach_avoid_sv1","""event"",""trial"",""time""
""fullscreenenter"",""1"",""3759""
","
","
","""event"",""trial"",""time""
""fullscreenenter"",""1"",""3759""
","
","","","","","","null","<div style=""font-size:60px;"">+</div>","null","","fixation","","",""
"memory-trial","70","265919","0.0-18.0-1.13","7702","approach_avoid_sv1","""event"",""trial"",""time""
""fullscreenenter"",""1"",""3759""
","
","
","""event"",""trial"",""time""
""fullscreenenter"",""1"",""3759""
","
","","","","","","945.5","images/dog1.png","","","memory_trial","1","definitely_old",""
"html-keyboard-response","71","266422","0.0-18.0-0.14","7702","approach_avoid_sv1","""event"",""trial"",""time""
""fullscreenenter"",""1"",""3759""
","
","
","""event"",""trial"",""time""
""fullscreenenter"",""1"",""3759""
","
","","","","","","null","<div style=""font-size:60px;"">+</div>","null","","fixation","","",""
"memory-trial","72","269431","0.0-18.0-1.14","7702","approach_avoid_sv1","""event"",""trial"",""time""
""fullscreenenter"",""1"",""3759""
","
","
","""event"",""trial"",""time""
""fullscreenenter"",""1"",""3759""
","
","","","","","","1995.0999999999767","images/straw5.png","","","memory_trial","2","maybe_old",""
"html-keyboard-response","73","269936","0.0-18.0-0.15","7702","approach_avoid_sv1","""event"",""trial"",""time""
""fullscreenenter"",""1"",""3759""
","
","
","""event"",""trial"",""time""
""fullscreenenter"",""1"",""3759""
","
","","","","","","null","<div style=""font-size:60px;"">+</div>","null","","fixation","","",""
"memory-trial","74","273255","0.0-18.0-1.15","7702","approach_avoid_sv1","""event"",""trial"",""time""
""fullscreenenter"",""1"",""3759""
","
","
","""event"",""trial"",""time""
""fullscreenenter"",""1"",""3759""
","
","","","","","","2300.5999999999767","images/orange4.png","","","memory_trial","2","maybe_old",""
"html-keyboard-response","75","273758","0.0-18.0-0.16","7702","approach_avoid_sv1","""event"",""trial"",""time""
""fullscreenenter"",""1"",""3759""
","
","
","""event"",""trial"",""time""
""fullscreenenter"",""1"",""3759""
","
","","","","","","null","<div style=""font-size:60px;"">+</div>","null","","fixation","","",""
"memory-trial","76","276350","0.0-18.0-1.16","7702","approach_avoid_sv1","""event"",""trial"",""time""
""fullscreenenter"",""1"",""3759""
","
","
","""event"",""trial"",""time""
""fullscreenenter"",""1"",""3759""
","
","","","","","","1573.1000000000931","images/sheep8.png","","","memory_trial","2","maybe_old",""
"html-keyboard-response","77","276855","0.0-18.0-0.17","7702","approach_avoid_sv1","""event"",""trial"",""time""
""fullscreenenter"",""1"",""3759""
","
","
","""event"",""trial"",""time""
""fullscreenenter"",""1"",""3759""
","
","","","","","","null","<div style=""font-size:60px;"">+</div>","null","","fixation","","",""
"memory-trial","78","279455","0.0-18.0-1.17","7702","approach_avoid_sv1","""event"",""trial"",""time""
""fullscreenenter"",""1"",""3759""
","
","
","""event"",""trial"",""time""
""fullscreenenter"",""1"",""3759""
","
","","","","","","1590.9000000000233","images/rabbit6.png","","","memory_trial","2","maybe_old",""
"html-keyboard-response","79","279959","0.0-18.0-0.18","7702","approach_avoid_sv1","""event"",""trial"",""time""
""fullscreenenter"",""1"",""3759""
","
","
","""event"",""trial"",""time""
""fullscreenenter"",""1"",""3759""
","
","","","","","","null","<div style=""font-size:60px;"">+</div>","null","","fixation","","",""
"memory-trial","80","282703","0.0-18.0-1.18","7702","approach_avoid_sv1","""event"",""trial"",""time""
""fullscreenenter"",""1"",""3759""
","
","
","""event"",""trial"",""time""
""fullscreenenter"",""1"",""3759""
","
","","","","","","1728.5","images/truck1.png","","","memory_trial","4","definitely_new",""
"html-keyboard-response","81","283214","0.0-18.0-0.19","7702","approach_avoid_sv1","""event"",""trial"",""time""
""fullscreenenter"",""1"",""3759""
","
","
","""event"",""trial"",""time""
""fullscreenenter"",""1"",""3759""
","
","","","","","","null","<div style=""font-size:60px;"">+</div>","null","","fixation","","",""
"memory-trial","82","286352","0.0-18.0-1.19","7702","approach_avoid_sv1","""event"",""trial"",""time""
""fullscreenenter"",""1"",""3759""
","
","
","""event"",""trial"",""time""
""fullscreenenter"",""1"",""3759""
","
","","","","","","2119.1999999999534","images/goat5.png","","","memory_trial","1","definitely_old",""
"html-keyboard-response","83","286863","0.0-18.0-0.20","7702","approach_avoid_sv1","""event"",""trial"",""time""
""fullscreenenter"",""1"",""3759""
","
","
","""event"",""trial"",""time""
""fullscreenenter"",""1"",""3759""
","
","","","","","","null","<div style=""font-size:60px;"">+</div>","null","","fixation","","",""
"memory-trial","84","289847","0.0-18.0-1.20","7702","approach_avoid_sv1","""event"",""trial"",""time""
""fullscreenenter"",""1"",""3759""
","
","
","""event"",""trial"",""time""
""fullscreenenter"",""1"",""3759""
","
","","","","","","1967.0999999999767","images/sofa3.png","","","memory_trial","2","maybe_old",""
"html-keyboard-response","85","290350","0.0-18.0-0.21","7702","approach_avoid_sv1","""event"",""trial"",""time""
""fullscreenenter"",""1"",""3759""
","
","
","""event"",""trial"",""time""
""fullscreenenter"",""1"",""3759""
","
","","","","","","null","<div style=""font-size:60px;"">+</div>","null","","fixation","","",""
"memory-trial","86","292928","0.0-18.0-1.21","7702","approach_avoid_sv1","""event"",""trial"",""time""
""fullscreenenter"",""1"",""3759""
","
","
","""event"",""trial"",""time""
""fullscreenenter"",""1"",""3759""
","
","","","","","","1562.5","images/cactus1.png","","","memory_trial","2","maybe_old",""
"html-keyboard-response","87","293430","0.0-18.0-0.22","7702","approach_avoid_sv1","""event"",""trial"",""time""
""fullscreenenter"",""1"",""3759""
","
","
","""event"",""trial"",""time""
""fullscreenenter"",""1"",""3759""
","
","","","","","","null","<div style=""font-size:60px;"">+</div>","null","","fixation","","",""
"memory-trial","88","296470","0.0-18.0-1.22","7702","approach_avoid_sv1","""event"",""trial"",""time""
""fullscreenenter"",""1"",""3759""
","
","
","""event"",""trial"",""time""
""fullscreenenter"",""1"",""3759""
","
","","","","","","2027.3000000000466","images/sheep1.png","","","memory_trial","2","maybe_old",""
"html-keyboard-response","89","296974","0.0-18.0-0.23","7702","approach_avoid_sv1","""event"",""trial"",""time""
""fullscreenenter"",""1"",""3759""
","
","
","""event"",""trial"",""time""
""fullscreenenter"",""1"",""3759""
","
","","","","","","null","<div style=""font-size:60px;"">+</div>","null","","fixation","","",""
"memory-trial","90","299719","0.0-18.0-1.23","7702","approach_avoid_sv1","""event"",""trial"",""time""
""fullscreenenter"",""1"",""3759""
","
","
","""event"",""trial"",""time""
""fullscreenenter"",""1"",""3759""
","
","","","","","","1725.6999999999534","images/dog2.png","","","memory_trial","3","maybe_new",""
"html-keyboard-response","91","300222","0.0-18.0-0.24","7702","approach_avoid_sv1","""event"",""trial"",""time""
""fullscreenenter"",""1"",""3759""
","
","
","""event"",""trial"",""time""
""fullscreenenter"",""1"",""3759""
","
","","","","","","null","<div style=""font-size:60px;"">+</div>","null","","fixation","","",""
"memory-trial","92","303207","0.0-18.0-1.24","7702","approach_avoid_sv1","""event"",""trial"",""time""
""fullscreenenter"",""1"",""3759""
","
","
","""event"",""trial"",""time""
""fullscreenenter"",""1"",""3759""
","
","","","","","","1963.4000000000233","images/orange2.png","","","memory_trial","2","maybe_old",""
"html-keyboard-response","93","303710","0.0-18.0-0.25","7702","approach_avoid_sv1","""event"",""trial"",""time""
""fullscreenenter"",""1"",""3759""
","
","
","""event"",""trial"",""time""
""fullscreenenter"",""1"",""3759""
","
","","","","","","null","<div style=""font-size:60px;"">+</div>","null","","fixation","","",""
"memory-trial","94","305878","0.0-18.0-1.25","7702","approach_avoid_sv1","""event"",""trial"",""time""
""fullscreenenter"",""1"",""3759""
","
","
","""event"",""trial"",""time""
""fullscreenenter"",""1"",""3759""
","
","","","","","","1151","images/chair4.png","","","memory_trial","3","maybe_new",""
"html-keyboard-response","95","306382","0.0-18.0-0.26","7702","approach_avoid_sv1","""event"",""trial"",""time""
""fullscreenenter"",""1"",""3759""
","
","
","""event"",""trial"",""time""
""fullscreenenter"",""1"",""3759""
","
","","","","","","null","<div style=""font-size:60px;"">+</div>","null","","fixation","","",""
"memory-trial","96","308094","0.0-18.0-1.26","7702","approach_avoid_sv1","""event"",""trial"",""time""
""fullscreenenter"",""1"",""3759""
","
","
","""event"",""trial"",""time""
""fullscreenenter"",""1"",""3759""
","
","","","","","","700.4000000000233","images/banana4.png","","","memory_trial","2","maybe_old",""
"html-keyboard-response","97","308598","0.0-18.0-0.27","7702","approach_avoid_sv1","""event"",""trial"",""time""
""fullscreenenter"",""1"",""3759""
","
","
","""event"",""trial"",""time""
""fullscreenenter"",""1"",""3759""
","
","","","","","","null","<div style=""font-size:60px;"">+</div>","null","","fixation","","",""
"memory-trial","98","310919","0.0-18.0-1.27","7702","approach_avoid_sv1","""event"",""trial"",""time""
""fullscreenenter"",""1"",""3759""
","
","
","""event"",""trial"",""time""
""fullscreenenter"",""1"",""3759""
","
","","","","","","1311.5999999999767","images/orange3.png","","","memory_trial","3","maybe_new",""
"html-keyboard-response","99","311422","0.0-18.0-0.28","7702","approach_avoid_sv1","""event"",""trial"",""time""
""fullscreenenter"",""1"",""3759""
","
","
","""event"",""trial"",""time""
""fullscreenenter"",""1"",""3759""
","
","","","","","","null","<div style=""font-size:60px;"">+</div>","null","","fixation","","",""
"memory-trial","100","313711","0.0-18.0-1.28","7702","approach_avoid_sv1","""event"",""trial"",""time""
""fullscreenenter"",""1"",""3759""
","
","
","""event"",""trial"",""time""
""fullscreenenter"",""1"",""3759""
","
","","","","","","1273.7000000000698","images/table5.png","","","memory_trial","3","maybe_new",""
"html-keyboard-response","101","314214","0.0-18.0-0.29","7702","approach_avoid_sv1","""event"",""trial"",""time""
""fullscreenenter"",""1"",""3759""
","
","
","""event"",""trial"",""time""
""fullscreenenter"",""1"",""3759""
","
","","","","","","null","<div style=""font-size:60px;"">+</div>","null","","fixation","","",""
"memory-trial","102","316383","0.0-18.0-1.29","7702","approach_avoid_sv1","""event"",""trial"",""time""
""fullscreenenter"",""1"",""3759""
","
","
","""event"",""trial"",""time""
""fullscreenenter"",""1"",""3759""
","
","","","","","","1146.5","images/apple1.png","","","memory_trial","3","maybe_new",""
"html-keyboard-response","103","316894","0.0-18.0-0.30","7702","approach_avoid_sv1","""event"",""trial"",""time""
""fullscreenenter"",""1"",""3759""
","
","
","""event"",""trial"",""time""
""fullscreenenter"",""1"",""3759""
","
","","","","","","null","<div style=""font-size:60px;"">+</div>","null","","fixation","","",""
"memory-trial","104","319559","0.0-18.0-1.30","7702","approach_avoid_sv1","""event"",""trial"",""time""
""fullscreenenter"",""1"",""3759""
","
","
","""event"",""trial"",""time""
""fullscreenenter"",""1"",""3759""
","
","","","","","","1655.5999999999767","images/straw8.png","","","memory_trial","2","maybe_old",""
"html-keyboard-response","105","320062","0.0-18.0-0.31","7702","approach_avoid_sv1","""event"",""trial"",""time""
""fullscreenenter"",""1"",""3759""
","
","
","""event"",""trial"",""time""
""fullscreenenter"",""1"",""3759""
","
","","","","","","null","<div style=""font-size:60px;"">+</div>","null","","fixation","","",""
"memory-trial","106","322608","0.0-18.0-1.31","7702","approach_avoid_sv1","""event"",""trial"",""time""
""fullscreenenter"",""1"",""3759""
","
","
","""event"",""trial"",""time""
""fullscreenenter"",""1"",""3759""
","
","","","","","","1526.5999999999767","images/flower2.png","","","memory_trial","3","maybe_new",""
"html-keyboard-response","107","323118","0.0-18.0-0.32","7702","approach_avoid_sv1","""event"",""trial"",""time""
""fullscreenenter"",""1"",""3759""
","
","
","""event"",""trial"",""time""
""fullscreenenter"",""1"",""3759""
","
","","","","","","null","<div style=""font-size:60px;"">+</div>","null","","fixation","","",""
"memory-trial","108","325583","0.0-18.0-1.32","7702","approach_avoid_sv1","""event"",""trial"",""time""
""fullscreenenter"",""1"",""3759""
","
","
","""event"",""trial"",""time""
""fullscreenenter"",""1"",""3759""
","
","","","","","","1451.5999999999767","images/rabbit3.png","","","memory_trial","2","maybe_old",""
"html-keyboard-response","109","326086","0.0-18.0-0.33","7702","approach_avoid_sv1","""event"",""trial"",""time""
""fullscreenenter"",""1"",""3759""
","
","
","""event"",""trial"",""time""
""fullscreenenter"",""1"",""3759""
","
","","","","","","null","<div style=""font-size:60px;"">+</div>","null","","fixation","","",""
"memory-trial","110","328303","0.0-18.0-1.33","7702","approach_avoid_sv1","""event"",""trial"",""time""
""fullscreenenter"",""1"",""3759""
","
","
","""event"",""trial"",""time""
""fullscreenenter"",""1"",""3759""
","
","","","","","","1196","images/table6.png","","","memory_trial","2","maybe_old",""
"html-keyboard-response","111","328807","0.0-18.0-0.34","7702","approach_avoid_sv1","""event"",""trial"",""time""
""fullscreenenter"",""1"",""3759""
","
","
","""event"",""trial"",""time""
""fullscreenenter"",""1"",""3759""
","
","","","","","","null","<div style=""font-size:60px;"">+</div>","null","","fixation","","",""
"memory-trial","112","330943","0.0-18.0-1.34","7702","approach_avoid_sv1","""event"",""trial"",""time""
""fullscreenenter"",""1"",""3759""
","
","
","""event"",""trial"",""time""
""fullscreenenter"",""1"",""3759""
","
","","","","","","1117.5","images/boat1.png","","","memory_trial","2","maybe_old",""
"html-keyboard-response","113","331446","0.0-18.0-0.35","7702","approach_avoid_sv1","""event"",""trial"",""time""
""fullscreenenter"",""1"",""3759""
","
","
","""event"",""trial"",""time""
""fullscreenenter"",""1"",""3759""
","
","","","","","","null","<div style=""font-size:60px;"">+</div>","null","","fixation","","",""
"memory-trial","114","334015","0.0-18.0-1.35","7702","approach_avoid_sv1","""event"",""trial"",""time""
""fullscreenenter"",""1"",""3759""
","
","
","""event"",""trial"",""time""
""fullscreenenter"",""1"",""3759""
","
","","","","","","1555.5","images/rabbit5.png","","","memory_trial","1","definitely_old",""
"html-keyboard-response","115","334526","0.0-18.0-0.36","7702","approach_avoid_sv1","""event"",""trial"",""time""
""fullscreenenter"",""1"",""3759""
","
","
","""event"",""trial"",""time""
""fullscreenenter"",""1"",""3759""
","
","","","","","","null","<div style=""font-size:60px;"">+</div>","null","","fixation","","",""
"memory-trial","116","337895","0.0-18.0-1.36","7702","approach_avoid_sv1","""event"",""trial"",""time""
""fullscreenenter"",""1"",""3759""
","
","
","""event"",""trial"",""time""
""fullscreenenter"",""1"",""3759""
","
","","","","","","2358.79999999993","images/flower3.png","","","memory_trial","3","maybe_new",""
"html-keyboard-response","117","338399","0.0-18.0-0.37","7702","approach_avoid_sv1","""event"",""trial"",""time""
""fullscreenenter"",""1"",""3759""
","
","
","""event"",""trial"",""time""
""fullscreenenter"",""1"",""3759""
","
","","","","","","null","<div style=""font-size:60px;"">+</div>","null","","fixation","","",""
"memory-trial","118","340775","0.0-18.0-1.37","7702","approach_avoid_sv1","""event"",""trial"",""time""
""fullscreenenter"",""1"",""3759""
","
","
","""event"",""trial"",""time""
""fullscreenenter"",""1"",""3759""
","
","","","","","","1357.5","images/plane6.png","","","memory_trial","1","definitely_old",""
"html-keyboard-response","119","341286","0.0-18.0-0.38","7702","approach_avoid_sv1","""event"",""trial"",""time""
""fullscreenenter"",""1"",""3759""
","
","
","""event"",""trial"",""time""
""fullscreenenter"",""1"",""3759""
","
","","","","","","null","<div style=""font-size:60px;"">+</div>","null","","fixation","","",""
"memory-trial","120","343750","0.0-18.0-1.38","7702","approach_avoid_sv1","""event"",""trial"",""time""
""fullscreenenter"",""1"",""3759""
","
","
","""event"",""trial"",""time""
""fullscreenenter"",""1"",""3759""
","
","","","","","","1452.7000000000698","images/plane4.png","","","memory_trial","1","definitely_old",""
"html-keyboard-response","121","344254","0.0-18.0-0.39","7702","approach_avoid_sv1","""event"",""trial"",""time""
""fullscreenenter"",""1"",""3759""
","
","
","""event"",""trial"",""time""
""fullscreenenter"",""1"",""3759""
","
","","","","","","null","<div style=""font-size:60px;"">+</div>","null","","fixation","","",""
"memory-trial","122","346399","0.0-18.0-1.39","7702","approach_avoid_sv1","""event"",""trial"",""time""
""fullscreenenter"",""1"",""3759""
","
","
","""event"",""trial"",""time""
""fullscreenenter"",""1"",""3759""
","
","","","","","","1131","images/goat1.png","","","memory_trial","2","maybe_old",""
"html-keyboard-response","123","346910","0.0-18.0-0.40","7702","approach_avoid_sv1","""event"",""trial"",""time""
""fullscreenenter"",""1"",""3759""
","
","
","""event"",""trial"",""time""
""fullscreenenter"",""1"",""3759""
","
","","","","","","null","<div style=""font-size:60px;"">+</div>","null","","fixation","","",""
"memory-trial","124","350319","0.0-18.0-1.40","7702","approach_avoid_sv1","""event"",""trial"",""time""
""fullscreenenter"",""1"",""3759""
","
","
","""event"",""trial"",""time""
""fullscreenenter"",""1"",""3759""
","
","","","","","","2398.600000000093","images/cow3.png","","","memory_trial","4","definitely_new",""
"html-keyboard-response","125","350823","0.0-18.0-0.41","7702","approach_avoid_sv1","""event"",""trial"",""time""
""fullscreenenter"",""1"",""3759""
","
","
","""event"",""trial"",""time""
""fullscreenenter"",""1"",""3759""
","
","","","","","","null","<div style=""font-size:60px;"">+</div>","null","","fixation","","",""
"memory-trial","126","352463","0.0-18.0-1.41","7702","approach_avoid_sv1","""event"",""trial"",""time""
""fullscreenenter"",""1"",""3759""
","
","
","""event"",""trial"",""time""
""fullscreenenter"",""1"",""3759""
","
","","","","","","622.4000000000233","images/apple4.png","","","memory_trial","3","maybe_new",""
"html-button-response","127","362786","0.0-18.0-2.41-0.41","7702","approach_avoid_sv1","""event"",""trial"",""time""
""fullscreenenter"",""1"",""3759""
","
","
","""event"",""trial"",""time""
""fullscreenenter"",""1"",""3759""
","
","","","","","","10318.600000000093","<p> Take a break! </p><p> Click the button to continue. </p>","0","","break","","",""
"html-keyboard-response","128","363294","0.0-18.0-0.42","7702","approach_avoid_sv1","""event"",""trial"",""time""
""fullscreenenter"",""1"",""3759""
","
","
","""event"",""trial"",""time""
""fullscreenenter"",""1"",""3759""
","
","","","","","","null","<div style=""font-size:60px;"">+</div>","null","","fixation","","",""
"memory-trial","129","366993","0.0-18.0-1.42","7702","approach_avoid_sv1","""event"",""trial"",""time""
""fullscreenenter"",""1"",""3759""
","
","
","""event"",""trial"",""time""
""fullscreenenter"",""1"",""3759""
","
","","","","","","2679.5","images/truck3.png","","","memory_trial","4","definitely_new",""
"html-keyboard-response","130","367503","0.0-18.0-0.43","7702","approach_avoid_sv1","""event"",""trial"",""time""
""fullscreenenter"",""1"",""3759""
","
","
","""event"",""trial"",""time""
""fullscreenenter"",""1"",""3759""
","
","","","","","","null","<div style=""font-size:60px;"">+</div>","null","","fixation","","",""
"memory-trial","131","369599","0.0-18.0-1.43","7702","approach_avoid_sv1","""event"",""trial"",""time""
""fullscreenenter"",""1"",""3759""
","
","
","""event"",""trial"",""time""
""fullscreenenter"",""1"",""3759""
","
","","","","","","1079.1000000000931","images/goat8.png","","","memory_trial","4","definitely_new",""
"html-keyboard-response","132","370102","0.0-18.0-0.44","7702","approach_avoid_sv1","""event"",""trial"",""time""
""fullscreenenter"",""1"",""3759""
","
","
","""event"",""trial"",""time""
""fullscreenenter"",""1"",""3759""
","
","","","","","","null","<div style=""font-size:60px;"">+</div>","null","","fixation","","",""
"memory-trial","133","372383","0.0-18.0-1.44","7702","approach_avoid_sv1","""event"",""trial"",""time""
""fullscreenenter"",""1"",""3759""
","
","
","""event"",""trial"",""time""
""fullscreenenter"",""1"",""3759""
","
","","","","","","1268.2999999999302","images/tree2.png","","","memory_trial","3","maybe_new",""
"html-keyboard-response","134","372886","0.0-18.0-0.45","7702","approach_avoid_sv1","""event"",""trial"",""time""
""fullscreenenter"",""1"",""3759""
","
","
","""event"",""trial"",""time""
""fullscreenenter"",""1"",""3759""
","
","","","","","","null","<div style=""font-size:60px;"">+</div>","null","","fixation","","",""
"memory-trial","135","374870","0.0-18.0-1.45","7702","approach_avoid_sv1","""event"",""trial"",""time""
""fullscreenenter"",""1"",""3759""
","
","
","""event"",""trial"",""time""
""fullscreenenter"",""1"",""3759""
","
","","","","","","970.6000000000931","images/sofa7.png","","","memory_trial","3","maybe_new",""
"html-keyboard-response","136","375374","0.0-18.0-0.46","7702","approach_avoid_sv1","""event"",""trial"",""time""
""fullscreenenter"",""1"",""3759""
","
","
","""event"",""trial"",""time""
""fullscreenenter"",""1"",""3759""
","
","","","","","","null","<div style=""font-size:60px;"">+</div>","null","","fixation","","",""
"memory-trial","137","378535","0.0-18.0-1.46","7702","approach_avoid_sv1","""event"",""trial"",""time""
""fullscreenenter"",""1"",""3759""
","
","
","""event"",""trial"",""time""
""fullscreenenter"",""1"",""3759""
","
","","","","","","2143.4000000000233","images/chair5.png","","","memory_trial","4","definitely_new",""
"html-keyboard-response","138","379046","0.0-18.0-0.47","7702","approach_avoid_sv1","""event"",""trial"",""time""
""fullscreenenter"",""1"",""3759""
","
","
","""event"",""trial"",""time""
""fullscreenenter"",""1"",""3759""
","
","","","","","","null","<div style=""font-size:60px;"">+</div>","null","","fixation","","",""
"memory-trial","139","380886","0.0-18.0-1.47","7702","approach_avoid_sv1","""event"",""trial"",""time""
""fullscreenenter"",""1"",""3759""
","
","
","""event"",""trial"",""time""
""fullscreenenter"",""1"",""3759""
","
","","","","","","827.8000000000466","images/train8.png","","","memory_trial","3","maybe_new",""
"html-keyboard-response","140","381390","0.0-18.0-0.48","7702","approach_avoid_sv1","""event"",""trial"",""time""
""fullscreenenter"",""1"",""3759""
","
","
","""event"",""trial"",""time""
""fullscreenenter"",""1"",""3759""
","
","","","","","","null","<div style=""font-size:60px;"">+</div>","null","","fixation","","",""
"memory-trial","141","383871","0.0-18.0-1.48","7702","approach_avoid_sv1","""event"",""trial"",""time""
""fullscreenenter"",""1"",""3759""
","
","
","""event"",""trial"",""time""
""fullscreenenter"",""1"",""3759""
","
","","","","","","1462.8000000000466","images/plane3.png","","","memory_trial","2","maybe_old",""
"html-keyboard-response","142","384382","0.0-18.0-0.49","7702","approach_avoid_sv1","""event"",""trial"",""time""
""fullscreenenter"",""1"",""3759""
","
","
","""event"",""trial"",""time""
""fullscreenenter"",""1"",""3759""
","
","","","","","","null","<div style=""font-size:60px;"">+</div>","null","","fixation","","",""
"memory-trial","143","386159","0.0-18.0-1.49","7702","approach_avoid_sv1","""event"",""trial"",""time""
""fullscreenenter"",""1"",""3759""
","
","
","""event"",""trial"",""time""
""fullscreenenter"",""1"",""3759""
","
","","","","","","757.8000000000466","images/cactus5.png","","","memory_trial","2","maybe_old",""
"html-keyboard-response","144","386662","0.0-18.0-0.50","7702","approach_avoid_sv1","""event"",""trial"",""time""
""fullscreenenter"",""1"",""3759""
","
","
","""event"",""trial"",""time""
""fullscreenenter"",""1"",""3759""
","
","","","","","","null","<div style=""font-size:60px;"">+</div>","null","","fixation","","",""
"memory-trial","145","389447","0.0-18.0-1.50","7702","approach_avoid_sv1","""event"",""trial"",""time""
""fullscreenenter"",""1"",""3759""
","
","
","""event"",""trial"",""time""
""fullscreenenter"",""1"",""3759""
","
","","","","","","1765.9000000000233","images/goat2.png","","","memory_trial","3","maybe_new",""
"html-keyboard-response","146","389951","0.0-18.0-0.51","7702","approach_avoid_sv1","""event"",""trial"",""time""
""fullscreenenter"",""1"",""3759""
","
","
","""event"",""trial"",""time""
""fullscreenenter"",""1"",""3759""
","
","","","","","","null","<div style=""font-size:60px;"">+</div>","null","","fixation","","",""
"memory-trial","147","392775","0.0-18.0-1.51","7702","approach_avoid_sv1","""event"",""trial"",""time""
""fullscreenenter"",""1"",""3759""
","
","
","""event"",""trial"",""time""
""fullscreenenter"",""1"",""3759""
","
","","","","","","1808.9000000000233","images/horse8.png","","","memory_trial","2","maybe_old",""
"html-keyboard-response","148","393286","0.0-18.0-0.52","7702","approach_avoid_sv1","""event"",""trial"",""time""
""fullscreenenter"",""1"",""3759""
","
","
","""event"",""trial"",""time""
""fullscreenenter"",""1"",""3759""
","
","","","","","","null","<div style=""font-size:60px;"">+</div>","null","","fixation","","",""
"memory-trial","149","395814","0.0-18.0-1.52","7702","approach_avoid_sv1","""event"",""trial"",""time""
""fullscreenenter"",""1"",""3759""
","
","
","""event"",""trial"",""time""
""fullscreenenter"",""1"",""3759""
","
","","","","","","1516.6999999999534","images/rodent6.png","","","memory_trial","1","definitely_old",""
"html-keyboard-response","150","396318","0.0-18.0-0.53","7702","approach_avoid_sv1","""event"",""trial"",""time""
""fullscreenenter"",""1"",""3759""
","
","
","""event"",""trial"",""time""
""fullscreenenter"",""1"",""3759""
","
","","","","","","null","<div style=""font-size:60px;"">+</div>","null","","fixation","","",""
"memory-trial","151","398607","0.0-18.0-1.53","7702","approach_avoid_sv1","""event"",""trial"",""time""
""fullscreenenter"",""1"",""3759""
","
","
","""event"",""trial"",""time""
""fullscreenenter"",""1"",""3759""
","
","","","","","","1268.5999999999767","images/bed1.png","","","memory_trial","3","maybe_new",""
"html-keyboard-response","152","399110","0.0-18.0-0.54","7702","approach_avoid_sv1","""event"",""trial"",""time""
""fullscreenenter"",""1"",""3759""
","
","
","""event"",""trial"",""time""
""fullscreenenter"",""1"",""3759""
","
","","","","","","null","<div style=""font-size:60px;"">+</div>","null","","fixation","","",""
"memory-trial","153","401823","0.0-18.0-1.54","7702","approach_avoid_sv1","""event"",""trial"",""time""
""fullscreenenter"",""1"",""3759""
","
","
","""event"",""trial"",""time""
""fullscreenenter"",""1"",""3759""
","
","","","","","","1696.5999999999767","images/dog8.png","","","memory_trial","4","definitely_new",""
"html-keyboard-response","154","402334","0.0-18.0-0.55","7702","approach_avoid_sv1","""event"",""trial"",""time""
""fullscreenenter"",""1"",""3759""
","
","
","""event"",""trial"",""time""
""fullscreenenter"",""1"",""3759""
","
","","","","","","null","<div style=""font-size:60px;"">+</div>","null","","fixation","","",""
"memory-trial","155","405263","0.0-18.0-1.55","7702","approach_avoid_sv1","""event"",""trial"",""time""
""fullscreenenter"",""1"",""3759""
","
","
","""event"",""trial"",""time""
""fullscreenenter"",""1"",""3759""
","
","","","","","","1913.3000000000466","images/tree1.png","","","memory_trial","2","maybe_old",""
"html-keyboard-response","156","405775","0.0-18.0-0.56","7702","approach_avoid_sv1","""event"",""trial"",""time""
""fullscreenenter"",""1"",""3759""
","
","
","""event"",""trial"",""time""
""fullscreenenter"",""1"",""3759""
","
","","","","","","null","<div style=""font-size:60px;"">+</div>","null","","fixation","","",""
"memory-trial","157","408447","0.0-18.0-1.56","7702","approach_avoid_sv1","""event"",""trial"",""time""
""fullscreenenter"",""1"",""3759""
","
","
","""event"",""trial"",""time""
""fullscreenenter"",""1"",""3759""
","
","","","","","","1658.0999999999767","images/horse5.png","","","memory_trial","1","definitely_old",""
"html-keyboard-response","158","408958","0.0-18.0-0.57","7702","approach_avoid_sv1","""event"",""trial"",""time""
""fullscreenenter"",""1"",""3759""
","
","
","""event"",""trial"",""time""
""fullscreenenter"",""1"",""3759""
","
","","","","","","null","<div style=""font-size:60px;"">+</div>","null","","fixation","","",""
"memory-trial","159","411895","0.0-18.0-1.57","7702","approach_avoid_sv1","""event"",""trial"",""time""
""fullscreenenter"",""1"",""3759""
","
","
","""event"",""trial"",""time""
""fullscreenenter"",""1"",""3759""
","
","","","","","","1920.2000000000698","images/horse1.png","","","memory_trial","1","definitely_old",""
"html-keyboard-response","160","412398","0.0-18.0-0.58","7702","approach_avoid_sv1","""event"",""trial"",""time""
""fullscreenenter"",""1"",""3759""
","
","
","""event"",""trial"",""time""
""fullscreenenter"",""1"",""3759""
","
","","","","","","null","<div style=""font-size:60px;"">+</div>","null","","fixation","","",""
"memory-trial","161","414879","0.0-18.0-1.58","7702","approach_avoid_sv1","""event"",""trial"",""time""
""fullscreenenter"",""1"",""3759""
","
","
","""event"",""trial"",""time""
""fullscreenenter"",""1"",""3759""
","
","","","","","","1464.6000000000931","images/chair3.png","","","memory_trial","2","maybe_old",""
"html-keyboard-response","162","415382","0.0-18.0-0.59","7702","approach_avoid_sv1","""event"",""trial"",""time""
""fullscreenenter"",""1"",""3759""
","
","
","""event"",""trial"",""time""
""fullscreenenter"",""1"",""3759""
","
","","","","","","null","<div style=""font-size:60px;"">+</div>","null","","fixation","","",""
"memory-trial","163","417535","0.0-18.0-1.59","7702","approach_avoid_sv1","""event"",""trial"",""time""
""fullscreenenter"",""1"",""3759""
","
","
","""event"",""trial"",""time""
""fullscreenenter"",""1"",""3759""
","
","","","","","","1136.3999999999069","images/tree8.png","","","memory_trial","4","definitely_new",""
"html-keyboard-response","164","418039","0.0-18.0-0.60","7702","approach_avoid_sv1","""event"",""trial"",""time""
""fullscreenenter"",""1"",""3759""
","
","
","""event"",""trial"",""time""
""fullscreenenter"",""1"",""3759""
","
","","","","","","null","<div style=""font-size:60px;"">+</div>","null","","fixation","","",""
"memory-trial","165","420151","0.0-18.0-1.60","7702","approach_avoid_sv1","""event"",""trial"",""time""
""fullscreenenter"",""1"",""3759""
","
","
","""event"",""trial"",""time""
""fullscreenenter"",""1"",""3759""
","
","","","","","","1090.6999999999534","images/truck5.png","","","memory_trial","3","maybe_new",""
"html-keyboard-response","166","420655","0.0-18.0-0.61","7702","approach_avoid_sv1","""event"",""trial"",""time""
""fullscreenenter"",""1"",""3759""
","
","
","""event"",""trial"",""time""
""fullscreenenter"",""1"",""3759""
","
","","","","","","null","<div style=""font-size:60px;"">+</div>","null","","fixation","","",""
"memory-trial","167","422846","0.0-18.0-1.61","7702","approach_avoid_sv1","""event"",""trial"",""time""
""fullscreenenter"",""1"",""3759""
","
","
","""event"",""trial"",""time""
""fullscreenenter"",""1"",""3759""
","
","","","","","","1175.2000000000698","images/sofa8.png","","","memory_trial","3","maybe_new",""
"html-keyboard-response","168","423350","0.0-18.0-0.62","7702","approach_avoid_sv1","""event"",""trial"",""time""
""fullscreenenter"",""1"",""3759""
","
","
","""event"",""trial"",""time""
""fullscreenenter"",""1"",""3759""
","
","","","","","","null","<div style=""font-size:60px;"">+</div>","null","","fixation","","",""
"memory-trial","169","426902","0.0-18.0-1.62","7702","approach_avoid_sv1","""event"",""trial"",""time""
""fullscreenenter"",""1"",""3759""
","
","
","""event"",""trial"",""time""
""fullscreenenter"",""1"",""3759""
","
","","","","","","2540.5","images/boat4.png","","","memory_trial","3","maybe_new",""
"html-keyboard-response","170","427407","0.0-18.0-0.63","7702","approach_avoid_sv1","""event"",""trial"",""time""
""fullscreenenter"",""1"",""3759""
","
","
","""event"",""trial"",""time""
""fullscreenenter"",""1"",""3759""
","
","","","","","","null","<div style=""font-size:60px;"">+</div>","null","","fixation","","",""
"memory-trial","171","430359","0.0-18.0-1.63","7702","approach_avoid_sv1","""event"",""trial"",""time""
""fullscreenenter"",""1"",""3759""
","
","
","""event"",""trial"",""time""
""fullscreenenter"",""1"",""3759""
","
","","","","","","1937.0999999999767","images/apple2.png","","","memory_trial","3","maybe_new",""
"html-keyboard-response","172","430862","0.0-18.0-0.64","7702","approach_avoid_sv1","""event"",""trial"",""time""
""fullscreenenter"",""1"",""3759""
","
","
","""event"",""trial"",""time""
""fullscreenenter"",""1"",""3759""
","
","","","","","","null","<div style=""font-size:60px;"">+</div>","null","","fixation","","",""
"memory-trial","173","434735","0.0-18.0-1.64","7702","approach_avoid_sv1","""event"",""trial"",""time""
""fullscreenenter"",""1"",""3759""
","
","
","""event"",""trial"",""time""
""fullscreenenter"",""1"",""3759""
","
","","","","","","2855.4000000000233","images/cat2.png","","","memory_trial","3","maybe_new",""
"html-keyboard-response","174","435238","0.0-18.0-0.65","7702","approach_avoid_sv1","""event"",""trial"",""time""
""fullscreenenter"",""1"",""3759""
","
","
","""event"",""trial"",""time""
""fullscreenenter"",""1"",""3759""
","
","","","","","","null","<div style=""font-size:60px;"">+</div>","null","","fixation","","",""
"memory-trial","175","438703","0.0-18.0-1.65","7702","approach_avoid_sv1","""event"",""trial"",""time""
""fullscreenenter"",""1"",""3759""
","
","
","""event"",""trial"",""time""
""fullscreenenter"",""1"",""3759""
","
","","","","","","2448.5","images/boat6.png","","","memory_trial","2","maybe_old",""
"html-keyboard-response","176","439215","0.0-18.0-0.66","7702","approach_avoid_sv1","""event"",""trial"",""time""
""fullscreenenter"",""1"",""3759""
","
","
","""event"",""trial"",""time""
""fullscreenenter"",""1"",""3759""
","
","","","","","","null","<div style=""font-size:60px;"">+</div>","null","","fixation","","",""
"memory-trial","177","442543","0.0-18.0-1.66","7702","approach_avoid_sv1","""event"",""trial"",""time""
""fullscreenenter"",""1"",""3759""
","
","
","""event"",""trial"",""time""
""fullscreenenter"",""1"",""3759""
","
","","","","","","2312.4000000000233","images/orange5.png","","","memory_trial","3","maybe_new",""
"html-keyboard-response","178","443047","0.0-18.0-0.67","7702","approach_avoid_sv1","""event"",""trial"",""time""
""fullscreenenter"",""1"",""3759""
","
","
","""event"",""trial"",""time""
""fullscreenenter"",""1"",""3759""
","
","","","","","","null","<div style=""font-size:60px;"">+</div>","null","","fixation","","",""
"memory-trial","179","445695","0.0-18.0-1.67","7702","approach_avoid_sv1","""event"",""trial"",""time""
""fullscreenenter"",""1"",""3759""
","
","
","""event"",""trial"",""time""
""fullscreenenter"",""1"",""3759""
","
","","","","","","1627.2000000000698","images/cat3.png","","","memory_trial","3","maybe_new",""
"html-keyboard-response","180","446198","0.0-18.0-0.68","7702","approach_avoid_sv1","""event"",""trial"",""time""
""fullscreenenter"",""1"",""3759""
","
","
","""event"",""trial"",""time""
""fullscreenenter"",""1"",""3759""
","
","","","","","","null","<div style=""font-size:60px;"">+</div>","null","","fixation","","",""
"memory-trial","181","448654","0.0-18.0-1.68","7702","approach_avoid_sv1","""event"",""trial"",""time""
""fullscreenenter"",""1"",""3759""
","
","
","""event"",""trial"",""time""
""fullscreenenter"",""1"",""3759""
","
","","","","","","1441","images/flower7.png","","","memory_trial","3","maybe_new",""
"html-keyboard-response","182","449158","0.0-18.0-0.69","7702","approach_avoid_sv1","""event"",""trial"",""time""
""fullscreenenter"",""1"",""3759""
","
","
","""event"",""trial"",""time""
""fullscreenenter"",""1"",""3759""
","
","","","","","","null","<div style=""font-size:60px;"">+</div>","null","","fixation","","",""
"memory-trial","183","451479","0.0-18.0-1.69","7702","approach_avoid_sv1","""event"",""trial"",""time""
""fullscreenenter"",""1"",""3759""
","
","
","""event"",""trial"",""time""
""fullscreenenter"",""1"",""3759""
","
","","","","","","1309.3000000000466","images/boat2.png","","","memory_trial","3","maybe_new",""
"html-keyboard-response","184","451982","0.0-18.0-0.70","7702","approach_avoid_sv1","""event"",""trial"",""time""
""fullscreenenter"",""1"",""3759""
","
","
","""event"",""trial"",""time""
""fullscreenenter"",""1"",""3759""
","
","","","","","","null","<div style=""font-size:60px;"">+</div>","null","","fixation","","",""
"memory-trial","185","454151","0.0-18.0-1.70","7702","approach_avoid_sv1","""event"",""trial"",""time""
""fullscreenenter"",""1"",""3759""
","
","
","""event"",""trial"",""time""
""fullscreenenter"",""1"",""3759""
","
","","","","","","1153.0999999999767","images/table7.png","","","memory_trial","3","maybe_new",""
"html-keyboard-response","186","454654","0.0-18.0-0.71","7702","approach_avoid_sv1","""event"",""trial"",""time""
""fullscreenenter"",""1"",""3759""
","
","
","""event"",""trial"",""time""
""fullscreenenter"",""1"",""3759""
","
","","","","","","null","<div style=""font-size:60px;"">+</div>","null","","fixation","","",""
"memory-trial","187","456823","0.0-18.0-1.71","7702","approach_avoid_sv1","""event"",""trial"",""time""
""fullscreenenter"",""1"",""3759""
","
","
","""event"",""trial"",""time""
""fullscreenenter"",""1"",""3759""
","
","","","","","","1153.0999999999767","images/cow6.png","","","memory_trial","3","maybe_new",""
"html-keyboard-response","188","457334","0.0-18.0-0.72","7702","approach_avoid_sv1","""event"",""trial"",""time""
""fullscreenenter"",""1"",""3759""
","
","
","""event"",""trial"",""time""
""fullscreenenter"",""1"",""3759""
","
","","","","","","null","<div style=""font-size:60px;"">+</div>","null","","fixation","","",""
"memory-trial","189","460655","0.0-18.0-1.72","7702","approach_avoid_sv1","""event"",""trial"",""time""
""fullscreenenter"",""1"",""3759""
","
","
","""event"",""trial"",""time""
""fullscreenenter"",""1"",""3759""
","
","","","","","","2303","images/straw2.png","","","memory_trial","3","maybe_new",""
"html-keyboard-response","190","461166","0.0-18.0-0.73","7702","approach_avoid_sv1","""event"",""trial"",""time""
""fullscreenenter"",""1"",""3759""
","
","
","""event"",""trial"",""time""
""fullscreenenter"",""1"",""3759""
","
","","","","","","null","<div style=""font-size:60px;"">+</div>","null","","fixation","","",""
"memory-trial","191","464039","0.0-18.0-1.73","7702","approach_avoid_sv1","""event"",""trial"",""time""
""fullscreenenter"",""1"",""3759""
","
","
","""event"",""trial"",""time""
""fullscreenenter"",""1"",""3759""
","
","","","","","","1861.5999999999767","images/boat7.png","","","memory_trial","3","maybe_new",""
"html-keyboard-response","192","464550","0.0-18.0-0.74","7702","approach_avoid_sv1","""event"",""trial"",""time""
""fullscreenenter"",""1"",""3759""
","
","
","""event"",""trial"",""time""
""fullscreenenter"",""1"",""3759""
","
","","","","","","null","<div style=""font-size:60px;"">+</div>","null","","fixation","","",""
"memory-trial","193","467111","0.0-18.0-1.74","7702","approach_avoid_sv1","""event"",""trial"",""time""
""fullscreenenter"",""1"",""3759""
","
","
","""event"",""trial"",""time""
""fullscreenenter"",""1"",""3759""
","
","","","","","","1546.2000000000698","images/bed2.png","","","memory_trial","3","maybe_new",""
"html-keyboard-response","194","467623","0.0-18.0-0.75","7702","approach_avoid_sv1","""event"",""trial"",""time""
""fullscreenenter"",""1"",""3759""
","
","
","""event"",""trial"",""time""
""fullscreenenter"",""1"",""3759""
","
","","","","","","null","<div style=""font-size:60px;"">+</div>","null","","fixation","","",""
"memory-trial","195","470095","0.0-18.0-1.75","7702","approach_avoid_sv1","""event"",""trial"",""time""
""fullscreenenter"",""1"",""3759""
","
","
","""event"",""trial"",""time""
""fullscreenenter"",""1"",""3759""
","
","","","","","","1457.4000000000233","images/bed8.png","","","memory_trial","3","maybe_new",""
"html-keyboard-response","196","470606","0.0-18.0-0.76","7702","approach_avoid_sv1","""event"",""trial"",""time""
""fullscreenenter"",""1"",""3759""
","
","
","""event"",""trial"",""time""
""fullscreenenter"",""1"",""3759""
","
","","","","","","null","<div style=""font-size:60px;"">+</div>","null","","fixation","","",""
"memory-trial","197","472511","0.0-18.0-1.76","7702","approach_avoid_sv1","""event"",""trial"",""time""
""fullscreenenter"",""1"",""3759""
","
","
","""event"",""trial"",""time""
""fullscreenenter"",""1"",""3759""
","
","","","","","","883.4000000000233","images/sofa6.png","","","memory_trial","3","maybe_new",""
"html-keyboard-response","198","473022","0.0-18.0-0.77","7702","approach_avoid_sv1","""event"",""trial"",""time""
""fullscreenenter"",""1"",""3759""
","
","
","""event"",""trial"",""time""
""fullscreenenter"",""1"",""3759""
","
","","","","","","null","<div style=""font-size:60px;"">+</div>","null","","fixation","","",""
"memory-trial","199","475095","0.0-18.0-1.77","7702","approach_avoid_sv1","""event"",""trial"",""time""
""fullscreenenter"",""1"",""3759""
","
","
","""event"",""trial"",""time""
""fullscreenenter"",""1"",""3759""
","
","","","","","","1055.1999999999534","images/truck6.png","","","memory_trial","4","definitely_new",""
"html-keyboard-response","200","475598","0.0-18.0-0.78","7702","approach_avoid_sv1","""event"",""trial"",""time""
""fullscreenenter"",""1"",""3759""
","
","
","""event"",""trial"",""time""
""fullscreenenter"",""1"",""3759""
","
","","","","","","null","<div style=""font-size:60px;"">+</div>","null","","fixation","","",""
"memory-trial","201","477503","0.0-18.0-1.78","7702","approach_avoid_sv1","""event"",""trial"",""time""
""fullscreenenter"",""1"",""3759""
","
","
","""event"",""trial"",""time""
""fullscreenenter"",""1"",""3759""
","
","","","","","","888.0999999999767","images/train2.png","","","memory_trial","4","definitely_new",""
"html-keyboard-response","202","478006","0.0-18.0-0.79","7702","approach_avoid_sv1","""event"",""trial"",""time""
""fullscreenenter"",""1"",""3759""
","
","
","""event"",""trial"",""time""
""fullscreenenter"",""1"",""3759""
","
","","","","","","null","<div style=""font-size:60px;"">+</div>","null","","fixation","","",""
"memory-trial","203","480512","0.0-18.0-1.79","7702","approach_avoid_sv1","""event"",""trial"",""time""
""fullscreenenter"",""1"",""3759""
","
","
","""event"",""trial"",""time""
""fullscreenenter"",""1"",""3759""
","
","","","","","","1484.9000000000233","images/straw1.png","","","memory_trial","3","maybe_new",""
"html-keyboard-response","204","481022","0.0-18.0-0.80","7702","approach_avoid_sv1","""event"",""trial"",""time""
""fullscreenenter"",""1"",""3759""
","
","
","""event"",""trial"",""time""
""fullscreenenter"",""1"",""3759""
","
","","","","","","null","<div style=""font-size:60px;"">+</div>","null","","fixation","","",""
"memory-trial","205","483583","0.0-18.0-1.80","7702","approach_avoid_sv1","""event"",""trial"",""time""
""fullscreenenter"",""1"",""3759""
","
","
","""event"",""trial"",""time""
""fullscreenenter"",""1"",""3759""
","
","","","","","","1549.6999999999534","images/train6.png","","","memory_trial","2","maybe_old",""
"html-keyboard-response","206","484094","0.0-18.0-0.81","7702","approach_avoid_sv1","""event"",""trial"",""time""
""fullscreenenter"",""1"",""3759""
","
","
","""event"",""trial"",""time""
""fullscreenenter"",""1"",""3759""
","
","","","","","","null","<div style=""font-size:60px;"">+</div>","null","","fixation","","",""
"memory-trial","207","486439","0.0-18.0-1.81","7702","approach_avoid_sv1","""event"",""trial"",""time""
""fullscreenenter"",""1"",""3759""
","
","
","""event"",""trial"",""time""
""fullscreenenter"",""1"",""3759""
","
","","","","","","1329.3999999999069","images/orange1.png","","","memory_trial","4","definitely_new",""
"html-keyboard-response","208","486942","0.0-18.0-0.82","7702","approach_avoid_sv1","""event"",""trial"",""time""
""fullscreenenter"",""1"",""3759""
","
","
","""event"",""trial"",""time""
""fullscreenenter"",""1"",""3759""
","
","","","","","","null","<div style=""font-size:60px;"">+</div>","null","","fixation","","",""
"memory-trial","209","489375","0.0-18.0-1.82","7702","approach_avoid_sv1","""event"",""trial"",""time""
""fullscreenenter"",""1"",""3759""
","
","
","""event"",""trial"",""time""
""fullscreenenter"",""1"",""3759""
","
","","","","","","1417.8000000000466","images/cactus4.png","","","memory_trial","2","maybe_old",""
"html-keyboard-response","210","489878","0.0-18.0-0.83","7702","approach_avoid_sv1","""event"",""trial"",""time""
""fullscreenenter"",""1"",""3759""
","
","
","""event"",""trial"",""time""
""fullscreenenter"",""1"",""3759""
","
","","","","","","null","<div style=""font-size:60px;"">+</div>","null","","fixation","","",""
"memory-trial","211","491839","0.0-18.0-1.83","7702","approach_avoid_sv1","""event"",""trial"",""time""
""fullscreenenter"",""1"",""3759""
","
","
","""event"",""trial"",""time""
""fullscreenenter"",""1"",""3759""
","
","","","","","","940.8000000000466","images/rabbit2.png","","","memory_trial","1","definitely_old",""
"html-keyboard-response","212","492342","0.0-18.0-0.84","7702","approach_avoid_sv1","""event"",""trial"",""time""
""fullscreenenter"",""1"",""3759""
","
","
","""event"",""trial"",""time""
""fullscreenenter"",""1"",""3759""
","
","","","","","","null","<div style=""font-size:60px;"">+</div>","null","","fixation","","",""
"memory-trial","213","494614","0.0-18.0-1.84","7702","approach_avoid_sv1","""event"",""trial"",""time""
""fullscreenenter"",""1"",""3759""
","
","
","""event"",""trial"",""time""
""fullscreenenter"",""1"",""3759""
","
","","","","","","1253.1999999999534","images/apple6.png","","","memory_trial","4","definitely_new",""
"html-keyboard-response","214","495118","0.0-18.0-0.85","7702","approach_avoid_sv1","""event"",""trial"",""time""
""fullscreenenter"",""1"",""3759""
","
","
","""event"",""trial"",""time""
""fullscreenenter"",""1"",""3759""
","
","","","","","","null","<div style=""font-size:60px;"">+</div>","null","","fixation","","",""
"memory-trial","215","497687","0.0-18.0-1.85","7702","approach_avoid_sv1","""event"",""trial"",""time""
""fullscreenenter"",""1"",""3759""
","
","
","""event"",""trial"",""time""
""fullscreenenter"",""1"",""3759""
","
","","","","","","1556.1000000000931","images/sofa2.png","","","memory_trial","3","maybe_new",""
"html-keyboard-response","216","498199","0.0-18.0-0.86","7702","approach_avoid_sv1","""event"",""trial"",""time""
""fullscreenenter"",""1"",""3759""
","
","
","""event"",""trial"",""time""
""fullscreenenter"",""1"",""3759""
","
","","","","","","null","<div style=""font-size:60px;"">+</div>","null","","fixation","","",""
"memory-trial","217","499359","0.0-18.0-1.86","7702","approach_avoid_sv1","""event"",""trial"",""time""
""fullscreenenter"",""1"",""3759""
","
","
","""event"",""trial"",""time""
""fullscreenenter"",""1"",""3759""
","
","","","","","","141.90000000002328","images/cat8.png","","","memory_trial","3","maybe_new",""
"html-keyboard-response","218","499870","0.0-18.0-0.87","7702","approach_avoid_sv1","""event"",""trial"",""time""
""fullscreenenter"",""1"",""3759""
","
","
","""event"",""trial"",""time""
""fullscreenenter"",""1"",""3759""
","
","","","","","","null","<div style=""font-size:60px;"">+</div>","null","","fixation","","",""
"memory-trial","219","501815","0.0-18.0-1.87","7702","approach_avoid_sv1","""event"",""trial"",""time""
""fullscreenenter"",""1"",""3759""
","
","
","""event"",""trial"",""time""
""fullscreenenter"",""1"",""3759""
","
","","","","","","932","images/truck8.png","","","memory_trial","3","maybe_new",""
"html-keyboard-response","220","502318","0.0-18.0-0.88","7702","approach_avoid_sv1","""event"",""trial"",""time""
""fullscreenenter"",""1"",""3759""
","
","
","""event"",""trial"",""time""
""fullscreenenter"",""1"",""3759""
","
","","","","","","null","<div style=""font-size:60px;"">+</div>","null","","fixation","","",""
"memory-trial","221","504319","0.0-18.0-1.88","7702","approach_avoid_sv1","""event"",""trial"",""time""
""fullscreenenter"",""1"",""3759""
","
","
","""event"",""trial"",""time""
""fullscreenenter"",""1"",""3759""
","
","","","","","","983.8000000000466","images/dog4.png","","","memory_trial","3","maybe_new",""
"html-keyboard-response","222","504830","0.0-18.0-0.89","7702","approach_avoid_sv1","""event"",""trial"",""time""
""fullscreenenter"",""1"",""3759""
","
","
","""event"",""trial"",""time""
""fullscreenenter"",""1"",""3759""
","
","","","","","","null","<div style=""font-size:60px;"">+</div>","null","","fixation","","",""
"memory-trial","223","507247","0.0-18.0-1.89","7702","approach_avoid_sv1","""event"",""trial"",""time""
""fullscreenenter"",""1"",""3759""
","
","
","""event"",""trial"",""time""
""fullscreenenter"",""1"",""3759""
","
","","","","","","1400.8000000000466","images/bush4.png","","","memory_trial","3","maybe_new",""
"html-keyboard-response","224","507758","0.0-18.0-0.90","7702","approach_avoid_sv1","""event"",""trial"",""time""
""fullscreenenter"",""1"",""3759""
","
","
","""event"",""trial"",""time""
""fullscreenenter"",""1"",""3759""
","
","","","","","","null","<div style=""font-size:60px;"">+</div>","null","","fixation","","",""
"memory-trial","225","510151","0.0-18.0-1.90","7702","approach_avoid_sv1","""event"",""trial"",""time""
""fullscreenenter"",""1"",""3759""
","
","
","""event"",""trial"",""time""
""fullscreenenter"",""1"",""3759""
","
","","","","","","1378.4000000000233","images/horse2.png","","","memory_trial","2","maybe_old",""
"html-keyboard-response","226","510663","0.0-18.0-0.91","7702","approach_avoid_sv1","""event"",""trial"",""time""
""fullscreenenter"",""1"",""3759""
","
","
","""event"",""trial"",""time""
""fullscreenenter"",""1"",""3759""
","
","","","","","","null","<div style=""font-size:60px;"">+</div>","null","","fixation","","",""
"memory-trial","227","512735","0.0-18.0-1.91","7702","approach_avoid_sv1","""event"",""trial"",""time""
""fullscreenenter"",""1"",""3759""
","
","
","""event"",""trial"",""time""
""fullscreenenter"",""1"",""3759""
","
","","","","","","1057.4000000000233","images/sheep5.png","","","memory_trial","3","maybe_new",""
"html-button-response","228","515128","0.0-18.0-2.91-0.91","7702","approach_avoid_sv1","""event"",""trial"",""time""
""fullscreenenter"",""1"",""3759""
","
","
","""event"",""trial"",""time""
""fullscreenenter"",""1"",""3759""
","
","","","","","","2388.5999999999767","<p> Take a break! </p><p> Click the button to continue. </p>","0","","break","","",""
"html-keyboard-response","229","515638","0.0-18.0-0.92","7702","approach_avoid_sv1","""event"",""trial"",""time""
""fullscreenenter"",""1"",""3759""
","
","
","""event"",""trial"",""time""
""fullscreenenter"",""1"",""3759""
","
","","","","","","null","<div style=""font-size:60px;"">+</div>","null","","fixation","","",""
"memory-trial","230","519999","0.0-18.0-1.92","7702","approach_avoid_sv1","""event"",""trial"",""time""
""fullscreenenter"",""1"",""3759""
","
","
","""event"",""trial"",""time""
""fullscreenenter"",""1"",""3759""
","
","","","","","","3344.6999999999534","images/cow5.png","","","memory_trial","3","maybe_new",""
"html-keyboard-response","231","520510","0.0-18.0-0.93","7702","approach_avoid_sv1","""event"",""trial"",""time""
""fullscreenenter"",""1"",""3759""
","
","
","""event"",""trial"",""time""
""fullscreenenter"",""1"",""3759""
","
","","","","","","null","<div style=""font-size:60px;"">+</div>","null","","fixation","","",""
"memory-trial","232","522671","0.0-18.0-1.93","7702","approach_avoid_sv1","""event"",""trial"",""time""
""fullscreenenter"",""1"",""3759""
","
","
","""event"",""trial"",""time""
""fullscreenenter"",""1"",""3759""
","
","","","","","","1144.5999999999767","images/goat7.png","","","memory_trial","1","definitely_old",""
"html-keyboard-response","233","523182","0.0-18.0-0.94","7702","approach_avoid_sv1","""event"",""trial"",""time""
""fullscreenenter"",""1"",""3759""
","
","
","""event"",""trial"",""time""
""fullscreenenter"",""1"",""3759""
","
","","","","","","null","<div style=""font-size:60px;"">+</div>","null","","fixation","","",""
"memory-trial","234","525543","0.0-18.0-1.94","7702","approach_avoid_sv1","""event"",""trial"",""time""
""fullscreenenter"",""1"",""3759""
","
","
","""event"",""trial"",""time""
""fullscreenenter"",""1"",""3759""
","
","","","","","","1348","images/cactus6.png","","","memory_trial","2","maybe_old",""
"html-keyboard-response","235","526047","0.0-18.0-0.95","7702","approach_avoid_sv1","""event"",""trial"",""time""
""fullscreenenter"",""1"",""3759""
","
","
","""event"",""trial"",""time""
""fullscreenenter"",""1"",""3759""
","
","","","","","","null","<div style=""font-size:60px;"">+</div>","null","","fixation","","",""
"memory-trial","236","527822","0.0-18.0-1.95","7702","approach_avoid_sv1","""event"",""trial"",""time""
""fullscreenenter"",""1"",""3759""
","
","
","""event"",""trial"",""time""
""fullscreenenter"",""1"",""3759""
","
","","","","","","761.5999999999767","images/sofa5.png","","","memory_trial","4","definitely_new",""
"html-keyboard-response","237","528326","0.0-18.0-0.96","7702","approach_avoid_sv1","""event"",""trial"",""time""
""fullscreenenter"",""1"",""3759""
","
","
","""event"",""trial"",""time""
""fullscreenenter"",""1"",""3759""
","
","","","","","","null","<div style=""font-size:60px;"">+</div>","null","","fixation","","",""
"memory-trial","238","530774","0.0-18.0-1.96","7702","approach_avoid_sv1","""event"",""trial"",""time""
""fullscreenenter"",""1"",""3759""
","
","
","""event"",""trial"",""time""
""fullscreenenter"",""1"",""3759""
","
","","","","","","1429.0999999999767","images/train1.png","","","memory_trial","3","maybe_new",""
"html-keyboard-response","239","531278","0.0-18.0-0.97","7702","approach_avoid_sv1","""event"",""trial"",""time""
""fullscreenenter"",""1"",""3759""
","
","
","""event"",""trial"",""time""
""fullscreenenter"",""1"",""3759""
","
","","","","","","null","<div style=""font-size:60px;"">+</div>","null","","fixation","","",""
"memory-trial","240","533727","0.0-18.0-1.97","7702","approach_avoid_sv1","""event"",""trial"",""time""
""fullscreenenter"",""1"",""3759""
","
","
","""event"",""trial"",""time""
""fullscreenenter"",""1"",""3759""
","
","","","","","","1434.3000000000466","images/cow1.png","","","memory_trial","2","maybe_old",""
"html-keyboard-response","241","534238","0.0-18.0-0.98","7702","approach_avoid_sv1","""event"",""trial"",""time""
""fullscreenenter"",""1"",""3759""
","
","
","""event"",""trial"",""time""
""fullscreenenter"",""1"",""3759""
","
","","","","","","null","<div style=""font-size:60px;"">+</div>","null","","fixation","","",""
"memory-trial","242","536007","0.0-18.0-1.98","7702","approach_avoid_sv1","""event"",""trial"",""time""
""fullscreenenter"",""1"",""3759""
","
","
","""event"",""trial"",""time""
""fullscreenenter"",""1"",""3759""
","
","","","","","","750.3999999999069","images/banana1.png","","","memory_trial","2","maybe_old",""
"html-keyboard-response","243","536518","0.0-18.0-0.99","7702","approach_avoid_sv1","""event"",""trial"",""time""
""fullscreenenter"",""1"",""3759""
","
","
","""event"",""trial"",""time""
""fullscreenenter"",""1"",""3759""
","
","","","","","","null","<div style=""font-size:60px;"">+</div>","null","","fixation","","",""
"memory-trial","244","539030","0.0-18.0-1.99","7702","approach_avoid_sv1","""event"",""trial"",""time""
""fullscreenenter"",""1"",""3759""
","
","
","""event"",""trial"",""time""
""fullscreenenter"",""1"",""3759""
","
","","","","","","1495.5","images/table3.png","","","memory_trial","3","maybe_new",""
"html-keyboard-response","245","539534","0.0-18.0-0.100","7702","approach_avoid_sv1","""event"",""trial"",""time""
""fullscreenenter"",""1"",""3759""
","
","
","""event"",""trial"",""time""
""fullscreenenter"",""1"",""3759""
","
","","","","","","null","<div style=""font-size:60px;"">+</div>","null","","fixation","","",""
"memory-trial","246","541694","0.0-18.0-1.100","7702","approach_avoid_sv1","""event"",""trial"",""time""
""fullscreenenter"",""1"",""3759""
","
","
","""event"",""trial"",""time""
""fullscreenenter"",""1"",""3759""
","
","","","","","","1143.5999999999767","images/sofa4.png","","","memory_trial","3","maybe_new",""
"html-keyboard-response","247","542199","0.0-18.0-0.101","7702","approach_avoid_sv1","""event"",""trial"",""time""
""fullscreenenter"",""1"",""3759""
","
","
","""event"",""trial"",""time""
""fullscreenenter"",""1"",""3759""
","
","","","","","","null","<div style=""font-size:60px;"">+</div>","null","","fixation","","",""
"memory-trial","248","544958","0.0-18.0-1.101","7702","approach_avoid_sv1","""event"",""trial"",""time""
""fullscreenenter"",""1"",""3759""
","
","
","""event"",""trial"",""time""
""fullscreenenter"",""1"",""3759""
","
","","","","","","1746.8000000000466","images/rodent4.png","","","memory_trial","1","definitely_old",""
"html-keyboard-response","249","545462","0.0-18.0-0.102","7702","approach_avoid_sv1","""event"",""trial"",""time""
""fullscreenenter"",""1"",""3759""
","
","
","""event"",""trial"",""time""
""fullscreenenter"",""1"",""3759""
","
","","","","","","null","<div style=""font-size:60px;"">+</div>","null","","fixation","","",""
"memory-trial","250","547991","0.0-18.0-1.102","7702","approach_avoid_sv1","""event"",""trial"",""time""
""fullscreenenter"",""1"",""3759""
","
","
","""event"",""trial"",""time""
""fullscreenenter"",""1"",""3759""
","
","","","","","","1509.9000000000233","images/cow7.png","","","memory_trial","4","definitely_new",""
"html-keyboard-response","251","548502","0.0-18.0-0.103","7702","approach_avoid_sv1","""event"",""trial"",""time""
""fullscreenenter"",""1"",""3759""
","
","
","""event"",""trial"",""time""
""fullscreenenter"",""1"",""3759""
","
","","","","","","null","<div style=""font-size:60px;"">+</div>","null","","fixation","","",""
"memory-trial","252","551486","0.0-18.0-1.103","7702","approach_avoid_sv1","""event"",""trial"",""time""
""fullscreenenter"",""1"",""3759""
","
","
","""event"",""trial"",""time""
""fullscreenenter"",""1"",""3759""
","
","","","","","","1969.9000000000233","images/straw3.png","","","memory_trial","4","definitely_new",""
"html-keyboard-response","253","551990","0.0-18.0-0.104","7702","approach_avoid_sv1","""event"",""trial"",""time""
""fullscreenenter"",""1"",""3759""
","
","
","""event"",""trial"",""time""
""fullscreenenter"",""1"",""3759""
","
","","","","","","null","<div style=""font-size:60px;"">+</div>","null","","fixation","","",""
"memory-trial","254","554031","0.0-18.0-1.104","7702","approach_avoid_sv1","""event"",""trial"",""time""
""fullscreenenter"",""1"",""3759""
","
","
","""event"",""trial"",""time""
""fullscreenenter"",""1"",""3759""
","
","","","","","","1028.5999999999767","images/sheep3.png","","","memory_trial","2","maybe_old",""
"html-keyboard-response","255","554534","0.0-18.0-0.105","7702","approach_avoid_sv1","""event"",""trial"",""time""
""fullscreenenter"",""1"",""3759""
","
","
","""event"",""trial"",""time""
""fullscreenenter"",""1"",""3759""
","
","","","","","","null","<div style=""font-size:60px;"">+</div>","null","","fixation","","",""
"memory-trial","256","556703","0.0-18.0-1.105","7702","approach_avoid_sv1","""event"",""trial"",""time""
""fullscreenenter"",""1"",""3759""
","
","
","""event"",""trial"",""time""
""fullscreenenter"",""1"",""3759""
","
","","","","","","1146.6999999999534","images/banana5.png","","","memory_trial","4","definitely_new",""
"html-keyboard-response","257","557214","0.0-18.0-0.106","7702","approach_avoid_sv1","""event"",""trial"",""time""
""fullscreenenter"",""1"",""3759""
","
","
","""event"",""trial"",""time""
""fullscreenenter"",""1"",""3759""
","
","","","","","","null","<div style=""font-size:60px;"">+</div>","null","","fixation","","",""
"memory-trial","258","558863","0.0-18.0-1.106","7702","approach_avoid_sv1","""event"",""trial"",""time""
""fullscreenenter"",""1"",""3759""
","
","
","""event"",""trial"",""time""
""fullscreenenter"",""1"",""3759""
","
","","","","","","636.1000000000931","images/truck2.png","","","memory_trial","1","definitely_old",""
"html-keyboard-response","259","559366","0.0-18.0-0.107","7702","approach_avoid_sv1","""event"",""trial"",""time""
""fullscreenenter"",""1"",""3759""
","
","
","""event"",""trial"",""time""
""fullscreenenter"",""1"",""3759""
","
","","","","","","null","<div style=""font-size:60px;"">+</div>","null","","fixation","","",""
"memory-trial","260","561007","0.0-18.0-1.107","7702","approach_avoid_sv1","""event"",""trial"",""time""
""fullscreenenter"",""1"",""3759""
","
","
","""event"",""trial"",""time""
""fullscreenenter"",""1"",""3759""
","
","","","","","","628.5999999999767","images/bed3.png","","","memory_trial","3","maybe_new",""
"html-keyboard-response","261","561518","0.0-18.0-0.108","7702","approach_avoid_sv1","""event"",""trial"",""time""
""fullscreenenter"",""1"",""3759""
","
","
","""event"",""trial"",""time""
""fullscreenenter"",""1"",""3759""
","
","","","","","","null","<div style=""font-size:60px;"">+</div>","null","","fixation","","",""
"memory-trial","262","563119","0.0-18.0-1.108","7702","approach_avoid_sv1","""event"",""trial"",""time""
""fullscreenenter"",""1"",""3759""
","
","
","""event"",""trial"",""time""
""fullscreenenter"",""1"",""3759""
","
","","","","","","587.0999999999767","images/chair7.png","","","memory_trial","3","maybe_new",""
"html-keyboard-response","263","563631","0.0-18.0-0.109","7702","approach_avoid_sv1","""event"",""trial"",""time""
""fullscreenenter"",""1"",""3759""
","
","
","""event"",""trial"",""time""
""fullscreenenter"",""1"",""3759""
","
","","","","","","null","<div style=""font-size:60px;"">+</div>","null","","fixation","","",""
"memory-trial","264","565390","0.0-18.0-1.109","7702","approach_avoid_sv1","""event"",""trial"",""time""
""fullscreenenter"",""1"",""3759""
","
","
","""event"",""trial"",""time""
""fullscreenenter"",""1"",""3759""
","
","","","","","","744.5","images/bed6.png","","","memory_trial","3","maybe_new",""
"html-keyboard-response","265","565894","0.0-18.0-0.110","7702","approach_avoid_sv1","""event"",""trial"",""time""
""fullscreenenter"",""1"",""3759""
","
","
","""event"",""trial"",""time""
""fullscreenenter"",""1"",""3759""
","
","","","","","","null","<div style=""font-size:60px;"">+</div>","null","","fixation","","",""
"memory-trial","266","568399","0.0-18.0-1.110","7702","approach_avoid_sv1","""event"",""trial"",""time""
""fullscreenenter"",""1"",""3759""
","
","
","""event"",""trial"",""time""
""fullscreenenter"",""1"",""3759""
","
","","","","","","1486.4000000000233","images/sofa1.png","","","memory_trial","3","maybe_new",""
"html-keyboard-response","267","568902","0.0-18.0-0.111","7702","approach_avoid_sv1","""event"",""trial"",""time""
""fullscreenenter"",""1"",""3759""
","
","
","""event"",""trial"",""time""
""fullscreenenter"",""1"",""3759""
","
","","","","","","null","<div style=""font-size:60px;"">+</div>","null","","fixation","","",""
"memory-trial","268","570711","0.0-18.0-1.111","7702","approach_avoid_sv1","""event"",""trial"",""time""
""fullscreenenter"",""1"",""3759""
","
","
","""event"",""trial"",""time""
""fullscreenenter"",""1"",""3759""
","
","","","","","","794.3999999999069","images/rabbit1.png","","","memory_trial","2","maybe_old",""
"html-keyboard-response","269","571222","0.0-18.0-0.112","7702","approach_avoid_sv1","""event"",""trial"",""time""
""fullscreenenter"",""1"",""3759""
","
","
","""event"",""trial"",""time""
""fullscreenenter"",""1"",""3759""
","
","","","","","","null","<div style=""font-size:60px;"">+</div>","null","","fixation","","",""
"memory-trial","270","574375","0.0-18.0-1.112","7702","approach_avoid_sv1","""event"",""trial"",""time""
""fullscreenenter"",""1"",""3759""
","
","
","""event"",""trial"",""time""
""fullscreenenter"",""1"",""3759""
","
","","","","","","2136.9000000000233","images/cat4.png","","","memory_trial","3","maybe_new",""
"html-keyboard-response","271","574887","0.0-18.0-0.113","7702","approach_avoid_sv1","""event"",""trial"",""time""
""fullscreenenter"",""1"",""3759""
","
","
","""event"",""trial"",""time""
""fullscreenenter"",""1"",""3759""
","
","","","","","","null","<div style=""font-size:60px;"">+</div>","null","","fixation","","",""
"memory-trial","272","576935","0.0-18.0-1.113","7702","approach_avoid_sv1","""event"",""trial"",""time""
""fullscreenenter"",""1"",""3759""
","
","
","""event"",""trial"",""time""
""fullscreenenter"",""1"",""3759""
","
","","","","","","1032.5","images/dog5.png","","","memory_trial","2","maybe_old",""
"html-keyboard-response","273","577446","0.0-18.0-0.114","7702","approach_avoid_sv1","""event"",""trial"",""time""
""fullscreenenter"",""1"",""3759""
","
","
","""event"",""trial"",""time""
""fullscreenenter"",""1"",""3759""
","
","","","","","","null","<div style=""font-size:60px;"">+</div>","null","","fixation","","",""
"memory-trial","274","579567","0.0-18.0-1.114","7702","approach_avoid_sv1","""event"",""trial"",""time""
""fullscreenenter"",""1"",""3759""
","
","
","""event"",""trial"",""time""
""fullscreenenter"",""1"",""3759""
","
","","","","","","1107.5","images/flower8.png","","","memory_trial","3","maybe_new",""
"html-keyboard-response","275","580078","0.0-18.0-0.115","7702","approach_avoid_sv1","""event"",""trial"",""time""
""fullscreenenter"",""1"",""3759""
","
","
","""event"",""trial"",""time""
""fullscreenenter"",""1"",""3759""
","
","","","","","","null","<div style=""font-size:60px;"">+</div>","null","","fixation","","",""
"memory-trial","276","582487","0.0-18.0-1.115","7702","approach_avoid_sv1","""event"",""trial"",""time""
""fullscreenenter"",""1"",""3759""
","
","
","""event"",""trial"",""time""
""fullscreenenter"",""1"",""3759""
","
","","","","","","1391.0999999999767","images/apple7.png","","","memory_trial","3","maybe_new",""
"html-keyboard-response","277","582998","0.0-18.0-0.116","7702","approach_avoid_sv1","""event"",""trial"",""time""
""fullscreenenter"",""1"",""3759""
","
","
","""event"",""trial"",""time""
""fullscreenenter"",""1"",""3759""
","
","","","","","","null","<div style=""font-size:60px;"">+</div>","null","","fixation","","",""
"memory-trial","278","585079","0.0-18.0-1.116","7702","approach_avoid_sv1","""event"",""trial"",""time""
""fullscreenenter"",""1"",""3759""
","
","
","""event"",""trial"",""time""
""fullscreenenter"",""1"",""3759""
","
","","","","","","1066.2000000000698","images/bush1.png","","","memory_trial","2","maybe_old",""
"html-keyboard-response","279","585590","0.0-18.0-0.117","7702","approach_avoid_sv1","""event"",""trial"",""time""
""fullscreenenter"",""1"",""3759""
","
","
","""event"",""trial"",""time""
""fullscreenenter"",""1"",""3759""
","
","","","","","","null","<div style=""font-size:60px;"">+</div>","null","","fixation","","",""
"memory-trial","280","588150","0.0-18.0-1.117","7702","approach_avoid_sv1","""event"",""trial"",""time""
""fullscreenenter"",""1"",""3759""
","
","
","""event"",""trial"",""time""
""fullscreenenter"",""1"",""3759""
","
","","","","","","1548.6999999999534","images/cat6.png","","","memory_trial","3","maybe_new",""
"html-keyboard-response","281","588662","0.0-18.0-0.118","7702","approach_avoid_sv1","""event"",""trial"",""time""
""fullscreenenter"",""1"",""3759""
","
","
","""event"",""trial"",""time""
""fullscreenenter"",""1"",""3759""
","
","","","","","","null","<div style=""font-size:60px;"">+</div>","null","","fixation","","",""
"memory-trial","282","590775","0.0-18.0-1.118","7702","approach_avoid_sv1","""event"",""trial"",""time""
""fullscreenenter"",""1"",""3759""
","
","
","""event"",""trial"",""time""
""fullscreenenter"",""1"",""3759""
","
","","","","","","1090.3000000000466","images/apple3.png","","","memory_trial","2","maybe_old",""
"html-keyboard-response","283","591286","0.0-18.0-0.119","7702","approach_avoid_sv1","""event"",""trial"",""time""
""fullscreenenter"",""1"",""3759""
","
","
","""event"",""trial"",""time""
""fullscreenenter"",""1"",""3759""
","
","","","","","","null","<div style=""font-size:60px;"">+</div>","null","","fixation","","",""
"memory-trial","284","593311","0.0-18.0-1.119","7702","approach_avoid_sv1","""event"",""trial"",""time""
""fullscreenenter"",""1"",""3759""
","
","
","""event"",""trial"",""time""
""fullscreenenter"",""1"",""3759""
","
","","","","","","1011.3000000000466","images/cat1.png","","","memory_trial","3","maybe_new",""
"html-keyboard-response","285","593822","0.0-18.0-0.120","7702","approach_avoid_sv1","""event"",""trial"",""time""
""fullscreenenter"",""1"",""3759""
","
","
","""event"",""trial"",""time""
""fullscreenenter"",""1"",""3759""
","
","","","","","","null","<div style=""font-size:60px;"">+</div>","null","","fixation","","",""
"memory-trial","286","595542","0.0-18.0-1.120","7702","approach_avoid_sv1","""event"",""trial"",""time""
""fullscreenenter"",""1"",""3759""
","
","
","""event"",""trial"",""time""
""fullscreenenter"",""1"",""3759""
","
","","","","","","706.2999999999302","images/table4.png","","","memory_trial","2","maybe_old",""
"html-keyboard-response","287","596054","0.0-18.0-0.121","7702","approach_avoid_sv1","""event"",""trial"",""time""
""fullscreenenter"",""1"",""3759""
","
","
","""event"",""trial"",""time""
""fullscreenenter"",""1"",""3759""
","
","","","","","","null","<div style=""font-size:60px;"">+</div>","null","","fixation","","",""
"memory-trial","288","598055","0.0-18.0-1.121","7702","approach_avoid_sv1","""event"",""trial"",""time""
""fullscreenenter"",""1"",""3759""
","
","
","""event"",""trial"",""time""
""fullscreenenter"",""1"",""3759""
","
","","","","","","984.4000000000233","images/truck4.png","","","memory_trial","3","maybe_new",""
"html-keyboard-response","289","598566","0.0-18.0-0.122","7702","approach_avoid_sv1","""event"",""trial"",""time""
""fullscreenenter"",""1"",""3759""
","
","
","""event"",""trial"",""time""
""fullscreenenter"",""1"",""3759""
","
","","","","","","null","<div style=""font-size:60px;"">+</div>","null","","fixation","","",""
"memory-trial","290","601255","0.0-18.0-1.122","7702","approach_avoid_sv1","""event"",""trial"",""time""
""fullscreenenter"",""1"",""3759""
","
","
","""event"",""trial"",""time""
""fullscreenenter"",""1"",""3759""
","
","","","","","","1670","images/chair8.png","","","memory_trial","3","maybe_new",""
"html-keyboard-response","291","601767","0.0-18.0-0.123","7702","approach_avoid_sv1","""event"",""trial"",""time""
""fullscreenenter"",""1"",""3759""
","
","
","""event"",""trial"",""time""
""fullscreenenter"",""1"",""3759""
","
","","","","","","null","<div style=""font-size:60px;"">+</div>","null","","fixation","","",""
"memory-trial","292","604743","0.0-18.0-1.123","7702","approach_avoid_sv1","""event"",""trial"",""time""
""fullscreenenter"",""1"",""3759""
","
","
","""event"",""trial"",""time""
""fullscreenenter"",""1"",""3759""
","
","","","","","","1961.3999999999069","images/tree4.png","","","memory_trial","1","definitely_old",""
"html-keyboard-response","293","605255","0.0-18.0-0.124","7702","approach_avoid_sv1","""event"",""trial"",""time""
""fullscreenenter"",""1"",""3759""
","
","
","""event"",""trial"",""time""
""fullscreenenter"",""1"",""3759""
","
","","","","","","null","<div style=""font-size:60px;"">+</div>","null","","fixation","","",""
"memory-trial","294","607567","0.0-18.0-1.124","7702","approach_avoid_sv1","""event"",""trial"",""time""
""fullscreenenter"",""1"",""3759""
","
","
","""event"",""trial"",""time""
""fullscreenenter"",""1"",""3759""
","
","","","","","","1294.7999999999302","images/sheep6.png","","","memory_trial","4","definitely_new",""
"html-keyboard-response","295","608078","0.0-18.0-0.125","7702","approach_avoid_sv1","""event"",""trial"",""time""
""fullscreenenter"",""1"",""3759""
","
","
","""event"",""trial"",""time""
""fullscreenenter"",""1"",""3759""
","
","","","","","","null","<div style=""font-size:60px;"">+</div>","null","","fixation","","",""
"memory-trial","296","610095","0.0-18.0-1.125","7702","approach_avoid_sv1","""event"",""trial"",""time""
""fullscreenenter"",""1"",""3759""
","
","
","""event"",""trial"",""time""
""fullscreenenter"",""1"",""3759""
","
","","","","","","1002.8000000000466","images/boat3.png","","","memory_trial","1","definitely_old",""
"html-keyboard-response","297","610606","0.0-18.0-0.126","7702","approach_avoid_sv1","""event"",""trial"",""time""
""fullscreenenter"",""1"",""3759""
","
","
","""event"",""trial"",""time""
""fullscreenenter"",""1"",""3759""
","
","","","","","","null","<div style=""font-size:60px;"">+</div>","null","","fixation","","",""
