"trial_type","trial_index","time_elapsed","internal_node_id","subject_id","task_version","interactions","blur_events","focus_events","fullscreenenter_events","fullscreenexit_events","success","timeout","failed_images","failed_audio","failed_video","rt","stimulus","response","button_pressed","task_part","key_press","answer","correct"
"pavlovia","0","11","0.0-0.0","4160","approach_avoid_sv1","""event"",""trial"",""time""
""fullscreenenter"",""1"",""6482""
","
","
","""event"",""trial"",""time""
""fullscreenenter"",""1"",""6482""
","
","","","","","","","","","","","","",""
"fullscreen","1","7430","0.0-1.0","4160","approach_avoid_sv1","""event"",""trial"",""time""
""fullscreenenter"",""1"",""6482""
","
","
","""event"",""trial"",""time""
""fullscreenenter"",""1"",""6482""
","
","true","","","","","","","","","","","",""
"preload","2","24654","0.0-2.0","4160","approach_avoid_sv1","""event"",""trial"",""time""
""fullscreenenter"",""1"",""6482""
","
","
","""event"",""trial"",""time""
""fullscreenenter"",""1"",""6482""
","
","true","false","[]","[]","[]","","","","","","","",""
"preload","3","41549","0.0-3.0","4160","approach_avoid_sv1","""event"",""trial"",""time""
""fullscreenenter"",""1"",""6482""
","
","
","""event"",""trial"",""time""
""fullscreenenter"",""1"",""6482""
","
","true","false","[]","[]","[]","","","","","","","",""
"preload","4","42731","0.0-4.0","4160","approach_avoid_sv1","""event"",""trial"",""time""
""fullscreenenter"",""1"",""6482""
","
","
","""event"",""trial"",""time""
""fullscreenenter"",""1"",""6482""
","
","true","false","[]","[]","[]","","","","","","","",""
"audio-keyboard-response","5","45780","0.0-5.0","4160","approach_avoid_sv1","""event"",""trial"",""time""
""fullscreenenter"",""1"",""6482""
","
","
","""event"",""trial"",""time""
""fullscreenenter"",""1"",""6482""
","
","","","","","","3040","audio/beep_loop.wav","audiovolumedown","","","","",""
"audio-button-response","6","50027","0.0-6.0","4160","approach_avoid_sv1","""event"",""trial"",""time""
""fullscreenenter"",""1"",""6482""
","
","
","""event"",""trial"",""time""
""fullscreenenter"",""1"",""6482""
","
","","","","","","4240","audio/turtle.wav","3","","","","",""
"audio-button-response","7","54544","0.0-7.0","4160","approach_avoid_sv1","""event"",""trial"",""time""
""fullscreenenter"",""1"",""6482""
","
","
","""event"",""trial"",""time""
""fullscreenenter"",""1"",""6482""
","
","","","","","","3499","audio/shark.wav","2","","","","",""
"preload","8","78300","0.0-8.0","4160","approach_avoid_sv1","""event"",""trial"",""time""
""fullscreenenter"",""1"",""6482""
","
","
","""event"",""trial"",""time""
""fullscreenenter"",""1"",""6482""
","
","true","false","[]","[]","[]","","","","","","","",""
"learning-instructions","9","86683","0.0-9.0-0.0","4160","approach_avoid_sv1","""event"",""trial"",""time""
""fullscreenenter"",""1"",""6482""
","
","
","""event"",""trial"",""time""
""fullscreenenter"",""1"",""6482""
","
","","","","","","3898.400000035763","<p> Welcome back! </p><p> Last week, you had to make choices about lots of different items.  </p>","","0","instructions","","",""
"learning-instructions","10","102467","0.0-9.0-0.1","4160","approach_avoid_sv1","""event"",""trial"",""time""
""fullscreenenter"",""1"",""6482""
","
","
","""event"",""trial"",""time""
""fullscreenenter"",""1"",""6482""
","
","","","","","","11673","<p> Today, we are going to ask you to try to remember all the items. </p>","","0","instructions","","",""
"learning-instructions","11","121842","0.0-9.0-0.2","4160","approach_avoid_sv1","""event"",""trial"",""time""
""fullscreenenter"",""1"",""6482""
","
","
","""event"",""trial"",""time""
""fullscreenenter"",""1"",""6482""
","
","","","","","","9219.299999952316","<p> On every trial, you will see an image. </p><p> The image may be an OLD image you saw during the games last week or it may be a NEW image that was not presented. </p>","","0","instructions","","",""
"learning-instructions","12","132403","0.0-9.0-0.3","4160","approach_avoid_sv1","""event"",""trial"",""time""
""fullscreenenter"",""1"",""6482""
","
","
","""event"",""trial"",""time""
""fullscreenenter"",""1"",""6482""
","
","","","","","","2047.5","<p> You need to select whether the image is:  </p><p>  'Definitely old', 'Maybe old', 'Maybe new', or 'Definitely new.'  </p><div class=""mem-choice-instructions-grid""><div class=""choice-option"" id=""choice-option-1"" ><img src=""images/definitely_old_1.png"" id=""choice-option-img-1"" class=""choice-option-img"" stage=""1""></div><div class=""choice-option"" id=""choice-option-2"" ><img src=""images/maybe_old_1.png"" id=""choice-option-img-2"" class=""choice-option-img"" stage=""1""></div><div class=""choice-option"" id=""choice-option-3"" ><img src=""images/maybe_new_1.png"" id=""choice-option-img-3"" class=""choice-option-img"" stage=""1""></div><div class=""choice-option"" id=""choice-option-4"" > <img src=""images/definitely_new_1.png"" id=""choice-option-img-4"" class=""choice-option-img"" stage=""1""></div></div>","","0","instructions","","",""
"learning-instructions","13","149140","0.0-9.0-0.4","4160","approach_avoid_sv1","""event"",""trial"",""time""
""fullscreenenter"",""1"",""6482""
","
","
","""event"",""trial"",""time""
""fullscreenenter"",""1"",""6482""
","
","","","","","","10215.5","<p> You should use the 1, 2, 3, and 4 keys to make your responses.  </p><div class=""mem-choice-instructions-grid""><div class=""choice-option"" id=""choice-option-1"" ><img src=""images/definitely_old.png"" id=""choice-option-img-1"" class=""choice-option-img"" stage=""1""></div><div class=""choice-option"" id=""choice-option-2"" ><img src=""images/maybe_old.png"" id=""choice-option-img-2"" class=""choice-option-img"" stage=""1""></div><div class=""choice-option"" id=""choice-option-3"" ><img src=""images/maybe_new.png"" id=""choice-option-img-3"" class=""choice-option-img"" stage=""1""></div><div class=""choice-option"" id=""choice-option-4"" > <img src=""images/definitely_new.png"" id=""choice-option-img-4"" class=""choice-option-img"" stage=""1""></div></div>","","0","instructions","","",""
"learning-instructions","14","156709","0.0-9.0-0.5","4160","approach_avoid_sv1","""event"",""trial"",""time""
""fullscreenenter"",""1"",""6482""
","
","
","""event"",""trial"",""time""
""fullscreenenter"",""1"",""6482""
","
","","","","","","1215.1000000238419","<p> You will have 10 seconds to make each response.  </p><p>  Make sure to respond before time runs out! </p>","","0","instructions","","",""
"learning-instructions","15","164267","0.0-9.0-0.6","4160","approach_avoid_sv1","""event"",""trial"",""time""
""fullscreenenter"",""1"",""6482""
","
","
","""event"",""trial"",""time""
""fullscreenenter"",""1"",""6482""
","
","","","","","","483.30000001192093","<p> Today, you will see each image ONCE only.  </p><p>  That means none of the images will repeat. </p>","","0","instructions","","",""
"learning-instructions","16","177386","0.0-9.0-0.7","4160","approach_avoid_sv1","""event"",""trial"",""time""
""fullscreenenter"",""1"",""6482""
","
","
","""event"",""trial"",""time""
""fullscreenenter"",""1"",""6482""
","
","","","","","","442.80000001192093","<p> Before you play the real game, it is time to practice. </p><p>  Just like in the real game, some of the images in the practice will be ones you have seen before. </p><p>  Others will be entirely new. </p>","","0","instructions","","",""
"html-button-response","17","180258","0.0-10.0","4160","approach_avoid_sv1","""event"",""trial"",""time""
""fullscreenenter"",""1"",""6482""
","
","
","""event"",""trial"",""time""
""fullscreenenter"",""1"",""6482""
","
","","","","","","2756.199999988079","<p> Ready to practice? </p><p> Remember, use the 1, 2, 3, and 4 keys to make your responses. </p>","0","","instructions","","",""
"html-keyboard-response","18","180890","0.0-11.0-0.0","4160","approach_avoid_sv1","""event"",""trial"",""time""
""fullscreenenter"",""1"",""6482""
","
","
","""event"",""trial"",""time""
""fullscreenenter"",""1"",""6482""
","
","","","","","","null","<div style=""font-size:60px;"">+</div>","null","","fixation","","",""
"memory-trial","19","185350","0.0-11.0-1.0","4160","approach_avoid_sv1","""event"",""trial"",""time""
""fullscreenenter"",""1"",""6482""
","
","
","""event"",""trial"",""time""
""fullscreenenter"",""1"",""6482""
","
","","","","","","3449.800000011921","images/racket3.png","","","practice","4","definitely_new",""
"html-keyboard-response","20","185868","0.0-11.0-0.1","4160","approach_avoid_sv1","""event"",""trial"",""time""
""fullscreenenter"",""1"",""6482""
","
","
","""event"",""trial"",""time""
""fullscreenenter"",""1"",""6482""
","
","","","","","","null","<div style=""font-size:60px;"">+</div>","null","","fixation","","",""
"memory-trial","21","188341","0.0-11.0-1.1","4160","approach_avoid_sv1","""event"",""trial"",""time""
""fullscreenenter"",""1"",""6482""
","
","
","""event"",""trial"",""time""
""fullscreenenter"",""1"",""6482""
","
","","","","","","1452","images/ball2.png","","","practice","3","maybe_new",""
"html-keyboard-response","22","188857","0.0-11.0-0.2","4160","approach_avoid_sv1","""event"",""trial"",""time""
""fullscreenenter"",""1"",""6482""
","
","
","""event"",""trial"",""time""
""fullscreenenter"",""1"",""6482""
","
","","","","","","null","<div style=""font-size:60px;"">+</div>","null","","fixation","","",""
"memory-trial","23","191256","0.0-11.0-1.2","4160","approach_avoid_sv1","""event"",""trial"",""time""
""fullscreenenter"",""1"",""6482""
","
","
","""event"",""trial"",""time""
""fullscreenenter"",""1"",""6482""
","
","","","","","","1386.6000000238419","images/ball5.png","","","practice","3","maybe_new",""
"html-keyboard-response","24","191769","0.0-11.0-0.3","4160","approach_avoid_sv1","""event"",""trial"",""time""
""fullscreenenter"",""1"",""6482""
","
","
","""event"",""trial"",""time""
""fullscreenenter"",""1"",""6482""
","
","","","","","","null","<div style=""font-size:60px;"">+</div>","null","","fixation","","",""
"memory-trial","25","194518","0.0-11.0-1.3","4160","approach_avoid_sv1","""event"",""trial"",""time""
""fullscreenenter"",""1"",""6482""
","
","
","""event"",""trial"",""time""
""fullscreenenter"",""1"",""6482""
","
","","","","","","1731.199999988079","images/racket1.png","","","practice","4","definitely_new",""
"html-keyboard-response","26","195035","0.0-11.0-0.4","4160","approach_avoid_sv1","""event"",""trial"",""time""
""fullscreenenter"",""1"",""6482""
","
","
","""event"",""trial"",""time""
""fullscreenenter"",""1"",""6482""
","
","","","","","","null","<div style=""font-size:60px;"">+</div>","null","","fixation","","",""
"memory-trial","27","198076","0.0-11.0-1.4","4160","approach_avoid_sv1","""event"",""trial"",""time""
""fullscreenenter"",""1"",""6482""
","
","
","""event"",""trial"",""time""
""fullscreenenter"",""1"",""6482""
","
","","","","","","2016.8999999761581","images/ball3.png","","","practice","4","definitely_new",""
"html-keyboard-response","28","198595","0.0-11.0-0.5","4160","approach_avoid_sv1","""event"",""trial"",""time""
""fullscreenenter"",""1"",""6482""
","
","
","""event"",""trial"",""time""
""fullscreenenter"",""1"",""6482""
","
","","","","","","null","<div style=""font-size:60px;"">+</div>","null","","fixation","","",""
"memory-trial","29","201252","0.0-11.0-1.5","4160","approach_avoid_sv1","""event"",""trial"",""time""
""fullscreenenter"",""1"",""6482""
","
","
","""event"",""trial"",""time""
""fullscreenenter"",""1"",""6482""
","
","","","","","","1644.300000011921","images/ball1.png","","","practice","4","definitely_new",""
"html-keyboard-response","30","201768","0.0-11.0-0.6","4160","approach_avoid_sv1","""event"",""trial"",""time""
""fullscreenenter"",""1"",""6482""
","
","
","""event"",""trial"",""time""
""fullscreenenter"",""1"",""6482""
","
","","","","","","null","<div style=""font-size:60px;"">+</div>","null","","fixation","","",""
"memory-trial","31","204108","0.0-11.0-1.6","4160","approach_avoid_sv1","""event"",""trial"",""time""
""fullscreenenter"",""1"",""6482""
","
","
","""event"",""trial"",""time""
""fullscreenenter"",""1"",""6482""
","
","","","","","","1318.3999999761581","images/racket2.png","","","practice","4","definitely_new",""
"html-keyboard-response","32","204614","0.0-11.0-0.7","4160","approach_avoid_sv1","""event"",""trial"",""time""
""fullscreenenter"",""1"",""6482""
","
","
","""event"",""trial"",""time""
""fullscreenenter"",""1"",""6482""
","
","","","","","","null","<div style=""font-size:60px;"">+</div>","null","","fixation","","",""
"memory-trial","33","206314","0.0-11.0-1.7","4160","approach_avoid_sv1","""event"",""trial"",""time""
""fullscreenenter"",""1"",""6482""
","
","
","""event"",""trial"",""time""
""fullscreenenter"",""1"",""6482""
","
","","","","","","684.1999999880791","images/racket5.png","","","practice","4","definitely_new",""
"learning-instructions","34","223348","0.0-12.0-0.0","4160","approach_avoid_sv1","""event"",""trial"",""time""
""fullscreenenter"",""1"",""6482""
","
","
","""event"",""trial"",""time""
""fullscreenenter"",""1"",""6482""
","
","","","","","","9724.300000011921","<p> Great! You have completed the practice. </p><p> Before you start, we're going to ask you a few questions about how the game works.  </p>","","0","instructions","","",""
"preload","35","235381","0.0-13.0","4160","approach_avoid_sv1","""event"",""trial"",""time""
""fullscreenenter"",""1"",""6482""
","
","
","""event"",""trial"",""time""
""fullscreenenter"",""1"",""6482""
","
","true","false","[]","[]","[]","","","","","","","",""
"comp-q","36","256681","0.0-14.0-0.0","4160","approach_avoid_sv1","""event"",""trial"",""time""
""fullscreenenter"",""1"",""6482""
","
","
","""event"",""trial"",""time""
""fullscreenenter"",""1"",""6482""
","
","","","","","","15469.199999988079","<p> <b> True or False? </b> </p><p> In this game, you will only see each image once. </p>","","0","comp_question","","","true"
"comp-q","37","270057","0.0-14.0-1.0","4160","approach_avoid_sv1","""event"",""trial"",""time""
""fullscreenenter"",""1"",""6482""
","
","
","""event"",""trial"",""time""
""fullscreenenter"",""1"",""6482""
","
","","","","","","7032.300000011921","<p> <b> That's right! </b> You will see many different images <i> one time each </i> in this game. </p>","","0","comp_answer","","",""
"comp-q","38","275964","0.0-15.0-0.0","4160","approach_avoid_sv1","""event"",""trial"",""time""
""fullscreenenter"",""1"",""6482""
","
","
","""event"",""trial"",""time""
""fullscreenenter"",""1"",""6482""
","
","","","","","","890.0999999642372","<p> <b> True or False? </b> </p><p> You should use the mouse and click to make your response. </p>","","1","comp_question","","","true"
"comp-q","39","288102","0.0-15.0-1.0","4160","approach_avoid_sv1","""event"",""trial"",""time""
""fullscreenenter"",""1"",""6482""
","
","
","""event"",""trial"",""time""
""fullscreenenter"",""1"",""6482""
","
","","","","","","5617.600000023842","<p><b> That's right! </b> You should use the '1', '2', '3', and '4' keys to make your response. </p>","","0","comp_answer","","",""
"comp-q","40","310208","0.0-16.0-0.0","4160","approach_avoid_sv1","""event"",""trial"",""time""
""fullscreenenter"",""1"",""6482""
","
","
","""event"",""trial"",""time""
""fullscreenenter"",""1"",""6482""
","
","","","","","","16423.899999976158","<p> <b> True or False? </b> </p><p> You will have as much time as you want to make each choice. </p>","","1","comp_question","","","true"
"comp-q","41","332244","0.0-16.0-1.0","4160","approach_avoid_sv1","""event"",""trial"",""time""
""fullscreenenter"",""1"",""6482""
","
","
","""event"",""trial"",""time""
""fullscreenenter"",""1"",""6482""
","
","","","","","","17330.30000001192","<p> <b> That's right! </b> You will only have 10 seconds to make each choice. </p>","","0","comp_answer","","",""
"learning-instructions","42","344313","0.0-17.0","4160","approach_avoid_sv1","""event"",""trial"",""time""
""fullscreenenter"",""1"",""6482""
","
","
","""event"",""trial"",""time""
""fullscreenenter"",""1"",""6482""
","
","","","","","","3388.600000023842","<p> Great! You are now ready to begin the game. </p><p> Remember, use the 1, 2, 3, and 4 keys to make your responses. </p>","","0","instructions","","",""
"html-keyboard-response","43","344926","0.0-18.0-0.0","4160","approach_avoid_sv1","""event"",""trial"",""time""
""fullscreenenter"",""1"",""6482""
","
","
","""event"",""trial"",""time""
""fullscreenenter"",""1"",""6482""
","
","","","","","","null","<div style=""font-size:60px;"">+</div>","null","","fixation","","",""
"memory-trial","44","348278","0.0-18.0-1.0","4160","approach_avoid_sv1","""event"",""trial"",""time""
""fullscreenenter"",""1"",""6482""
","
","
","""event"",""trial"",""time""
""fullscreenenter"",""1"",""6482""
","
","","","","","","2336.600000023842","images/goat1.png","","","memory_trial","1","definitely_old",""
"html-keyboard-response","45","348794","0.0-18.0-0.1","4160","approach_avoid_sv1","""event"",""trial"",""time""
""fullscreenenter"",""1"",""6482""
","
","
","""event"",""trial"",""time""
""fullscreenenter"",""1"",""6482""
","
","","","","","","null","<div style=""font-size:60px;"">+</div>","null","","fixation","","",""
"memory-trial","46","351842","0.0-18.0-1.1","4160","approach_avoid_sv1","""event"",""trial"",""time""
""fullscreenenter"",""1"",""6482""
","
","
","""event"",""trial"",""time""
""fullscreenenter"",""1"",""6482""
","
","","","","","","2031.800000011921","images/bush3.png","","","memory_trial","1","definitely_old",""
"html-keyboard-response","47","352359","0.0-18.0-0.2","4160","approach_avoid_sv1","""event"",""trial"",""time""
""fullscreenenter"",""1"",""6482""
","
","
","""event"",""trial"",""time""
""fullscreenenter"",""1"",""6482""
","
","","","","","","null","<div style=""font-size:60px;"">+</div>","null","","fixation","","",""
"memory-trial","48","354226","0.0-18.0-1.2","4160","approach_avoid_sv1","""event"",""trial"",""time""
""fullscreenenter"",""1"",""6482""
","
","
","""event"",""trial"",""time""
""fullscreenenter"",""1"",""6482""
","
","","","","","","856","images/bush2.png","","","memory_trial","2","maybe_old",""
"html-keyboard-response","49","354748","0.0-18.0-0.3","4160","approach_avoid_sv1","""event"",""trial"",""time""
""fullscreenenter"",""1"",""6482""
","
","
","""event"",""trial"",""time""
""fullscreenenter"",""1"",""6482""
","
","","","","","","null","<div style=""font-size:60px;"">+</div>","null","","fixation","","",""
"memory-trial","50","358451","0.0-18.0-1.3","4160","approach_avoid_sv1","""event"",""trial"",""time""
""fullscreenenter"",""1"",""6482""
","
","
","""event"",""trial"",""time""
""fullscreenenter"",""1"",""6482""
","
","","","","","","2679.399999976158","images/truck4.png","","","memory_trial","3","maybe_new",""
"html-keyboard-response","51","358967","0.0-18.0-0.4","4160","approach_avoid_sv1","""event"",""trial"",""time""
""fullscreenenter"",""1"",""6482""
","
","
","""event"",""trial"",""time""
""fullscreenenter"",""1"",""6482""
","
","","","","","","null","<div style=""font-size:60px;"">+</div>","null","","fixation","","",""
"memory-trial","52","361527","0.0-18.0-1.4","4160","approach_avoid_sv1","""event"",""trial"",""time""
""fullscreenenter"",""1"",""6482""
","
","
","""event"",""trial"",""time""
""fullscreenenter"",""1"",""6482""
","
","","","","","","1546.9000000357628","images/boat2.png","","","memory_trial","1","definitely_old",""
"html-keyboard-response","53","362043","0.0-18.0-0.5","4160","approach_avoid_sv1","""event"",""trial"",""time""
""fullscreenenter"",""1"",""6482""
","
","
","""event"",""trial"",""time""
""fullscreenenter"",""1"",""6482""
","
","","","","","","null","<div style=""font-size:60px;"">+</div>","null","","fixation","","",""
"memory-trial","54","364444","0.0-18.0-1.5","4160","approach_avoid_sv1","""event"",""trial"",""time""
""fullscreenenter"",""1"",""6482""
","
","
","""event"",""trial"",""time""
""fullscreenenter"",""1"",""6482""
","
","","","","","","1378.699999988079","images/cow6.png","","","memory_trial","1","definitely_old",""
"html-keyboard-response","55","364964","0.0-18.0-0.6","4160","approach_avoid_sv1","""event"",""trial"",""time""
""fullscreenenter"",""1"",""6482""
","
","
","""event"",""trial"",""time""
""fullscreenenter"",""1"",""6482""
","
","","","","","","null","<div style=""font-size:60px;"">+</div>","null","","fixation","","",""
"memory-trial","56","366824","0.0-18.0-1.6","4160","approach_avoid_sv1","""event"",""trial"",""time""
""fullscreenenter"",""1"",""6482""
","
","
","""event"",""trial"",""time""
""fullscreenenter"",""1"",""6482""
","
","","","","","","844.1999999880791","images/goat4.png","","","memory_trial","1","definitely_old",""
"html-keyboard-response","57","367346","0.0-18.0-0.7","4160","approach_avoid_sv1","""event"",""trial"",""time""
""fullscreenenter"",""1"",""6482""
","
","
","""event"",""trial"",""time""
""fullscreenenter"",""1"",""6482""
","
","","","","","","null","<div style=""font-size:60px;"">+</div>","null","","fixation","","",""
"memory-trial","58","369432","0.0-18.0-1.7","4160","approach_avoid_sv1","""event"",""trial"",""time""
""fullscreenenter"",""1"",""6482""
","
","
","""event"",""trial"",""time""
""fullscreenenter"",""1"",""6482""
","
","","","","","","1063.300000011921","images/tree2.png","","","memory_trial","1","definitely_old",""
"html-keyboard-response","59","369946","0.0-18.0-0.8","4160","approach_avoid_sv1","""event"",""trial"",""time""
""fullscreenenter"",""1"",""6482""
","
","
","""event"",""trial"",""time""
""fullscreenenter"",""1"",""6482""
","
","","","","","","null","<div style=""font-size:60px;"">+</div>","null","","fixation","","",""
"memory-trial","60","372736","0.0-18.0-1.8","4160","approach_avoid_sv1","""event"",""trial"",""time""
""fullscreenenter"",""1"",""6482""
","
","
","""event"",""trial"",""time""
""fullscreenenter"",""1"",""6482""
","
","","","","","","1782.2999999523163","images/table7.png","","","memory_trial","4","definitely_new",""
"html-keyboard-response","61","373247","0.0-18.0-0.9","4160","approach_avoid_sv1","""event"",""trial"",""time""
""fullscreenenter"",""1"",""6482""
","
","
","""event"",""trial"",""time""
""fullscreenenter"",""1"",""6482""
","
","","","","","","null","<div style=""font-size:60px;"">+</div>","null","","fixation","","",""
"memory-trial","62","375254","0.0-18.0-1.9","4160","approach_avoid_sv1","""event"",""trial"",""time""
""fullscreenenter"",""1"",""6482""
","
","
","""event"",""trial"",""time""
""fullscreenenter"",""1"",""6482""
","
","","","","","","999.8999999761581","images/straw5.png","","","memory_trial","1","definitely_old",""
"html-keyboard-response","63","375769","0.0-18.0-0.10","4160","approach_avoid_sv1","""event"",""trial"",""time""
""fullscreenenter"",""1"",""6482""
","
","
","""event"",""trial"",""time""
""fullscreenenter"",""1"",""6482""
","
","","","","","","null","<div style=""font-size:60px;"">+</div>","null","","fixation","","",""
"memory-trial","64","378423","0.0-18.0-1.10","4160","approach_avoid_sv1","""event"",""trial"",""time""
""fullscreenenter"",""1"",""6482""
","
","
","""event"",""trial"",""time""
""fullscreenenter"",""1"",""6482""
","
","","","","","","1641.199999988079","images/tree5.png","","","memory_trial","4","definitely_new",""
"html-keyboard-response","65","378931","0.0-18.0-0.11","4160","approach_avoid_sv1","""event"",""trial"",""time""
""fullscreenenter"",""1"",""6482""
","
","
","""event"",""trial"",""time""
""fullscreenenter"",""1"",""6482""
","
","","","","","","null","<div style=""font-size:60px;"">+</div>","null","","fixation","","",""
"memory-trial","66","382086","0.0-18.0-1.11","4160","approach_avoid_sv1","""event"",""trial"",""time""
""fullscreenenter"",""1"",""6482""
","
","
","""event"",""trial"",""time""
""fullscreenenter"",""1"",""6482""
","
","","","","","","2144.900000035763","images/horse3.png","","","memory_trial","3","maybe_new",""
"html-keyboard-response","67","382590","0.0-18.0-0.12","4160","approach_avoid_sv1","""event"",""trial"",""time""
""fullscreenenter"",""1"",""6482""
","
","
","""event"",""trial"",""time""
""fullscreenenter"",""1"",""6482""
","
","","","","","","null","<div style=""font-size:60px;"">+</div>","null","","fixation","","",""
"memory-trial","68","385742","0.0-18.0-1.12","4160","approach_avoid_sv1","""event"",""trial"",""time""
""fullscreenenter"",""1"",""6482""
","
","
","""event"",""trial"",""time""
""fullscreenenter"",""1"",""6482""
","
","","","","","","2144.100000023842","images/chair3.png","","","memory_trial","3","maybe_new",""
"html-keyboard-response","69","386258","0.0-18.0-0.13","4160","approach_avoid_sv1","""event"",""trial"",""time""
""fullscreenenter"",""1"",""6482""
","
","
","""event"",""trial"",""time""
""fullscreenenter"",""1"",""6482""
","
","","","","","","null","<div style=""font-size:60px;"">+</div>","null","","fixation","","",""
"memory-trial","70","388702","0.0-18.0-1.13","4160","approach_avoid_sv1","""event"",""trial"",""time""
""fullscreenenter"",""1"",""6482""
","
","
","""event"",""trial"",""time""
""fullscreenenter"",""1"",""6482""
","
","","","","","","1433.300000011921","images/boat7.png","","","memory_trial","1","definitely_old",""
"html-keyboard-response","71","389206","0.0-18.0-0.14","4160","approach_avoid_sv1","""event"",""trial"",""time""
""fullscreenenter"",""1"",""6482""
","
","
","""event"",""trial"",""time""
""fullscreenenter"",""1"",""6482""
","
","","","","","","null","<div style=""font-size:60px;"">+</div>","null","","fixation","","",""
"memory-trial","72","391246","0.0-18.0-1.14","4160","approach_avoid_sv1","""event"",""trial"",""time""
""fullscreenenter"",""1"",""6482""
","
","
","""event"",""trial"",""time""
""fullscreenenter"",""1"",""6482""
","
","","","","","","1029","images/tree3.png","","","memory_trial","1","definitely_old",""
"html-keyboard-response","73","391760","0.0-18.0-0.15","4160","approach_avoid_sv1","""event"",""trial"",""time""
""fullscreenenter"",""1"",""6482""
","
","
","""event"",""trial"",""time""
""fullscreenenter"",""1"",""6482""
","
","","","","","","null","<div style=""font-size:60px;"">+</div>","null","","fixation","","",""
"memory-trial","74","395135","0.0-18.0-1.15","4160","approach_avoid_sv1","""event"",""trial"",""time""
""fullscreenenter"",""1"",""6482""
","
","
","""event"",""trial"",""time""
""fullscreenenter"",""1"",""6482""
","
","","","","","","2367.300000011921","images/flower4.png","","","memory_trial","2","maybe_old",""
"html-keyboard-response","75","395638","0.0-18.0-0.16","4160","approach_avoid_sv1","""event"",""trial"",""time""
""fullscreenenter"",""1"",""6482""
","
","
","""event"",""trial"",""time""
""fullscreenenter"",""1"",""6482""
","
","","","","","","null","<div style=""font-size:60px;"">+</div>","null","","fixation","","",""
"memory-trial","76","398728","0.0-18.0-1.16","4160","approach_avoid_sv1","""event"",""trial"",""time""
""fullscreenenter"",""1"",""6482""
","
","
","""event"",""trial"",""time""
""fullscreenenter"",""1"",""6482""
","
","","","","","","2080.400000035763","images/orange2.png","","","memory_trial","1","definitely_old",""
"html-keyboard-response","77","399239","0.0-18.0-0.17","4160","approach_avoid_sv1","""event"",""trial"",""time""
""fullscreenenter"",""1"",""6482""
","
","
","""event"",""trial"",""time""
""fullscreenenter"",""1"",""6482""
","
","","","","","","null","<div style=""font-size:60px;"">+</div>","null","","fixation","","",""
"memory-trial","78","402654","0.0-18.0-1.17","4160","approach_avoid_sv1","""event"",""trial"",""time""
""fullscreenenter"",""1"",""6482""
","
","
","""event"",""trial"",""time""
""fullscreenenter"",""1"",""6482""
","
","","","","","","2399.600000023842","images/straw8.png","","","memory_trial","4","definitely_new",""
"html-keyboard-response","79","403158","0.0-18.0-0.18","4160","approach_avoid_sv1","""event"",""trial"",""time""
""fullscreenenter"",""1"",""6482""
","
","
","""event"",""trial"",""time""
""fullscreenenter"",""1"",""6482""
","
","","","","","","null","<div style=""font-size:60px;"">+</div>","null","","fixation","","",""
"memory-trial","80","405471","0.0-18.0-1.18","4160","approach_avoid_sv1","""event"",""trial"",""time""
""fullscreenenter"",""1"",""6482""
","
","
","""event"",""trial"",""time""
""fullscreenenter"",""1"",""6482""
","
","","","","","","1304","images/boat1.png","","","memory_trial","1","definitely_old",""
"html-keyboard-response","81","405980","0.0-18.0-0.19","4160","approach_avoid_sv1","""event"",""trial"",""time""
""fullscreenenter"",""1"",""6482""
","
","
","""event"",""trial"",""time""
""fullscreenenter"",""1"",""6482""
","
","","","","","","null","<div style=""font-size:60px;"">+</div>","null","","fixation","","",""
"memory-trial","82","408965","0.0-18.0-1.19","4160","approach_avoid_sv1","""event"",""trial"",""time""
""fullscreenenter"",""1"",""6482""
","
","
","""event"",""trial"",""time""
""fullscreenenter"",""1"",""6482""
","
","","","","","","1977.800000011921","images/banana5.png","","","memory_trial","4","definitely_new",""
"html-keyboard-response","83","409478","0.0-18.0-0.20","4160","approach_avoid_sv1","""event"",""trial"",""time""
""fullscreenenter"",""1"",""6482""
","
","
","""event"",""trial"",""time""
""fullscreenenter"",""1"",""6482""
","
","","","","","","null","<div style=""font-size:60px;"">+</div>","null","","fixation","","",""
"memory-trial","84","412954","0.0-18.0-1.20","4160","approach_avoid_sv1","""event"",""trial"",""time""
""fullscreenenter"",""1"",""6482""
","
","
","""event"",""trial"",""time""
""fullscreenenter"",""1"",""6482""
","
","","","","","","2462.7000000476837","images/cat4.png","","","memory_trial","2","maybe_old",""
"html-keyboard-response","85","413477","0.0-18.0-0.21","4160","approach_avoid_sv1","""event"",""trial"",""time""
""fullscreenenter"",""1"",""6482""
","
","
","""event"",""trial"",""time""
""fullscreenenter"",""1"",""6482""
","
","","","","","","null","<div style=""font-size:60px;"">+</div>","null","","fixation","","",""
"memory-trial","86","415700","0.0-18.0-1.21","4160","approach_avoid_sv1","""event"",""trial"",""time""
""fullscreenenter"",""1"",""6482""
","
","
","""event"",""trial"",""time""
""fullscreenenter"",""1"",""6482""
","
","","","","","","1196.199999988079","images/apple5.png","","","memory_trial","1","definitely_old",""
"html-keyboard-response","87","416205","0.0-18.0-0.22","4160","approach_avoid_sv1","""event"",""trial"",""time""
""fullscreenenter"",""1"",""6482""
","
","
","""event"",""trial"",""time""
""fullscreenenter"",""1"",""6482""
","
","","","","","","null","<div style=""font-size:60px;"">+</div>","null","","fixation","","",""
"memory-trial","88","419282","0.0-18.0-1.22","4160","approach_avoid_sv1","""event"",""trial"",""time""
""fullscreenenter"",""1"",""6482""
","
","
","""event"",""trial"",""time""
""fullscreenenter"",""1"",""6482""
","
","","","","","","2066.900000035763","images/apple3.png","","","memory_trial","3","maybe_new",""
"html-keyboard-response","89","419803","0.0-18.0-0.23","4160","approach_avoid_sv1","""event"",""trial"",""time""
""fullscreenenter"",""1"",""6482""
","
","
","""event"",""trial"",""time""
""fullscreenenter"",""1"",""6482""
","
","","","","","","null","<div style=""font-size:60px;"">+</div>","null","","fixation","","",""
"memory-trial","90","423878","0.0-18.0-1.23","4160","approach_avoid_sv1","""event"",""trial"",""time""
""fullscreenenter"",""1"",""6482""
","
","
","""event"",""trial"",""time""
""fullscreenenter"",""1"",""6482""
","
","","","","","","3065.600000023842","images/table6.png","","","memory_trial","4","definitely_new",""
"html-keyboard-response","91","424382","0.0-18.0-0.24","4160","approach_avoid_sv1","""event"",""trial"",""time""
""fullscreenenter"",""1"",""6482""
","
","
","""event"",""trial"",""time""
""fullscreenenter"",""1"",""6482""
","
","","","","","","null","<div style=""font-size:60px;"">+</div>","null","","fixation","","",""
"memory-trial","92","426439","0.0-18.0-1.24","4160","approach_avoid_sv1","""event"",""trial"",""time""
""fullscreenenter"",""1"",""6482""
","
","
","""event"",""trial"",""time""
""fullscreenenter"",""1"",""6482""
","
","","","","","","1049.4000000357628","images/apple1.png","","","memory_trial","1","definitely_old",""
"html-keyboard-response","93","426942","0.0-18.0-0.25","4160","approach_avoid_sv1","""event"",""trial"",""time""
""fullscreenenter"",""1"",""6482""
","
","
","""event"",""trial"",""time""
""fullscreenenter"",""1"",""6482""
","
","","","","","","null","<div style=""font-size:60px;"">+</div>","null","","fixation","","",""
"memory-trial","94","428939","0.0-18.0-1.25","4160","approach_avoid_sv1","""event"",""trial"",""time""
""fullscreenenter"",""1"",""6482""
","
","
","""event"",""trial"",""time""
""fullscreenenter"",""1"",""6482""
","
","","","","","","980.4000000357628","images/chair4.png","","","memory_trial","1","definitely_old",""
"html-keyboard-response","95","429446","0.0-18.0-0.26","4160","approach_avoid_sv1","""event"",""trial"",""time""
""fullscreenenter"",""1"",""6482""
","
","
","""event"",""trial"",""time""
""fullscreenenter"",""1"",""6482""
","
","","","","","","null","<div style=""font-size:60px;"">+</div>","null","","fixation","","",""
"memory-trial","96","431190","0.0-18.0-1.26","4160","approach_avoid_sv1","""event"",""trial"",""time""
""fullscreenenter"",""1"",""6482""
","
","
","""event"",""trial"",""time""
""fullscreenenter"",""1"",""6482""
","
","","","","","","734.3000000119209","images/bed5.png","","","memory_trial","1","definitely_old",""
"html-keyboard-response","97","431694","0.0-18.0-0.27","4160","approach_avoid_sv1","""event"",""trial"",""time""
""fullscreenenter"",""1"",""6482""
","
","
","""event"",""trial"",""time""
""fullscreenenter"",""1"",""6482""
","
","","","","","","null","<div style=""font-size:60px;"">+</div>","null","","fixation","","",""
"memory-trial","98","433877","0.0-18.0-1.27","4160","approach_avoid_sv1","""event"",""trial"",""time""
""fullscreenenter"",""1"",""6482""
","
","
","""event"",""trial"",""time""
""fullscreenenter"",""1"",""6482""
","
","","","","","","1172.699999988079","images/dog6.png","","","memory_trial","4","definitely_new",""
"html-keyboard-response","99","434382","0.0-18.0-0.28","4160","approach_avoid_sv1","""event"",""trial"",""time""
""fullscreenenter"",""1"",""6482""
","
","
","""event"",""trial"",""time""
""fullscreenenter"",""1"",""6482""
","
","","","","","","null","<div style=""font-size:60px;"">+</div>","null","","fixation","","",""
"memory-trial","100","436525","0.0-18.0-1.28","4160","approach_avoid_sv1","""event"",""trial"",""time""
""fullscreenenter"",""1"",""6482""
","
","
","""event"",""trial"",""time""
""fullscreenenter"",""1"",""6482""
","
","","","","","","1131.300000011921","images/sofa4.png","","","memory_trial","1","definitely_old",""
"html-keyboard-response","101","437031","0.0-18.0-0.29","4160","approach_avoid_sv1","""event"",""trial"",""time""
""fullscreenenter"",""1"",""6482""
","
","
","""event"",""trial"",""time""
""fullscreenenter"",""1"",""6482""
","
","","","","","","null","<div style=""font-size:60px;"">+</div>","null","","fixation","","",""
"memory-trial","102","439634","0.0-18.0-1.29","4160","approach_avoid_sv1","""event"",""trial"",""time""
""fullscreenenter"",""1"",""6482""
","
","
","""event"",""trial"",""time""
""fullscreenenter"",""1"",""6482""
","
","","","","","","1580.5","images/goat3.png","","","memory_trial","1","definitely_old",""
"html-keyboard-response","103","440141","0.0-18.0-0.30","4160","approach_avoid_sv1","""event"",""trial"",""time""
""fullscreenenter"",""1"",""6482""
","
","
","""event"",""trial"",""time""
""fullscreenenter"",""1"",""6482""
","
","","","","","","null","<div style=""font-size:60px;"">+</div>","null","","fixation","","",""
"memory-trial","104","442549","0.0-18.0-1.30","4160","approach_avoid_sv1","""event"",""trial"",""time""
""fullscreenenter"",""1"",""6482""
","
","
","""event"",""trial"",""time""
""fullscreenenter"",""1"",""6482""
","
","","","","","","1401","images/orange1.png","","","memory_trial","1","definitely_old",""
"html-keyboard-response","105","443062","0.0-18.0-0.31","4160","approach_avoid_sv1","""event"",""trial"",""time""
""fullscreenenter"",""1"",""6482""
","
","
","""event"",""trial"",""time""
""fullscreenenter"",""1"",""6482""
","
","","","","","","null","<div style=""font-size:60px;"">+</div>","null","","fixation","","",""
"memory-trial","106","445342","0.0-18.0-1.31","4160","approach_avoid_sv1","""event"",""trial"",""time""
""fullscreenenter"",""1"",""6482""
","
","
","""event"",""trial"",""time""
""fullscreenenter"",""1"",""6482""
","
","","","","","","1270.6000000238419","images/chair8.png","","","memory_trial","1","definitely_old",""
"html-keyboard-response","107","445858","0.0-18.0-0.32","4160","approach_avoid_sv1","""event"",""trial"",""time""
""fullscreenenter"",""1"",""6482""
","
","
","""event"",""trial"",""time""
""fullscreenenter"",""1"",""6482""
","
","","","","","","null","<div style=""font-size:60px;"">+</div>","null","","fixation","","",""
"memory-trial","108","447758","0.0-18.0-1.32","4160","approach_avoid_sv1","""event"",""trial"",""time""
""fullscreenenter"",""1"",""6482""
","
","
","""event"",""trial"",""time""
""fullscreenenter"",""1"",""6482""
","
","","","","","","891.6999999880791","images/apple6.png","","","memory_trial","1","definitely_old",""
"html-keyboard-response","109","448261","0.0-18.0-0.33","4160","approach_avoid_sv1","""event"",""trial"",""time""
""fullscreenenter"",""1"",""6482""
","
","
","""event"",""trial"",""time""
""fullscreenenter"",""1"",""6482""
","
","","","","","","null","<div style=""font-size:60px;"">+</div>","null","","fixation","","",""
"memory-trial","110","451310","0.0-18.0-1.33","4160","approach_avoid_sv1","""event"",""trial"",""time""
""fullscreenenter"",""1"",""6482""
","
","
","""event"",""trial"",""time""
""fullscreenenter"",""1"",""6482""
","
","","","","","","2040.8999999761581","images/cactus6.png","","","memory_trial","2","maybe_old",""
"html-keyboard-response","111","451813","0.0-18.0-0.34","4160","approach_avoid_sv1","""event"",""trial"",""time""
""fullscreenenter"",""1"",""6482""
","
","
","""event"",""trial"",""time""
""fullscreenenter"",""1"",""6482""
","
","","","","","","null","<div style=""font-size:60px;"">+</div>","null","","fixation","","",""
"memory-trial","112","455045","0.0-18.0-1.34","4160","approach_avoid_sv1","""event"",""trial"",""time""
""fullscreenenter"",""1"",""6482""
","
","
","""event"",""trial"",""time""
""fullscreenenter"",""1"",""6482""
","
","","","","","","2222.600000023842","images/train4.png","","","memory_trial","2","maybe_old",""
"html-keyboard-response","113","455555","0.0-18.0-0.35","4160","approach_avoid_sv1","""event"",""trial"",""time""
""fullscreenenter"",""1"",""6482""
","
","
","""event"",""trial"",""time""
""fullscreenenter"",""1"",""6482""
","
","","","","","","null","<div style=""font-size:60px;"">+</div>","null","","fixation","","",""
"memory-trial","114","458719","0.0-18.0-1.35","4160","approach_avoid_sv1","""event"",""trial"",""time""
""fullscreenenter"",""1"",""6482""
","
","
","""event"",""trial"",""time""
""fullscreenenter"",""1"",""6482""
","
","","","","","","2151.5","images/sheep8.png","","","memory_trial","3","maybe_new",""
"html-keyboard-response","115","459230","0.0-18.0-0.36","4160","approach_avoid_sv1","""event"",""trial"",""time""
""fullscreenenter"",""1"",""6482""
","
","
","""event"",""trial"",""time""
""fullscreenenter"",""1"",""6482""
","
","","","","","","null","<div style=""font-size:60px;"">+</div>","null","","fixation","","",""
"memory-trial","116","461597","0.0-18.0-1.36","4160","approach_avoid_sv1","""event"",""trial"",""time""
""fullscreenenter"",""1"",""6482""
","
","
","""event"",""trial"",""time""
""fullscreenenter"",""1"",""6482""
","
","","","","","","1361.1000000238419","images/rabbit7.png","","","memory_trial","1","definitely_old",""
"html-keyboard-response","117","462108","0.0-18.0-0.37","4160","approach_avoid_sv1","""event"",""trial"",""time""
""fullscreenenter"",""1"",""6482""
","
","
","""event"",""trial"",""time""
""fullscreenenter"",""1"",""6482""
","
","","","","","","null","<div style=""font-size:60px;"">+</div>","null","","fixation","","",""
"memory-trial","118","465299","0.0-18.0-1.37","4160","approach_avoid_sv1","""event"",""trial"",""time""
""fullscreenenter"",""1"",""6482""
","
","
","""event"",""trial"",""time""
""fullscreenenter"",""1"",""6482""
","
","","","","","","2174.899999976158","images/plane5.png","","","memory_trial","1","definitely_old",""
"html-keyboard-response","119","465806","0.0-18.0-0.38","4160","approach_avoid_sv1","""event"",""trial"",""time""
""fullscreenenter"",""1"",""6482""
","
","
","""event"",""trial"",""time""
""fullscreenenter"",""1"",""6482""
","
","","","","","","null","<div style=""font-size:60px;"">+</div>","null","","fixation","","",""
"memory-trial","120","468318","0.0-18.0-1.38","4160","approach_avoid_sv1","""event"",""trial"",""time""
""fullscreenenter"",""1"",""6482""
","
","
","""event"",""trial"",""time""
""fullscreenenter"",""1"",""6482""
","
","","","","","","1503.5999999642372","images/goat2.png","","","memory_trial","1","definitely_old",""
"html-keyboard-response","121","468822","0.0-18.0-0.39","4160","approach_avoid_sv1","""event"",""trial"",""time""
""fullscreenenter"",""1"",""6482""
","
","
","""event"",""trial"",""time""
""fullscreenenter"",""1"",""6482""
","
","","","","","","null","<div style=""font-size:60px;"">+</div>","null","","fixation","","",""
"memory-trial","122","472213","0.0-18.0-1.39","4160","approach_avoid_sv1","""event"",""trial"",""time""
""fullscreenenter"",""1"",""6482""
","
","
","""event"",""trial"",""time""
""fullscreenenter"",""1"",""6482""
","
","","","","","","2365.199999988079","images/goat8.png","","","memory_trial","2","maybe_old",""
"html-keyboard-response","123","472718","0.0-18.0-0.40","4160","approach_avoid_sv1","""event"",""trial"",""time""
""fullscreenenter"",""1"",""6482""
","
","
","""event"",""trial"",""time""
""fullscreenenter"",""1"",""6482""
","
","","","","","","null","<div style=""font-size:60px;"">+</div>","null","","fixation","","",""
"memory-trial","124","476462","0.0-18.0-1.40","4160","approach_avoid_sv1","""event"",""trial"",""time""
""fullscreenenter"",""1"",""6482""
","
","
","""event"",""trial"",""time""
""fullscreenenter"",""1"",""6482""
","
","","","","","","2736.900000035763","images/cat6.png","","","memory_trial","3","maybe_new",""
"html-keyboard-response","125","476965","0.0-18.0-0.41","4160","approach_avoid_sv1","""event"",""trial"",""time""
""fullscreenenter"",""1"",""6482""
","
","
","""event"",""trial"",""time""
""fullscreenenter"",""1"",""6482""
","
","","","","","","null","<div style=""font-size:60px;"">+</div>","null","","fixation","","",""
"memory-trial","126","480261","0.0-18.0-1.41","4160","approach_avoid_sv1","""event"",""trial"",""time""
""fullscreenenter"",""1"",""6482""
","
","
","""event"",""trial"",""time""
""fullscreenenter"",""1"",""6482""
","
","","","","","","2282.7000000476837","images/flower6.png","","","memory_trial","2","maybe_old",""
"html-button-response","127","483254","0.0-18.0-2.41-0.41","4160","approach_avoid_sv1","""event"",""trial"",""time""
""fullscreenenter"",""1"",""6482""
","
","
","""event"",""trial"",""time""
""fullscreenenter"",""1"",""6482""
","
","","","","","","2989.400000035763","<p> Take a break! </p><p> Click the button to continue. </p>","0","","break","","",""
"html-keyboard-response","128","483757","0.0-18.0-0.42","4160","approach_avoid_sv1","""event"",""trial"",""time""
""fullscreenenter"",""1"",""6482""
","
","
","""event"",""trial"",""time""
""fullscreenenter"",""1"",""6482""
","
","","","","","","null","<div style=""font-size:60px;"">+</div>","null","","fixation","","",""
"memory-trial","129","488062","0.0-18.0-1.42","4160","approach_avoid_sv1","""event"",""trial"",""time""
""fullscreenenter"",""1"",""6482""
","
","
","""event"",""trial"",""time""
""fullscreenenter"",""1"",""6482""
","
","","","","","","3297.599999964237","images/truck3.png","","","memory_trial","3","maybe_new",""
"html-keyboard-response","130","488569","0.0-18.0-0.43","4160","approach_avoid_sv1","""event"",""trial"",""time""
""fullscreenenter"",""1"",""6482""
","
","
","""event"",""trial"",""time""
""fullscreenenter"",""1"",""6482""
","
","","","","","","null","<div style=""font-size:60px;"">+</div>","null","","fixation","","",""
"memory-trial","131","490800","0.0-18.0-1.43","4160","approach_avoid_sv1","""event"",""trial"",""time""
""fullscreenenter"",""1"",""6482""
","
","
","""event"",""trial"",""time""
""fullscreenenter"",""1"",""6482""
","
","","","","","","1217.4000000357628","images/boat4.png","","","memory_trial","1","definitely_old",""
"html-keyboard-response","132","491311","0.0-18.0-0.44","4160","approach_avoid_sv1","""event"",""trial"",""time""
""fullscreenenter"",""1"",""6482""
","
","
","""event"",""trial"",""time""
""fullscreenenter"",""1"",""6482""
","
","","","","","","null","<div style=""font-size:60px;"">+</div>","null","","fixation","","",""
"memory-trial","133","494350","0.0-18.0-1.44","4160","approach_avoid_sv1","""event"",""trial"",""time""
""fullscreenenter"",""1"",""6482""
","
","
","""event"",""trial"",""time""
""fullscreenenter"",""1"",""6482""
","
","","","","","","2034.199999988079","images/sheep5.png","","","memory_trial","4","definitely_new",""
"html-keyboard-response","134","494854","0.0-18.0-0.45","4160","approach_avoid_sv1","""event"",""trial"",""time""
""fullscreenenter"",""1"",""6482""
","
","
","""event"",""trial"",""time""
""fullscreenenter"",""1"",""6482""
","
","","","","","","null","<div style=""font-size:60px;"">+</div>","null","","fixation","","",""
"memory-trial","135","497317","0.0-18.0-1.45","4160","approach_avoid_sv1","""event"",""trial"",""time""
""fullscreenenter"",""1"",""6482""
","
","
","""event"",""trial"",""time""
""fullscreenenter"",""1"",""6482""
","
","","","","","","1450.800000011921","images/apple2.png","","","memory_trial","4","definitely_new",""
"html-keyboard-response","136","497825","0.0-18.0-0.46","4160","approach_avoid_sv1","""event"",""trial"",""time""
""fullscreenenter"",""1"",""6482""
","
","
","""event"",""trial"",""time""
""fullscreenenter"",""1"",""6482""
","
","","","","","","null","<div style=""font-size:60px;"">+</div>","null","","fixation","","",""
"memory-trial","137","499662","0.0-18.0-1.46","4160","approach_avoid_sv1","""event"",""trial"",""time""
""fullscreenenter"",""1"",""6482""
","
","
","""event"",""trial"",""time""
""fullscreenenter"",""1"",""6482""
","
","","","","","","827.6999999880791","images/chair7.png","","","memory_trial","4","definitely_new",""
"html-keyboard-response","138","500167","0.0-18.0-0.47","4160","approach_avoid_sv1","""event"",""trial"",""time""
""fullscreenenter"",""1"",""6482""
","
","
","""event"",""trial"",""time""
""fullscreenenter"",""1"",""6482""
","
","","","","","","null","<div style=""font-size:60px;"">+</div>","null","","fixation","","",""
"memory-trial","139","502062","0.0-18.0-1.47","4160","approach_avoid_sv1","""event"",""trial"",""time""
""fullscreenenter"",""1"",""6482""
","
","
","""event"",""trial"",""time""
""fullscreenenter"",""1"",""6482""
","
","","","","","","885.3999999761581","images/tree8.png","","","memory_trial","1","definitely_old",""
"html-keyboard-response","140","502579","0.0-18.0-0.48","4160","approach_avoid_sv1","""event"",""trial"",""time""
""fullscreenenter"",""1"",""6482""
","
","
","""event"",""trial"",""time""
""fullscreenenter"",""1"",""6482""
","
","","","","","","null","<div style=""font-size:60px;"">+</div>","null","","fixation","","",""
"memory-trial","141","504662","0.0-18.0-1.48","4160","approach_avoid_sv1","""event"",""trial"",""time""
""fullscreenenter"",""1"",""6482""
","
","
","""event"",""trial"",""time""
""fullscreenenter"",""1"",""6482""
","
","","","","","","1075.5","images/tree1.png","","","memory_trial","1","definitely_old",""
"html-keyboard-response","142","505175","0.0-18.0-0.49","4160","approach_avoid_sv1","""event"",""trial"",""time""
""fullscreenenter"",""1"",""6482""
","
","
","""event"",""trial"",""time""
""fullscreenenter"",""1"",""6482""
","
","","","","","","null","<div style=""font-size:60px;"">+</div>","null","","fixation","","",""
"memory-trial","143","507758","0.0-18.0-1.49","4160","approach_avoid_sv1","""event"",""trial"",""time""
""fullscreenenter"",""1"",""6482""
","
","
","""event"",""trial"",""time""
""fullscreenenter"",""1"",""6482""
","
","","","","","","1573.5","images/plane1.png","","","memory_trial","1","definitely_old",""
"html-keyboard-response","144","508261","0.0-18.0-0.50","4160","approach_avoid_sv1","""event"",""trial"",""time""
""fullscreenenter"",""1"",""6482""
","
","
","""event"",""trial"",""time""
""fullscreenenter"",""1"",""6482""
","
","","","","","","null","<div style=""font-size:60px;"">+</div>","null","","fixation","","",""
"memory-trial","145","510390","0.0-18.0-1.50","4160","approach_avoid_sv1","""event"",""trial"",""time""
""fullscreenenter"",""1"",""6482""
","
","
","""event"",""trial"",""time""
""fullscreenenter"",""1"",""6482""
","
","","","","","","1117","images/cow8.png","","","memory_trial","1","definitely_old",""
"html-keyboard-response","146","510895","0.0-18.0-0.51","4160","approach_avoid_sv1","""event"",""trial"",""time""
""fullscreenenter"",""1"",""6482""
","
","
","""event"",""trial"",""time""
""fullscreenenter"",""1"",""6482""
","
","","","","","","null","<div style=""font-size:60px;"">+</div>","null","","fixation","","",""
"memory-trial","147","512678","0.0-18.0-1.51","4160","approach_avoid_sv1","""event"",""trial"",""time""
""fullscreenenter"",""1"",""6482""
","
","
","""event"",""trial"",""time""
""fullscreenenter"",""1"",""6482""
","
","","","","","","776.3000000119209","images/boat6.png","","","memory_trial","1","definitely_old",""
"html-keyboard-response","148","513187","0.0-18.0-0.52","4160","approach_avoid_sv1","""event"",""trial"",""time""
""fullscreenenter"",""1"",""6482""
","
","
","""event"",""trial"",""time""
""fullscreenenter"",""1"",""6482""
","
","","","","","","null","<div style=""font-size:60px;"">+</div>","null","","fixation","","",""
"memory-trial","149","516693","0.0-18.0-1.52","4160","approach_avoid_sv1","""event"",""trial"",""time""
""fullscreenenter"",""1"",""6482""
","
","
","""event"",""trial"",""time""
""fullscreenenter"",""1"",""6482""
","
","","","","","","2495.599999964237","images/orange8.png","","","memory_trial","3","maybe_new",""
"html-keyboard-response","150","517198","0.0-18.0-0.53","4160","approach_avoid_sv1","""event"",""trial"",""time""
""fullscreenenter"",""1"",""6482""
","
","
","""event"",""trial"",""time""
""fullscreenenter"",""1"",""6482""
","
","","","","","","null","<div style=""font-size:60px;"">+</div>","null","","fixation","","",""
"memory-trial","151","520414","0.0-18.0-1.53","4160","approach_avoid_sv1","""event"",""trial"",""time""
""fullscreenenter"",""1"",""6482""
","
","
","""event"",""trial"",""time""
""fullscreenenter"",""1"",""6482""
","
","","","","","","2206.100000023842","images/dog3.png","","","memory_trial","2","maybe_old",""
"html-keyboard-response","152","520918","0.0-18.0-0.54","4160","approach_avoid_sv1","""event"",""trial"",""time""
""fullscreenenter"",""1"",""6482""
","
","
","""event"",""trial"",""time""
""fullscreenenter"",""1"",""6482""
","
","","","","","","null","<div style=""font-size:60px;"">+</div>","null","","fixation","","",""
"memory-trial","153","523550","0.0-18.0-1.54","4160","approach_avoid_sv1","""event"",""trial"",""time""
""fullscreenenter"",""1"",""6482""
","
","
","""event"",""trial"",""time""
""fullscreenenter"",""1"",""6482""
","
","","","","","","1621.1000000238419","images/rabbit5.png","","","memory_trial","2","maybe_old",""
"html-keyboard-response","154","524055","0.0-18.0-0.55","4160","approach_avoid_sv1","""event"",""trial"",""time""
""fullscreenenter"",""1"",""6482""
","
","
","""event"",""trial"",""time""
""fullscreenenter"",""1"",""6482""
","
","","","","","","null","<div style=""font-size:60px;"">+</div>","null","","fixation","","",""
"memory-trial","155","527231","0.0-18.0-1.55","4160","approach_avoid_sv1","""event"",""trial"",""time""
""fullscreenenter"",""1"",""6482""
","
","
","""event"",""trial"",""time""
""fullscreenenter"",""1"",""6482""
","
","","","","","","2167.699999988079","images/cow7.png","","","memory_trial","4","definitely_new",""
"html-keyboard-response","156","527733","0.0-18.0-0.56","4160","approach_avoid_sv1","""event"",""trial"",""time""
""fullscreenenter"",""1"",""6482""
","
","
","""event"",""trial"",""time""
""fullscreenenter"",""1"",""6482""
","
","","","","","","null","<div style=""font-size:60px;"">+</div>","null","","fixation","","",""
"memory-trial","157","530991","0.0-18.0-1.56","4160","approach_avoid_sv1","""event"",""trial"",""time""
""fullscreenenter"",""1"",""6482""
","
","
","""event"",""trial"",""time""
""fullscreenenter"",""1"",""6482""
","
","","","","","","2248.899999976158","images/train5.png","","","memory_trial","3","maybe_new",""
"html-keyboard-response","158","531495","0.0-18.0-0.57","4160","approach_avoid_sv1","""event"",""trial"",""time""
""fullscreenenter"",""1"",""6482""
","
","
","""event"",""trial"",""time""
""fullscreenenter"",""1"",""6482""
","
","","","","","","null","<div style=""font-size:60px;"">+</div>","null","","fixation","","",""
"memory-trial","159","533980","0.0-18.0-1.57","4160","approach_avoid_sv1","""event"",""trial"",""time""
""fullscreenenter"",""1"",""6482""
","
","
","""event"",""trial"",""time""
""fullscreenenter"",""1"",""6482""
","
","","","","","","1462","images/rabbit2.png","","","memory_trial","3","maybe_new",""
"html-keyboard-response","160","534485","0.0-18.0-0.58","4160","approach_avoid_sv1","""event"",""trial"",""time""
""fullscreenenter"",""1"",""6482""
","
","
","""event"",""trial"",""time""
""fullscreenenter"",""1"",""6482""
","
","","","","","","null","<div style=""font-size:60px;"">+</div>","null","","fixation","","",""
"memory-trial","161","539366","0.0-18.0-1.58","4160","approach_avoid_sv1","""event"",""trial"",""time""
""fullscreenenter"",""1"",""6482""
","
","
","""event"",""trial"",""time""
""fullscreenenter"",""1"",""6482""
","
","","","","","","3875","images/truck6.png","","","memory_trial","2","maybe_old",""
"html-keyboard-response","162","539870","0.0-18.0-0.59","4160","approach_avoid_sv1","""event"",""trial"",""time""
""fullscreenenter"",""1"",""6482""
","
","
","""event"",""trial"",""time""
""fullscreenenter"",""1"",""6482""
","
","","","","","","null","<div style=""font-size:60px;"">+</div>","null","","fixation","","",""
"memory-trial","163","543326","0.0-18.0-1.59","4160","approach_avoid_sv1","""event"",""trial"",""time""
""fullscreenenter"",""1"",""6482""
","
","
","""event"",""trial"",""time""
""fullscreenenter"",""1"",""6482""
","
","","","","","","2445.899999976158","images/bush7.png","","","memory_trial","1","definitely_old",""
"html-keyboard-response","164","543844","0.0-18.0-0.60","4160","approach_avoid_sv1","""event"",""trial"",""time""
""fullscreenenter"",""1"",""6482""
","
","
","""event"",""trial"",""time""
""fullscreenenter"",""1"",""6482""
","
","","","","","","null","<div style=""font-size:60px;"">+</div>","null","","fixation","","",""
"memory-trial","165","547006","0.0-18.0-1.60","4160","approach_avoid_sv1","""event"",""trial"",""time""
""fullscreenenter"",""1"",""6482""
","
","
","""event"",""trial"",""time""
""fullscreenenter"",""1"",""6482""
","
","","","","","","2148.199999988079","images/boat3.png","","","memory_trial","1","definitely_old",""
"html-keyboard-response","166","547518","0.0-18.0-0.61","4160","approach_avoid_sv1","""event"",""trial"",""time""
""fullscreenenter"",""1"",""6482""
","
","
","""event"",""trial"",""time""
""fullscreenenter"",""1"",""6482""
","
","","","","","","null","<div style=""font-size:60px;"">+</div>","null","","fixation","","",""
"memory-trial","167","555109","0.0-18.0-1.61","4160","approach_avoid_sv1","""event"",""trial"",""time""
""fullscreenenter"",""1"",""6482""
","
","
","""event"",""trial"",""time""
""fullscreenenter"",""1"",""6482""
","
","","","","","","6580.800000011921","images/train2.png","","","memory_trial","1","definitely_old",""
"html-keyboard-response","168","555613","0.0-18.0-0.62","4160","approach_avoid_sv1","""event"",""trial"",""time""
""fullscreenenter"",""1"",""6482""
","
","
","""event"",""trial"",""time""
""fullscreenenter"",""1"",""6482""
","
","","","","","","null","<div style=""font-size:60px;"">+</div>","null","","fixation","","",""
"memory-trial","169","558222","0.0-18.0-1.62","4160","approach_avoid_sv1","""event"",""trial"",""time""
""fullscreenenter"",""1"",""6482""
","
","
","""event"",""trial"",""time""
""fullscreenenter"",""1"",""6482""
","
","","","","","","1597.300000011921","images/horse8.png","","","memory_trial","1","definitely_old",""
"html-keyboard-response","170","558735","0.0-18.0-0.63","4160","approach_avoid_sv1","""event"",""trial"",""time""
""fullscreenenter"",""1"",""6482""
","
","
","""event"",""trial"",""time""
""fullscreenenter"",""1"",""6482""
","
","","","","","","null","<div style=""font-size:60px;"">+</div>","null","","fixation","","",""
"memory-trial","171","561414","0.0-18.0-1.63","4160","approach_avoid_sv1","""event"",""trial"",""time""
""fullscreenenter"",""1"",""6482""
","
","
","""event"",""trial"",""time""
""fullscreenenter"",""1"",""6482""
","
","","","","","","1668.5999999642372","images/tree4.png","","","memory_trial","1","definitely_old",""
"html-keyboard-response","172","561917","0.0-18.0-0.64","4160","approach_avoid_sv1","""event"",""trial"",""time""
""fullscreenenter"",""1"",""6482""
","
","
","""event"",""trial"",""time""
""fullscreenenter"",""1"",""6482""
","
","","","","","","null","<div style=""font-size:60px;"">+</div>","null","","fixation","","",""
"memory-trial","173","566270","0.0-18.0-1.64","4160","approach_avoid_sv1","""event"",""trial"",""time""
""fullscreenenter"",""1"",""6482""
","
","
","""event"",""trial"",""time""
""fullscreenenter"",""1"",""6482""
","
","","","","","","3343.800000011921","images/dog8.png","","","memory_trial","3","maybe_new",""
"html-keyboard-response","174","566773","0.0-18.0-0.65","4160","approach_avoid_sv1","""event"",""trial"",""time""
""fullscreenenter"",""1"",""6482""
","
","
","""event"",""trial"",""time""
""fullscreenenter"",""1"",""6482""
","
","","","","","","null","<div style=""font-size:60px;"">+</div>","null","","fixation","","",""
"memory-trial","175","570454","0.0-18.0-1.65","4160","approach_avoid_sv1","""event"",""trial"",""time""
""fullscreenenter"",""1"",""6482""
","
","
","""event"",""trial"",""time""
""fullscreenenter"",""1"",""6482""
","
","","","","","","2671.2000000476837","images/rabbit3.png","","","memory_trial","1","definitely_old",""
"html-keyboard-response","176","570957","0.0-18.0-0.66","4160","approach_avoid_sv1","""event"",""trial"",""time""
""fullscreenenter"",""1"",""6482""
","
","
","""event"",""trial"",""time""
""fullscreenenter"",""1"",""6482""
","
","","","","","","null","<div style=""font-size:60px;"">+</div>","null","","fixation","","",""
"memory-trial","177","574573","0.0-18.0-1.66","4160","approach_avoid_sv1","""event"",""trial"",""time""
""fullscreenenter"",""1"",""6482""
","
","
","""event"",""trial"",""time""
""fullscreenenter"",""1"",""6482""
","
","","","","","","2607.800000011921","images/cat5.png","","","memory_trial","3","maybe_new",""
"html-keyboard-response","178","575092","0.0-18.0-0.67","4160","approach_avoid_sv1","""event"",""trial"",""time""
""fullscreenenter"",""1"",""6482""
","
","
","""event"",""trial"",""time""
""fullscreenenter"",""1"",""6482""
","
","","","","","","null","<div style=""font-size:60px;"">+</div>","null","","fixation","","",""
"memory-trial","179","579069","0.0-18.0-1.67","4160","approach_avoid_sv1","""event"",""trial"",""time""
""fullscreenenter"",""1"",""6482""
","
","
","""event"",""trial"",""time""
""fullscreenenter"",""1"",""6482""
","
","","","","","","2969.900000035763","images/table1.png","","","memory_trial","2","maybe_old",""
"html-keyboard-response","180","579587","0.0-18.0-0.68","4160","approach_avoid_sv1","""event"",""trial"",""time""
""fullscreenenter"",""1"",""6482""
","
","
","""event"",""trial"",""time""
""fullscreenenter"",""1"",""6482""
","
","","","","","","null","<div style=""font-size:60px;"">+</div>","null","","fixation","","",""
"memory-trial","181","584229","0.0-18.0-1.68","4160","approach_avoid_sv1","""event"",""trial"",""time""
""fullscreenenter"",""1"",""6482""
","
","
","""event"",""trial"",""time""
""fullscreenenter"",""1"",""6482""
","
","","","","","","3635.699999988079","images/banana2.png","","","memory_trial","4","definitely_new",""
"html-keyboard-response","182","584737","0.0-18.0-0.69","4160","approach_avoid_sv1","""event"",""trial"",""time""
""fullscreenenter"",""1"",""6482""
","
","
","""event"",""trial"",""time""
""fullscreenenter"",""1"",""6482""
","
","","","","","","null","<div style=""font-size:60px;"">+</div>","null","","fixation","","",""
"memory-trial","183","590013","0.0-18.0-1.69","4160","approach_avoid_sv1","""event"",""trial"",""time""
""fullscreenenter"",""1"",""6482""
","
","
","""event"",""trial"",""time""
""fullscreenenter"",""1"",""6482""
","
","","","","","","4268.099999964237","images/cow4.png","","","memory_trial","2","maybe_old",""
"html-keyboard-response","184","590529","0.0-18.0-0.70","4160","approach_avoid_sv1","""event"",""trial"",""time""
""fullscreenenter"",""1"",""6482""
","
","
","""event"",""trial"",""time""
""fullscreenenter"",""1"",""6482""
","
","","","","","","null","<div style=""font-size:60px;"">+</div>","null","","fixation","","",""
"memory-trial","185","595653","0.0-18.0-1.70","4160","approach_avoid_sv1","""event"",""trial"",""time""
""fullscreenenter"",""1"",""6482""
","
","
","""event"",""trial"",""time""
""fullscreenenter"",""1"",""6482""
","
","","","","","","4118.699999988079","images/rabbit8.png","","","memory_trial","1","definitely_old",""
"html-keyboard-response","186","596157","0.0-18.0-0.71","4160","approach_avoid_sv1","""event"",""trial"",""time""
""fullscreenenter"",""1"",""6482""
","
","
","""event"",""trial"",""time""
""fullscreenenter"",""1"",""6482""
","
","","","","","","null","<div style=""font-size:60px;"">+</div>","null","","fixation","","",""
"memory-trial","187","599585","0.0-18.0-1.71","4160","approach_avoid_sv1","""event"",""trial"",""time""
""fullscreenenter"",""1"",""6482""
","
","
","""event"",""trial"",""time""
""fullscreenenter"",""1"",""6482""
","
","","","","","","2407.5","images/boat5.png","","","memory_trial","2","maybe_old",""
"html-keyboard-response","188","600092","0.0-18.0-0.72","4160","approach_avoid_sv1","""event"",""trial"",""time""
""fullscreenenter"",""1"",""6482""
","
","
","""event"",""trial"",""time""
""fullscreenenter"",""1"",""6482""
","
","","","","","","null","<div style=""font-size:60px;"">+</div>","null","","fixation","","",""
"memory-trial","189","605453","0.0-18.0-1.72","4160","approach_avoid_sv1","""event"",""trial"",""time""
""fullscreenenter"",""1"",""6482""
","
","
","""event"",""trial"",""time""
""fullscreenenter"",""1"",""6482""
","
","","","","","","4352.699999988079","images/rabbit1.png","","","memory_trial","1","definitely_old",""
"html-keyboard-response","190","605967","0.0-18.0-0.73","4160","approach_avoid_sv1","""event"",""trial"",""time""
""fullscreenenter"",""1"",""6482""
","
","
","""event"",""trial"",""time""
""fullscreenenter"",""1"",""6482""
","
","","","","","","null","<div style=""font-size:60px;"">+</div>","null","","fixation","","",""
"memory-trial","191","615973","0.0-18.0-1.73","4160","approach_avoid_sv1","""event"",""trial"",""time""
""fullscreenenter"",""1"",""6482""
","
","
","""event"",""trial"",""time""
""fullscreenenter"",""1"",""6482""
","
","","","","","","null","images/banana8.png","","","memory_trial","null","null",""
"html-keyboard-response","192","616477","0.0-18.0-0.74","4160","approach_avoid_sv1","""event"",""trial"",""time""
""fullscreenenter"",""1"",""6482""
","
","
","""event"",""trial"",""time""
""fullscreenenter"",""1"",""6482""
","
","","","","","","null","<div style=""font-size:60px;"">+</div>","null","","fixation","","",""
"memory-trial","193","618605","0.0-18.0-1.74","4160","approach_avoid_sv1","""event"",""trial"",""time""
""fullscreenenter"",""1"",""6482""
","
","
","""event"",""trial"",""time""
""fullscreenenter"",""1"",""6482""
","
","","","","","","1114.6000000238419","images/rodent7.png","","","memory_trial","1","definitely_old",""
"html-keyboard-response","194","619113","0.0-18.0-0.75","4160","approach_avoid_sv1","""event"",""trial"",""time""
""fullscreenenter"",""1"",""6482""
","
","
","""event"",""trial"",""time""
""fullscreenenter"",""1"",""6482""
","
","","","","","","null","<div style=""font-size:60px;"">+</div>","null","","fixation","","",""
"memory-trial","195","622638","0.0-18.0-1.75","4160","approach_avoid_sv1","""event"",""trial"",""time""
""fullscreenenter"",""1"",""6482""
","
","
","""event"",""trial"",""time""
""fullscreenenter"",""1"",""6482""
","
","","","","","","2515.100000023842","images/cow5.png","","","memory_trial","2","maybe_old",""
"html-keyboard-response","196","623141","0.0-18.0-0.76","4160","approach_avoid_sv1","""event"",""trial"",""time""
""fullscreenenter"",""1"",""6482""
","
","
","""event"",""trial"",""time""
""fullscreenenter"",""1"",""6482""
","
","","","","","","null","<div style=""font-size:60px;"">+</div>","null","","fixation","","",""
"memory-trial","197","626574","0.0-18.0-1.76","4160","approach_avoid_sv1","""event"",""trial"",""time""
""fullscreenenter"",""1"",""6482""
","
","
","""event"",""trial"",""time""
""fullscreenenter"",""1"",""6482""
","
","","","","","","2419.300000011921","images/dog7.png","","","memory_trial","1","definitely_old",""
"html-keyboard-response","198","627079","0.0-18.0-0.77","4160","approach_avoid_sv1","""event"",""trial"",""time""
""fullscreenenter"",""1"",""6482""
","
","
","""event"",""trial"",""time""
""fullscreenenter"",""1"",""6482""
","
","","","","","","null","<div style=""font-size:60px;"">+</div>","null","","fixation","","",""
"memory-trial","199","630373","0.0-18.0-1.77","4160","approach_avoid_sv1","""event"",""trial"",""time""
""fullscreenenter"",""1"",""6482""
","
","
","""event"",""trial"",""time""
""fullscreenenter"",""1"",""6482""
","
","","","","","","2288.400000035763","images/cow3.png","","","memory_trial","1","definitely_old",""
"html-keyboard-response","200","630877","0.0-18.0-0.78","4160","approach_avoid_sv1","""event"",""trial"",""time""
""fullscreenenter"",""1"",""6482""
","
","
","""event"",""trial"",""time""
""fullscreenenter"",""1"",""6482""
","
","","","","","","null","<div style=""font-size:60px;"">+</div>","null","","fixation","","",""
"memory-trial","201","632798","0.0-18.0-1.78","4160","approach_avoid_sv1","""event"",""trial"",""time""
""fullscreenenter"",""1"",""6482""
","
","
","""event"",""trial"",""time""
""fullscreenenter"",""1"",""6482""
","
","","","","","","914","images/orange6.png","","","memory_trial","1","definitely_old",""
"html-keyboard-response","202","633301","0.0-18.0-0.79","4160","approach_avoid_sv1","""event"",""trial"",""time""
""fullscreenenter"",""1"",""6482""
","
","
","""event"",""trial"",""time""
""fullscreenenter"",""1"",""6482""
","
","","","","","","null","<div style=""font-size:60px;"">+</div>","null","","fixation","","",""
"memory-trial","203","636789","0.0-18.0-1.79","4160","approach_avoid_sv1","""event"",""trial"",""time""
""fullscreenenter"",""1"",""6482""
","
","
","""event"",""trial"",""time""
""fullscreenenter"",""1"",""6482""
","
","","","","","","2467.100000023842","images/plane3.png","","","memory_trial","2","maybe_old",""
"html-keyboard-response","204","637294","0.0-18.0-0.80","4160","approach_avoid_sv1","""event"",""trial"",""time""
""fullscreenenter"",""1"",""6482""
","
","
","""event"",""trial"",""time""
""fullscreenenter"",""1"",""6482""
","
","","","","","","null","<div style=""font-size:60px;"">+</div>","null","","fixation","","",""
"memory-trial","205","640239","0.0-18.0-1.80","4160","approach_avoid_sv1","""event"",""trial"",""time""
""fullscreenenter"",""1"",""6482""
","
","
","""event"",""trial"",""time""
""fullscreenenter"",""1"",""6482""
","
","","","","","","1936.2000000476837","images/table2.png","","","memory_trial","3","maybe_new",""
"html-keyboard-response","206","640749","0.0-18.0-0.81","4160","approach_avoid_sv1","""event"",""trial"",""time""
""fullscreenenter"",""1"",""6482""
","
","
","""event"",""trial"",""time""
""fullscreenenter"",""1"",""6482""
","
","","","","","","null","<div style=""font-size:60px;"">+</div>","null","","fixation","","",""
"memory-trial","207","643118","0.0-18.0-1.81","4160","approach_avoid_sv1","""event"",""trial"",""time""
""fullscreenenter"",""1"",""6482""
","
","
","""event"",""trial"",""time""
""fullscreenenter"",""1"",""6482""
","
","","","","","","1360.9000000357628","images/horse4.png","","","memory_trial","3","maybe_new",""
"html-keyboard-response","208","643621","0.0-18.0-0.82","4160","approach_avoid_sv1","""event"",""trial"",""time""
""fullscreenenter"",""1"",""6482""
","
","
","""event"",""trial"",""time""
""fullscreenenter"",""1"",""6482""
","
","","","","","","null","<div style=""font-size:60px;"">+</div>","null","","fixation","","",""
"memory-trial","209","646959","0.0-18.0-1.82","4160","approach_avoid_sv1","""event"",""trial"",""time""
""fullscreenenter"",""1"",""6482""
","
","
","""event"",""trial"",""time""
""fullscreenenter"",""1"",""6482""
","
","","","","","","2319.699999988079","images/bed3.png","","","memory_trial","3","maybe_new",""
"html-keyboard-response","210","647481","0.0-18.0-0.83","4160","approach_avoid_sv1","""event"",""trial"",""time""
""fullscreenenter"",""1"",""6482""
","
","
","""event"",""trial"",""time""
""fullscreenenter"",""1"",""6482""
","
","","","","","","null","<div style=""font-size:60px;"">+</div>","null","","fixation","","",""
"memory-trial","211","650198","0.0-18.0-1.83","4160","approach_avoid_sv1","""event"",""trial"",""time""
""fullscreenenter"",""1"",""6482""
","
","
","""event"",""trial"",""time""
""fullscreenenter"",""1"",""6482""
","
","","","","","","1702.300000011921","images/apple4.png","","","memory_trial","1","definitely_old",""
"html-keyboard-response","212","650701","0.0-18.0-0.84","4160","approach_avoid_sv1","""event"",""trial"",""time""
""fullscreenenter"",""1"",""6482""
","
","
","""event"",""trial"",""time""
""fullscreenenter"",""1"",""6482""
","
","","","","","","null","<div style=""font-size:60px;"">+</div>","null","","fixation","","",""
"memory-trial","213","653350","0.0-18.0-1.84","4160","approach_avoid_sv1","""event"",""trial"",""time""
""fullscreenenter"",""1"",""6482""
","
","
","""event"",""trial"",""time""
""fullscreenenter"",""1"",""6482""
","
","","","","","","1641.199999988079","images/chair1.png","","","memory_trial","1","definitely_old",""
"html-keyboard-response","214","653860","0.0-18.0-0.85","4160","approach_avoid_sv1","""event"",""trial"",""time""
""fullscreenenter"",""1"",""6482""
","
","
","""event"",""trial"",""time""
""fullscreenenter"",""1"",""6482""
","
","","","","","","null","<div style=""font-size:60px;"">+</div>","null","","fixation","","",""
"memory-trial","215","656029","0.0-18.0-1.85","4160","approach_avoid_sv1","""event"",""trial"",""time""
""fullscreenenter"",""1"",""6482""
","
","
","""event"",""trial"",""time""
""fullscreenenter"",""1"",""6482""
","
","","","","","","1159.8999999761581","images/horse6.png","","","memory_trial","1","definitely_old",""
"html-keyboard-response","216","656533","0.0-18.0-0.86","4160","approach_avoid_sv1","""event"",""trial"",""time""
""fullscreenenter"",""1"",""6482""
","
","
","""event"",""trial"",""time""
""fullscreenenter"",""1"",""6482""
","
","","","","","","null","<div style=""font-size:60px;"">+</div>","null","","fixation","","",""
"memory-trial","217","659614","0.0-18.0-1.86","4160","approach_avoid_sv1","""event"",""trial"",""time""
""fullscreenenter"",""1"",""6482""
","
","
","""event"",""trial"",""time""
""fullscreenenter"",""1"",""6482""
","
","","","","","","2071.100000023842","images/bed8.png","","","memory_trial","1","definitely_old",""
"html-keyboard-response","218","660119","0.0-18.0-0.87","4160","approach_avoid_sv1","""event"",""trial"",""time""
""fullscreenenter"",""1"",""6482""
","
","
","""event"",""trial"",""time""
""fullscreenenter"",""1"",""6482""
","
","","","","","","null","<div style=""font-size:60px;"">+</div>","null","","fixation","","",""
"memory-trial","219","663549","0.0-18.0-1.87","4160","approach_avoid_sv1","""event"",""trial"",""time""
""fullscreenenter"",""1"",""6482""
","
","
","""event"",""trial"",""time""
""fullscreenenter"",""1"",""6482""
","
","","","","","","2423.600000023842","images/sofa7.png","","","memory_trial","3","maybe_new",""
"html-keyboard-response","220","664068","0.0-18.0-0.88","4160","approach_avoid_sv1","""event"",""trial"",""time""
""fullscreenenter"",""1"",""6482""
","
","
","""event"",""trial"",""time""
""fullscreenenter"",""1"",""6482""
","
","","","","","","null","<div style=""font-size:60px;"">+</div>","null","","fixation","","",""
"memory-trial","221","667397","0.0-18.0-1.88","4160","approach_avoid_sv1","""event"",""trial"",""time""
""fullscreenenter"",""1"",""6482""
","
","
","""event"",""trial"",""time""
""fullscreenenter"",""1"",""6482""
","
","","","","","","2319.7000000476837","images/apple8.png","","","memory_trial","1","definitely_old",""
"html-keyboard-response","222","667914","0.0-18.0-0.89","4160","approach_avoid_sv1","""event"",""trial"",""time""
""fullscreenenter"",""1"",""6482""
","
","
","""event"",""trial"",""time""
""fullscreenenter"",""1"",""6482""
","
","","","","","","null","<div style=""font-size:60px;"">+</div>","null","","fixation","","",""
"memory-trial","223","669837","0.0-18.0-1.89","4160","approach_avoid_sv1","""event"",""trial"",""time""
""fullscreenenter"",""1"",""6482""
","
","
","""event"",""trial"",""time""
""fullscreenenter"",""1"",""6482""
","
","","","","","","912","images/goat7.png","","","memory_trial","1","definitely_old",""
"html-keyboard-response","224","670341","0.0-18.0-0.90","4160","approach_avoid_sv1","""event"",""trial"",""time""
""fullscreenenter"",""1"",""6482""
","
","
","""event"",""trial"",""time""
""fullscreenenter"",""1"",""6482""
","
","","","","","","null","<div style=""font-size:60px;"">+</div>","null","","fixation","","",""
"memory-trial","225","673341","0.0-18.0-1.90","4160","approach_avoid_sv1","""event"",""trial"",""time""
""fullscreenenter"",""1"",""6482""
","
","
","""event"",""trial"",""time""
""fullscreenenter"",""1"",""6482""
","
","","","","","","1993.5","images/banana7.png","","","memory_trial","4","definitely_new",""
"html-keyboard-response","226","673856","0.0-18.0-0.91","4160","approach_avoid_sv1","""event"",""trial"",""time""
""fullscreenenter"",""1"",""6482""
","
","
","""event"",""trial"",""time""
""fullscreenenter"",""1"",""6482""
","
","","","","","","null","<div style=""font-size:60px;"">+</div>","null","","fixation","","",""
"memory-trial","227","678957","0.0-18.0-1.91","4160","approach_avoid_sv1","""event"",""trial"",""time""
""fullscreenenter"",""1"",""6482""
","
","
","""event"",""trial"",""time""
""fullscreenenter"",""1"",""6482""
","
","","","","","","4091.2999999523163","images/sofa6.png","","","memory_trial","3","maybe_new",""
"html-button-response","228","782068","0.0-18.0-2.91-0.91","4160","approach_avoid_sv1","""event"",""trial"",""time""
""fullscreenenter"",""1"",""6482""
","
","
","""event"",""trial"",""time""
""fullscreenenter"",""1"",""6482""
","
","","","","","","103108.39999997616","<p> Take a break! </p><p> Click the button to continue. </p>","0","","break","","",""
"html-keyboard-response","229","782574","0.0-18.0-0.92","4160","approach_avoid_sv1","""event"",""trial"",""time""
""fullscreenenter"",""1"",""6482""
","
","
","""event"",""trial"",""time""
""fullscreenenter"",""1"",""6482""
","
","","","","","","null","<div style=""font-size:60px;"">+</div>","null","","fixation","","",""
"memory-trial","230","784838","0.0-18.0-1.92","4160","approach_avoid_sv1","""event"",""trial"",""time""
""fullscreenenter"",""1"",""6482""
","
","
","""event"",""trial"",""time""
""fullscreenenter"",""1"",""6482""
","
","","","","","","1255.1000000238419","images/apple7.png","","","memory_trial","1","definitely_old",""
"html-keyboard-response","231","785341","0.0-18.0-0.93","4160","approach_avoid_sv1","""event"",""trial"",""time""
""fullscreenenter"",""1"",""6482""
","
","
","""event"",""trial"",""time""
""fullscreenenter"",""1"",""6482""
","
","","","","","","null","<div style=""font-size:60px;"">+</div>","null","","fixation","","",""
"memory-trial","232","788205","0.0-18.0-1.93","4160","approach_avoid_sv1","""event"",""trial"",""time""
""fullscreenenter"",""1"",""6482""
","
","
","""event"",""trial"",""time""
""fullscreenenter"",""1"",""6482""
","
","","","","","","1844.2999999523163","images/bed7.png","","","memory_trial","2","maybe_old",""
"html-keyboard-response","233","788709","0.0-18.0-0.94","4160","approach_avoid_sv1","""event"",""trial"",""time""
""fullscreenenter"",""1"",""6482""
","
","
","""event"",""trial"",""time""
""fullscreenenter"",""1"",""6482""
","
","","","","","","null","<div style=""font-size:60px;"">+</div>","null","","fixation","","",""
"memory-trial","234","791565","0.0-18.0-1.94","4160","approach_avoid_sv1","""event"",""trial"",""time""
""fullscreenenter"",""1"",""6482""
","
","
","""event"",""trial"",""time""
""fullscreenenter"",""1"",""6482""
","
","","","","","","1847.3999999761581","images/cactus8.png","","","memory_trial","4","definitely_new",""
"html-keyboard-response","235","792071","0.0-18.0-0.95","4160","approach_avoid_sv1","""event"",""trial"",""time""
""fullscreenenter"",""1"",""6482""
","
","
","""event"",""trial"",""time""
""fullscreenenter"",""1"",""6482""
","
","","","","","","null","<div style=""font-size:60px;"">+</div>","null","","fixation","","",""
"memory-trial","236","794574","0.0-18.0-1.95","4160","approach_avoid_sv1","""event"",""trial"",""time""
""fullscreenenter"",""1"",""6482""
","
","
","""event"",""trial"",""time""
""fullscreenenter"",""1"",""6482""
","
","","","","","","1490.5999999642372","images/cactus3.png","","","memory_trial","3","maybe_new",""
"html-keyboard-response","237","795081","0.0-18.0-0.96","4160","approach_avoid_sv1","""event"",""trial"",""time""
""fullscreenenter"",""1"",""6482""
","
","
","""event"",""trial"",""time""
""fullscreenenter"",""1"",""6482""
","
","","","","","","null","<div style=""font-size:60px;"">+</div>","null","","fixation","","",""
"memory-trial","238","798429","0.0-18.0-1.96","4160","approach_avoid_sv1","""event"",""trial"",""time""
""fullscreenenter"",""1"",""6482""
","
","
","""event"",""trial"",""time""
""fullscreenenter"",""1"",""6482""
","
","","","","","","2340.399999976158","images/orange3.png","","","memory_trial","4","definitely_new",""
"html-keyboard-response","239","798932","0.0-18.0-0.97","4160","approach_avoid_sv1","""event"",""trial"",""time""
""fullscreenenter"",""1"",""6482""
","
","
","""event"",""trial"",""time""
""fullscreenenter"",""1"",""6482""
","
","","","","","","null","<div style=""font-size:60px;"">+</div>","null","","fixation","","",""
"memory-trial","240","801724","0.0-18.0-1.97","4160","approach_avoid_sv1","""event"",""trial"",""time""
""fullscreenenter"",""1"",""6482""
","
","
","""event"",""trial"",""time""
""fullscreenenter"",""1"",""6482""
","
","","","","","","1782.300000011921","images/rabbit6.png","","","memory_trial","1","definitely_old",""
"html-keyboard-response","241","802240","0.0-18.0-0.98","4160","approach_avoid_sv1","""event"",""trial"",""time""
""fullscreenenter"",""1"",""6482""
","
","
","""event"",""trial"",""time""
""fullscreenenter"",""1"",""6482""
","
","","","","","","null","<div style=""font-size:60px;"">+</div>","null","","fixation","","",""
"memory-trial","242","804687","0.0-18.0-1.98","4160","approach_avoid_sv1","""event"",""trial"",""time""
""fullscreenenter"",""1"",""6482""
","
","
","""event"",""trial"",""time""
""fullscreenenter"",""1"",""6482""
","
","","","","","","1431.3999999761581","images/flower3.png","","","memory_trial","1","definitely_old",""
"html-keyboard-response","243","805208","0.0-18.0-0.99","4160","approach_avoid_sv1","""event"",""trial"",""time""
""fullscreenenter"",""1"",""6482""
","
","
","""event"",""trial"",""time""
""fullscreenenter"",""1"",""6482""
","
","","","","","","null","<div style=""font-size:60px;"">+</div>","null","","fixation","","",""
"memory-trial","244","807592","0.0-18.0-1.99","4160","approach_avoid_sv1","""event"",""trial"",""time""
""fullscreenenter"",""1"",""6482""
","
","
","""event"",""trial"",""time""
""fullscreenenter"",""1"",""6482""
","
","","","","","","1369.800000011921","images/boat8.png","","","memory_trial","1","definitely_old",""
"html-keyboard-response","245","808110","0.0-18.0-0.100","4160","approach_avoid_sv1","""event"",""trial"",""time""
""fullscreenenter"",""1"",""6482""
","
","
","""event"",""trial"",""time""
""fullscreenenter"",""1"",""6482""
","
","","","","","","null","<div style=""font-size:60px;"">+</div>","null","","fixation","","",""
"memory-trial","246","811181","0.0-18.0-1.100","4160","approach_avoid_sv1","""event"",""trial"",""time""
""fullscreenenter"",""1"",""6482""
","
","
","""event"",""trial"",""time""
""fullscreenenter"",""1"",""6482""
","
","","","","","","2065.400000035763","images/bush5.png","","","memory_trial","2","maybe_old",""
"html-keyboard-response","247","811684","0.0-18.0-0.101","4160","approach_avoid_sv1","""event"",""trial"",""time""
""fullscreenenter"",""1"",""6482""
","
","
","""event"",""trial"",""time""
""fullscreenenter"",""1"",""6482""
","
","","","","","","null","<div style=""font-size:60px;"">+</div>","null","","fixation","","",""
"memory-trial","248","813716","0.0-18.0-1.101","4160","approach_avoid_sv1","""event"",""trial"",""time""
""fullscreenenter"",""1"",""6482""
","
","
","""event"",""trial"",""time""
""fullscreenenter"",""1"",""6482""
","
","","","","","","1022.6999999880791","images/chair2.png","","","memory_trial","1","definitely_old",""
"html-keyboard-response","249","814220","0.0-18.0-0.102","4160","approach_avoid_sv1","""event"",""trial"",""time""
""fullscreenenter"",""1"",""6482""
","
","
","""event"",""trial"",""time""
""fullscreenenter"",""1"",""6482""
","
","","","","","","null","<div style=""font-size:60px;"">+</div>","null","","fixation","","",""
"memory-trial","250","816461","0.0-18.0-1.102","4160","approach_avoid_sv1","""event"",""trial"",""time""
""fullscreenenter"",""1"",""6482""
","
","
","""event"",""trial"",""time""
""fullscreenenter"",""1"",""6482""
","
","","","","","","1229.199999988079","images/plane6.png","","","memory_trial","1","definitely_old",""
"html-keyboard-response","251","816971","0.0-18.0-0.103","4160","approach_avoid_sv1","""event"",""trial"",""time""
""fullscreenenter"",""1"",""6482""
","
","
","""event"",""trial"",""time""
""fullscreenenter"",""1"",""6482""
","
","","","","","","null","<div style=""font-size:60px;"">+</div>","null","","fixation","","",""
"memory-trial","252","820317","0.0-18.0-1.103","4160","approach_avoid_sv1","""event"",""trial"",""time""
""fullscreenenter"",""1"",""6482""
","
","
","""event"",""trial"",""time""
""fullscreenenter"",""1"",""6482""
","
","","","","","","2334.699999988079","images/cactus7.png","","","memory_trial","3","maybe_new",""
"html-keyboard-response","253","820825","0.0-18.0-0.104","4160","approach_avoid_sv1","""event"",""trial"",""time""
""fullscreenenter"",""1"",""6482""
","
","
","""event"",""trial"",""time""
""fullscreenenter"",""1"",""6482""
","
","","","","","","null","<div style=""font-size:60px;"">+</div>","null","","fixation","","",""
"memory-trial","254","823084","0.0-18.0-1.104","4160","approach_avoid_sv1","""event"",""trial"",""time""
""fullscreenenter"",""1"",""6482""
","
","
","""event"",""trial"",""time""
""fullscreenenter"",""1"",""6482""
","
","","","","","","1234.3999999761581","images/horse7.png","","","memory_trial","4","definitely_new",""
"html-keyboard-response","255","823589","0.0-18.0-0.105","4160","approach_avoid_sv1","""event"",""trial"",""time""
""fullscreenenter"",""1"",""6482""
","
","
","""event"",""trial"",""time""
""fullscreenenter"",""1"",""6482""
","
","","","","","","null","<div style=""font-size:60px;"">+</div>","null","","fixation","","",""
"memory-trial","256","826326","0.0-18.0-1.105","4160","approach_avoid_sv1","""event"",""trial"",""time""
""fullscreenenter"",""1"",""6482""
","
","
","""event"",""trial"",""time""
""fullscreenenter"",""1"",""6482""
","
","","","","","","1725.8999999761581","images/sofa8.png","","","memory_trial","1","definitely_old",""
"html-keyboard-response","257","826844","0.0-18.0-0.106","4160","approach_avoid_sv1","""event"",""trial"",""time""
""fullscreenenter"",""1"",""6482""
","
","
","""event"",""trial"",""time""
""fullscreenenter"",""1"",""6482""
","
","","","","","","null","<div style=""font-size:60px;"">+</div>","null","","fixation","","",""
"memory-trial","258","828915","0.0-18.0-1.106","4160","approach_avoid_sv1","""event"",""trial"",""time""
""fullscreenenter"",""1"",""6482""
","
","
","""event"",""trial"",""time""
""fullscreenenter"",""1"",""6482""
","
","","","","","","1050.9000000357628","images/rodent4.png","","","memory_trial","1","definitely_old",""
"html-keyboard-response","259","829435","0.0-18.0-0.107","4160","approach_avoid_sv1","""event"",""trial"",""time""
""fullscreenenter"",""1"",""6482""
","
","
","""event"",""trial"",""time""
""fullscreenenter"",""1"",""6482""
","
","","","","","","null","<div style=""font-size:60px;"">+</div>","null","","fixation","","",""
"memory-trial","260","831793","0.0-18.0-1.107","4160","approach_avoid_sv1","""event"",""trial"",""time""
""fullscreenenter"",""1"",""6482""
","
","
","""event"",""trial"",""time""
""fullscreenenter"",""1"",""6482""
","
","","","","","","1337.800000011921","images/cactus5.png","","","memory_trial","4","definitely_new",""
"html-keyboard-response","261","832301","0.0-18.0-0.108","4160","approach_avoid_sv1","""event"",""trial"",""time""
""fullscreenenter"",""1"",""6482""
","
","
","""event"",""trial"",""time""
""fullscreenenter"",""1"",""6482""
","
","","","","","","null","<div style=""font-size:60px;"">+</div>","null","","fixation","","",""
"memory-trial","262","834390","0.0-18.0-1.108","4160","approach_avoid_sv1","""event"",""trial"",""time""
""fullscreenenter"",""1"",""6482""
","
","
","""event"",""trial"",""time""
""fullscreenenter"",""1"",""6482""
","
","","","","","","1080.1000000238419","images/train7.png","","","memory_trial","1","definitely_old",""
"html-keyboard-response","263","834893","0.0-18.0-0.109","4160","approach_avoid_sv1","""event"",""trial"",""time""
""fullscreenenter"",""1"",""6482""
","
","
","""event"",""trial"",""time""
""fullscreenenter"",""1"",""6482""
","
","","","","","","null","<div style=""font-size:60px;"">+</div>","null","","fixation","","",""
"memory-trial","264","837574","0.0-18.0-1.109","4160","approach_avoid_sv1","""event"",""trial"",""time""
""fullscreenenter"",""1"",""6482""
","
","
","""event"",""trial"",""time""
""fullscreenenter"",""1"",""6482""
","
","","","","","","1673.9000000357628","images/train3.png","","","memory_trial","1","definitely_old",""
"html-keyboard-response","265","838076","0.0-18.0-0.110","4160","approach_avoid_sv1","""event"",""trial"",""time""
""fullscreenenter"",""1"",""6482""
","
","
","""event"",""trial"",""time""
""fullscreenenter"",""1"",""6482""
","
","","","","","","null","<div style=""font-size:60px;"">+</div>","null","","fixation","","",""
"memory-trial","266","840350","0.0-18.0-1.110","4160","approach_avoid_sv1","""event"",""trial"",""time""
""fullscreenenter"",""1"",""6482""
","
","
","""event"",""trial"",""time""
""fullscreenenter"",""1"",""6482""
","
","","","","","","1266.7999999523163","images/sofa3.png","","","memory_trial","1","definitely_old",""
"html-keyboard-response","267","840864","0.0-18.0-0.111","4160","approach_avoid_sv1","""event"",""trial"",""time""
""fullscreenenter"",""1"",""6482""
","
","
","""event"",""trial"",""time""
""fullscreenenter"",""1"",""6482""
","
","","","","","","null","<div style=""font-size:60px;"">+</div>","null","","fixation","","",""
"memory-trial","268","843156","0.0-18.0-1.111","4160","approach_avoid_sv1","""event"",""trial"",""time""
""fullscreenenter"",""1"",""6482""
","
","
","""event"",""trial"",""time""
""fullscreenenter"",""1"",""6482""
","
","","","","","","1282.800000011921","images/flower1.png","","","memory_trial","1","definitely_old",""
"html-keyboard-response","269","843674","0.0-18.0-0.112","4160","approach_avoid_sv1","""event"",""trial"",""time""
""fullscreenenter"",""1"",""6482""
","
","
","""event"",""trial"",""time""
""fullscreenenter"",""1"",""6482""
","
","","","","","","null","<div style=""font-size:60px;"">+</div>","null","","fixation","","",""
"memory-trial","270","846946","0.0-18.0-1.112","4160","approach_avoid_sv1","""event"",""trial"",""time""
""fullscreenenter"",""1"",""6482""
","
","
","""event"",""trial"",""time""
""fullscreenenter"",""1"",""6482""
","
","","","","","","2255.399999976158","images/straw2.png","","","memory_trial","2","maybe_old",""
"html-keyboard-response","271","847452","0.0-18.0-0.113","4160","approach_avoid_sv1","""event"",""trial"",""time""
""fullscreenenter"",""1"",""6482""
","
","
","""event"",""trial"",""time""
""fullscreenenter"",""1"",""6482""
","
","","","","","","null","<div style=""font-size:60px;"">+</div>","null","","fixation","","",""
"memory-trial","272","849947","0.0-18.0-1.113","4160","approach_avoid_sv1","""event"",""trial"",""time""
""fullscreenenter"",""1"",""6482""
","
","
","""event"",""trial"",""time""
""fullscreenenter"",""1"",""6482""
","
","","","","","","1482.199999988079","images/table8.png","","","memory_trial","4","definitely_new",""
"html-keyboard-response","273","850467","0.0-18.0-0.114","4160","approach_avoid_sv1","""event"",""trial"",""time""
""fullscreenenter"",""1"",""6482""
","
","
","""event"",""trial"",""time""
""fullscreenenter"",""1"",""6482""
","
","","","","","","null","<div style=""font-size:60px;"">+</div>","null","","fixation","","",""
"memory-trial","274","852764","0.0-18.0-1.114","4160","approach_avoid_sv1","""event"",""trial"",""time""
""fullscreenenter"",""1"",""6482""
","
","
","""event"",""trial"",""time""
""fullscreenenter"",""1"",""6482""
","
","","","","","","1289.699999988079","images/sheep1.png","","","memory_trial","4","definitely_new",""
"html-keyboard-response","275","853268","0.0-18.0-0.115","4160","approach_avoid_sv1","""event"",""trial"",""time""
""fullscreenenter"",""1"",""6482""
","
","
","""event"",""trial"",""time""
""fullscreenenter"",""1"",""6482""
","
","","","","","","null","<div style=""font-size:60px;"">+</div>","null","","fixation","","",""
"memory-trial","276","856116","0.0-18.0-1.115","4160","approach_avoid_sv1","""event"",""trial"",""time""
""fullscreenenter"",""1"",""6482""
","
","
","""event"",""trial"",""time""
""fullscreenenter"",""1"",""6482""
","
","","","","","","1842.6000000238419","images/truck1.png","","","memory_trial","4","definitely_new",""
"html-keyboard-response","277","856620","0.0-18.0-0.116","4160","approach_avoid_sv1","""event"",""trial"",""time""
""fullscreenenter"",""1"",""6482""
","
","
","""event"",""trial"",""time""
""fullscreenenter"",""1"",""6482""
","
","","","","","","null","<div style=""font-size:60px;"">+</div>","null","","fixation","","",""
"memory-trial","278","859028","0.0-18.0-1.116","4160","approach_avoid_sv1","""event"",""trial"",""time""
""fullscreenenter"",""1"",""6482""
","
","
","""event"",""trial"",""time""
""fullscreenenter"",""1"",""6482""
","
","","","","","","1403.5","images/rodent3.png","","","memory_trial","1","definitely_old",""
"html-keyboard-response","279","859539","0.0-18.0-0.117","4160","approach_avoid_sv1","""event"",""trial"",""time""
""fullscreenenter"",""1"",""6482""
","
","
","""event"",""trial"",""time""
""fullscreenenter"",""1"",""6482""
","
","","","","","","null","<div style=""font-size:60px;"">+</div>","null","","fixation","","",""
"memory-trial","280","861853","0.0-18.0-1.117","4160","approach_avoid_sv1","""event"",""trial"",""time""
""fullscreenenter"",""1"",""6482""
","
","
","""event"",""trial"",""time""
""fullscreenenter"",""1"",""6482""
","
","","","","","","1301.800000011921","images/truck8.png","","","memory_trial","4","definitely_new",""
"html-keyboard-response","281","862370","0.0-18.0-0.118","4160","approach_avoid_sv1","""event"",""trial"",""time""
""fullscreenenter"",""1"",""6482""
","
","
","""event"",""trial"",""time""
""fullscreenenter"",""1"",""6482""
","
","","","","","","null","<div style=""font-size:60px;"">+</div>","null","","fixation","","",""
"memory-trial","282","864133","0.0-18.0-1.118","4160","approach_avoid_sv1","""event"",""trial"",""time""
""fullscreenenter"",""1"",""6482""
","
","
","""event"",""trial"",""time""
""fullscreenenter"",""1"",""6482""
","
","","","","","","751.5","images/horse5.png","","","memory_trial","1","definitely_old",""
"html-keyboard-response","283","864636","0.0-18.0-0.119","4160","approach_avoid_sv1","""event"",""trial"",""time""
""fullscreenenter"",""1"",""6482""
","
","
","""event"",""trial"",""time""
""fullscreenenter"",""1"",""6482""
","
","","","","","","null","<div style=""font-size:60px;"">+</div>","null","","fixation","","",""
"memory-trial","284","867214","0.0-18.0-1.119","4160","approach_avoid_sv1","""event"",""trial"",""time""
""fullscreenenter"",""1"",""6482""
","
","
","""event"",""trial"",""time""
""fullscreenenter"",""1"",""6482""
","
","","","","","","1568.800000011921","images/horse1.png","","","memory_trial","1","definitely_old",""
"html-keyboard-response","285","867724","0.0-18.0-0.120","4160","approach_avoid_sv1","""event"",""trial"",""time""
""fullscreenenter"",""1"",""6482""
","
","
","""event"",""trial"",""time""
""fullscreenenter"",""1"",""6482""
","
","","","","","","null","<div style=""font-size:60px;"">+</div>","null","","fixation","","",""
"memory-trial","286","872964","0.0-18.0-1.120","4160","approach_avoid_sv1","""event"",""trial"",""time""
""fullscreenenter"",""1"",""6482""
","
","
","""event"",""trial"",""time""
""fullscreenenter"",""1"",""6482""
","
","","","","","","4229.700000047684","images/plane4.png","","","memory_trial","1","definitely_old",""
"html-keyboard-response","287","873469","0.0-18.0-0.121","4160","approach_avoid_sv1","""event"",""trial"",""time""
""fullscreenenter"",""1"",""6482""
","
","
","""event"",""trial"",""time""
""fullscreenenter"",""1"",""6482""
","
","","","","","","null","<div style=""font-size:60px;"">+</div>","null","","fixation","","",""
"memory-trial","288","876541","0.0-18.0-1.121","4160","approach_avoid_sv1","""event"",""trial"",""time""
""fullscreenenter"",""1"",""6482""
","
","
","""event"",""trial"",""time""
""fullscreenenter"",""1"",""6482""
","
","","","","","","2064.300000011921","images/bush8.png","","","memory_trial","3","maybe_new",""
"html-keyboard-response","289","877044","0.0-18.0-0.122","4160","approach_avoid_sv1","""event"",""trial"",""time""
""fullscreenenter"",""1"",""6482""
","
","
","""event"",""trial"",""time""
""fullscreenenter"",""1"",""6482""
","
","","","","","","null","<div style=""font-size:60px;"">+</div>","null","","fixation","","",""
"memory-trial","290","880038","0.0-18.0-1.122","4160","approach_avoid_sv1","""event"",""trial"",""time""
""fullscreenenter"",""1"",""6482""
","
","
","""event"",""trial"",""time""
""fullscreenenter"",""1"",""6482""
","
","","","","","","1986.0999999642372","images/chair6.png","","","memory_trial","1","definitely_old",""
"html-keyboard-response","291","880540","0.0-18.0-0.123","4160","approach_avoid_sv1","""event"",""trial"",""time""
""fullscreenenter"",""1"",""6482""
","
","
","""event"",""trial"",""time""
""fullscreenenter"",""1"",""6482""
","
","","","","","","null","<div style=""font-size:60px;"">+</div>","null","","fixation","","",""
"memory-trial","292","887972","0.0-18.0-1.123","4160","approach_avoid_sv1","""event"",""trial"",""time""
""fullscreenenter"",""1"",""6482""
","
","
","""event"",""trial"",""time""
""fullscreenenter"",""1"",""6482""
","
","","","","","","6427.599999964237","images/truck2.png","","","memory_trial","1","definitely_old",""
"html-keyboard-response","293","888476","0.0-18.0-0.124","4160","approach_avoid_sv1","""event"",""trial"",""time""
""fullscreenenter"",""1"",""6482""
","
","
","""event"",""trial"",""time""
""fullscreenenter"",""1"",""6482""
","
","","","","","","null","<div style=""font-size:60px;"">+</div>","null","","fixation","","",""
"memory-trial","294","891955","0.0-18.0-1.124","4160","approach_avoid_sv1","""event"",""trial"",""time""
""fullscreenenter"",""1"",""6482""
","
","
","""event"",""trial"",""time""
""fullscreenenter"",""1"",""6482""
","
","","","","","","2459.100000023842","images/flower5.png","","","memory_trial","2","maybe_old",""
"html-keyboard-response","295","892460","0.0-18.0-0.125","4160","approach_avoid_sv1","""event"",""trial"",""time""
""fullscreenenter"",""1"",""6482""
","
","
","""event"",""trial"",""time""
""fullscreenenter"",""1"",""6482""
","
","","","","","","null","<div style=""font-size:60px;"">+</div>","null","","fixation","","",""
"memory-trial","296","896181","0.0-18.0-1.125","4160","approach_avoid_sv1","""event"",""trial"",""time""
""fullscreenenter"",""1"",""6482""
","
","
","""event"",""trial"",""time""
""fullscreenenter"",""1"",""6482""
","
","","","","","","2715.2999999523163","images/table3.png","","","memory_trial","3","maybe_new",""
