"trial_type","trial_index","time_elapsed","internal_node_id","subject_id","task_version","interactions","blur_events","focus_events","fullscreenenter_events","fullscreenexit_events","success","timeout","failed_images","failed_audio","failed_video","rt","stimulus","response","button_pressed","task_part","key_press","answer","correct"
"pavlovia","0","4","0.0-0.0","5968","approach_avoid_sv1","""event"",""trial"",""time""
""fullscreenenter"",""1"",""1788""
","
","
","""event"",""trial"",""time""
""fullscreenenter"",""1"",""1788""
","
","","","","","","","","","","","","",""
"fullscreen","1","2779","0.0-1.0","5968","approach_avoid_sv1","""event"",""trial"",""time""
""fullscreenenter"",""1"",""1788""
","
","
","""event"",""trial"",""time""
""fullscreenenter"",""1"",""1788""
","
","true","","","","","","","","","","","",""
"preload","2","4518","0.0-2.0","5968","approach_avoid_sv1","""event"",""trial"",""time""
""fullscreenenter"",""1"",""1788""
","
","
","""event"",""trial"",""time""
""fullscreenenter"",""1"",""1788""
","
","true","false","[]","[]","[]","","","","","","","",""
"preload","3","6193","0.0-3.0","5968","approach_avoid_sv1","""event"",""trial"",""time""
""fullscreenenter"",""1"",""1788""
","
","
","""event"",""trial"",""time""
""fullscreenenter"",""1"",""1788""
","
","true","false","[]","[]","[]","","","","","","","",""
"preload","4","6391","0.0-4.0","5968","approach_avoid_sv1","""event"",""trial"",""time""
""fullscreenenter"",""1"",""1788""
","
","
","""event"",""trial"",""time""
""fullscreenenter"",""1"",""1788""
","
","true","false","[]","[]","[]","","","","","","","",""
"audio-keyboard-response","5","13568","0.0-5.0","5968","approach_avoid_sv1","""event"",""trial"",""time""
""fullscreenenter"",""1"",""1788""
","
","
","""event"",""trial"",""time""
""fullscreenenter"",""1"",""1788""
","
","","","","","","7178.666666666667","audio/beep_loop.wav"," ","","","","",""
"audio-button-response","6","16048","0.0-6.0","5968","approach_avoid_sv1","""event"",""trial"",""time""
""fullscreenenter"",""1"",""1788""
","
","
","""event"",""trial"",""time""
""fullscreenenter"",""1"",""1788""
","
","","","","","","2480","audio/turtle.wav","3","","","","",""
"audio-button-response","7","18327","0.0-7.0","5968","approach_avoid_sv1","""event"",""trial"",""time""
""fullscreenenter"",""1"",""1788""
","
","
","""event"",""trial"",""time""
""fullscreenenter"",""1"",""1788""
","
","","","","","","1269","audio/shark.wav","2","","","","",""
"preload","8","22227","0.0-8.0","5968","approach_avoid_sv1","""event"",""trial"",""time""
""fullscreenenter"",""1"",""1788""
","
","
","""event"",""trial"",""time""
""fullscreenenter"",""1"",""1788""
","
","true","false","[]","[]","[]","","","","","","","",""
"learning-instructions","9","29368","0.0-9.0-0.0","5968","approach_avoid_sv1","""event"",""trial"",""time""
""fullscreenenter"",""1"",""1788""
","
","
","""event"",""trial"",""time""
""fullscreenenter"",""1"",""1788""
","
","","","","","","2662.600000023842","<p> Welcome back! </p><p> Last week, you had to make choices about lots of different items.  </p>","","0","instructions","","",""
"learning-instructions","10","34841","0.0-9.0-0.1","5968","approach_avoid_sv1","""event"",""trial"",""time""
""fullscreenenter"",""1"",""1788""
","
","
","""event"",""trial"",""time""
""fullscreenenter"",""1"",""1788""
","
","","","","","","1365.3000000715256","<p> Today, we are going to ask you to try to remember all the items. </p>","","0","instructions","","",""
"learning-instructions","11","46482","0.0-9.0-0.2","5968","approach_avoid_sv1","""event"",""trial"",""time""
""fullscreenenter"",""1"",""1788""
","
","
","""event"",""trial"",""time""
""fullscreenenter"",""1"",""1788""
","
","","","","","","1495.6999999284744","<p> On every trial, you will see an image. </p><p> The image may be an OLD image you saw during the games last week or it may be a NEW image that was not presented. </p>","","0","instructions","","",""
"learning-instructions","12","55859","0.0-9.0-0.3","5968","approach_avoid_sv1","""event"",""trial"",""time""
""fullscreenenter"",""1"",""1788""
","
","
","""event"",""trial"",""time""
""fullscreenenter"",""1"",""1788""
","
","","","","","","862.1000000238419","<p> You need to select whether the image is:  </p><p>  'Definitely old', 'Maybe old', 'Maybe new', or 'Definitely new.'  </p><div class=""mem-choice-instructions-grid""><div class=""choice-option"" id=""choice-option-1"" ><img src=""images/definitely_old_1.png"" id=""choice-option-img-1"" class=""choice-option-img"" stage=""1""></div><div class=""choice-option"" id=""choice-option-2"" ><img src=""images/maybe_old_1.png"" id=""choice-option-img-2"" class=""choice-option-img"" stage=""1""></div><div class=""choice-option"" id=""choice-option-3"" ><img src=""images/maybe_new_1.png"" id=""choice-option-img-3"" class=""choice-option-img"" stage=""1""></div><div class=""choice-option"" id=""choice-option-4"" > <img src=""images/definitely_new_1.png"" id=""choice-option-img-4"" class=""choice-option-img"" stage=""1""></div></div>","","0","instructions","","",""
"learning-instructions","13","62825","0.0-9.0-0.4","5968","approach_avoid_sv1","""event"",""trial"",""time""
""fullscreenenter"",""1"",""1788""
","
","
","""event"",""trial"",""time""
""fullscreenenter"",""1"",""1788""
","
","","","","","","448.60000002384186","<p> You should use the 1, 2, 3, and 4 keys to make your responses.  </p><div class=""mem-choice-instructions-grid""><div class=""choice-option"" id=""choice-option-1"" ><img src=""images/definitely_old.png"" id=""choice-option-img-1"" class=""choice-option-img"" stage=""1""></div><div class=""choice-option"" id=""choice-option-2"" ><img src=""images/maybe_old.png"" id=""choice-option-img-2"" class=""choice-option-img"" stage=""1""></div><div class=""choice-option"" id=""choice-option-3"" ><img src=""images/maybe_new.png"" id=""choice-option-img-3"" class=""choice-option-img"" stage=""1""></div><div class=""choice-option"" id=""choice-option-4"" > <img src=""images/definitely_new.png"" id=""choice-option-img-4"" class=""choice-option-img"" stage=""1""></div></div>","","0","instructions","","",""
"learning-instructions","14","70241","0.0-9.0-0.5","5968","approach_avoid_sv1","""event"",""trial"",""time""
""fullscreenenter"",""1"",""1788""
","
","
","""event"",""trial"",""time""
""fullscreenenter"",""1"",""1788""
","
","","","","","","1065.1000000238419","<p> You will have 10 seconds to make each response.  </p><p>  Make sure to respond before time runs out! </p>","","0","instructions","","",""
"learning-instructions","15","77728","0.0-9.0-0.6","5968","approach_avoid_sv1","""event"",""trial"",""time""
""fullscreenenter"",""1"",""1788""
","
","
","""event"",""trial"",""time""
""fullscreenenter"",""1"",""1788""
","
","","","","","","392","<p> Today, you will see each image ONCE only.  </p><p>  That means none of the images will repeat. </p>","","0","instructions","","",""
"learning-instructions","16","90913","0.0-9.0-0.7","5968","approach_avoid_sv1","""event"",""trial"",""time""
""fullscreenenter"",""1"",""1788""
","
","
","""event"",""trial"",""time""
""fullscreenenter"",""1"",""1788""
","
","","","","","","487.39999997615814","<p> Before you play the real game, it is time to practice. </p><p>  Just like in the real game, some of the images in the practice will be ones you have seen before. </p><p>  Others will be entirely new. </p>","","0","instructions","","",""
"html-button-response","17","92362","0.0-10.0","5968","approach_avoid_sv1","""event"",""trial"",""time""
""fullscreenenter"",""1"",""1788""
","
","
","""event"",""trial"",""time""
""fullscreenenter"",""1"",""1788""
","
","","","","","","1338.3000000715256","<p> Ready to practice? </p><p> Remember, use the 1, 2, 3, and 4 keys to make your responses. </p>","0","","instructions","","",""
"html-keyboard-response","18","92980","0.0-11.0-0.0","5968","approach_avoid_sv1","""event"",""trial"",""time""
""fullscreenenter"",""1"",""1788""
","
","
","""event"",""trial"",""time""
""fullscreenenter"",""1"",""1788""
","
","","","","","","null","<div style=""font-size:60px;"">+</div>","null","","fixation","","",""
"memory-trial","19","95330","0.0-11.0-1.0","5968","approach_avoid_sv1","""event"",""trial"",""time""
""fullscreenenter"",""1"",""1788""
","
","
","""event"",""trial"",""time""
""fullscreenenter"",""1"",""1788""
","
","","","","","","1335.7000000476837","images/racket2.png","","","practice","1","definitely_old",""
"html-keyboard-response","20","95844","0.0-11.0-0.1","5968","approach_avoid_sv1","""event"",""trial"",""time""
""fullscreenenter"",""1"",""1788""
","
","
","""event"",""trial"",""time""
""fullscreenenter"",""1"",""1788""
","
","","","","","","null","<div style=""font-size:60px;"">+</div>","null","","fixation","","",""
"memory-trial","21","98934","0.0-11.0-1.1","5968","approach_avoid_sv1","""event"",""trial"",""time""
""fullscreenenter"",""1"",""1788""
","
","
","""event"",""trial"",""time""
""fullscreenenter"",""1"",""1788""
","
","","","","","","2074","images/ball3.png","","","practice","1","definitely_old",""
"html-keyboard-response","22","99456","0.0-11.0-0.2","5968","approach_avoid_sv1","""event"",""trial"",""time""
""fullscreenenter"",""1"",""1788""
","
","
","""event"",""trial"",""time""
""fullscreenenter"",""1"",""1788""
","
","","","","","","null","<div style=""font-size:60px;"">+</div>","null","","fixation","","",""
"memory-trial","23","101634","0.0-11.0-1.2","5968","approach_avoid_sv1","""event"",""trial"",""time""
""fullscreenenter"",""1"",""1788""
","
","
","""event"",""trial"",""time""
""fullscreenenter"",""1"",""1788""
","
","","","","","","1165.1999999284744","images/racket5.png","","","practice","4","definitely_new",""
"html-keyboard-response","24","102150","0.0-11.0-0.3","5968","approach_avoid_sv1","""event"",""trial"",""time""
""fullscreenenter"",""1"",""1788""
","
","
","""event"",""trial"",""time""
""fullscreenenter"",""1"",""1788""
","
","","","","","","null","<div style=""font-size:60px;"">+</div>","null","","fixation","","",""
"memory-trial","25","104204","0.0-11.0-1.3","5968","approach_avoid_sv1","""event"",""trial"",""time""
""fullscreenenter"",""1"",""1788""
","
","
","""event"",""trial"",""time""
""fullscreenenter"",""1"",""1788""
","
","","","","","","1030.8000000715256","images/racket3.png","","","practice","1","definitely_old",""
"html-keyboard-response","26","104714","0.0-11.0-0.4","5968","approach_avoid_sv1","""event"",""trial"",""time""
""fullscreenenter"",""1"",""1788""
","
","
","""event"",""trial"",""time""
""fullscreenenter"",""1"",""1788""
","
","","","","","","null","<div style=""font-size:60px;"">+</div>","null","","fixation","","",""
"memory-trial","27","106739","0.0-11.0-1.4","5968","approach_avoid_sv1","""event"",""trial"",""time""
""fullscreenenter"",""1"",""1788""
","
","
","""event"",""trial"",""time""
""fullscreenenter"",""1"",""1788""
","
","","","","","","1019.2999999523163","images/racket1.png","","","practice","1","definitely_old",""
"html-keyboard-response","28","107244","0.0-11.0-0.5","5968","approach_avoid_sv1","""event"",""trial"",""time""
""fullscreenenter"",""1"",""1788""
","
","
","""event"",""trial"",""time""
""fullscreenenter"",""1"",""1788""
","
","","","","","","null","<div style=""font-size:60px;"">+</div>","null","","fixation","","",""
"memory-trial","29","109384","0.0-11.0-1.5","5968","approach_avoid_sv1","""event"",""trial"",""time""
""fullscreenenter"",""1"",""1788""
","
","
","""event"",""trial"",""time""
""fullscreenenter"",""1"",""1788""
","
","","","","","","1128.2000000476837","images/ball5.png","","","practice","4","definitely_new",""
"html-keyboard-response","30","109904","0.0-11.0-0.6","5968","approach_avoid_sv1","""event"",""trial"",""time""
""fullscreenenter"",""1"",""1788""
","
","
","""event"",""trial"",""time""
""fullscreenenter"",""1"",""1788""
","
","","","","","","null","<div style=""font-size:60px;"">+</div>","null","","fixation","","",""
"memory-trial","31","111694","0.0-11.0-1.6","5968","approach_avoid_sv1","""event"",""trial"",""time""
""fullscreenenter"",""1"",""1788""
","
","
","""event"",""trial"",""time""
""fullscreenenter"",""1"",""1788""
","
","","","","","","773.5","images/ball2.png","","","practice","4","definitely_new",""
"html-keyboard-response","32","112214","0.0-11.0-0.7","5968","approach_avoid_sv1","""event"",""trial"",""time""
""fullscreenenter"",""1"",""1788""
","
","
","""event"",""trial"",""time""
""fullscreenenter"",""1"",""1788""
","
","","","","","","null","<div style=""font-size:60px;"">+</div>","null","","fixation","","",""
"memory-trial","33","113964","0.0-11.0-1.7","5968","approach_avoid_sv1","""event"",""trial"",""time""
""fullscreenenter"",""1"",""1788""
","
","
","""event"",""trial"",""time""
""fullscreenenter"",""1"",""1788""
","
","","","","","","743.6000000238419","images/ball1.png","","","practice","1","definitely_old",""
"learning-instructions","34","122275","0.0-12.0-0.0","5968","approach_avoid_sv1","""event"",""trial"",""time""
""fullscreenenter"",""1"",""1788""
","
","
","""event"",""trial"",""time""
""fullscreenenter"",""1"",""1788""
","
","","","","","","998.6000000238419","<p> Great! You have completed the practice. </p><p> Before you start, we're going to ask you a few questions about how the game works.  </p>","","0","instructions","","",""
"preload","35","124520","0.0-13.0","5968","approach_avoid_sv1","""event"",""trial"",""time""
""fullscreenenter"",""1"",""1788""
","
","
","""event"",""trial"",""time""
""fullscreenenter"",""1"",""1788""
","
","true","false","[]","[]","[]","","","","","","","",""
"comp-q","36","131347","0.0-14.0-0.0","5968","approach_avoid_sv1","""event"",""trial"",""time""
""fullscreenenter"",""1"",""1788""
","
","
","""event"",""trial"",""time""
""fullscreenenter"",""1"",""1788""
","
","","","","","","999.3000000715256","<p> <b> True or False? </b> </p><p> In this game, you will only see each image once. </p>","","0","comp_question","","","true"
"comp-q","37","138627","0.0-14.0-1.0","5968","approach_avoid_sv1","""event"",""trial"",""time""
""fullscreenenter"",""1"",""1788""
","
","
","""event"",""trial"",""time""
""fullscreenenter"",""1"",""1788""
","
","","","","","","929.1000000238419","<p> <b> That's right! </b> You will see many different images <i> one time each </i> in this game. </p>","","0","comp_answer","","",""
"comp-q","38","144362","0.0-15.0-0.0","5968","approach_avoid_sv1","""event"",""trial"",""time""
""fullscreenenter"",""1"",""1788""
","
","
","""event"",""trial"",""time""
""fullscreenenter"",""1"",""1788""
","
","","","","","","735.1000000238419","<p> <b> True or False? </b> </p><p> You should use the mouse and click to make your response. </p>","","1","comp_question","","","true"
"comp-q","39","152328","0.0-15.0-1.0","5968","approach_avoid_sv1","""event"",""trial"",""time""
""fullscreenenter"",""1"",""1788""
","
","
","""event"",""trial"",""time""
""fullscreenenter"",""1"",""1788""
","
","","","","","","1442.5","<p><b> That's right! </b> You should use the '1', '2', '3', and '4' keys to make your response. </p>","","0","comp_answer","","",""
"comp-q","40","158617","0.0-16.0-0.0","5968","approach_avoid_sv1","""event"",""trial"",""time""
""fullscreenenter"",""1"",""1788""
","
","
","""event"",""trial"",""time""
""fullscreenenter"",""1"",""1788""
","
","","","","","","601.3999999761581","<p> <b> True or False? </b> </p><p> You will have as much time as you want to make each choice. </p>","","1","comp_question","","","true"
"comp-q","41","164280","0.0-16.0-1.0","5968","approach_avoid_sv1","""event"",""trial"",""time""
""fullscreenenter"",""1"",""1788""
","
","
","""event"",""trial"",""time""
""fullscreenenter"",""1"",""1788""
","
","","","","","","965.1999999284744","<p> <b> That's right! </b> You will only have 10 seconds to make each choice. </p>","","0","comp_answer","","",""
"learning-instructions","42","173906","0.0-17.0","5968","approach_avoid_sv1","""event"",""trial"",""time""
""fullscreenenter"",""1"",""1788""
","
","
","""event"",""trial"",""time""
""fullscreenenter"",""1"",""1788""
","
","","","","","","949.1999999284744","<p> Great! You are now ready to begin the game. </p><p> Remember, use the 1, 2, 3, and 4 keys to make your responses. </p>","","0","instructions","","",""
"html-keyboard-response","43","174522","0.0-18.0-0.0","5968","approach_avoid_sv1","""event"",""trial"",""time""
""fullscreenenter"",""1"",""1788""
","
","
","""event"",""trial"",""time""
""fullscreenenter"",""1"",""1788""
","
","","","","","","null","<div style=""font-size:60px;"">+</div>","null","","fixation","","",""
"memory-trial","44","176315","0.0-18.0-1.0","5968","approach_avoid_sv1","""event"",""trial"",""time""
""fullscreenenter"",""1"",""1788""
","
","
","""event"",""trial"",""time""
""fullscreenenter"",""1"",""1788""
","
","","","","","","770.4000000953674","images/straw7.png","","","memory_trial","1","definitely_old",""
"html-keyboard-response","45","176824","0.0-18.0-0.1","5968","approach_avoid_sv1","""event"",""trial"",""time""
""fullscreenenter"",""1"",""1788""
","
","
","""event"",""trial"",""time""
""fullscreenenter"",""1"",""1788""
","
","","","","","","null","<div style=""font-size:60px;"">+</div>","null","","fixation","","",""
"memory-trial","46","178739","0.0-18.0-1.1","5968","approach_avoid_sv1","""event"",""trial"",""time""
""fullscreenenter"",""1"",""1788""
","
","
","""event"",""trial"",""time""
""fullscreenenter"",""1"",""1788""
","
","","","","","","909.2000000476837","images/sheep1.png","","","memory_trial","1","definitely_old",""
"html-keyboard-response","47","179251","0.0-18.0-0.2","5968","approach_avoid_sv1","""event"",""trial"",""time""
""fullscreenenter"",""1"",""1788""
","
","
","""event"",""trial"",""time""
""fullscreenenter"",""1"",""1788""
","
","","","","","","null","<div style=""font-size:60px;"">+</div>","null","","fixation","","",""
"memory-trial","48","181586","0.0-18.0-1.2","5968","approach_avoid_sv1","""event"",""trial"",""time""
""fullscreenenter"",""1"",""1788""
","
","
","""event"",""trial"",""time""
""fullscreenenter"",""1"",""1788""
","
","","","","","","1330.6999999284744","images/sofa3.png","","","memory_trial","4","definitely_new",""
"html-keyboard-response","49","182104","0.0-18.0-0.3","5968","approach_avoid_sv1","""event"",""trial"",""time""
""fullscreenenter"",""1"",""1788""
","
","
","""event"",""trial"",""time""
""fullscreenenter"",""1"",""1788""
","
","","","","","","null","<div style=""font-size:60px;"">+</div>","null","","fixation","","",""
"memory-trial","50","184253","0.0-18.0-1.3","5968","approach_avoid_sv1","""event"",""trial"",""time""
""fullscreenenter"",""1"",""1788""
","
","
","""event"",""trial"",""time""
""fullscreenenter"",""1"",""1788""
","
","","","","","","1131.8999999761581","images/bed1.png","","","memory_trial","1","definitely_old",""
"html-keyboard-response","51","184755","0.0-18.0-0.4","5968","approach_avoid_sv1","""event"",""trial"",""time""
""fullscreenenter"",""1"",""1788""
","
","
","""event"",""trial"",""time""
""fullscreenenter"",""1"",""1788""
","
","","","","","","null","<div style=""font-size:60px;"">+</div>","null","","fixation","","",""
"memory-trial","52","186924","0.0-18.0-1.4","5968","approach_avoid_sv1","""event"",""trial"",""time""
""fullscreenenter"",""1"",""1788""
","
","
","""event"",""trial"",""time""
""fullscreenenter"",""1"",""1788""
","
","","","","","","1148.3000000715256","images/rabbit8.png","","","memory_trial","4","definitely_new",""
"html-keyboard-response","53","187426","0.0-18.0-0.5","5968","approach_avoid_sv1","""event"",""trial"",""time""
""fullscreenenter"",""1"",""1788""
","
","
","""event"",""trial"",""time""
""fullscreenenter"",""1"",""1788""
","
","","","","","","null","<div style=""font-size:60px;"">+</div>","null","","fixation","","",""
"memory-trial","54","190394","0.0-18.0-1.5","5968","approach_avoid_sv1","""event"",""trial"",""time""
""fullscreenenter"",""1"",""1788""
","
","
","""event"",""trial"",""time""
""fullscreenenter"",""1"",""1788""
","
","","","","","","1947.3999999761581","images/bed7.png","","","memory_trial","2","maybe_old",""
"html-keyboard-response","55","190914","0.0-18.0-0.6","5968","approach_avoid_sv1","""event"",""trial"",""time""
""fullscreenenter"",""1"",""1788""
","
","
","""event"",""trial"",""time""
""fullscreenenter"",""1"",""1788""
","
","","","","","","null","<div style=""font-size:60px;"">+</div>","null","","fixation","","",""
"memory-trial","56","192974","0.0-18.0-1.6","5968","approach_avoid_sv1","""event"",""trial"",""time""
""fullscreenenter"",""1"",""1788""
","
","
","""event"",""trial"",""time""
""fullscreenenter"",""1"",""1788""
","
","","","","","","1043","images/rodent6.png","","","memory_trial","2","maybe_old",""
"html-keyboard-response","57","193484","0.0-18.0-0.7","5968","approach_avoid_sv1","""event"",""trial"",""time""
""fullscreenenter"",""1"",""1788""
","
","
","""event"",""trial"",""time""
""fullscreenenter"",""1"",""1788""
","
","","","","","","null","<div style=""font-size:60px;"">+</div>","null","","fixation","","",""
"memory-trial","58","195324","0.0-18.0-1.7","5968","approach_avoid_sv1","""event"",""trial"",""time""
""fullscreenenter"",""1"",""1788""
","
","
","""event"",""trial"",""time""
""fullscreenenter"",""1"",""1788""
","
","","","","","","833.7000000476837","images/orange6.png","","","memory_trial","2","maybe_old",""
"html-keyboard-response","59","195844","0.0-18.0-0.8","5968","approach_avoid_sv1","""event"",""trial"",""time""
""fullscreenenter"",""1"",""1788""
","
","
","""event"",""trial"",""time""
""fullscreenenter"",""1"",""1788""
","
","","","","","","null","<div style=""font-size:60px;"">+</div>","null","","fixation","","",""
"memory-trial","60","197534","0.0-18.0-1.8","5968","approach_avoid_sv1","""event"",""trial"",""time""
""fullscreenenter"",""1"",""1788""
","
","
","""event"",""trial"",""time""
""fullscreenenter"",""1"",""1788""
","
","","","","","","674","images/bush6.png","","","memory_trial","2","maybe_old",""
"html-keyboard-response","61","198054","0.0-18.0-0.9","5968","approach_avoid_sv1","""event"",""trial"",""time""
""fullscreenenter"",""1"",""1788""
","
","
","""event"",""trial"",""time""
""fullscreenenter"",""1"",""1788""
","
","","","","","","null","<div style=""font-size:60px;"">+</div>","null","","fixation","","",""
"memory-trial","62","199874","0.0-18.0-1.9","5968","approach_avoid_sv1","""event"",""trial"",""time""
""fullscreenenter"",""1"",""1788""
","
","
","""event"",""trial"",""time""
""fullscreenenter"",""1"",""1788""
","
","","","","","","799.7000000476837","images/truck6.png","","","memory_trial","2","maybe_old",""
"html-keyboard-response","63","200384","0.0-18.0-0.10","5968","approach_avoid_sv1","""event"",""trial"",""time""
""fullscreenenter"",""1"",""1788""
","
","
","""event"",""trial"",""time""
""fullscreenenter"",""1"",""1788""
","
","","","","","","null","<div style=""font-size:60px;"">+</div>","null","","fixation","","",""
"memory-trial","64","202564","0.0-18.0-1.10","5968","approach_avoid_sv1","""event"",""trial"",""time""
""fullscreenenter"",""1"",""1788""
","
","
","""event"",""trial"",""time""
""fullscreenenter"",""1"",""1788""
","
","","","","","","1165.8000000715256","images/straw1.png","","","memory_trial","2","maybe_old",""
"html-keyboard-response","65","203067","0.0-18.0-0.11","5968","approach_avoid_sv1","""event"",""trial"",""time""
""fullscreenenter"",""1"",""1788""
","
","
","""event"",""trial"",""time""
""fullscreenenter"",""1"",""1788""
","
","","","","","","null","<div style=""font-size:60px;"">+</div>","null","","fixation","","",""
"memory-trial","66","204796","0.0-18.0-1.11","5968","approach_avoid_sv1","""event"",""trial"",""time""
""fullscreenenter"",""1"",""1788""
","
","
","""event"",""trial"",""time""
""fullscreenenter"",""1"",""1788""
","
","","","","","","721.3000000715256","images/sheep3.png","","","memory_trial","3","maybe_new",""
"html-keyboard-response","67","205300","0.0-18.0-0.12","5968","approach_avoid_sv1","""event"",""trial"",""time""
""fullscreenenter"",""1"",""1788""
","
","
","""event"",""trial"",""time""
""fullscreenenter"",""1"",""1788""
","
","","","","","","null","<div style=""font-size:60px;"">+</div>","null","","fixation","","",""
"memory-trial","68","206691","0.0-18.0-1.12","5968","approach_avoid_sv1","""event"",""trial"",""time""
""fullscreenenter"",""1"",""1788""
","
","
","""event"",""trial"",""time""
""fullscreenenter"",""1"",""1788""
","
","","","","","","385.90000009536743","images/boat2.png","","","memory_trial","2","maybe_old",""
"html-keyboard-response","69","207195","0.0-18.0-0.13","5968","approach_avoid_sv1","""event"",""trial"",""time""
""fullscreenenter"",""1"",""1788""
","
","
","""event"",""trial"",""time""
""fullscreenenter"",""1"",""1788""
","
","","","","","","null","<div style=""font-size:60px;"">+</div>","null","","fixation","","",""
"memory-trial","70","208508","0.0-18.0-1.13","5968","approach_avoid_sv1","""event"",""trial"",""time""
""fullscreenenter"",""1"",""1788""
","
","
","""event"",""trial"",""time""
""fullscreenenter"",""1"",""1788""
","
","","","","","","307.3000000715256","images/boat3.png","","","memory_trial","2","maybe_old",""
"html-keyboard-response","71","209011","0.0-18.0-0.14","5968","approach_avoid_sv1","""event"",""trial"",""time""
""fullscreenenter"",""1"",""1788""
","
","
","""event"",""trial"",""time""
""fullscreenenter"",""1"",""1788""
","
","","","","","","null","<div style=""font-size:60px;"">+</div>","null","","fixation","","",""
"memory-trial","72","210276","0.0-18.0-1.14","5968","approach_avoid_sv1","""event"",""trial"",""time""
""fullscreenenter"",""1"",""1788""
","
","
","""event"",""trial"",""time""
""fullscreenenter"",""1"",""1788""
","
","","","","","","258.7999999523163","images/goat8.png","","","memory_trial","3","maybe_new",""
"html-keyboard-response","73","210780","0.0-18.0-0.15","5968","approach_avoid_sv1","""event"",""trial"",""time""
""fullscreenenter"",""1"",""1788""
","
","
","""event"",""trial"",""time""
""fullscreenenter"",""1"",""1788""
","
","","","","","","null","<div style=""font-size:60px;"">+</div>","null","","fixation","","",""
"memory-trial","74","212067","0.0-18.0-1.15","5968","approach_avoid_sv1","""event"",""trial"",""time""
""fullscreenenter"",""1"",""1788""
","
","
","""event"",""trial"",""time""
""fullscreenenter"",""1"",""1788""
","
","","","","","","282","images/goat6.png","","","memory_trial","2","maybe_old",""
"html-keyboard-response","75","212572","0.0-18.0-0.16","5968","approach_avoid_sv1","""event"",""trial"",""time""
""fullscreenenter"",""1"",""1788""
","
","
","""event"",""trial"",""time""
""fullscreenenter"",""1"",""1788""
","
","","","","","","null","<div style=""font-size:60px;"">+</div>","null","","fixation","","",""
"memory-trial","76","213963","0.0-18.0-1.16","5968","approach_avoid_sv1","""event"",""trial"",""time""
""fullscreenenter"",""1"",""1788""
","
","
","""event"",""trial"",""time""
""fullscreenenter"",""1"",""1788""
","
","","","","","","386.5","images/banana8.png","","","memory_trial","2","maybe_old",""
"html-keyboard-response","77","214467","0.0-18.0-0.17","5968","approach_avoid_sv1","""event"",""trial"",""time""
""fullscreenenter"",""1"",""1788""
","
","
","""event"",""trial"",""time""
""fullscreenenter"",""1"",""1788""
","
","","","","","","null","<div style=""font-size:60px;"">+</div>","null","","fixation","","",""
"memory-trial","78","215827","0.0-18.0-1.17","5968","approach_avoid_sv1","""event"",""trial"",""time""
""fullscreenenter"",""1"",""1788""
","
","
","""event"",""trial"",""time""
""fullscreenenter"",""1"",""1788""
","
","","","","","","354.39999997615814","images/plane5.png","","","memory_trial","2","maybe_old",""
"html-keyboard-response","79","216331","0.0-18.0-0.18","5968","approach_avoid_sv1","""event"",""trial"",""time""
""fullscreenenter"",""1"",""1788""
","
","
","""event"",""trial"",""time""
""fullscreenenter"",""1"",""1788""
","
","","","","","","null","<div style=""font-size:60px;"">+</div>","null","","fixation","","",""
"memory-trial","80","217668","0.0-18.0-1.18","5968","approach_avoid_sv1","""event"",""trial"",""time""
""fullscreenenter"",""1"",""1788""
","
","
","""event"",""trial"",""time""
""fullscreenenter"",""1"",""1788""
","
","","","","","","323.1999999284744","images/train5.png","","","memory_trial","2","maybe_old",""
"html-keyboard-response","81","218172","0.0-18.0-0.19","5968","approach_avoid_sv1","""event"",""trial"",""time""
""fullscreenenter"",""1"",""1788""
","
","
","""event"",""trial"",""time""
""fullscreenenter"",""1"",""1788""
","
","","","","","","null","<div style=""font-size:60px;"">+</div>","null","","fixation","","",""
"memory-trial","82","219635","0.0-18.0-1.19","5968","approach_avoid_sv1","""event"",""trial"",""time""
""fullscreenenter"",""1"",""1788""
","
","
","""event"",""trial"",""time""
""fullscreenenter"",""1"",""1788""
","
","","","","","","458","images/cactus4.png","","","memory_trial","3","maybe_new",""
"html-keyboard-response","83","220139","0.0-18.0-0.20","5968","approach_avoid_sv1","""event"",""trial"",""time""
""fullscreenenter"",""1"",""1788""
","
","
","""event"",""trial"",""time""
""fullscreenenter"",""1"",""1788""
","
","","","","","","null","<div style=""font-size:60px;"">+</div>","null","","fixation","","",""
"memory-trial","84","221500","0.0-18.0-1.20","5968","approach_avoid_sv1","""event"",""trial"",""time""
""fullscreenenter"",""1"",""1788""
","
","
","""event"",""trial"",""time""
""fullscreenenter"",""1"",""1788""
","
","","","","","","354.5","images/chair5.png","","","memory_trial","3","maybe_new",""
"html-keyboard-response","85","222011","0.0-18.0-0.21","5968","approach_avoid_sv1","""event"",""trial"",""time""
""fullscreenenter"",""1"",""1788""
","
","
","""event"",""trial"",""time""
""fullscreenenter"",""1"",""1788""
","
","","","","","","null","<div style=""font-size:60px;"">+</div>","null","","fixation","","",""
"memory-trial","86","223363","0.0-18.0-1.21","5968","approach_avoid_sv1","""event"",""trial"",""time""
""fullscreenenter"",""1"",""1788""
","
","
","""event"",""trial"",""time""
""fullscreenenter"",""1"",""1788""
","
","","","","","","346.7000000476837","images/plane6.png","","","memory_trial","2","maybe_old",""
"html-keyboard-response","87","223868","0.0-18.0-0.22","5968","approach_avoid_sv1","""event"",""trial"",""time""
""fullscreenenter"",""1"",""1788""
","
","
","""event"",""trial"",""time""
""fullscreenenter"",""1"",""1788""
","
","","","","","","null","<div style=""font-size:60px;"">+</div>","null","","fixation","","",""
"memory-trial","88","225324","0.0-18.0-1.22","5968","approach_avoid_sv1","""event"",""trial"",""time""
""fullscreenenter"",""1"",""1788""
","
","
","""event"",""trial"",""time""
""fullscreenenter"",""1"",""1788""
","
","","","","","","448.90000009536743","images/horse8.png","","","memory_trial","3","maybe_new",""
"html-keyboard-response","89","225827","0.0-18.0-0.23","5968","approach_avoid_sv1","""event"",""trial"",""time""
""fullscreenenter"",""1"",""1788""
","
","
","""event"",""trial"",""time""
""fullscreenenter"",""1"",""1788""
","
","","","","","","null","<div style=""font-size:60px;"">+</div>","null","","fixation","","",""
"memory-trial","90","227452","0.0-18.0-1.23","5968","approach_avoid_sv1","""event"",""trial"",""time""
""fullscreenenter"",""1"",""1788""
","
","
","""event"",""trial"",""time""
""fullscreenenter"",""1"",""1788""
","
","","","","","","618.6000000238419","images/orange1.png","","","memory_trial","2","maybe_old",""
"html-keyboard-response","91","227955","0.0-18.0-0.24","5968","approach_avoid_sv1","""event"",""trial"",""time""
""fullscreenenter"",""1"",""1788""
","
","
","""event"",""trial"",""time""
""fullscreenenter"",""1"",""1788""
","
","","","","","","null","<div style=""font-size:60px;"">+</div>","null","","fixation","","",""
"memory-trial","92","231108","0.0-18.0-1.24","5968","approach_avoid_sv1","""event"",""trial"",""time""
""fullscreenenter"",""1"",""1788""
","
","
","""event"",""trial"",""time""
""fullscreenenter"",""1"",""1788""
","
","","","","","","2138.8000000715256","images/horse3.png","","","memory_trial","2","maybe_old",""
"html-keyboard-response","93","231611","0.0-18.0-0.25","5968","approach_avoid_sv1","""event"",""trial"",""time""
""fullscreenenter"",""1"",""1788""
","
","
","""event"",""trial"",""time""
""fullscreenenter"",""1"",""1788""
","
","","","","","","null","<div style=""font-size:60px;"">+</div>","null","","fixation","","",""
"memory-trial","94","232867","0.0-18.0-1.25","5968","approach_avoid_sv1","""event"",""trial"",""time""
""fullscreenenter"",""1"",""1788""
","
","
","""event"",""trial"",""time""
""fullscreenenter"",""1"",""1788""
","
","","","","","","249.89999997615814","images/train7.png","","","memory_trial","3","maybe_new",""
"html-keyboard-response","95","233371","0.0-18.0-0.26","5968","approach_avoid_sv1","""event"",""trial"",""time""
""fullscreenenter"",""1"",""1788""
","
","
","""event"",""trial"",""time""
""fullscreenenter"",""1"",""1788""
","
","","","","","","null","<div style=""font-size:60px;"">+</div>","null","","fixation","","",""
"memory-trial","96","234701","0.0-18.0-1.26","5968","approach_avoid_sv1","""event"",""trial"",""time""
""fullscreenenter"",""1"",""1788""
","
","
","""event"",""trial"",""time""
""fullscreenenter"",""1"",""1788""
","
","","","","","","314","images/dog8.png","","","memory_trial","3","maybe_new",""
"html-keyboard-response","97","235203","0.0-18.0-0.27","5968","approach_avoid_sv1","""event"",""trial"",""time""
""fullscreenenter"",""1"",""1788""
","
","
","""event"",""trial"",""time""
""fullscreenenter"",""1"",""1788""
","
","","","","","","null","<div style=""font-size:60px;"">+</div>","null","","fixation","","",""
"memory-trial","98","236899","0.0-18.0-1.27","5968","approach_avoid_sv1","""event"",""trial"",""time""
""fullscreenenter"",""1"",""1788""
","
","
","""event"",""trial"",""time""
""fullscreenenter"",""1"",""1788""
","
","","","","","","690.5","images/banana7.png","","","memory_trial","2","maybe_old",""
"html-keyboard-response","99","237405","0.0-18.0-0.28","5968","approach_avoid_sv1","""event"",""trial"",""time""
""fullscreenenter"",""1"",""1788""
","
","
","""event"",""trial"",""time""
""fullscreenenter"",""1"",""1788""
","
","","","","","","null","<div style=""font-size:60px;"">+</div>","null","","fixation","","",""
"memory-trial","100","238884","0.0-18.0-1.28","5968","approach_avoid_sv1","""event"",""trial"",""time""
""fullscreenenter"",""1"",""1788""
","
","
","""event"",""trial"",""time""
""fullscreenenter"",""1"",""1788""
","
","","","","","","473","images/cow1.png","","","memory_trial","2","maybe_old",""
"html-keyboard-response","101","239388","0.0-18.0-0.29","5968","approach_avoid_sv1","""event"",""trial"",""time""
""fullscreenenter"",""1"",""1788""
","
","
","""event"",""trial"",""time""
""fullscreenenter"",""1"",""1788""
","
","","","","","","null","<div style=""font-size:60px;"">+</div>","null","","fixation","","",""
"memory-trial","102","241291","0.0-18.0-1.29","5968","approach_avoid_sv1","""event"",""trial"",""time""
""fullscreenenter"",""1"",""1788""
","
","
","""event"",""trial"",""time""
""fullscreenenter"",""1"",""1788""
","
","","","","","","898.2999999523163","images/bed3.png","","","memory_trial","1","definitely_old",""
"html-keyboard-response","103","241796","0.0-18.0-0.30","5968","approach_avoid_sv1","""event"",""trial"",""time""
""fullscreenenter"",""1"",""1788""
","
","
","""event"",""trial"",""time""
""fullscreenenter"",""1"",""1788""
","
","","","","","","null","<div style=""font-size:60px;"">+</div>","null","","fixation","","",""
"memory-trial","104","243420","0.0-18.0-1.30","5968","approach_avoid_sv1","""event"",""trial"",""time""
""fullscreenenter"",""1"",""1788""
","
","
","""event"",""trial"",""time""
""fullscreenenter"",""1"",""1788""
","
","","","","","","617.5","images/orange7.png","","","memory_trial","1","definitely_old",""
"html-keyboard-response","105","243924","0.0-18.0-0.31","5968","approach_avoid_sv1","""event"",""trial"",""time""
""fullscreenenter"",""1"",""1788""
","
","
","""event"",""trial"",""time""
""fullscreenenter"",""1"",""1788""
","
","","","","","","null","<div style=""font-size:60px;"">+</div>","null","","fixation","","",""
"memory-trial","106","245444","0.0-18.0-1.31","5968","approach_avoid_sv1","""event"",""trial"",""time""
""fullscreenenter"",""1"",""1788""
","
","
","""event"",""trial"",""time""
""fullscreenenter"",""1"",""1788""
","
","","","","","","513.1999999284744","images/chair3.png","","","memory_trial","1","definitely_old",""
"html-keyboard-response","107","245947","0.0-18.0-0.32","5968","approach_avoid_sv1","""event"",""trial"",""time""
""fullscreenenter"",""1"",""1788""
","
","
","""event"",""trial"",""time""
""fullscreenenter"",""1"",""1788""
","
","","","","","","null","<div style=""font-size:60px;"">+</div>","null","","fixation","","",""
"memory-trial","108","248163","0.0-18.0-1.32","5968","approach_avoid_sv1","""event"",""trial"",""time""
""fullscreenenter"",""1"",""1788""
","
","
","""event"",""trial"",""time""
""fullscreenenter"",""1"",""1788""
","
","","","","","","1210.1999999284744","images/bed8.png","","","memory_trial","2","maybe_old",""
"html-keyboard-response","109","248667","0.0-18.0-0.33","5968","approach_avoid_sv1","""event"",""trial"",""time""
""fullscreenenter"",""1"",""1788""
","
","
","""event"",""trial"",""time""
""fullscreenenter"",""1"",""1788""
","
","","","","","","null","<div style=""font-size:60px;"">+</div>","null","","fixation","","",""
"memory-trial","110","250708","0.0-18.0-1.33","5968","approach_avoid_sv1","""event"",""trial"",""time""
""fullscreenenter"",""1"",""1788""
","
","
","""event"",""trial"",""time""
""fullscreenenter"",""1"",""1788""
","
","","","","","","1034","images/sofa5.png","","","memory_trial","4","definitely_new",""
"html-keyboard-response","111","251215","0.0-18.0-0.34","5968","approach_avoid_sv1","""event"",""trial"",""time""
""fullscreenenter"",""1"",""1788""
","
","
","""event"",""trial"",""time""
""fullscreenenter"",""1"",""1788""
","
","","","","","","null","<div style=""font-size:60px;"">+</div>","null","","fixation","","",""
"memory-trial","112","252972","0.0-18.0-1.34","5968","approach_avoid_sv1","""event"",""trial"",""time""
""fullscreenenter"",""1"",""1788""
","
","
","""event"",""trial"",""time""
""fullscreenenter"",""1"",""1788""
","
","","","","","","749.2000000476837","images/cactus5.png","","","memory_trial","1","definitely_old",""
"html-keyboard-response","113","253476","0.0-18.0-0.35","5968","approach_avoid_sv1","""event"",""trial"",""time""
""fullscreenenter"",""1"",""1788""
","
","
","""event"",""trial"",""time""
""fullscreenenter"",""1"",""1788""
","
","","","","","","null","<div style=""font-size:60px;"">+</div>","null","","fixation","","",""
"memory-trial","114","255156","0.0-18.0-1.35","5968","approach_avoid_sv1","""event"",""trial"",""time""
""fullscreenenter"",""1"",""1788""
","
","
","""event"",""trial"",""time""
""fullscreenenter"",""1"",""1788""
","
","","","","","","674","images/orange2.png","","","memory_trial","1","definitely_old",""
"html-keyboard-response","115","255659","0.0-18.0-0.36","5968","approach_avoid_sv1","""event"",""trial"",""time""
""fullscreenenter"",""1"",""1788""
","
","
","""event"",""trial"",""time""
""fullscreenenter"",""1"",""1788""
","
","","","","","","null","<div style=""font-size:60px;"">+</div>","null","","fixation","","",""
"memory-trial","116","257379","0.0-18.0-1.36","5968","approach_avoid_sv1","""event"",""trial"",""time""
""fullscreenenter"",""1"",""1788""
","
","
","""event"",""trial"",""time""
""fullscreenenter"",""1"",""1788""
","
","","","","","","714.9000000953674","images/cat5.png","","","memory_trial","1","definitely_old",""
"html-keyboard-response","117","257883","0.0-18.0-0.37","5968","approach_avoid_sv1","""event"",""trial"",""time""
""fullscreenenter"",""1"",""1788""
","
","
","""event"",""trial"",""time""
""fullscreenenter"",""1"",""1788""
","
","","","","","","null","<div style=""font-size:60px;"">+</div>","null","","fixation","","",""
"memory-trial","118","260497","0.0-18.0-1.37","5968","approach_avoid_sv1","""event"",""trial"",""time""
""fullscreenenter"",""1"",""1788""
","
","
","""event"",""trial"",""time""
""fullscreenenter"",""1"",""1788""
","
","","","","","","1595.2999999523163","images/apple8.png","","","memory_trial","4","definitely_new",""
"html-keyboard-response","119","261004","0.0-18.0-0.38","5968","approach_avoid_sv1","""event"",""trial"",""time""
""fullscreenenter"",""1"",""1788""
","
","
","""event"",""trial"",""time""
""fullscreenenter"",""1"",""1788""
","
","","","","","","null","<div style=""font-size:60px;"">+</div>","null","","fixation","","",""
"memory-trial","120","262808","0.0-18.0-1.38","5968","approach_avoid_sv1","""event"",""trial"",""time""
""fullscreenenter"",""1"",""1788""
","
","
","""event"",""trial"",""time""
""fullscreenenter"",""1"",""1788""
","
","","","","","","792","images/straw8.png","","","memory_trial","1","definitely_old",""
"html-keyboard-response","121","263315","0.0-18.0-0.39","5968","approach_avoid_sv1","""event"",""trial"",""time""
""fullscreenenter"",""1"",""1788""
","
","
","""event"",""trial"",""time""
""fullscreenenter"",""1"",""1788""
","
","","","","","","null","<div style=""font-size:60px;"">+</div>","null","","fixation","","",""
"memory-trial","122","265400","0.0-18.0-1.39","5968","approach_avoid_sv1","""event"",""trial"",""time""
""fullscreenenter"",""1"",""1788""
","
","
","""event"",""trial"",""time""
""fullscreenenter"",""1"",""1788""
","
","","","","","","1074.2000000476837","images/apple6.png","","","memory_trial","4","definitely_new",""
"html-keyboard-response","123","265907","0.0-18.0-0.40","5968","approach_avoid_sv1","""event"",""trial"",""time""
""fullscreenenter"",""1"",""1788""
","
","
","""event"",""trial"",""time""
""fullscreenenter"",""1"",""1788""
","
","","","","","","null","<div style=""font-size:60px;"">+</div>","null","","fixation","","",""
"memory-trial","124","268620","0.0-18.0-1.40","5968","approach_avoid_sv1","""event"",""trial"",""time""
""fullscreenenter"",""1"",""1788""
","
","
","""event"",""trial"",""time""
""fullscreenenter"",""1"",""1788""
","
","","","","","","1707.3000000715256","images/goat2.png","","","memory_trial","4","definitely_new",""
"html-keyboard-response","125","269124","0.0-18.0-0.41","5968","approach_avoid_sv1","""event"",""trial"",""time""
""fullscreenenter"",""1"",""1788""
","
","
","""event"",""trial"",""time""
""fullscreenenter"",""1"",""1788""
","
","","","","","","null","<div style=""font-size:60px;"">+</div>","null","","fixation","","",""
"memory-trial","126","270991","0.0-18.0-1.41","5968","approach_avoid_sv1","""event"",""trial"",""time""
""fullscreenenter"",""1"",""1788""
","
","
","""event"",""trial"",""time""
""fullscreenenter"",""1"",""1788""
","
","","","","","","849","images/sofa6.png","","","memory_trial","1","definitely_old",""
"html-button-response","127","272401","0.0-18.0-2.41-0.41","5968","approach_avoid_sv1","""event"",""trial"",""time""
""fullscreenenter"",""1"",""1788""
","
","
","""event"",""trial"",""time""
""fullscreenenter"",""1"",""1788""
","
","","","","","","1408.2000000476837","<p> Take a break! </p><p> Click the button to continue. </p>","0","","break","","",""
"html-keyboard-response","128","272907","0.0-18.0-0.42","5968","approach_avoid_sv1","""event"",""trial"",""time""
""fullscreenenter"",""1"",""1788""
","
","
","""event"",""trial"",""time""
""fullscreenenter"",""1"",""1788""
","
","","","","","","null","<div style=""font-size:60px;"">+</div>","null","","fixation","","",""
"memory-trial","129","274700","0.0-18.0-1.42","5968","approach_avoid_sv1","""event"",""trial"",""time""
""fullscreenenter"",""1"",""1788""
","
","
","""event"",""trial"",""time""
""fullscreenenter"",""1"",""1788""
","
","","","","","","786.2000000476837","images/banana4.png","","","memory_trial","1","definitely_old",""
"html-keyboard-response","130","275203","0.0-18.0-0.43","5968","approach_avoid_sv1","""event"",""trial"",""time""
""fullscreenenter"",""1"",""1788""
","
","
","""event"",""trial"",""time""
""fullscreenenter"",""1"",""1788""
","
","","","","","","null","<div style=""font-size:60px;"">+</div>","null","","fixation","","",""
"memory-trial","131","276908","0.0-18.0-1.43","5968","approach_avoid_sv1","""event"",""trial"",""time""
""fullscreenenter"",""1"",""1788""
","
","
","""event"",""trial"",""time""
""fullscreenenter"",""1"",""1788""
","
","","","","","","697.3999999761581","images/horse5.png","","","memory_trial","1","definitely_old",""
"html-keyboard-response","132","277411","0.0-18.0-0.44","5968","approach_avoid_sv1","""event"",""trial"",""time""
""fullscreenenter"",""1"",""1788""
","
","
","""event"",""trial"",""time""
""fullscreenenter"",""1"",""1788""
","
","","","","","","null","<div style=""font-size:60px;"">+</div>","null","","fixation","","",""
"memory-trial","133","279315","0.0-18.0-1.44","5968","approach_avoid_sv1","""event"",""trial"",""time""
""fullscreenenter"",""1"",""1788""
","
","
","""event"",""trial"",""time""
""fullscreenenter"",""1"",""1788""
","
","","","","","","898.2000000476837","images/chair2.png","","","memory_trial","4","definitely_new",""
"html-keyboard-response","134","279828","0.0-18.0-0.45","5968","approach_avoid_sv1","""event"",""trial"",""time""
""fullscreenenter"",""1"",""1788""
","
","
","""event"",""trial"",""time""
""fullscreenenter"",""1"",""1788""
","
","","","","","","null","<div style=""font-size:60px;"">+</div>","null","","fixation","","",""
"memory-trial","135","281557","0.0-18.0-1.45","5968","approach_avoid_sv1","""event"",""trial"",""time""
""fullscreenenter"",""1"",""1788""
","
","
","""event"",""trial"",""time""
""fullscreenenter"",""1"",""1788""
","
","","","","","","721.7999999523163","images/train8.png","","","memory_trial","4","definitely_new",""
"html-keyboard-response","136","282066","0.0-18.0-0.46","5968","approach_avoid_sv1","""event"",""trial"",""time""
""fullscreenenter"",""1"",""1788""
","
","
","""event"",""trial"",""time""
""fullscreenenter"",""1"",""1788""
","
","","","","","","null","<div style=""font-size:60px;"">+</div>","null","","fixation","","",""
"memory-trial","137","283972","0.0-18.0-1.46","5968","approach_avoid_sv1","""event"",""trial"",""time""
""fullscreenenter"",""1"",""1788""
","
","
","""event"",""trial"",""time""
""fullscreenenter"",""1"",""1788""
","
","","","","","","899.7999999523163","images/goat5.png","","","memory_trial","1","definitely_old",""
"html-keyboard-response","138","284475","0.0-18.0-0.47","5968","approach_avoid_sv1","""event"",""trial"",""time""
""fullscreenenter"",""1"",""1788""
","
","
","""event"",""trial"",""time""
""fullscreenenter"",""1"",""1788""
","
","","","","","","null","<div style=""font-size:60px;"">+</div>","null","","fixation","","",""
"memory-trial","139","286211","0.0-18.0-1.47","5968","approach_avoid_sv1","""event"",""trial"",""time""
""fullscreenenter"",""1"",""1788""
","
","
","""event"",""trial"",""time""
""fullscreenenter"",""1"",""1788""
","
","","","","","","730.5","images/cow7.png","","","memory_trial","1","definitely_old",""
"html-keyboard-response","140","286714","0.0-18.0-0.48","5968","approach_avoid_sv1","""event"",""trial"",""time""
""fullscreenenter"",""1"",""1788""
","
","
","""event"",""trial"",""time""
""fullscreenenter"",""1"",""1788""
","
","","","","","","null","<div style=""font-size:60px;"">+</div>","null","","fixation","","",""
"memory-trial","141","288907","0.0-18.0-1.48","5968","approach_avoid_sv1","""event"",""trial"",""time""
""fullscreenenter"",""1"",""1788""
","
","
","""event"",""trial"",""time""
""fullscreenenter"",""1"",""1788""
","
","","","","","","1187.5999999046326","images/horse2.png","","","memory_trial","4","definitely_new",""
"html-keyboard-response","142","289411","0.0-18.0-0.49","5968","approach_avoid_sv1","""event"",""trial"",""time""
""fullscreenenter"",""1"",""1788""
","
","
","""event"",""trial"",""time""
""fullscreenenter"",""1"",""1788""
","
","","","","","","null","<div style=""font-size:60px;"">+</div>","null","","fixation","","",""
"memory-trial","143","293571","0.0-18.0-1.49","5968","approach_avoid_sv1","""event"",""trial"",""time""
""fullscreenenter"",""1"",""1788""
","
","
","""event"",""trial"",""time""
""fullscreenenter"",""1"",""1788""
","
","","","","","","3152.899999976158","images/rodent8.png","","","memory_trial","3","maybe_new",""
"html-keyboard-response","144","294081","0.0-18.0-0.50","5968","approach_avoid_sv1","""event"",""trial"",""time""
""fullscreenenter"",""1"",""1788""
","
","
","""event"",""trial"",""time""
""fullscreenenter"",""1"",""1788""
","
","","","","","","null","<div style=""font-size:60px;"">+</div>","null","","fixation","","",""
"memory-trial","145","296396","0.0-18.0-1.50","5968","approach_avoid_sv1","""event"",""trial"",""time""
""fullscreenenter"",""1"",""1788""
","
","
","""event"",""trial"",""time""
""fullscreenenter"",""1"",""1788""
","
","","","","","","1307.1000000238419","images/cat6.png","","","memory_trial","4","definitely_new",""
"html-keyboard-response","146","296899","0.0-18.0-0.51","5968","approach_avoid_sv1","""event"",""trial"",""time""
""fullscreenenter"",""1"",""1788""
","
","
","""event"",""trial"",""time""
""fullscreenenter"",""1"",""1788""
","
","","","","","","null","<div style=""font-size:60px;"">+</div>","null","","fixation","","",""
"memory-trial","147","298731","0.0-18.0-1.51","5968","approach_avoid_sv1","""event"",""trial"",""time""
""fullscreenenter"",""1"",""1788""
","
","
","""event"",""trial"",""time""
""fullscreenenter"",""1"",""1788""
","
","","","","","","826.1000000238419","images/train4.png","","","memory_trial","4","definitely_new",""
"html-keyboard-response","148","299236","0.0-18.0-0.52","5968","approach_avoid_sv1","""event"",""trial"",""time""
""fullscreenenter"",""1"",""1788""
","
","
","""event"",""trial"",""time""
""fullscreenenter"",""1"",""1788""
","
","","","","","","null","<div style=""font-size:60px;"">+</div>","null","","fixation","","",""
"memory-trial","149","301211","0.0-18.0-1.52","5968","approach_avoid_sv1","""event"",""trial"",""time""
""fullscreenenter"",""1"",""1788""
","
","
","""event"",""trial"",""time""
""fullscreenenter"",""1"",""1788""
","
","","","","","","968.7999999523163","images/plane4.png","","","memory_trial","1","definitely_old",""
"html-keyboard-response","150","301715","0.0-18.0-0.53","5968","approach_avoid_sv1","""event"",""trial"",""time""
""fullscreenenter"",""1"",""1788""
","
","
","""event"",""trial"",""time""
""fullscreenenter"",""1"",""1788""
","
","","","","","","null","<div style=""font-size:60px;"">+</div>","null","","fixation","","",""
"memory-trial","151","303611","0.0-18.0-1.53","5968","approach_avoid_sv1","""event"",""trial"",""time""
""fullscreenenter"",""1"",""1788""
","
","
","""event"",""trial"",""time""
""fullscreenenter"",""1"",""1788""
","
","","","","","","890.3999999761581","images/bush5.png","","","memory_trial","1","definitely_old",""
"html-keyboard-response","152","304115","0.0-18.0-0.54","5968","approach_avoid_sv1","""event"",""trial"",""time""
""fullscreenenter"",""1"",""1788""
","
","
","""event"",""trial"",""time""
""fullscreenenter"",""1"",""1788""
","
","","","","","","null","<div style=""font-size:60px;"">+</div>","null","","fixation","","",""
"memory-trial","153","305852","0.0-18.0-1.54","5968","approach_avoid_sv1","""event"",""trial"",""time""
""fullscreenenter"",""1"",""1788""
","
","
","""event"",""trial"",""time""
""fullscreenenter"",""1"",""1788""
","
","","","","","","730","images/sheep6.png","","","memory_trial","1","definitely_old",""
"html-keyboard-response","154","306355","0.0-18.0-0.55","5968","approach_avoid_sv1","""event"",""trial"",""time""
""fullscreenenter"",""1"",""1788""
","
","
","""event"",""trial"",""time""
""fullscreenenter"",""1"",""1788""
","
","","","","","","null","<div style=""font-size:60px;"">+</div>","null","","fixation","","",""
"memory-trial","155","308032","0.0-18.0-1.55","5968","approach_avoid_sv1","""event"",""trial"",""time""
""fullscreenenter"",""1"",""1788""
","
","
","""event"",""trial"",""time""
""fullscreenenter"",""1"",""1788""
","
","","","","","","666.3000000715256","images/straw3.png","","","memory_trial","1","definitely_old",""
"html-keyboard-response","156","308539","0.0-18.0-0.56","5968","approach_avoid_sv1","""event"",""trial"",""time""
""fullscreenenter"",""1"",""1788""
","
","
","""event"",""trial"",""time""
""fullscreenenter"",""1"",""1788""
","
","","","","","","null","<div style=""font-size:60px;"">+</div>","null","","fixation","","",""
"memory-trial","157","310291","0.0-18.0-1.56","5968","approach_avoid_sv1","""event"",""trial"",""time""
""fullscreenenter"",""1"",""1788""
","
","
","""event"",""trial"",""time""
""fullscreenenter"",""1"",""1788""
","
","","","","","","747","images/boat8.png","","","memory_trial","1","definitely_old",""
"html-keyboard-response","158","310797","0.0-18.0-0.57","5968","approach_avoid_sv1","""event"",""trial"",""time""
""fullscreenenter"",""1"",""1788""
","
","
","""event"",""trial"",""time""
""fullscreenenter"",""1"",""1788""
","
","","","","","","null","<div style=""font-size:60px;"">+</div>","null","","fixation","","",""
"memory-trial","159","312644","0.0-18.0-1.57","5968","approach_avoid_sv1","""event"",""trial"",""time""
""fullscreenenter"",""1"",""1788""
","
","
","""event"",""trial"",""time""
""fullscreenenter"",""1"",""1788""
","
","","","","","","840.2999999523163","images/flower7.png","","","memory_trial","4","definitely_new",""
"html-keyboard-response","160","313152","0.0-18.0-0.58","5968","approach_avoid_sv1","""event"",""trial"",""time""
""fullscreenenter"",""1"",""1788""
","
","
","""event"",""trial"",""time""
""fullscreenenter"",""1"",""1788""
","
","","","","","","null","<div style=""font-size:60px;"">+</div>","null","","fixation","","",""
"memory-trial","161","314923","0.0-18.0-1.58","5968","approach_avoid_sv1","""event"",""trial"",""time""
""fullscreenenter"",""1"",""1788""
","
","
","""event"",""trial"",""time""
""fullscreenenter"",""1"",""1788""
","
","","","","","","765.7999999523163","images/cow4.png","","","memory_trial","1","definitely_old",""
"html-keyboard-response","162","315427","0.0-18.0-0.59","5968","approach_avoid_sv1","""event"",""trial"",""time""
""fullscreenenter"",""1"",""1788""
","
","
","""event"",""trial"",""time""
""fullscreenenter"",""1"",""1788""
","
","","","","","","null","<div style=""font-size:60px;"">+</div>","null","","fixation","","",""
"memory-trial","163","317259","0.0-18.0-1.59","5968","approach_avoid_sv1","""event"",""trial"",""time""
""fullscreenenter"",""1"",""1788""
","
","
","""event"",""trial"",""time""
""fullscreenenter"",""1"",""1788""
","
","","","","","","825.8999999761581","images/rodent1.png","","","memory_trial","1","definitely_old",""
"html-keyboard-response","164","317763","0.0-18.0-0.60","5968","approach_avoid_sv1","""event"",""trial"",""time""
""fullscreenenter"",""1"",""1788""
","
","
","""event"",""trial"",""time""
""fullscreenenter"",""1"",""1788""
","
","","","","","","null","<div style=""font-size:60px;"">+</div>","null","","fixation","","",""
"memory-trial","165","320227","0.0-18.0-1.60","5968","approach_avoid_sv1","""event"",""trial"",""time""
""fullscreenenter"",""1"",""1788""
","
","
","""event"",""trial"",""time""
""fullscreenenter"",""1"",""1788""
","
","","","","","","1458.3999999761581","images/rodent7.png","","","memory_trial","3","maybe_new",""
"html-keyboard-response","166","320731","0.0-18.0-0.61","5968","approach_avoid_sv1","""event"",""trial"",""time""
""fullscreenenter"",""1"",""1788""
","
","
","""event"",""trial"",""time""
""fullscreenenter"",""1"",""1788""
","
","","","","","","null","<div style=""font-size:60px;"">+</div>","null","","fixation","","",""
"memory-trial","167","322515","0.0-18.0-1.61","5968","approach_avoid_sv1","""event"",""trial"",""time""
""fullscreenenter"",""1"",""1788""
","
","
","""event"",""trial"",""time""
""fullscreenenter"",""1"",""1788""
","
","","","","","","778","images/truck2.png","","","memory_trial","4","definitely_new",""
"html-keyboard-response","168","323031","0.0-18.0-0.62","5968","approach_avoid_sv1","""event"",""trial"",""time""
""fullscreenenter"",""1"",""1788""
","
","
","""event"",""trial"",""time""
""fullscreenenter"",""1"",""1788""
","
","","","","","","null","<div style=""font-size:60px;"">+</div>","null","","fixation","","",""
"memory-trial","169","325755","0.0-18.0-1.62","5968","approach_avoid_sv1","""event"",""trial"",""time""
""fullscreenenter"",""1"",""1788""
","
","
","""event"",""trial"",""time""
""fullscreenenter"",""1"",""1788""
","
","","","","","","1718.5","images/plane1.png","","","memory_trial","4","definitely_new",""
"html-keyboard-response","170","326265","0.0-18.0-0.63","5968","approach_avoid_sv1","""event"",""trial"",""time""
""fullscreenenter"",""1"",""1788""
","
","
","""event"",""trial"",""time""
""fullscreenenter"",""1"",""1788""
","
","","","","","","null","<div style=""font-size:60px;"">+</div>","null","","fixation","","",""
"memory-trial","171","328278","0.0-18.0-1.63","5968","approach_avoid_sv1","""event"",""trial"",""time""
""fullscreenenter"",""1"",""1788""
","
","
","""event"",""trial"",""time""
""fullscreenenter"",""1"",""1788""
","
","","","","","","1003.6000000238419","images/rodent5.png","","","memory_trial","1","definitely_old",""
"html-keyboard-response","172","328787","0.0-18.0-0.64","5968","approach_avoid_sv1","""event"",""trial"",""time""
""fullscreenenter"",""1"",""1788""
","
","
","""event"",""trial"",""time""
""fullscreenenter"",""1"",""1788""
","
","","","","","","null","<div style=""font-size:60px;"">+</div>","null","","fixation","","",""
"memory-trial","173","330915","0.0-18.0-1.64","5968","approach_avoid_sv1","""event"",""trial"",""time""
""fullscreenenter"",""1"",""1788""
","
","
","""event"",""trial"",""time""
""fullscreenenter"",""1"",""1788""
","
","","","","","","1122.5","images/truck4.png","","","memory_trial","4","definitely_new",""
"html-keyboard-response","174","331419","0.0-18.0-0.65","5968","approach_avoid_sv1","""event"",""trial"",""time""
""fullscreenenter"",""1"",""1788""
","
","
","""event"",""trial"",""time""
""fullscreenenter"",""1"",""1788""
","
","","","","","","null","<div style=""font-size:60px;"">+</div>","null","","fixation","","",""
"memory-trial","175","334579","0.0-18.0-1.65","5968","approach_avoid_sv1","""event"",""trial"",""time""
""fullscreenenter"",""1"",""1788""
","
","
","""event"",""trial"",""time""
""fullscreenenter"",""1"",""1788""
","
","","","","","","2153.5","images/straw5.png","","","memory_trial","4","definitely_new",""
"html-keyboard-response","176","335083","0.0-18.0-0.66","5968","approach_avoid_sv1","""event"",""trial"",""time""
""fullscreenenter"",""1"",""1788""
","
","
","""event"",""trial"",""time""
""fullscreenenter"",""1"",""1788""
","
","","","","","","null","<div style=""font-size:60px;"">+</div>","null","","fixation","","",""
"memory-trial","177","338259","0.0-18.0-1.66","5968","approach_avoid_sv1","""event"",""trial"",""time""
""fullscreenenter"",""1"",""1788""
","
","
","""event"",""trial"",""time""
""fullscreenenter"",""1"",""1788""
","
","","","","","","2169.100000023842","images/cow8.png","","","memory_trial","3","maybe_new",""
"html-keyboard-response","178","338763","0.0-18.0-0.67","5968","approach_avoid_sv1","""event"",""trial"",""time""
""fullscreenenter"",""1"",""1788""
","
","
","""event"",""trial"",""time""
""fullscreenenter"",""1"",""1788""
","
","","","","","","null","<div style=""font-size:60px;"">+</div>","null","","fixation","","",""
"memory-trial","179","341123","0.0-18.0-1.67","5968","approach_avoid_sv1","""event"",""trial"",""time""
""fullscreenenter"",""1"",""1788""
","
","
","""event"",""trial"",""time""
""fullscreenenter"",""1"",""1788""
","
","","","","","","1353.5","images/plane7.png","","","memory_trial","1","definitely_old",""
"html-keyboard-response","180","341627","0.0-18.0-0.68","5968","approach_avoid_sv1","""event"",""trial"",""time""
""fullscreenenter"",""1"",""1788""
","
","
","""event"",""trial"",""time""
""fullscreenenter"",""1"",""1788""
","
","","","","","","null","<div style=""font-size:60px;"">+</div>","null","","fixation","","",""
"memory-trial","181","343363","0.0-18.0-1.68","5968","approach_avoid_sv1","""event"",""trial"",""time""
""fullscreenenter"",""1"",""1788""
","
","
","""event"",""trial"",""time""
""fullscreenenter"",""1"",""1788""
","
","","","","","","729.7000000476837","images/sheep7.png","","","memory_trial","1","definitely_old",""
"html-keyboard-response","182","343877","0.0-18.0-0.69","5968","approach_avoid_sv1","""event"",""trial"",""time""
""fullscreenenter"",""1"",""1788""
","
","
","""event"",""trial"",""time""
""fullscreenenter"",""1"",""1788""
","
","","","","","","null","<div style=""font-size:60px;"">+</div>","null","","fixation","","",""
"memory-trial","183","347113","0.0-18.0-1.69","5968","approach_avoid_sv1","""event"",""trial"",""time""
""fullscreenenter"",""1"",""1788""
","
","
","""event"",""trial"",""time""
""fullscreenenter"",""1"",""1788""
","
","","","","","","2216.5","images/horse4.png","","","memory_trial","3","maybe_new",""
"html-keyboard-response","184","347620","0.0-18.0-0.70","5968","approach_avoid_sv1","""event"",""trial"",""time""
""fullscreenenter"",""1"",""1788""
","
","
","""event"",""trial"",""time""
""fullscreenenter"",""1"",""1788""
","
","","","","","","null","<div style=""font-size:60px;"">+</div>","null","","fixation","","",""
"memory-trial","185","350667","0.0-18.0-1.70","5968","approach_avoid_sv1","""event"",""trial"",""time""
""fullscreenenter"",""1"",""1788""
","
","
","""event"",""trial"",""time""
""fullscreenenter"",""1"",""1788""
","
","","","","","","2041.2999999523163","images/rabbit3.png","","","memory_trial","2","maybe_old",""
"html-keyboard-response","186","351171","0.0-18.0-0.71","5968","approach_avoid_sv1","""event"",""trial"",""time""
""fullscreenenter"",""1"",""1788""
","
","
","""event"",""trial"",""time""
""fullscreenenter"",""1"",""1788""
","
","","","","","","null","<div style=""font-size:60px;"">+</div>","null","","fixation","","",""
"memory-trial","187","353811","0.0-18.0-1.71","5968","approach_avoid_sv1","""event"",""trial"",""time""
""fullscreenenter"",""1"",""1788""
","
","
","""event"",""trial"",""time""
""fullscreenenter"",""1"",""1788""
","
","","","","","","1634.1999999284744","images/flower4.png","","","memory_trial","4","definitely_new",""
"html-keyboard-response","188","354316","0.0-18.0-0.72","5968","approach_avoid_sv1","""event"",""trial"",""time""
""fullscreenenter"",""1"",""1788""
","
","
","""event"",""trial"",""time""
""fullscreenenter"",""1"",""1788""
","
","","","","","","null","<div style=""font-size:60px;"">+</div>","null","","fixation","","",""
"memory-trial","189","356652","0.0-18.0-1.72","5968","approach_avoid_sv1","""event"",""trial"",""time""
""fullscreenenter"",""1"",""1788""
","
","
","""event"",""trial"",""time""
""fullscreenenter"",""1"",""1788""
","
","","","","","","1328.6000000238419","images/chair1.png","","","memory_trial","4","definitely_new",""
"html-keyboard-response","190","357155","0.0-18.0-0.73","5968","approach_avoid_sv1","""event"",""trial"",""time""
""fullscreenenter"",""1"",""1788""
","
","
","""event"",""trial"",""time""
""fullscreenenter"",""1"",""1788""
","
","","","","","","null","<div style=""font-size:60px;"">+</div>","null","","fixation","","",""
"memory-trial","191","359822","0.0-18.0-1.73","5968","approach_avoid_sv1","""event"",""trial"",""time""
""fullscreenenter"",""1"",""1788""
","
","
","""event"",""trial"",""time""
""fullscreenenter"",""1"",""1788""
","
","","","","","","1658.1000000238419","images/cactus7.png","","","memory_trial","1","definitely_old",""
"html-keyboard-response","192","360323","0.0-18.0-0.74","5968","approach_avoid_sv1","""event"",""trial"",""time""
""fullscreenenter"",""1"",""1788""
","
","
","""event"",""trial"",""time""
""fullscreenenter"",""1"",""1788""
","
","","","","","","null","<div style=""font-size:60px;"">+</div>","null","","fixation","","",""
"memory-trial","193","362499","0.0-18.0-1.74","5968","approach_avoid_sv1","""event"",""trial"",""time""
""fullscreenenter"",""1"",""1788""
","
","
","""event"",""trial"",""time""
""fullscreenenter"",""1"",""1788""
","
","","","","","","1169.3000000715256","images/table8.png","","","memory_trial","1","definitely_old",""
"html-keyboard-response","194","363002","0.0-18.0-0.75","5968","approach_avoid_sv1","""event"",""trial"",""time""
""fullscreenenter"",""1"",""1788""
","
","
","""event"",""trial"",""time""
""fullscreenenter"",""1"",""1788""
","
","","","","","","null","<div style=""font-size:60px;"">+</div>","null","","fixation","","",""
"memory-trial","195","365146","0.0-18.0-1.75","5968","approach_avoid_sv1","""event"",""trial"",""time""
""fullscreenenter"",""1"",""1788""
","
","
","""event"",""trial"",""time""
""fullscreenenter"",""1"",""1788""
","
","","","","","","1122.6000000238419","images/dog5.png","","","memory_trial","4","definitely_new",""
"html-keyboard-response","196","365652","0.0-18.0-0.76","5968","approach_avoid_sv1","""event"",""trial"",""time""
""fullscreenenter"",""1"",""1788""
","
","
","""event"",""trial"",""time""
""fullscreenenter"",""1"",""1788""
","
","","","","","","null","<div style=""font-size:60px;"">+</div>","null","","fixation","","",""
"memory-trial","197","367643","0.0-18.0-1.76","5968","approach_avoid_sv1","""event"",""trial"",""time""
""fullscreenenter"",""1"",""1788""
","
","
","""event"",""trial"",""time""
""fullscreenenter"",""1"",""1788""
","
","","","","","","984.6000000238419","images/sofa4.png","","","memory_trial","1","definitely_old",""
"html-keyboard-response","198","368147","0.0-18.0-0.77","5968","approach_avoid_sv1","""event"",""trial"",""time""
""fullscreenenter"",""1"",""1788""
","
","
","""event"",""trial"",""time""
""fullscreenenter"",""1"",""1788""
","
","","","","","","null","<div style=""font-size:60px;"">+</div>","null","","fixation","","",""
"memory-trial","199","370099","0.0-18.0-1.77","5968","approach_avoid_sv1","""event"",""trial"",""time""
""fullscreenenter"",""1"",""1788""
","
","
","""event"",""trial"",""time""
""fullscreenenter"",""1"",""1788""
","
","","","","","","945.6000000238419","images/train3.png","","","memory_trial","4","definitely_new",""
"html-keyboard-response","200","370603","0.0-18.0-0.78","5968","approach_avoid_sv1","""event"",""trial"",""time""
""fullscreenenter"",""1"",""1788""
","
","
","""event"",""trial"",""time""
""fullscreenenter"",""1"",""1788""
","
","","","","","","null","<div style=""font-size:60px;"">+</div>","null","","fixation","","",""
"memory-trial","201","372699","0.0-18.0-1.78","5968","approach_avoid_sv1","""event"",""trial"",""time""
""fullscreenenter"",""1"",""1788""
","
","
","""event"",""trial"",""time""
""fullscreenenter"",""1"",""1788""
","
","","","","","","1090.7000000476837","images/dog3.png","","","memory_trial","4","definitely_new",""
"html-keyboard-response","202","373203","0.0-18.0-0.79","5968","approach_avoid_sv1","""event"",""trial"",""time""
""fullscreenenter"",""1"",""1788""
","
","
","""event"",""trial"",""time""
""fullscreenenter"",""1"",""1788""
","
","","","","","","null","<div style=""font-size:60px;"">+</div>","null","","fixation","","",""
"memory-trial","203","375187","0.0-18.0-1.79","5968","approach_avoid_sv1","""event"",""trial"",""time""
""fullscreenenter"",""1"",""1788""
","
","
","""event"",""trial"",""time""
""fullscreenenter"",""1"",""1788""
","
","","","","","","978.3999999761581","images/banana6.png","","","memory_trial","1","definitely_old",""
"html-keyboard-response","204","375691","0.0-18.0-0.80","5968","approach_avoid_sv1","""event"",""trial"",""time""
""fullscreenenter"",""1"",""1788""
","
","
","""event"",""trial"",""time""
""fullscreenenter"",""1"",""1788""
","
","","","","","","null","<div style=""font-size:60px;"">+</div>","null","","fixation","","",""
"memory-trial","205","378515","0.0-18.0-1.80","5968","approach_avoid_sv1","""event"",""trial"",""time""
""fullscreenenter"",""1"",""1788""
","
","
","""event"",""trial"",""time""
""fullscreenenter"",""1"",""1788""
","
","","","","","","1817.2999999523163","images/flower2.png","","","memory_trial","4","definitely_new",""
"html-keyboard-response","206","379019","0.0-18.0-0.81","5968","approach_avoid_sv1","""event"",""trial"",""time""
""fullscreenenter"",""1"",""1788""
","
","
","""event"",""trial"",""time""
""fullscreenenter"",""1"",""1788""
","
","","","","","","null","<div style=""font-size:60px;"">+</div>","null","","fixation","","",""
"memory-trial","207","380963","0.0-18.0-1.81","5968","approach_avoid_sv1","""event"",""trial"",""time""
""fullscreenenter"",""1"",""1788""
","
","
","""event"",""trial"",""time""
""fullscreenenter"",""1"",""1788""
","
","","","","","","938.1999999284744","images/bush4.png","","","memory_trial","1","definitely_old",""
"html-keyboard-response","208","381468","0.0-18.0-0.82","5968","approach_avoid_sv1","""event"",""trial"",""time""
""fullscreenenter"",""1"",""1788""
","
","
","""event"",""trial"",""time""
""fullscreenenter"",""1"",""1788""
","
","","","","","","null","<div style=""font-size:60px;"">+</div>","null","","fixation","","",""
"memory-trial","209","383931","0.0-18.0-1.82","5968","approach_avoid_sv1","""event"",""trial"",""time""
""fullscreenenter"",""1"",""1788""
","
","
","""event"",""trial"",""time""
""fullscreenenter"",""1"",""1788""
","
","","","","","","1458.1000000238419","images/dog1.png","","","memory_trial","1","definitely_old",""
"html-keyboard-response","210","384435","0.0-18.0-0.83","5968","approach_avoid_sv1","""event"",""trial"",""time""
""fullscreenenter"",""1"",""1788""
","
","
","""event"",""trial"",""time""
""fullscreenenter"",""1"",""1788""
","
","","","","","","null","<div style=""font-size:60px;"">+</div>","null","","fixation","","",""
"memory-trial","211","386155","0.0-18.0-1.83","5968","approach_avoid_sv1","""event"",""trial"",""time""
""fullscreenenter"",""1"",""1788""
","
","
","""event"",""trial"",""time""
""fullscreenenter"",""1"",""1788""
","
","","","","","","713.3999999761581","images/dog6.png","","","memory_trial","1","definitely_old",""
"html-keyboard-response","212","386659","0.0-18.0-0.84","5968","approach_avoid_sv1","""event"",""trial"",""time""
""fullscreenenter"",""1"",""1788""
","
","
","""event"",""trial"",""time""
""fullscreenenter"",""1"",""1788""
","
","","","","","","null","<div style=""font-size:60px;"">+</div>","null","","fixation","","",""
"memory-trial","213","388523","0.0-18.0-1.84","5968","approach_avoid_sv1","""event"",""trial"",""time""
""fullscreenenter"",""1"",""1788""
","
","
","""event"",""trial"",""time""
""fullscreenenter"",""1"",""1788""
","
","","","","","","858.1000000238419","images/cow3.png","","","memory_trial","1","definitely_old",""
"html-keyboard-response","214","389037","0.0-18.0-0.85","5968","approach_avoid_sv1","""event"",""trial"",""time""
""fullscreenenter"",""1"",""1788""
","
","
","""event"",""trial"",""time""
""fullscreenenter"",""1"",""1788""
","
","","","","","","null","<div style=""font-size:60px;"">+</div>","null","","fixation","","",""
"memory-trial","215","391804","0.0-18.0-1.85","5968","approach_avoid_sv1","""event"",""trial"",""time""
""fullscreenenter"",""1"",""1788""
","
","
","""event"",""trial"",""time""
""fullscreenenter"",""1"",""1788""
","
","","","","","","1760.1999999284744","images/rabbit5.png","","","memory_trial","3","maybe_new",""
"html-keyboard-response","216","392307","0.0-18.0-0.86","5968","approach_avoid_sv1","""event"",""trial"",""time""
""fullscreenenter"",""1"",""1788""
","
","
","""event"",""trial"",""time""
""fullscreenenter"",""1"",""1788""
","
","","","","","","null","<div style=""font-size:60px;"">+</div>","null","","fixation","","",""
"memory-trial","217","394668","0.0-18.0-1.86","5968","approach_avoid_sv1","""event"",""trial"",""time""
""fullscreenenter"",""1"",""1788""
","
","
","""event"",""trial"",""time""
""fullscreenenter"",""1"",""1788""
","
","","","","","","1353.5","images/cat2.png","","","memory_trial","1","definitely_old",""
"html-keyboard-response","218","395172","0.0-18.0-0.87","5968","approach_avoid_sv1","""event"",""trial"",""time""
""fullscreenenter"",""1"",""1788""
","
","
","""event"",""trial"",""time""
""fullscreenenter"",""1"",""1788""
","
","","","","","","null","<div style=""font-size:60px;"">+</div>","null","","fixation","","",""
"memory-trial","219","397979","0.0-18.0-1.87","5968","approach_avoid_sv1","""event"",""trial"",""time""
""fullscreenenter"",""1"",""1788""
","
","
","""event"",""trial"",""time""
""fullscreenenter"",""1"",""1788""
","
","","","","","","1802.0999999046326","images/cow6.png","","","memory_trial","4","definitely_new",""
"html-keyboard-response","220","398483","0.0-18.0-0.88","5968","approach_avoid_sv1","""event"",""trial"",""time""
""fullscreenenter"",""1"",""1788""
","
","
","""event"",""trial"",""time""
""fullscreenenter"",""1"",""1788""
","
","","","","","","null","<div style=""font-size:60px;"">+</div>","null","","fixation","","",""
"memory-trial","221","400764","0.0-18.0-1.88","5968","approach_avoid_sv1","""event"",""trial"",""time""
""fullscreenenter"",""1"",""1788""
","
","
","""event"",""trial"",""time""
""fullscreenenter"",""1"",""1788""
","
","","","","","","1273","images/sheep5.png","","","memory_trial","4","definitely_new",""
"html-keyboard-response","222","401267","0.0-18.0-0.89","5968","approach_avoid_sv1","""event"",""trial"",""time""
""fullscreenenter"",""1"",""1788""
","
","
","""event"",""trial"",""time""
""fullscreenenter"",""1"",""1788""
","
","","","","","","null","<div style=""font-size:60px;"">+</div>","null","","fixation","","",""
"memory-trial","223","403755","0.0-18.0-1.89","5968","approach_avoid_sv1","""event"",""trial"",""time""
""fullscreenenter"",""1"",""1788""
","
","
","""event"",""trial"",""time""
""fullscreenenter"",""1"",""1788""
","
","","","","","","1482.1000000238419","images/tree2.png","","","memory_trial","1","definitely_old",""
"html-keyboard-response","224","404259","0.0-18.0-0.90","5968","approach_avoid_sv1","""event"",""trial"",""time""
""fullscreenenter"",""1"",""1788""
","
","
","""event"",""trial"",""time""
""fullscreenenter"",""1"",""1788""
","
","","","","","","null","<div style=""font-size:60px;"">+</div>","null","","fixation","","",""
"memory-trial","225","406060","0.0-18.0-1.90","5968","approach_avoid_sv1","""event"",""trial"",""time""
""fullscreenenter"",""1"",""1788""
","
","
","""event"",""trial"",""time""
""fullscreenenter"",""1"",""1788""
","
","","","","","","794.0999999046326","images/orange4.png","","","memory_trial","1","definitely_old",""
"html-keyboard-response","226","406563","0.0-18.0-0.91","5968","approach_avoid_sv1","""event"",""trial"",""time""
""fullscreenenter"",""1"",""1788""
","
","
","""event"",""trial"",""time""
""fullscreenenter"",""1"",""1788""
","
","","","","","","null","<div style=""font-size:60px;"">+</div>","null","","fixation","","",""
"memory-trial","227","408996","0.0-18.0-1.91","5968","approach_avoid_sv1","""event"",""trial"",""time""
""fullscreenenter"",""1"",""1788""
","
","
","""event"",""trial"",""time""
""fullscreenenter"",""1"",""1788""
","
","","","","","","1425.8999999761581","images/table7.png","","","memory_trial","4","definitely_new",""
"html-button-response","228","410955","0.0-18.0-2.91-0.91","5968","approach_avoid_sv1","""event"",""trial"",""time""
""fullscreenenter"",""1"",""1788""
","
","
","""event"",""trial"",""time""
""fullscreenenter"",""1"",""1788""
","
","","","","","","1957.3999999761581","<p> Take a break! </p><p> Click the button to continue. </p>","0","","break","","",""
"html-keyboard-response","229","411459","0.0-18.0-0.92","5968","approach_avoid_sv1","""event"",""trial"",""time""
""fullscreenenter"",""1"",""1788""
","
","
","""event"",""trial"",""time""
""fullscreenenter"",""1"",""1788""
","
","","","","","","null","<div style=""font-size:60px;"">+</div>","null","","fixation","","",""
"memory-trial","230","413580","0.0-18.0-1.92","5968","approach_avoid_sv1","""event"",""trial"",""time""
""fullscreenenter"",""1"",""1788""
","
","
","""event"",""trial"",""time""
""fullscreenenter"",""1"",""1788""
","
","","","","","","1113.6000000238419","images/chair6.png","","","memory_trial","4","definitely_new",""
"html-keyboard-response","231","414087","0.0-18.0-0.93","5968","approach_avoid_sv1","""event"",""trial"",""time""
""fullscreenenter"",""1"",""1788""
","
","
","""event"",""trial"",""time""
""fullscreenenter"",""1"",""1788""
","
","","","","","","null","<div style=""font-size:60px;"">+</div>","null","","fixation","","",""
"memory-trial","232","416403","0.0-18.0-1.93","5968","approach_avoid_sv1","""event"",""trial"",""time""
""fullscreenenter"",""1"",""1788""
","
","
","""event"",""trial"",""time""
""fullscreenenter"",""1"",""1788""
","
","","","","","","1309.3999999761581","images/rabbit4.png","","","memory_trial","4","definitely_new",""
"html-keyboard-response","233","416908","0.0-18.0-0.94","5968","approach_avoid_sv1","""event"",""trial"",""time""
""fullscreenenter"",""1"",""1788""
","
","
","""event"",""trial"",""time""
""fullscreenenter"",""1"",""1788""
","
","","","","","","null","<div style=""font-size:60px;"">+</div>","null","","fixation","","",""
"memory-trial","234","419532","0.0-18.0-1.94","5968","approach_avoid_sv1","""event"",""trial"",""time""
""fullscreenenter"",""1"",""1788""
","
","
","""event"",""trial"",""time""
""fullscreenenter"",""1"",""1788""
","
","","","","","","1617.7000000476837","images/truck8.png","","","memory_trial","2","maybe_old",""
"html-keyboard-response","235","420047","0.0-18.0-0.95","5968","approach_avoid_sv1","""event"",""trial"",""time""
""fullscreenenter"",""1"",""1788""
","
","
","""event"",""trial"",""time""
""fullscreenenter"",""1"",""1788""
","
","","","","","","null","<div style=""font-size:60px;"">+</div>","null","","fixation","","",""
"memory-trial","236","422376","0.0-18.0-1.95","5968","approach_avoid_sv1","""event"",""trial"",""time""
""fullscreenenter"",""1"",""1788""
","
","
","""event"",""trial"",""time""
""fullscreenenter"",""1"",""1788""
","
","","","","","","1319.2999999523163","images/cow2.png","","","memory_trial","2","maybe_old",""
"html-keyboard-response","237","422884","0.0-18.0-0.96","5968","approach_avoid_sv1","""event"",""trial"",""time""
""fullscreenenter"",""1"",""1788""
","
","
","""event"",""trial"",""time""
""fullscreenenter"",""1"",""1788""
","
","","","","","","null","<div style=""font-size:60px;"">+</div>","null","","fixation","","",""
"memory-trial","238","425633","0.0-18.0-1.96","5968","approach_avoid_sv1","""event"",""trial"",""time""
""fullscreenenter"",""1"",""1788""
","
","
","""event"",""trial"",""time""
""fullscreenenter"",""1"",""1788""
","
","","","","","","1737.7999999523163","images/table3.png","","","memory_trial","4","definitely_new",""
"html-keyboard-response","239","426139","0.0-18.0-0.97","5968","approach_avoid_sv1","""event"",""trial"",""time""
""fullscreenenter"",""1"",""1788""
","
","
","""event"",""trial"",""time""
""fullscreenenter"",""1"",""1788""
","
","","","","","","null","<div style=""font-size:60px;"">+</div>","null","","fixation","","",""
"memory-trial","240","428326","0.0-18.0-1.97","5968","approach_avoid_sv1","""event"",""trial"",""time""
""fullscreenenter"",""1"",""1788""
","
","
","""event"",""trial"",""time""
""fullscreenenter"",""1"",""1788""
","
","","","","","","1177.7000000476837","images/banana1.png","","","memory_trial","1","definitely_old",""
"html-keyboard-response","241","428835","0.0-18.0-0.98","5968","approach_avoid_sv1","""event"",""trial"",""time""
""fullscreenenter"",""1"",""1788""
","
","
","""event"",""trial"",""time""
""fullscreenenter"",""1"",""1788""
","
","","","","","","null","<div style=""font-size:60px;"">+</div>","null","","fixation","","",""
"memory-trial","242","431315","0.0-18.0-1.98","5968","approach_avoid_sv1","""event"",""trial"",""time""
""fullscreenenter"",""1"",""1788""
","
","
","""event"",""trial"",""time""
""fullscreenenter"",""1"",""1788""
","
","","","","","","1474.5","images/sofa8.png","","","memory_trial","4","definitely_new",""
"html-keyboard-response","243","431820","0.0-18.0-0.99","5968","approach_avoid_sv1","""event"",""trial"",""time""
""fullscreenenter"",""1"",""1788""
","
","
","""event"",""trial"",""time""
""fullscreenenter"",""1"",""1788""
","
","","","","","","null","<div style=""font-size:60px;"">+</div>","null","","fixation","","",""
"memory-trial","244","434500","0.0-18.0-1.99","5968","approach_avoid_sv1","""event"",""trial"",""time""
""fullscreenenter"",""1"",""1788""
","
","
","""event"",""trial"",""time""
""fullscreenenter"",""1"",""1788""
","
","","","","","","1672.6000000238419","images/orange3.png","","","memory_trial","3","maybe_new",""
"html-keyboard-response","245","435003","0.0-18.0-0.100","5968","approach_avoid_sv1","""event"",""trial"",""time""
""fullscreenenter"",""1"",""1788""
","
","
","""event"",""trial"",""time""
""fullscreenenter"",""1"",""1788""
","
","","","","","","null","<div style=""font-size:60px;"">+</div>","null","","fixation","","",""
"memory-trial","246","438179","0.0-18.0-1.100","5968","approach_avoid_sv1","""event"",""trial"",""time""
""fullscreenenter"",""1"",""1788""
","
","
","""event"",""trial"",""time""
""fullscreenenter"",""1"",""1788""
","
","","","","","","2170.7000000476837","images/flower1.png","","","memory_trial","2","maybe_old",""
"html-keyboard-response","247","438684","0.0-18.0-0.101","5968","approach_avoid_sv1","""event"",""trial"",""time""
""fullscreenenter"",""1"",""1788""
","
","
","""event"",""trial"",""time""
""fullscreenenter"",""1"",""1788""
","
","","","","","","null","<div style=""font-size:60px;"">+</div>","null","","fixation","","",""
"memory-trial","248","440670","0.0-18.0-1.101","5968","approach_avoid_sv1","""event"",""trial"",""time""
""fullscreenenter"",""1"",""1788""
","
","
","""event"",""trial"",""time""
""fullscreenenter"",""1"",""1788""
","
","","","","","","977.2999999523163","images/rabbit1.png","","","memory_trial","3","maybe_new",""
"html-keyboard-response","249","441179","0.0-18.0-0.102","5968","approach_avoid_sv1","""event"",""trial"",""time""
""fullscreenenter"",""1"",""1788""
","
","
","""event"",""trial"",""time""
""fullscreenenter"",""1"",""1788""
","
","","","","","","null","<div style=""font-size:60px;"">+</div>","null","","fixation","","",""
"memory-trial","250","443211","0.0-18.0-1.102","5968","approach_avoid_sv1","""event"",""trial"",""time""
""fullscreenenter"",""1"",""1788""
","
","
","""event"",""trial"",""time""
""fullscreenenter"",""1"",""1788""
","
","","","","","","1026.1000000238419","images/cat1.png","","","memory_trial","1","definitely_old",""
"html-keyboard-response","251","443719","0.0-18.0-0.103","5968","approach_avoid_sv1","""event"",""trial"",""time""
""fullscreenenter"",""1"",""1788""
","
","
","""event"",""trial"",""time""
""fullscreenenter"",""1"",""1788""
","
","","","","","","null","<div style=""font-size:60px;"">+</div>","null","","fixation","","",""
"memory-trial","252","446915","0.0-18.0-1.103","5968","approach_avoid_sv1","""event"",""trial"",""time""
""fullscreenenter"",""1"",""1788""
","
","
","""event"",""trial"",""time""
""fullscreenenter"",""1"",""1788""
","
","","","","","","2191","images/tree6.png","","","memory_trial","4","definitely_new",""
"html-keyboard-response","253","447420","0.0-18.0-0.104","5968","approach_avoid_sv1","""event"",""trial"",""time""
""fullscreenenter"",""1"",""1788""
","
","
","""event"",""trial"",""time""
""fullscreenenter"",""1"",""1788""
","
","","","","","","null","<div style=""font-size:60px;"">+</div>","null","","fixation","","",""
"memory-trial","254","449388","0.0-18.0-1.104","5968","approach_avoid_sv1","""event"",""trial"",""time""
""fullscreenenter"",""1"",""1788""
","
","
","""event"",""trial"",""time""
""fullscreenenter"",""1"",""1788""
","
","","","","","","961.1999999284744","images/bush1.png","","","memory_trial","1","definitely_old",""
"html-keyboard-response","255","449891","0.0-18.0-0.105","5968","approach_avoid_sv1","""event"",""trial"",""time""
""fullscreenenter"",""1"",""1788""
","
","
","""event"",""trial"",""time""
""fullscreenenter"",""1"",""1788""
","
","","","","","","null","<div style=""font-size:60px;"">+</div>","null","","fixation","","",""
"memory-trial","256","452412","0.0-18.0-1.105","5968","approach_avoid_sv1","""event"",""trial"",""time""
""fullscreenenter"",""1"",""1788""
","
","
","""event"",""trial"",""time""
""fullscreenenter"",""1"",""1788""
","
","","","","","","1514.3999999761581","images/horse1.png","","","memory_trial","2","maybe_old",""
"html-keyboard-response","257","452916","0.0-18.0-0.106","5968","approach_avoid_sv1","""event"",""trial"",""time""
""fullscreenenter"",""1"",""1788""
","
","
","""event"",""trial"",""time""
""fullscreenenter"",""1"",""1788""
","
","","","","","","null","<div style=""font-size:60px;"">+</div>","null","","fixation","","",""
"memory-trial","258","454964","0.0-18.0-1.106","5968","approach_avoid_sv1","""event"",""trial"",""time""
""fullscreenenter"",""1"",""1788""
","
","
","""event"",""trial"",""time""
""fullscreenenter"",""1"",""1788""
","
","","","","","","1041.2000000476837","images/chair8.png","","","memory_trial","3","maybe_new",""
"html-keyboard-response","259","455468","0.0-18.0-0.107","5968","approach_avoid_sv1","""event"",""trial"",""time""
""fullscreenenter"",""1"",""1788""
","
","
","""event"",""trial"",""time""
""fullscreenenter"",""1"",""1788""
","
","","","","","","null","<div style=""font-size:60px;"">+</div>","null","","fixation","","",""
"memory-trial","260","457932","0.0-18.0-1.107","5968","approach_avoid_sv1","""event"",""trial"",""time""
""fullscreenenter"",""1"",""1788""
","
","
","""event"",""trial"",""time""
""fullscreenenter"",""1"",""1788""
","
","","","","","","1457.3999999761581","images/plane3.png","","","memory_trial","4","definitely_new",""
"html-keyboard-response","261","458436","0.0-18.0-0.108","5968","approach_avoid_sv1","""event"",""trial"",""time""
""fullscreenenter"",""1"",""1788""
","
","
","""event"",""trial"",""time""
""fullscreenenter"",""1"",""1788""
","
","","","","","","null","<div style=""font-size:60px;"">+</div>","null","","fixation","","",""
"memory-trial","262","461171","0.0-18.0-1.108","5968","approach_avoid_sv1","""event"",""trial"",""time""
""fullscreenenter"",""1"",""1788""
","
","
","""event"",""trial"",""time""
""fullscreenenter"",""1"",""1788""
","
","","","","","","1727.7999999523163","images/orange8.png","","","memory_trial","1","definitely_old",""
"html-keyboard-response","263","461676","0.0-18.0-0.109","5968","approach_avoid_sv1","""event"",""trial"",""time""
""fullscreenenter"",""1"",""1788""
","
","
","""event"",""trial"",""time""
""fullscreenenter"",""1"",""1788""
","
","","","","","","null","<div style=""font-size:60px;"">+</div>","null","","fixation","","",""
"memory-trial","264","465438","0.0-18.0-1.109","5968","approach_avoid_sv1","""event"",""trial"",""time""
""fullscreenenter"",""1"",""1788""
","
","
","""event"",""trial"",""time""
""fullscreenenter"",""1"",""1788""
","
","","","","","","2746.2000000476837","images/table4.png","","","memory_trial","1","definitely_old",""
"html-keyboard-response","265","465947","0.0-18.0-0.110","5968","approach_avoid_sv1","""event"",""trial"",""time""
""fullscreenenter"",""1"",""1788""
","
","
","""event"",""trial"",""time""
""fullscreenenter"",""1"",""1788""
","
","","","","","","null","<div style=""font-size:60px;"">+</div>","null","","fixation","","",""
"memory-trial","266","468803","0.0-18.0-1.110","5968","approach_avoid_sv1","""event"",""trial"",""time""
""fullscreenenter"",""1"",""1788""
","
","
","""event"",""trial"",""time""
""fullscreenenter"",""1"",""1788""
","
","","","","","","1849.2000000476837","images/cactus6.png","","","memory_trial","1","definitely_old",""
"html-keyboard-response","267","469307","0.0-18.0-0.111","5968","approach_avoid_sv1","""event"",""trial"",""time""
""fullscreenenter"",""1"",""1788""
","
","
","""event"",""trial"",""time""
""fullscreenenter"",""1"",""1788""
","
","","","","","","null","<div style=""font-size:60px;"">+</div>","null","","fixation","","",""
"memory-trial","268","471203","0.0-18.0-1.111","5968","approach_avoid_sv1","""event"",""trial"",""time""
""fullscreenenter"",""1"",""1788""
","
","
","""event"",""trial"",""time""
""fullscreenenter"",""1"",""1788""
","
","","","","","","890.3000000715256","images/banana2.png","","","memory_trial","1","definitely_old",""
"html-keyboard-response","269","471708","0.0-18.0-0.112","5968","approach_avoid_sv1","""event"",""trial"",""time""
""fullscreenenter"",""1"",""1788""
","
","
","""event"",""trial"",""time""
""fullscreenenter"",""1"",""1788""
","
","","","","","","null","<div style=""font-size:60px;"">+</div>","null","","fixation","","",""
"memory-trial","270","474371","0.0-18.0-1.112","5968","approach_avoid_sv1","""event"",""trial"",""time""
""fullscreenenter"",""1"",""1788""
","
","
","""event"",""trial"",""time""
""fullscreenenter"",""1"",""1788""
","
","","","","","","1657.2000000476837","images/tree5.png","","","memory_trial","1","definitely_old",""
"html-keyboard-response","271","474889","0.0-18.0-0.113","5968","approach_avoid_sv1","""event"",""trial"",""time""
""fullscreenenter"",""1"",""1788""
","
","
","""event"",""trial"",""time""
""fullscreenenter"",""1"",""1788""
","
","","","","","","null","<div style=""font-size:60px;"">+</div>","null","","fixation","","",""
"memory-trial","272","477588","0.0-18.0-1.113","5968","approach_avoid_sv1","""event"",""trial"",""time""
""fullscreenenter"",""1"",""1788""
","
","
","""event"",""trial"",""time""
""fullscreenenter"",""1"",""1788""
","
","","","","","","1691.6000000238419","images/cow5.png","","","memory_trial","2","maybe_old",""
"html-keyboard-response","273","478106","0.0-18.0-0.114","5968","approach_avoid_sv1","""event"",""trial"",""time""
""fullscreenenter"",""1"",""1788""
","
","
","""event"",""trial"",""time""
""fullscreenenter"",""1"",""1788""
","
","","","","","","null","<div style=""font-size:60px;"">+</div>","null","","fixation","","",""
"memory-trial","274","480563","0.0-18.0-1.114","5968","approach_avoid_sv1","""event"",""trial"",""time""
""fullscreenenter"",""1"",""1788""
","
","
","""event"",""trial"",""time""
""fullscreenenter"",""1"",""1788""
","
","","","","","","1449.7000000476837","images/flower3.png","","","memory_trial","4","definitely_new",""
"html-keyboard-response","275","481068","0.0-18.0-0.115","5968","approach_avoid_sv1","""event"",""trial"",""time""
""fullscreenenter"",""1"",""1788""
","
","
","""event"",""trial"",""time""
""fullscreenenter"",""1"",""1788""
","
","","","","","","null","<div style=""font-size:60px;"">+</div>","null","","fixation","","",""
"memory-trial","276","483699","0.0-18.0-1.115","5968","approach_avoid_sv1","""event"",""trial"",""time""
""fullscreenenter"",""1"",""1788""
","
","
","""event"",""trial"",""time""
""fullscreenenter"",""1"",""1788""
","
","","","","","","1625.5","images/cat8.png","","","memory_trial","1","definitely_old",""
"html-keyboard-response","277","484204","0.0-18.0-0.116","5968","approach_avoid_sv1","""event"",""trial"",""time""
""fullscreenenter"",""1"",""1788""
","
","
","""event"",""trial"",""time""
""fullscreenenter"",""1"",""1788""
","
","","","","","","null","<div style=""font-size:60px;"">+</div>","null","","fixation","","",""
"memory-trial","278","493916","0.0-18.0-1.116","5968","approach_avoid_sv1","""event"",""trial"",""time""
""fullscreenenter"",""1"",""1788""
","
","
","""event"",""trial"",""time""
""fullscreenenter"",""1"",""1788""
","
","","","","","","8705.199999928474","images/horse6.png","","","memory_trial","1","definitely_old",""
"html-keyboard-response","279","494419","0.0-18.0-0.117","5968","approach_avoid_sv1","""event"",""trial"",""time""
""fullscreenenter"",""1"",""1788""
","
","
","""event"",""trial"",""time""
""fullscreenenter"",""1"",""1788""
","
","","","","","","null","<div style=""font-size:60px;"">+</div>","null","","fixation","","",""
"memory-trial","280","496035","0.0-18.0-1.117","5968","approach_avoid_sv1","""event"",""trial"",""time""
""fullscreenenter"",""1"",""1788""
","
","
","""event"",""trial"",""time""
""fullscreenenter"",""1"",""1788""
","
","","","","","","608.4000000953674","images/rabbit7.png","","","memory_trial","3","maybe_new",""
"html-keyboard-response","281","496539","0.0-18.0-0.118","5968","approach_avoid_sv1","""event"",""trial"",""time""
""fullscreenenter"",""1"",""1788""
","
","
","""event"",""trial"",""time""
""fullscreenenter"",""1"",""1788""
","
","","","","","","null","<div style=""font-size:60px;"">+</div>","null","","fixation","","",""
"memory-trial","282","498323","0.0-18.0-1.118","5968","approach_avoid_sv1","""event"",""trial"",""time""
""fullscreenenter"",""1"",""1788""
","
","
","""event"",""trial"",""time""
""fullscreenenter"",""1"",""1788""
","
","","","","","","778","images/sofa1.png","","","memory_trial","2","maybe_old",""
"html-keyboard-response","283","498827","0.0-18.0-0.119","5968","approach_avoid_sv1","""event"",""trial"",""time""
""fullscreenenter"",""1"",""1788""
","
","
","""event"",""trial"",""time""
""fullscreenenter"",""1"",""1788""
","
","","","","","","null","<div style=""font-size:60px;"">+</div>","null","","fixation","","",""
"memory-trial","284","500795","0.0-18.0-1.119","5968","approach_avoid_sv1","""event"",""trial"",""time""
""fullscreenenter"",""1"",""1788""
","
","
","""event"",""trial"",""time""
""fullscreenenter"",""1"",""1788""
","
","","","","","","962.2999999523163","images/sheep2.png","","","memory_trial","3","maybe_new",""
"html-keyboard-response","285","501299","0.0-18.0-0.120","5968","approach_avoid_sv1","""event"",""trial"",""time""
""fullscreenenter"",""1"",""1788""
","
","
","""event"",""trial"",""time""
""fullscreenenter"",""1"",""1788""
","
","","","","","","null","<div style=""font-size:60px;"">+</div>","null","","fixation","","",""
"memory-trial","286","503512","0.0-18.0-1.120","5968","approach_avoid_sv1","""event"",""trial"",""time""
""fullscreenenter"",""1"",""1788""
","
","
","""event"",""trial"",""time""
""fullscreenenter"",""1"",""1788""
","
","","","","","","1194.5","images/truck3.png","","","memory_trial","3","maybe_new",""
"html-keyboard-response","287","504019","0.0-18.0-0.121","5968","approach_avoid_sv1","""event"",""trial"",""time""
""fullscreenenter"",""1"",""1788""
","
","
","""event"",""trial"",""time""
""fullscreenenter"",""1"",""1788""
","
","","","","","","null","<div style=""font-size:60px;"">+</div>","null","","fixation","","",""
"memory-trial","288","506411","0.0-18.0-1.121","5968","approach_avoid_sv1","""event"",""trial"",""time""
""fullscreenenter"",""1"",""1788""
","
","
","""event"",""trial"",""time""
""fullscreenenter"",""1"",""1788""
","
","","","","","","1386.2999999523163","images/rodent4.png","","","memory_trial","1","definitely_old",""
"html-keyboard-response","289","506926","0.0-18.0-0.122","5968","approach_avoid_sv1","""event"",""trial"",""time""
""fullscreenenter"",""1"",""1788""
","
","
","""event"",""trial"",""time""
""fullscreenenter"",""1"",""1788""
","
","","","","","","null","<div style=""font-size:60px;"">+</div>","null","","fixation","","",""
"memory-trial","290","509643","0.0-18.0-1.122","5968","approach_avoid_sv1","""event"",""trial"",""time""
""fullscreenenter"",""1"",""1788""
","
","
","""event"",""trial"",""time""
""fullscreenenter"",""1"",""1788""
","
","","","","","","1710.2000000476837","images/dog7.png","","","memory_trial","2","maybe_old",""
"html-keyboard-response","291","510157","0.0-18.0-0.123","5968","approach_avoid_sv1","""event"",""trial"",""time""
""fullscreenenter"",""1"",""1788""
","
","
","""event"",""trial"",""time""
""fullscreenenter"",""1"",""1788""
","
","","","","","","null","<div style=""font-size:60px;"">+</div>","null","","fixation","","",""
"memory-trial","292","512291","0.0-18.0-1.123","5968","approach_avoid_sv1","""event"",""trial"",""time""
""fullscreenenter"",""1"",""1788""
","
","
","""event"",""trial"",""time""
""fullscreenenter"",""1"",""1788""
","
","","","","","","1120","images/flower8.png","","","memory_trial","4","definitely_new",""
"html-keyboard-response","293","512795","0.0-18.0-0.124","5968","approach_avoid_sv1","""event"",""trial"",""time""
""fullscreenenter"",""1"",""1788""
","
","
","""event"",""trial"",""time""
""fullscreenenter"",""1"",""1788""
","
","","","","","","null","<div style=""font-size:60px;"">+</div>","null","","fixation","","",""
"memory-trial","294","514843","0.0-18.0-1.124","5968","approach_avoid_sv1","""event"",""trial"",""time""
""fullscreenenter"",""1"",""1788""
","
","
","""event"",""trial"",""time""
""fullscreenenter"",""1"",""1788""
","
","","","","","","1041.1999999284744","images/cactus8.png","","","memory_trial","1","definitely_old",""
"html-keyboard-response","295","515347","0.0-18.0-0.125","5968","approach_avoid_sv1","""event"",""trial"",""time""
""fullscreenenter"",""1"",""1788""
","
","
","""event"",""trial"",""time""
""fullscreenenter"",""1"",""1788""
","
","","","","","","null","<div style=""font-size:60px;"">+</div>","null","","fixation","","",""
"memory-trial","296","517548","0.0-18.0-1.125","5968","approach_avoid_sv1","""event"",""trial"",""time""
""fullscreenenter"",""1"",""1788""
","
","
","""event"",""trial"",""time""
""fullscreenenter"",""1"",""1788""
","
","","","","","","1194.2999999523163","images/flower6.png","","","memory_trial","3","maybe_new",""
"html-keyboard-response","297","518061","0.0-18.0-0.126","5968","approach_avoid_sv1","""event"",""trial"",""time""
""fullscreenenter"",""1"",""1788""
","
","
","""event"",""trial"",""time""
""fullscreenenter"",""1"",""1788""
","
