"trial_type","trial_index","time_elapsed","internal_node_id","subject_id","task_version","interactions","blur_events","focus_events","fullscreenenter_events","fullscreenexit_events","success","timeout","failed_images","failed_audio","failed_video","rt","stimulus","response","button_pressed","task_part","key_press","answer","correct"
"pavlovia","0","6","0.0-0.0","7694","approach_avoid_sv1","""event"",""trial"",""time""
""fullscreenenter"",""1"",""13576""
","
","
","""event"",""trial"",""time""
""fullscreenenter"",""1"",""13576""
","
","","","","","","","","","","","","",""
"fullscreen","1","14542","0.0-1.0","7694","approach_avoid_sv1","""event"",""trial"",""time""
""fullscreenenter"",""1"",""13576""
","
","
","""event"",""trial"",""time""
""fullscreenenter"",""1"",""13576""
","
","true","","","","","","","","","","","",""
"preload","2","24953","0.0-2.0","7694","approach_avoid_sv1","""event"",""trial"",""time""
""fullscreenenter"",""1"",""13576""
","
","
","""event"",""trial"",""time""
""fullscreenenter"",""1"",""13576""
","
","true","false","[]","[]","[]","","","","","","","",""
"preload","3","35234","0.0-3.0","7694","approach_avoid_sv1","""event"",""trial"",""time""
""fullscreenenter"",""1"",""13576""
","
","
","""event"",""trial"",""time""
""fullscreenenter"",""1"",""13576""
","
","true","false","[]","[]","[]","","","","","","","",""
"preload","4","36166","0.0-4.0","7694","approach_avoid_sv1","""event"",""trial"",""time""
""fullscreenenter"",""1"",""13576""
","
","
","""event"",""trial"",""time""
""fullscreenenter"",""1"",""13576""
","
","true","false","[]","[]","[]","","","","","","","",""
"audio-keyboard-response","5","38260","0.0-5.0","7694","approach_avoid_sv1","""event"",""trial"",""time""
""fullscreenenter"",""1"",""13576""
","
","
","""event"",""trial"",""time""
""fullscreenenter"",""1"",""13576""
","
","","","","","","1994.6666666666672","audio/beep_loop.wav","audiovolumedown","","","","",""
"audio-button-response","6","40575","0.0-6.0","7694","approach_avoid_sv1","""event"",""trial"",""time""
""fullscreenenter"",""1"",""13576""
","
","
","""event"",""trial"",""time""
""fullscreenenter"",""1"",""13576""
","
","","","","","","2315","audio/turtle.wav","3","","","","",""
"audio-button-response","7","46879","0.0-7.0","7694","approach_avoid_sv1","""event"",""trial"",""time""
""fullscreenenter"",""1"",""13576""
","
","
","""event"",""trial"",""time""
""fullscreenenter"",""1"",""13576""
","
","","","","","","5280","audio/shark.wav","2","","","","",""
"preload","8","58959","0.0-8.0","7694","approach_avoid_sv1","""event"",""trial"",""time""
""fullscreenenter"",""1"",""13576""
","
","
","""event"",""trial"",""time""
""fullscreenenter"",""1"",""13576""
","
","true","false","[]","[]","[]","","","","","","","",""
"learning-instructions","9","66632","0.0-9.0-0.0","7694","approach_avoid_sv1","""event"",""trial"",""time""
""fullscreenenter"",""1"",""13576""
","
","
","""event"",""trial"",""time""
""fullscreenenter"",""1"",""13576""
","
","","","","","","3196.300000190735","<p> Welcome back! </p><p> Last week, you had to make choices about lots of different items.  </p>","","0","instructions","","",""
"learning-instructions","10","72013","0.0-9.0-0.1","7694","approach_avoid_sv1","""event"",""trial"",""time""
""fullscreenenter"",""1"",""13576""
","
","
","""event"",""trial"",""time""
""fullscreenenter"",""1"",""13576""
","
","","","","","","1261.1999998092651","<p> Today, we are going to ask you to try to remember all the items. </p>","","0","instructions","","",""
"learning-instructions","11","82618","0.0-9.0-0.2","7694","approach_avoid_sv1","""event"",""trial"",""time""
""fullscreenenter"",""1"",""13576""
","
","
","""event"",""trial"",""time""
""fullscreenenter"",""1"",""13576""
","
","","","","","","442.59999990463257","<p> On every trial, you will see an image. </p><p> The image may be an OLD image you saw during the games last week or it may be a NEW image that was not presented. </p>","","0","instructions","","",""
"learning-instructions","12","91586","0.0-9.0-0.3","7694","approach_avoid_sv1","""event"",""trial"",""time""
""fullscreenenter"",""1"",""13576""
","
","
","""event"",""trial"",""time""
""fullscreenenter"",""1"",""13576""
","
","","","","","","460.6000003814697","<p> You need to select whether the image is:  </p><p>  'Definitely old', 'Maybe old', 'Maybe new', or 'Definitely new.'  </p><div class=""mem-choice-instructions-grid""><div class=""choice-option"" id=""choice-option-1"" ><img src=""images/definitely_old_1.png"" id=""choice-option-img-1"" class=""choice-option-img"" stage=""1""></div><div class=""choice-option"" id=""choice-option-2"" ><img src=""images/maybe_old_1.png"" id=""choice-option-img-2"" class=""choice-option-img"" stage=""1""></div><div class=""choice-option"" id=""choice-option-3"" ><img src=""images/maybe_new_1.png"" id=""choice-option-img-3"" class=""choice-option-img"" stage=""1""></div><div class=""choice-option"" id=""choice-option-4"" > <img src=""images/definitely_new_1.png"" id=""choice-option-img-4"" class=""choice-option-img"" stage=""1""></div></div>","","0","instructions","","",""
"learning-instructions","13","99285","0.0-9.0-0.4","7694","approach_avoid_sv1","""event"",""trial"",""time""
""fullscreenenter"",""1"",""13576""
","
","
","""event"",""trial"",""time""
""fullscreenenter"",""1"",""13576""
","
","","","","","","1170.8000001907349","<p> You should use the 1, 2, 3, and 4 keys to make your responses.  </p><div class=""mem-choice-instructions-grid""><div class=""choice-option"" id=""choice-option-1"" ><img src=""images/definitely_old.png"" id=""choice-option-img-1"" class=""choice-option-img"" stage=""1""></div><div class=""choice-option"" id=""choice-option-2"" ><img src=""images/maybe_old.png"" id=""choice-option-img-2"" class=""choice-option-img"" stage=""1""></div><div class=""choice-option"" id=""choice-option-3"" ><img src=""images/maybe_new.png"" id=""choice-option-img-3"" class=""choice-option-img"" stage=""1""></div><div class=""choice-option"" id=""choice-option-4"" > <img src=""images/definitely_new.png"" id=""choice-option-img-4"" class=""choice-option-img"" stage=""1""></div></div>","","0","instructions","","",""
"learning-instructions","14","106218","0.0-9.0-0.5","7694","approach_avoid_sv1","""event"",""trial"",""time""
""fullscreenenter"",""1"",""13576""
","
","
","""event"",""trial"",""time""
""fullscreenenter"",""1"",""13576""
","
","","","","","","586.5999999046326","<p> You will have 10 seconds to make each response.  </p><p>  Make sure to respond before time runs out! </p>","","0","instructions","","",""
"learning-instructions","15","113559","0.0-9.0-0.6","7694","approach_avoid_sv1","""event"",""trial"",""time""
""fullscreenenter"",""1"",""13576""
""blur"",""16"",""417672""
""focus"",""16"",""420985""
","""event"",""trial"",""time""
""blur"",""16"",""417672""
","""event"",""trial"",""time""
""focus"",""16"",""420985""
","""event"",""trial"",""time""
""fullscreenenter"",""1"",""13576""
","
","","","","","","247.30000019073486","<p> Today, you will see each image ONCE only.  </p><p>  That means none of the images will repeat. </p>","","0","instructions","","",""
"learning-instructions","16","422157","0.0-9.0-0.7","7694","approach_avoid_sv1","""event"",""trial"",""time""
""fullscreenenter"",""1"",""13576""
""blur"",""16"",""417672""
""focus"",""16"",""420985""
","""event"",""trial"",""time""
""blur"",""16"",""417672""
","""event"",""trial"",""time""
""focus"",""16"",""420985""
","""event"",""trial"",""time""
""fullscreenenter"",""1"",""13576""
","
","","","","","","295925.09999990463","<p> Before you play the real game, it is time to practice. </p><p>  Just like in the real game, some of the images in the practice will be ones you have seen before. </p><p>  Others will be entirely new. </p>","","0","instructions","","",""
"html-button-response","17","448950","0.0-10.0","7694","approach_avoid_sv1","""event"",""trial"",""time""
""fullscreenenter"",""1"",""13576""
""blur"",""16"",""417672""
""focus"",""16"",""420985""
","""event"",""trial"",""time""
""blur"",""16"",""417672""
","""event"",""trial"",""time""
""focus"",""16"",""420985""
","""event"",""trial"",""time""
""fullscreenenter"",""1"",""13576""
","
","","","","","","26678.5","<p> Ready to practice? </p><p> Remember, use the 1, 2, 3, and 4 keys to make your responses. </p>","0","","instructions","","",""
"html-keyboard-response","18","449570","0.0-11.0-0.0","7694","approach_avoid_sv1","""event"",""trial"",""time""
""fullscreenenter"",""1"",""13576""
""blur"",""16"",""417672""
""focus"",""16"",""420985""
","""event"",""trial"",""time""
""blur"",""16"",""417672""
","""event"",""trial"",""time""
""focus"",""16"",""420985""
","""event"",""trial"",""time""
""fullscreenenter"",""1"",""13576""
","
","","","","","","null","<div style=""font-size:60px;"">+</div>","null","","fixation","","",""
"memory-trial","19","453993","0.0-11.0-1.0","7694","approach_avoid_sv1","""event"",""trial"",""time""
""fullscreenenter"",""1"",""13576""
""blur"",""16"",""417672""
""focus"",""16"",""420985""
","""event"",""trial"",""time""
""blur"",""16"",""417672""
","""event"",""trial"",""time""
""focus"",""16"",""420985""
","""event"",""trial"",""time""
""fullscreenenter"",""1"",""13576""
","
","","","","","","3416.5","images/racket1.png","","","practice","1","definitely_old",""
"html-keyboard-response","20","454524","0.0-11.0-0.1","7694","approach_avoid_sv1","""event"",""trial"",""time""
""fullscreenenter"",""1"",""13576""
""blur"",""16"",""417672""
""focus"",""16"",""420985""
","""event"",""trial"",""time""
""blur"",""16"",""417672""
","""event"",""trial"",""time""
""focus"",""16"",""420985""
","""event"",""trial"",""time""
""fullscreenenter"",""1"",""13576""
","
","","","","","","null","<div style=""font-size:60px;"">+</div>","null","","fixation","","",""
"memory-trial","21","459929","0.0-11.0-1.1","7694","approach_avoid_sv1","""event"",""trial"",""time""
""fullscreenenter"",""1"",""13576""
""blur"",""16"",""417672""
""focus"",""16"",""420985""
","""event"",""trial"",""time""
""blur"",""16"",""417672""
","""event"",""trial"",""time""
""focus"",""16"",""420985""
","""event"",""trial"",""time""
""fullscreenenter"",""1"",""13576""
","
","","","","","","4398.800000190735","images/racket3.png","","","practice","4","definitely_new",""
"html-keyboard-response","22","460433","0.0-11.0-0.2","7694","approach_avoid_sv1","""event"",""trial"",""time""
""fullscreenenter"",""1"",""13576""
""blur"",""16"",""417672""
""focus"",""16"",""420985""
","""event"",""trial"",""time""
""blur"",""16"",""417672""
","""event"",""trial"",""time""
""focus"",""16"",""420985""
","""event"",""trial"",""time""
""fullscreenenter"",""1"",""13576""
","
","","","","","","null","<div style=""font-size:60px;"">+</div>","null","","fixation","","",""
"memory-trial","23","462538","0.0-11.0-1.2","7694","approach_avoid_sv1","""event"",""trial"",""time""
""fullscreenenter"",""1"",""13576""
""blur"",""16"",""417672""
""focus"",""16"",""420985""
","""event"",""trial"",""time""
""blur"",""16"",""417672""
","""event"",""trial"",""time""
""focus"",""16"",""420985""
","""event"",""trial"",""time""
""fullscreenenter"",""1"",""13576""
","
","","","","","","1097.1000003814697","images/ball1.png","","","practice","2","maybe_old",""
"html-keyboard-response","24","463041","0.0-11.0-0.3","7694","approach_avoid_sv1","""event"",""trial"",""time""
""fullscreenenter"",""1"",""13576""
""blur"",""16"",""417672""
""focus"",""16"",""420985""
","""event"",""trial"",""time""
""blur"",""16"",""417672""
","""event"",""trial"",""time""
""focus"",""16"",""420985""
","""event"",""trial"",""time""
""fullscreenenter"",""1"",""13576""
","
","","","","","","null","<div style=""font-size:60px;"">+</div>","null","","fixation","","",""
"memory-trial","25","464760","0.0-11.0-1.3","7694","approach_avoid_sv1","""event"",""trial"",""time""
""fullscreenenter"",""1"",""13576""
""blur"",""16"",""417672""
""focus"",""16"",""420985""
","""event"",""trial"",""time""
""blur"",""16"",""417672""
","""event"",""trial"",""time""
""focus"",""16"",""420985""
","""event"",""trial"",""time""
""fullscreenenter"",""1"",""13576""
","
","","","","","","717.0999999046326","images/ball3.png","","","practice","4","definitely_new",""
"html-keyboard-response","26","465265","0.0-11.0-0.4","7694","approach_avoid_sv1","""event"",""trial"",""time""
""fullscreenenter"",""1"",""13576""
""blur"",""16"",""417672""
""focus"",""16"",""420985""
","""event"",""trial"",""time""
""blur"",""16"",""417672""
","""event"",""trial"",""time""
""focus"",""16"",""420985""
","""event"",""trial"",""time""
""fullscreenenter"",""1"",""13576""
","
","","","","","","null","<div style=""font-size:60px;"">+</div>","null","","fixation","","",""
"memory-trial","27","466571","0.0-11.0-1.4","7694","approach_avoid_sv1","""event"",""trial"",""time""
""fullscreenenter"",""1"",""13576""
""blur"",""16"",""417672""
""focus"",""16"",""420985""
","""event"",""trial"",""time""
""blur"",""16"",""417672""
","""event"",""trial"",""time""
""focus"",""16"",""420985""
","""event"",""trial"",""time""
""fullscreenenter"",""1"",""13576""
","
","","","","","","298.09999990463257","images/racket5.png","","","practice","3","maybe_new",""
"html-keyboard-response","28","467073","0.0-11.0-0.5","7694","approach_avoid_sv1","""event"",""trial"",""time""
""fullscreenenter"",""1"",""13576""
""blur"",""16"",""417672""
""focus"",""16"",""420985""
","""event"",""trial"",""time""
""blur"",""16"",""417672""
","""event"",""trial"",""time""
""focus"",""16"",""420985""
","""event"",""trial"",""time""
""fullscreenenter"",""1"",""13576""
","
","","","","","","null","<div style=""font-size:60px;"">+</div>","null","","fixation","","",""
"memory-trial","29","468499","0.0-11.0-1.5","7694","approach_avoid_sv1","""event"",""trial"",""time""
""fullscreenenter"",""1"",""13576""
""blur"",""16"",""417672""
""focus"",""16"",""420985""
","""event"",""trial"",""time""
""blur"",""16"",""417672""
","""event"",""trial"",""time""
""focus"",""16"",""420985""
","""event"",""trial"",""time""
""fullscreenenter"",""1"",""13576""
","
","","","","","","417.5","images/ball2.png","","","practice","1","definitely_old",""
"html-keyboard-response","30","469008","0.0-11.0-0.6","7694","approach_avoid_sv1","""event"",""trial"",""time""
""fullscreenenter"",""1"",""13576""
""blur"",""16"",""417672""
""focus"",""16"",""420985""
","""event"",""trial"",""time""
""blur"",""16"",""417672""
","""event"",""trial"",""time""
""focus"",""16"",""420985""
","""event"",""trial"",""time""
""fullscreenenter"",""1"",""13576""
","
","","","","","","null","<div style=""font-size:60px;"">+</div>","null","","fixation","","",""
"memory-trial","31","470441","0.0-11.0-1.6","7694","approach_avoid_sv1","""event"",""trial"",""time""
""fullscreenenter"",""1"",""13576""
""blur"",""16"",""417672""
""focus"",""16"",""420985""
","""event"",""trial"",""time""
""blur"",""16"",""417672""
","""event"",""trial"",""time""
""focus"",""16"",""420985""
","""event"",""trial"",""time""
""fullscreenenter"",""1"",""13576""
","
","","","","","","427.19999980926514","images/racket2.png","","","practice","3","maybe_new",""
"html-keyboard-response","32","470945","0.0-11.0-0.7","7694","approach_avoid_sv1","""event"",""trial"",""time""
""fullscreenenter"",""1"",""13576""
""blur"",""16"",""417672""
""focus"",""16"",""420985""
","""event"",""trial"",""time""
""blur"",""16"",""417672""
","""event"",""trial"",""time""
""focus"",""16"",""420985""
","""event"",""trial"",""time""
""fullscreenenter"",""1"",""13576""
","
","","","","","","null","<div style=""font-size:60px;"">+</div>","null","","fixation","","",""
"memory-trial","33","472265","0.0-11.0-1.7","7694","approach_avoid_sv1","""event"",""trial"",""time""
""fullscreenenter"",""1"",""13576""
""blur"",""16"",""417672""
""focus"",""16"",""420985""
","""event"",""trial"",""time""
""blur"",""16"",""417672""
","""event"",""trial"",""time""
""focus"",""16"",""420985""
","""event"",""trial"",""time""
""fullscreenenter"",""1"",""13576""
","
","","","","","","310.30000019073486","images/ball5.png","","","practice","4","definitely_new",""
"learning-instructions","34","482723","0.0-12.0-0.0","7694","approach_avoid_sv1","""event"",""trial"",""time""
""fullscreenenter"",""1"",""13576""
""blur"",""16"",""417672""
""focus"",""16"",""420985""
","""event"",""trial"",""time""
""blur"",""16"",""417672""
","""event"",""trial"",""time""
""focus"",""16"",""420985""
","""event"",""trial"",""time""
""fullscreenenter"",""1"",""13576""
","
","","","","","","2605.300000190735","<p> Great! You have completed the practice. </p><p> Before you start, we're going to ask you a few questions about how the game works.  </p>","","0","instructions","","",""
"preload","35","486774","0.0-13.0","7694","approach_avoid_sv1","""event"",""trial"",""time""
""fullscreenenter"",""1"",""13576""
""blur"",""16"",""417672""
""focus"",""16"",""420985""
","""event"",""trial"",""time""
""blur"",""16"",""417672""
","""event"",""trial"",""time""
""focus"",""16"",""420985""
","""event"",""trial"",""time""
""fullscreenenter"",""1"",""13576""
","
","true","false","[]","[]","[]","","","","","","","",""
"comp-q","36","495755","0.0-14.0-0.0","7694","approach_avoid_sv1","""event"",""trial"",""time""
""fullscreenenter"",""1"",""13576""
""blur"",""16"",""417672""
""focus"",""16"",""420985""
","""event"",""trial"",""time""
""blur"",""16"",""417672""
","""event"",""trial"",""time""
""focus"",""16"",""420985""
","""event"",""trial"",""time""
""fullscreenenter"",""1"",""13576""
","
","","","","","","3147.199999809265","<p> <b> True or False? </b> </p><p> In this game, you will only see each image once. </p>","","0","comp_question","","","true"
"comp-q","37","504538","0.0-14.0-1.0","7694","approach_avoid_sv1","""event"",""trial"",""time""
""fullscreenenter"",""1"",""13576""
""blur"",""16"",""417672""
""focus"",""16"",""420985""
","""event"",""trial"",""time""
""blur"",""16"",""417672""
","""event"",""trial"",""time""
""focus"",""16"",""420985""
","""event"",""trial"",""time""
""fullscreenenter"",""1"",""13576""
","
","","","","","","2426.9000000953674","<p> <b> That's right! </b> You will see many different images <i> one time each </i> in this game. </p>","","0","comp_answer","","",""
"comp-q","38","511583","0.0-15.0-0.0","7694","approach_avoid_sv1","""event"",""trial"",""time""
""fullscreenenter"",""1"",""13576""
""blur"",""16"",""417672""
""focus"",""16"",""420985""
","""event"",""trial"",""time""
""blur"",""16"",""417672""
","""event"",""trial"",""time""
""focus"",""16"",""420985""
","""event"",""trial"",""time""
""fullscreenenter"",""1"",""13576""
","
","","","","","","2027.4000000953674","<p> <b> True or False? </b> </p><p> You should use the mouse and click to make your response. </p>","","1","comp_question","","","true"
"comp-q","39","522251","0.0-15.0-1.0","7694","approach_avoid_sv1","""event"",""trial"",""time""
""fullscreenenter"",""1"",""13576""
""blur"",""16"",""417672""
""focus"",""16"",""420985""
","""event"",""trial"",""time""
""blur"",""16"",""417672""
","""event"",""trial"",""time""
""focus"",""16"",""420985""
","""event"",""trial"",""time""
""fullscreenenter"",""1"",""13576""
","
","","","","","","4140.900000095367","<p><b> That's right! </b> You should use the '1', '2', '3', and '4' keys to make your response. </p>","","0","comp_answer","","",""
"comp-q","40","530176","0.0-16.0-0.0","7694","approach_avoid_sv1","""event"",""trial"",""time""
""fullscreenenter"",""1"",""13576""
""blur"",""16"",""417672""
""focus"",""16"",""420985""
","""event"",""trial"",""time""
""blur"",""16"",""417672""
","""event"",""trial"",""time""
""focus"",""16"",""420985""
","""event"",""trial"",""time""
""fullscreenenter"",""1"",""13576""
","
","","","","","","2231.1000003814697","<p> <b> True or False? </b> </p><p> You will have as much time as you want to make each choice. </p>","","1","comp_question","","","true"
"comp-q","41","537145","0.0-16.0-1.0","7694","approach_avoid_sv1","""event"",""trial"",""time""
""fullscreenenter"",""1"",""13576""
""blur"",""16"",""417672""
""focus"",""16"",""420985""
","""event"",""trial"",""time""
""blur"",""16"",""417672""
","""event"",""trial"",""time""
""focus"",""16"",""420985""
","""event"",""trial"",""time""
""fullscreenenter"",""1"",""13576""
","
","","","","","","2256.2999997138977","<p> <b> That's right! </b> You will only have 10 seconds to make each choice. </p>","","0","comp_answer","","",""
"learning-instructions","42","550988","0.0-17.0","7694","approach_avoid_sv1","""event"",""trial"",""time""
""fullscreenenter"",""1"",""13576""
""blur"",""16"",""417672""
""focus"",""16"",""420985""
","""event"",""trial"",""time""
""blur"",""16"",""417672""
","""event"",""trial"",""time""
""focus"",""16"",""420985""
","""event"",""trial"",""time""
""fullscreenenter"",""1"",""13576""
","
","","","","","","5110.099999904633","<p> Great! You are now ready to begin the game. </p><p> Remember, use the 1, 2, 3, and 4 keys to make your responses. </p>","","0","instructions","","",""
"html-keyboard-response","43","551625","0.0-18.0-0.0","7694","approach_avoid_sv1","""event"",""trial"",""time""
""fullscreenenter"",""1"",""13576""
""blur"",""16"",""417672""
""focus"",""16"",""420985""
","""event"",""trial"",""time""
""blur"",""16"",""417672""
","""event"",""trial"",""time""
""focus"",""16"",""420985""
","""event"",""trial"",""time""
""fullscreenenter"",""1"",""13576""
","
","","","","","","null","<div style=""font-size:60px;"">+</div>","null","","fixation","","",""
"memory-trial","44","555230","0.0-18.0-1.0","7694","approach_avoid_sv1","""event"",""trial"",""time""
""fullscreenenter"",""1"",""13576""
""blur"",""16"",""417672""
""focus"",""16"",""420985""
","""event"",""trial"",""time""
""blur"",""16"",""417672""
","""event"",""trial"",""time""
""focus"",""16"",""420985""
","""event"",""trial"",""time""
""fullscreenenter"",""1"",""13576""
","
","","","","","","2588.2999997138977","images/flower6.png","","","memory_trial","4","definitely_new",""
"html-keyboard-response","45","555753","0.0-18.0-0.1","7694","approach_avoid_sv1","""event"",""trial"",""time""
""fullscreenenter"",""1"",""13576""
""blur"",""16"",""417672""
""focus"",""16"",""420985""
","""event"",""trial"",""time""
""blur"",""16"",""417672""
","""event"",""trial"",""time""
""focus"",""16"",""420985""
","""event"",""trial"",""time""
""fullscreenenter"",""1"",""13576""
","
","","","","","","null","<div style=""font-size:60px;"">+</div>","null","","fixation","","",""
"memory-trial","46","560169","0.0-18.0-1.1","7694","approach_avoid_sv1","""event"",""trial"",""time""
""fullscreenenter"",""1"",""13576""
""blur"",""16"",""417672""
""focus"",""16"",""420985""
","""event"",""trial"",""time""
""blur"",""16"",""417672""
","""event"",""trial"",""time""
""focus"",""16"",""420985""
","""event"",""trial"",""time""
""fullscreenenter"",""1"",""13576""
","
","","","","","","3393.699999809265","images/sheep5.png","","","memory_trial","1","definitely_old",""
"html-keyboard-response","47","560674","0.0-18.0-0.2","7694","approach_avoid_sv1","""event"",""trial"",""time""
""fullscreenenter"",""1"",""13576""
""blur"",""16"",""417672""
""focus"",""16"",""420985""
","""event"",""trial"",""time""
""blur"",""16"",""417672""
","""event"",""trial"",""time""
""focus"",""16"",""420985""
","""event"",""trial"",""time""
""fullscreenenter"",""1"",""13576""
","
","","","","","","null","<div style=""font-size:60px;"">+</div>","null","","fixation","","",""
"memory-trial","48","562954","0.0-18.0-1.2","7694","approach_avoid_sv1","""event"",""trial"",""time""
""fullscreenenter"",""1"",""13576""
""blur"",""16"",""417672""
""focus"",""16"",""420985""
","""event"",""trial"",""time""
""blur"",""16"",""417672""
","""event"",""trial"",""time""
""focus"",""16"",""420985""
","""event"",""trial"",""time""
""fullscreenenter"",""1"",""13576""
","
","","","","","","1262.2000002861023","images/chair2.png","","","memory_trial","4","definitely_new",""
"html-keyboard-response","49","563475","0.0-18.0-0.3","7694","approach_avoid_sv1","""event"",""trial"",""time""
""fullscreenenter"",""1"",""13576""
""blur"",""16"",""417672""
""focus"",""16"",""420985""
","""event"",""trial"",""time""
""blur"",""16"",""417672""
","""event"",""trial"",""time""
""focus"",""16"",""420985""
","""event"",""trial"",""time""
""fullscreenenter"",""1"",""13576""
","
","","","","","","null","<div style=""font-size:60px;"">+</div>","null","","fixation","","",""
"memory-trial","50","566995","0.0-18.0-1.3","7694","approach_avoid_sv1","""event"",""trial"",""time""
""fullscreenenter"",""1"",""13576""
""blur"",""16"",""417672""
""focus"",""16"",""420985""
","""event"",""trial"",""time""
""blur"",""16"",""417672""
","""event"",""trial"",""time""
""focus"",""16"",""420985""
","""event"",""trial"",""time""
""fullscreenenter"",""1"",""13576""
","
","","","","","","2513.5","images/goat5.png","","","memory_trial","2","maybe_old",""
"html-keyboard-response","51","567512","0.0-18.0-0.4","7694","approach_avoid_sv1","""event"",""trial"",""time""
""fullscreenenter"",""1"",""13576""
""blur"",""16"",""417672""
""focus"",""16"",""420985""
","""event"",""trial"",""time""
""blur"",""16"",""417672""
","""event"",""trial"",""time""
""focus"",""16"",""420985""
","""event"",""trial"",""time""
""fullscreenenter"",""1"",""13576""
","
","","","","","","null","<div style=""font-size:60px;"">+</div>","null","","fixation","","",""
"memory-trial","52","569941","0.0-18.0-1.4","7694","approach_avoid_sv1","""event"",""trial"",""time""
""fullscreenenter"",""1"",""13576""
""blur"",""16"",""417672""
""focus"",""16"",""420985""
","""event"",""trial"",""time""
""blur"",""16"",""417672""
","""event"",""trial"",""time""
""focus"",""16"",""420985""
","""event"",""trial"",""time""
""fullscreenenter"",""1"",""13576""
","
","","","","","","1406.6000003814697","images/flower4.png","","","memory_trial","1","definitely_old",""
"html-keyboard-response","53","570455","0.0-18.0-0.5","7694","approach_avoid_sv1","""event"",""trial"",""time""
""fullscreenenter"",""1"",""13576""
""blur"",""16"",""417672""
""focus"",""16"",""420985""
","""event"",""trial"",""time""
""blur"",""16"",""417672""
","""event"",""trial"",""time""
""focus"",""16"",""420985""
","""event"",""trial"",""time""
""fullscreenenter"",""1"",""13576""
","
","","","","","","null","<div style=""font-size:60px;"">+</div>","null","","fixation","","",""
"memory-trial","54","572759","0.0-18.0-1.5","7694","approach_avoid_sv1","""event"",""trial"",""time""
""fullscreenenter"",""1"",""13576""
""blur"",""16"",""417672""
""focus"",""16"",""420985""
","""event"",""trial"",""time""
""blur"",""16"",""417672""
","""event"",""trial"",""time""
""focus"",""16"",""420985""
","""event"",""trial"",""time""
""fullscreenenter"",""1"",""13576""
","
","","","","","","1290.5","images/sheep3.png","","","memory_trial","4","definitely_new",""
"html-keyboard-response","55","573274","0.0-18.0-0.6","7694","approach_avoid_sv1","""event"",""trial"",""time""
""fullscreenenter"",""1"",""13576""
""blur"",""16"",""417672""
""focus"",""16"",""420985""
","""event"",""trial"",""time""
""blur"",""16"",""417672""
","""event"",""trial"",""time""
""focus"",""16"",""420985""
","""event"",""trial"",""time""
""fullscreenenter"",""1"",""13576""
","
","","","","","","null","<div style=""font-size:60px;"">+</div>","null","","fixation","","",""
"memory-trial","56","575849","0.0-18.0-1.6","7694","approach_avoid_sv1","""event"",""trial"",""time""
""fullscreenenter"",""1"",""13576""
""blur"",""16"",""417672""
""focus"",""16"",""420985""
","""event"",""trial"",""time""
""blur"",""16"",""417672""
","""event"",""trial"",""time""
""focus"",""16"",""420985""
","""event"",""trial"",""time""
""fullscreenenter"",""1"",""13576""
","
","","","","","","1553","images/plane3.png","","","memory_trial","1","definitely_old",""
"html-keyboard-response","57","576352","0.0-18.0-0.7","7694","approach_avoid_sv1","""event"",""trial"",""time""
""fullscreenenter"",""1"",""13576""
""blur"",""16"",""417672""
""focus"",""16"",""420985""
","""event"",""trial"",""time""
""blur"",""16"",""417672""
","""event"",""trial"",""time""
""focus"",""16"",""420985""
","""event"",""trial"",""time""
""fullscreenenter"",""1"",""13576""
","
","","","","","","null","<div style=""font-size:60px;"">+</div>","null","","fixation","","",""
"memory-trial","58","578184","0.0-18.0-1.7","7694","approach_avoid_sv1","""event"",""trial"",""time""
""fullscreenenter"",""1"",""13576""
""blur"",""16"",""417672""
""focus"",""16"",""420985""
","""event"",""trial"",""time""
""blur"",""16"",""417672""
","""event"",""trial"",""time""
""focus"",""16"",""420985""
","""event"",""trial"",""time""
""fullscreenenter"",""1"",""13576""
","
","","","","","","823.4000000953674","images/bush7.png","","","memory_trial","4","definitely_new",""
"html-keyboard-response","59","578688","0.0-18.0-0.8","7694","approach_avoid_sv1","""event"",""trial"",""time""
""fullscreenenter"",""1"",""13576""
""blur"",""16"",""417672""
""focus"",""16"",""420985""
","""event"",""trial"",""time""
""blur"",""16"",""417672""
","""event"",""trial"",""time""
""focus"",""16"",""420985""
","""event"",""trial"",""time""
""fullscreenenter"",""1"",""13576""
","
","","","","","","null","<div style=""font-size:60px;"">+</div>","null","","fixation","","",""
"memory-trial","60","580889","0.0-18.0-1.8","7694","approach_avoid_sv1","""event"",""trial"",""time""
""fullscreenenter"",""1"",""13576""
""blur"",""16"",""417672""
""focus"",""16"",""420985""
","""event"",""trial"",""time""
""blur"",""16"",""417672""
","""event"",""trial"",""time""
""focus"",""16"",""420985""
","""event"",""trial"",""time""
""fullscreenenter"",""1"",""13576""
","
","","","","","","1195.8000001907349","images/rabbit1.png","","","memory_trial","4","definitely_new",""
"html-keyboard-response","61","581392","0.0-18.0-0.9","7694","approach_avoid_sv1","""event"",""trial"",""time""
""fullscreenenter"",""1"",""13576""
""blur"",""16"",""417672""
""focus"",""16"",""420985""
","""event"",""trial"",""time""
""blur"",""16"",""417672""
","""event"",""trial"",""time""
""focus"",""16"",""420985""
","""event"",""trial"",""time""
""fullscreenenter"",""1"",""13576""
","
","","","","","","null","<div style=""font-size:60px;"">+</div>","null","","fixation","","",""
"memory-trial","62","583504","0.0-18.0-1.9","7694","approach_avoid_sv1","""event"",""trial"",""time""
""fullscreenenter"",""1"",""13576""
""blur"",""16"",""417672""
""focus"",""16"",""420985""
","""event"",""trial"",""time""
""blur"",""16"",""417672""
","""event"",""trial"",""time""
""focus"",""16"",""420985""
","""event"",""trial"",""time""
""fullscreenenter"",""1"",""13576""
","
","","","","","","1102.5999999046326","images/table8.png","","","memory_trial","4","definitely_new",""
"html-keyboard-response","63","584008","0.0-18.0-0.10","7694","approach_avoid_sv1","""event"",""trial"",""time""
""fullscreenenter"",""1"",""13576""
""blur"",""16"",""417672""
""focus"",""16"",""420985""
","""event"",""trial"",""time""
""blur"",""16"",""417672""
","""event"",""trial"",""time""
""focus"",""16"",""420985""
","""event"",""trial"",""time""
""fullscreenenter"",""1"",""13576""
","
","","","","","","null","<div style=""font-size:60px;"">+</div>","null","","fixation","","",""
"memory-trial","64","585976","0.0-18.0-1.10","7694","approach_avoid_sv1","""event"",""trial"",""time""
""fullscreenenter"",""1"",""13576""
""blur"",""16"",""417672""
""focus"",""16"",""420985""
","""event"",""trial"",""time""
""blur"",""16"",""417672""
","""event"",""trial"",""time""
""focus"",""16"",""420985""
","""event"",""trial"",""time""
""fullscreenenter"",""1"",""13576""
","
","","","","","","960.9000000953674","images/truck6.png","","","memory_trial","4","definitely_new",""
"html-keyboard-response","65","586480","0.0-18.0-0.11","7694","approach_avoid_sv1","""event"",""trial"",""time""
""fullscreenenter"",""1"",""13576""
""blur"",""16"",""417672""
""focus"",""16"",""420985""
","""event"",""trial"",""time""
""blur"",""16"",""417672""
","""event"",""trial"",""time""
""focus"",""16"",""420985""
","""event"",""trial"",""time""
""fullscreenenter"",""1"",""13576""
","
","","","","","","null","<div style=""font-size:60px;"">+</div>","null","","fixation","","",""
"memory-trial","66","590145","0.0-18.0-1.11","7694","approach_avoid_sv1","""event"",""trial"",""time""
""fullscreenenter"",""1"",""13576""
""blur"",""16"",""417672""
""focus"",""16"",""420985""
","""event"",""trial"",""time""
""blur"",""16"",""417672""
","""event"",""trial"",""time""
""focus"",""16"",""420985""
","""event"",""trial"",""time""
""fullscreenenter"",""1"",""13576""
","
","","","","","","2660","images/dog1.png","","","memory_trial","2","maybe_old",""
"html-keyboard-response","67","590648","0.0-18.0-0.12","7694","approach_avoid_sv1","""event"",""trial"",""time""
""fullscreenenter"",""1"",""13576""
""blur"",""16"",""417672""
""focus"",""16"",""420985""
","""event"",""trial"",""time""
""blur"",""16"",""417672""
","""event"",""trial"",""time""
""focus"",""16"",""420985""
","""event"",""trial"",""time""
""fullscreenenter"",""1"",""13576""
","
","","","","","","null","<div style=""font-size:60px;"">+</div>","null","","fixation","","",""
"memory-trial","68","592616","0.0-18.0-1.12","7694","approach_avoid_sv1","""event"",""trial"",""time""
""fullscreenenter"",""1"",""13576""
""blur"",""16"",""417672""
""focus"",""16"",""420985""
","""event"",""trial"",""time""
""blur"",""16"",""417672""
","""event"",""trial"",""time""
""focus"",""16"",""420985""
","""event"",""trial"",""time""
""fullscreenenter"",""1"",""13576""
","
","","","","","","961.9000000953674","images/banana3.png","","","memory_trial","4","definitely_new",""
"html-keyboard-response","69","593120","0.0-18.0-0.13","7694","approach_avoid_sv1","""event"",""trial"",""time""
""fullscreenenter"",""1"",""13576""
""blur"",""16"",""417672""
""focus"",""16"",""420985""
","""event"",""trial"",""time""
""blur"",""16"",""417672""
","""event"",""trial"",""time""
""focus"",""16"",""420985""
","""event"",""trial"",""time""
""fullscreenenter"",""1"",""13576""
","
","","","","","","null","<div style=""font-size:60px;"">+</div>","null","","fixation","","",""
"memory-trial","70","596001","0.0-18.0-1.13","7694","approach_avoid_sv1","""event"",""trial"",""time""
""fullscreenenter"",""1"",""13576""
""blur"",""16"",""417672""
""focus"",""16"",""420985""
","""event"",""trial"",""time""
""blur"",""16"",""417672""
","""event"",""trial"",""time""
""focus"",""16"",""420985""
","""event"",""trial"",""time""
""fullscreenenter"",""1"",""13576""
","
","","","","","","1876.3000001907349","images/dog8.png","","","memory_trial","3","maybe_new",""
"html-keyboard-response","71","596504","0.0-18.0-0.14","7694","approach_avoid_sv1","""event"",""trial"",""time""
""fullscreenenter"",""1"",""13576""
""blur"",""16"",""417672""
""focus"",""16"",""420985""
","""event"",""trial"",""time""
""blur"",""16"",""417672""
","""event"",""trial"",""time""
""focus"",""16"",""420985""
","""event"",""trial"",""time""
""fullscreenenter"",""1"",""13576""
","
","","","","","","null","<div style=""font-size:60px;"">+</div>","null","","fixation","","",""
"memory-trial","72","598344","0.0-18.0-1.14","7694","approach_avoid_sv1","""event"",""trial"",""time""
""fullscreenenter"",""1"",""13576""
""blur"",""16"",""417672""
""focus"",""16"",""420985""
","""event"",""trial"",""time""
""blur"",""16"",""417672""
","""event"",""trial"",""time""
""focus"",""16"",""420985""
","""event"",""trial"",""time""
""fullscreenenter"",""1"",""13576""
","
","","","","","","833.5999999046326","images/tree7.png","","","memory_trial","4","definitely_new",""
"html-keyboard-response","73","598848","0.0-18.0-0.15","7694","approach_avoid_sv1","""event"",""trial"",""time""
""fullscreenenter"",""1"",""13576""
""blur"",""16"",""417672""
""focus"",""16"",""420985""
","""event"",""trial"",""time""
""blur"",""16"",""417672""
","""event"",""trial"",""time""
""focus"",""16"",""420985""
","""event"",""trial"",""time""
""fullscreenenter"",""1"",""13576""
","
","","","","","","null","<div style=""font-size:60px;"">+</div>","null","","fixation","","",""
"memory-trial","74","601136","0.0-18.0-1.15","7694","approach_avoid_sv1","""event"",""trial"",""time""
""fullscreenenter"",""1"",""13576""
""blur"",""16"",""417672""
""focus"",""16"",""420985""
","""event"",""trial"",""time""
""blur"",""16"",""417672""
","""event"",""trial"",""time""
""focus"",""16"",""420985""
","""event"",""trial"",""time""
""fullscreenenter"",""1"",""13576""
","
","","","","","","1275.2999997138977","images/truck7.png","","","memory_trial","2","maybe_old",""
"html-keyboard-response","75","601640","0.0-18.0-0.16","7694","approach_avoid_sv1","""event"",""trial"",""time""
""fullscreenenter"",""1"",""13576""
""blur"",""16"",""417672""
""focus"",""16"",""420985""
","""event"",""trial"",""time""
""blur"",""16"",""417672""
","""event"",""trial"",""time""
""focus"",""16"",""420985""
","""event"",""trial"",""time""
""fullscreenenter"",""1"",""13576""
","
","","","","","","null","<div style=""font-size:60px;"">+</div>","null","","fixation","","",""
"memory-trial","76","603761","0.0-18.0-1.16","7694","approach_avoid_sv1","""event"",""trial"",""time""
""fullscreenenter"",""1"",""13576""
""blur"",""16"",""417672""
""focus"",""16"",""420985""
","""event"",""trial"",""time""
""blur"",""16"",""417672""
","""event"",""trial"",""time""
""focus"",""16"",""420985""
","""event"",""trial"",""time""
""fullscreenenter"",""1"",""13576""
","
","","","","","","1113.4000000953674","images/plane8.png","","","memory_trial","1","definitely_old",""
"html-keyboard-response","77","604264","0.0-18.0-0.17","7694","approach_avoid_sv1","""event"",""trial"",""time""
""fullscreenenter"",""1"",""13576""
""blur"",""16"",""417672""
""focus"",""16"",""420985""
","""event"",""trial"",""time""
""blur"",""16"",""417672""
","""event"",""trial"",""time""
""focus"",""16"",""420985""
","""event"",""trial"",""time""
""fullscreenenter"",""1"",""13576""
","
","","","","","","null","<div style=""font-size:60px;"">+</div>","null","","fixation","","",""
"memory-trial","78","605881","0.0-18.0-1.17","7694","approach_avoid_sv1","""event"",""trial"",""time""
""fullscreenenter"",""1"",""13576""
""blur"",""16"",""417672""
""focus"",""16"",""420985""
","""event"",""trial"",""time""
""blur"",""16"",""417672""
","""event"",""trial"",""time""
""focus"",""16"",""420985""
","""event"",""trial"",""time""
""fullscreenenter"",""1"",""13576""
","
","","","","","","609.5999999046326","images/bed4.png","","","memory_trial","4","definitely_new",""
"html-keyboard-response","79","606384","0.0-18.0-0.18","7694","approach_avoid_sv1","""event"",""trial"",""time""
""fullscreenenter"",""1"",""13576""
""blur"",""16"",""417672""
""focus"",""16"",""420985""
","""event"",""trial"",""time""
""blur"",""16"",""417672""
","""event"",""trial"",""time""
""focus"",""16"",""420985""
","""event"",""trial"",""time""
""fullscreenenter"",""1"",""13576""
","
","","","","","","null","<div style=""font-size:60px;"">+</div>","null","","fixation","","",""
"memory-trial","80","608841","0.0-18.0-1.18","7694","approach_avoid_sv1","""event"",""trial"",""time""
""fullscreenenter"",""1"",""13576""
""blur"",""16"",""417672""
""focus"",""16"",""420985""
","""event"",""trial"",""time""
""blur"",""16"",""417672""
","""event"",""trial"",""time""
""focus"",""16"",""420985""
","""event"",""trial"",""time""
""fullscreenenter"",""1"",""13576""
","
","","","","","","1450.4000000953674","images/sofa1.png","","","memory_trial","4","definitely_new",""
"html-keyboard-response","81","609345","0.0-18.0-0.19","7694","approach_avoid_sv1","""event"",""trial"",""time""
""fullscreenenter"",""1"",""13576""
""blur"",""16"",""417672""
""focus"",""16"",""420985""
","""event"",""trial"",""time""
""blur"",""16"",""417672""
","""event"",""trial"",""time""
""focus"",""16"",""420985""
","""event"",""trial"",""time""
""fullscreenenter"",""1"",""13576""
","
","","","","","","null","<div style=""font-size:60px;"">+</div>","null","","fixation","","",""
"memory-trial","82","611833","0.0-18.0-1.19","7694","approach_avoid_sv1","""event"",""trial"",""time""
""fullscreenenter"",""1"",""13576""
""blur"",""16"",""417672""
""focus"",""16"",""420985""
","""event"",""trial"",""time""
""blur"",""16"",""417672""
","""event"",""trial"",""time""
""focus"",""16"",""420985""
","""event"",""trial"",""time""
""fullscreenenter"",""1"",""13576""
","
","","","","","","1479.1000003814697","images/straw8.png","","","memory_trial","3","maybe_new",""
"html-keyboard-response","83","612336","0.0-18.0-0.20","7694","approach_avoid_sv1","""event"",""trial"",""time""
""fullscreenenter"",""1"",""13576""
""blur"",""16"",""417672""
""focus"",""16"",""420985""
","""event"",""trial"",""time""
""blur"",""16"",""417672""
","""event"",""trial"",""time""
""focus"",""16"",""420985""
","""event"",""trial"",""time""
""fullscreenenter"",""1"",""13576""
","
","","","","","","null","<div style=""font-size:60px;"">+</div>","null","","fixation","","",""
"memory-trial","84","614329","0.0-18.0-1.20","7694","approach_avoid_sv1","""event"",""trial"",""time""
""fullscreenenter"",""1"",""13576""
""blur"",""16"",""417672""
""focus"",""16"",""420985""
","""event"",""trial"",""time""
""blur"",""16"",""417672""
","""event"",""trial"",""time""
""focus"",""16"",""420985""
","""event"",""trial"",""time""
""fullscreenenter"",""1"",""13576""
","
","","","","","","981","images/cactus7.png","","","memory_trial","4","definitely_new",""
"html-keyboard-response","85","614832","0.0-18.0-0.21","7694","approach_avoid_sv1","""event"",""trial"",""time""
""fullscreenenter"",""1"",""13576""
""blur"",""16"",""417672""
""focus"",""16"",""420985""
","""event"",""trial"",""time""
""blur"",""16"",""417672""
","""event"",""trial"",""time""
""focus"",""16"",""420985""
","""event"",""trial"",""time""
""fullscreenenter"",""1"",""13576""
","
","","","","","","null","<div style=""font-size:60px;"">+</div>","null","","fixation","","",""
"memory-trial","86","616769","0.0-18.0-1.21","7694","approach_avoid_sv1","""event"",""trial"",""time""
""fullscreenenter"",""1"",""13576""
""blur"",""16"",""417672""
""focus"",""16"",""420985""
","""event"",""trial"",""time""
""blur"",""16"",""417672""
","""event"",""trial"",""time""
""focus"",""16"",""420985""
","""event"",""trial"",""time""
""fullscreenenter"",""1"",""13576""
","
","","","","","","927.8000001907349","images/table7.png","","","memory_trial","4","definitely_new",""
"html-keyboard-response","87","617272","0.0-18.0-0.22","7694","approach_avoid_sv1","""event"",""trial"",""time""
""fullscreenenter"",""1"",""13576""
""blur"",""16"",""417672""
""focus"",""16"",""420985""
","""event"",""trial"",""time""
""blur"",""16"",""417672""
","""event"",""trial"",""time""
""focus"",""16"",""420985""
","""event"",""trial"",""time""
""fullscreenenter"",""1"",""13576""
","
","","","","","","null","<div style=""font-size:60px;"">+</div>","null","","fixation","","",""
"memory-trial","88","619498","0.0-18.0-1.22","7694","approach_avoid_sv1","""event"",""trial"",""time""
""fullscreenenter"",""1"",""13576""
""blur"",""16"",""417672""
""focus"",""16"",""420985""
","""event"",""trial"",""time""
""blur"",""16"",""417672""
","""event"",""trial"",""time""
""focus"",""16"",""420985""
","""event"",""trial"",""time""
""fullscreenenter"",""1"",""13576""
","
","","","","","","1218.5","images/sofa3.png","","","memory_trial","4","definitely_new",""
"html-keyboard-response","89","620000","0.0-18.0-0.23","7694","approach_avoid_sv1","""event"",""trial"",""time""
""fullscreenenter"",""1"",""13576""
""blur"",""16"",""417672""
""focus"",""16"",""420985""
","""event"",""trial"",""time""
""blur"",""16"",""417672""
","""event"",""trial"",""time""
""focus"",""16"",""420985""
","""event"",""trial"",""time""
""fullscreenenter"",""1"",""13576""
","
","","","","","","null","<div style=""font-size:60px;"">+</div>","null","","fixation","","",""
"memory-trial","90","622144","0.0-18.0-1.23","7694","approach_avoid_sv1","""event"",""trial"",""time""
""fullscreenenter"",""1"",""13576""
""blur"",""16"",""417672""
""focus"",""16"",""420985""
","""event"",""trial"",""time""
""blur"",""16"",""417672""
","""event"",""trial"",""time""
""focus"",""16"",""420985""
","""event"",""trial"",""time""
""fullscreenenter"",""1"",""13576""
","
","","","","","","1139.1000003814697","images/orange8.png","","","memory_trial","3","maybe_new",""
"html-keyboard-response","91","622649","0.0-18.0-0.24","7694","approach_avoid_sv1","""event"",""trial"",""time""
""fullscreenenter"",""1"",""13576""
""blur"",""16"",""417672""
""focus"",""16"",""420985""
","""event"",""trial"",""time""
""blur"",""16"",""417672""
","""event"",""trial"",""time""
""focus"",""16"",""420985""
","""event"",""trial"",""time""
""fullscreenenter"",""1"",""13576""
","
","","","","","","null","<div style=""font-size:60px;"">+</div>","null","","fixation","","",""
"memory-trial","92","625056","0.0-18.0-1.24","7694","approach_avoid_sv1","""event"",""trial"",""time""
""fullscreenenter"",""1"",""13576""
""blur"",""16"",""417672""
""focus"",""16"",""420985""
","""event"",""trial"",""time""
""blur"",""16"",""417672""
","""event"",""trial"",""time""
""focus"",""16"",""420985""
","""event"",""trial"",""time""
""fullscreenenter"",""1"",""13576""
","
","","","","","","1402.9000000953674","images/sheep1.png","","","memory_trial","3","maybe_new",""
"html-keyboard-response","93","625560","0.0-18.0-0.25","7694","approach_avoid_sv1","""event"",""trial"",""time""
""fullscreenenter"",""1"",""13576""
""blur"",""16"",""417672""
""focus"",""16"",""420985""
","""event"",""trial"",""time""
""blur"",""16"",""417672""
","""event"",""trial"",""time""
""focus"",""16"",""420985""
","""event"",""trial"",""time""
""fullscreenenter"",""1"",""13576""
","
","","","","","","null","<div style=""font-size:60px;"">+</div>","null","","fixation","","",""
"memory-trial","94","628137","0.0-18.0-1.25","7694","approach_avoid_sv1","""event"",""trial"",""time""
""fullscreenenter"",""1"",""13576""
""blur"",""16"",""417672""
""focus"",""16"",""420985""
","""event"",""trial"",""time""
""blur"",""16"",""417672""
","""event"",""trial"",""time""
""focus"",""16"",""420985""
","""event"",""trial"",""time""
""fullscreenenter"",""1"",""13576""
","
","","","","","","1572.5999999046326","images/chair8.png","","","memory_trial","3","maybe_new",""
"html-keyboard-response","95","628641","0.0-18.0-0.26","7694","approach_avoid_sv1","""event"",""trial"",""time""
""fullscreenenter"",""1"",""13576""
""blur"",""16"",""417672""
""focus"",""16"",""420985""
","""event"",""trial"",""time""
""blur"",""16"",""417672""
","""event"",""trial"",""time""
""focus"",""16"",""420985""
","""event"",""trial"",""time""
""fullscreenenter"",""1"",""13576""
","
","","","","","","null","<div style=""font-size:60px;"">+</div>","null","","fixation","","",""
"memory-trial","96","630776","0.0-18.0-1.26","7694","approach_avoid_sv1","""event"",""trial"",""time""
""fullscreenenter"",""1"",""13576""
""blur"",""16"",""417672""
""focus"",""16"",""420985""
","""event"",""trial"",""time""
""blur"",""16"",""417672""
","""event"",""trial"",""time""
""focus"",""16"",""420985""
","""event"",""trial"",""time""
""fullscreenenter"",""1"",""13576""
","
","","","","","","1130.3000001907349","images/cat3.png","","","memory_trial","1","definitely_old",""
"html-keyboard-response","97","631280","0.0-18.0-0.27","7694","approach_avoid_sv1","""event"",""trial"",""time""
""fullscreenenter"",""1"",""13576""
""blur"",""16"",""417672""
""focus"",""16"",""420985""
","""event"",""trial"",""time""
""blur"",""16"",""417672""
","""event"",""trial"",""time""
""focus"",""16"",""420985""
","""event"",""trial"",""time""
""fullscreenenter"",""1"",""13576""
","
","","","","","","null","<div style=""font-size:60px;"">+</div>","null","","fixation","","",""
"memory-trial","98","633280","0.0-18.0-1.27","7694","approach_avoid_sv1","""event"",""trial"",""time""
""fullscreenenter"",""1"",""13576""
""blur"",""16"",""417672""
""focus"",""16"",""420985""
","""event"",""trial"",""time""
""blur"",""16"",""417672""
","""event"",""trial"",""time""
""focus"",""16"",""420985""
","""event"",""trial"",""time""
""fullscreenenter"",""1"",""13576""
","
","","","","","","991.0999999046326","images/rodent4.png","","","memory_trial","1","definitely_old",""
"html-keyboard-response","99","633784","0.0-18.0-0.28","7694","approach_avoid_sv1","""event"",""trial"",""time""
""fullscreenenter"",""1"",""13576""
""blur"",""16"",""417672""
""focus"",""16"",""420985""
","""event"",""trial"",""time""
""blur"",""16"",""417672""
","""event"",""trial"",""time""
""focus"",""16"",""420985""
","""event"",""trial"",""time""
""fullscreenenter"",""1"",""13576""
","
","","","","","","null","<div style=""font-size:60px;"">+</div>","null","","fixation","","",""
"memory-trial","100","636624","0.0-18.0-1.28","7694","approach_avoid_sv1","""event"",""trial"",""time""
""fullscreenenter"",""1"",""13576""
""blur"",""16"",""417672""
""focus"",""16"",""420985""
","""event"",""trial"",""time""
""blur"",""16"",""417672""
","""event"",""trial"",""time""
""focus"",""16"",""420985""
","""event"",""trial"",""time""
""fullscreenenter"",""1"",""13576""
","
","","","","","","1834.5999999046326","images/bed6.png","","","memory_trial","3","maybe_new",""
"html-keyboard-response","101","637129","0.0-18.0-0.29","7694","approach_avoid_sv1","""event"",""trial"",""time""
""fullscreenenter"",""1"",""13576""
""blur"",""16"",""417672""
""focus"",""16"",""420985""
","""event"",""trial"",""time""
""blur"",""16"",""417672""
","""event"",""trial"",""time""
""focus"",""16"",""420985""
","""event"",""trial"",""time""
""fullscreenenter"",""1"",""13576""
","
","","","","","","null","<div style=""font-size:60px;"">+</div>","null","","fixation","","",""
"memory-trial","102","639433","0.0-18.0-1.29","7694","approach_avoid_sv1","""event"",""trial"",""time""
""fullscreenenter"",""1"",""13576""
""blur"",""16"",""417672""
""focus"",""16"",""420985""
","""event"",""trial"",""time""
""blur"",""16"",""417672""
","""event"",""trial"",""time""
""focus"",""16"",""420985""
","""event"",""trial"",""time""
""fullscreenenter"",""1"",""13576""
","
","","","","","","1298.5999999046326","images/truck4.png","","","memory_trial","4","definitely_new",""
"html-keyboard-response","103","639936","0.0-18.0-0.30","7694","approach_avoid_sv1","""event"",""trial"",""time""
""fullscreenenter"",""1"",""13576""
""blur"",""16"",""417672""
""focus"",""16"",""420985""
","""event"",""trial"",""time""
""blur"",""16"",""417672""
","""event"",""trial"",""time""
""focus"",""16"",""420985""
","""event"",""trial"",""time""
""fullscreenenter"",""1"",""13576""
","
","","","","","","null","<div style=""font-size:60px;"">+</div>","null","","fixation","","",""
"memory-trial","104","642040","0.0-18.0-1.30","7694","approach_avoid_sv1","""event"",""trial"",""time""
""fullscreenenter"",""1"",""13576""
""blur"",""16"",""417672""
""focus"",""16"",""420985""
","""event"",""trial"",""time""
""blur"",""16"",""417672""
","""event"",""trial"",""time""
""focus"",""16"",""420985""
","""event"",""trial"",""time""
""fullscreenenter"",""1"",""13576""
","
","","","","","","1097.5","images/bed5.png","","","memory_trial","2","maybe_old",""
"html-keyboard-response","105","642544","0.0-18.0-0.31","7694","approach_avoid_sv1","""event"",""trial"",""time""
""fullscreenenter"",""1"",""13576""
""blur"",""16"",""417672""
""focus"",""16"",""420985""
","""event"",""trial"",""time""
""blur"",""16"",""417672""
","""event"",""trial"",""time""
""focus"",""16"",""420985""
","""event"",""trial"",""time""
""fullscreenenter"",""1"",""13576""
","
","","","","","","null","<div style=""font-size:60px;"">+</div>","null","","fixation","","",""
"memory-trial","106","645176","0.0-18.0-1.31","7694","approach_avoid_sv1","""event"",""trial"",""time""
""fullscreenenter"",""1"",""13576""
""blur"",""16"",""417672""
""focus"",""16"",""420985""
","""event"",""trial"",""time""
""blur"",""16"",""417672""
","""event"",""trial"",""time""
""focus"",""16"",""420985""
","""event"",""trial"",""time""
""fullscreenenter"",""1"",""13576""
","
","","","","","","1623.5999999046326","images/dog2.png","","","memory_trial","4","definitely_new",""
"html-keyboard-response","107","645680","0.0-18.0-0.32","7694","approach_avoid_sv1","""event"",""trial"",""time""
""fullscreenenter"",""1"",""13576""
""blur"",""16"",""417672""
""focus"",""16"",""420985""
","""event"",""trial"",""time""
""blur"",""16"",""417672""
","""event"",""trial"",""time""
""focus"",""16"",""420985""
","""event"",""trial"",""time""
""fullscreenenter"",""1"",""13576""
","
","","","","","","null","<div style=""font-size:60px;"">+</div>","null","","fixation","","",""
"memory-trial","108","648401","0.0-18.0-1.32","7694","approach_avoid_sv1","""event"",""trial"",""time""
""fullscreenenter"",""1"",""13576""
""blur"",""16"",""417672""
""focus"",""16"",""420985""
","""event"",""trial"",""time""
""blur"",""16"",""417672""
","""event"",""trial"",""time""
""focus"",""16"",""420985""
","""event"",""trial"",""time""
""fullscreenenter"",""1"",""13576""
","
","","","","","","1716.0999999046326","images/cow3.png","","","memory_trial","4","definitely_new",""
"html-keyboard-response","109","648904","0.0-18.0-0.33","7694","approach_avoid_sv1","""event"",""trial"",""time""
""fullscreenenter"",""1"",""13576""
""blur"",""16"",""417672""
""focus"",""16"",""420985""
","""event"",""trial"",""time""
""blur"",""16"",""417672""
","""event"",""trial"",""time""
""focus"",""16"",""420985""
","""event"",""trial"",""time""
""fullscreenenter"",""1"",""13576""
","
","","","","","","null","<div style=""font-size:60px;"">+</div>","null","","fixation","","",""
"memory-trial","110","651073","0.0-18.0-1.33","7694","approach_avoid_sv1","""event"",""trial"",""time""
""fullscreenenter"",""1"",""13576""
""blur"",""16"",""417672""
""focus"",""16"",""420985""
","""event"",""trial"",""time""
""blur"",""16"",""417672""
","""event"",""trial"",""time""
""focus"",""16"",""420985""
","""event"",""trial"",""time""
""fullscreenenter"",""1"",""13576""
","
","","","","","","1163.6999998092651","images/plane2.png","","","memory_trial","4","definitely_new",""
"html-keyboard-response","111","651576","0.0-18.0-0.34","7694","approach_avoid_sv1","""event"",""trial"",""time""
""fullscreenenter"",""1"",""13576""
""blur"",""16"",""417672""
""focus"",""16"",""420985""
","""event"",""trial"",""time""
""blur"",""16"",""417672""
","""event"",""trial"",""time""
""focus"",""16"",""420985""
","""event"",""trial"",""time""
""fullscreenenter"",""1"",""13576""
","
","","","","","","null","<div style=""font-size:60px;"">+</div>","null","","fixation","","",""
"memory-trial","112","654473","0.0-18.0-1.34","7694","approach_avoid_sv1","""event"",""trial"",""time""
""fullscreenenter"",""1"",""13576""
""blur"",""16"",""417672""
""focus"",""16"",""420985""
","""event"",""trial"",""time""
""blur"",""16"",""417672""
","""event"",""trial"",""time""
""focus"",""16"",""420985""
","""event"",""trial"",""time""
""fullscreenenter"",""1"",""13576""
","
","","","","","","1888.5","images/apple4.png","","","memory_trial","4","definitely_new",""
"html-keyboard-response","113","654976","0.0-18.0-0.35","7694","approach_avoid_sv1","""event"",""trial"",""time""
""fullscreenenter"",""1"",""13576""
""blur"",""16"",""417672""
""focus"",""16"",""420985""
","""event"",""trial"",""time""
""blur"",""16"",""417672""
","""event"",""trial"",""time""
""focus"",""16"",""420985""
","""event"",""trial"",""time""
""fullscreenenter"",""1"",""13576""
","
","","","","","","null","<div style=""font-size:60px;"">+</div>","null","","fixation","","",""
"memory-trial","114","656825","0.0-18.0-1.35","7694","approach_avoid_sv1","""event"",""trial"",""time""
""fullscreenenter"",""1"",""13576""
""blur"",""16"",""417672""
""focus"",""16"",""420985""
","""event"",""trial"",""time""
""blur"",""16"",""417672""
","""event"",""trial"",""time""
""focus"",""16"",""420985""
","""event"",""trial"",""time""
""fullscreenenter"",""1"",""13576""
","
","","","","","","837.7000002861023","images/boat8.png","","","memory_trial","2","maybe_old",""
"html-keyboard-response","115","657329","0.0-18.0-0.36","7694","approach_avoid_sv1","""event"",""trial"",""time""
""fullscreenenter"",""1"",""13576""
""blur"",""16"",""417672""
""focus"",""16"",""420985""
","""event"",""trial"",""time""
""blur"",""16"",""417672""
","""event"",""trial"",""time""
""focus"",""16"",""420985""
","""event"",""trial"",""time""
""fullscreenenter"",""1"",""13576""
","
","","","","","","null","<div style=""font-size:60px;"">+</div>","null","","fixation","","",""
"memory-trial","116","659377","0.0-18.0-1.36","7694","approach_avoid_sv1","""event"",""trial"",""time""
""fullscreenenter"",""1"",""13576""
""blur"",""16"",""417672""
""focus"",""16"",""420985""
","""event"",""trial"",""time""
""blur"",""16"",""417672""
","""event"",""trial"",""time""
""focus"",""16"",""420985""
","""event"",""trial"",""time""
""fullscreenenter"",""1"",""13576""
","
","","","","","","1040.8000001907349","images/sofa4.png","","","memory_trial","4","definitely_new",""
"html-keyboard-response","117","659881","0.0-18.0-0.37","7694","approach_avoid_sv1","""event"",""trial"",""time""
""fullscreenenter"",""1"",""13576""
""blur"",""16"",""417672""
""focus"",""16"",""420985""
","""event"",""trial"",""time""
""blur"",""16"",""417672""
","""event"",""trial"",""time""
""focus"",""16"",""420985""
","""event"",""trial"",""time""
""fullscreenenter"",""1"",""13576""
","
","","","","","","null","<div style=""font-size:60px;"">+</div>","null","","fixation","","",""
"memory-trial","118","661680","0.0-18.0-1.37","7694","approach_avoid_sv1","""event"",""trial"",""time""
""fullscreenenter"",""1"",""13576""
""blur"",""16"",""417672""
""focus"",""16"",""420985""
","""event"",""trial"",""time""
""blur"",""16"",""417672""
","""event"",""trial"",""time""
""focus"",""16"",""420985""
","""event"",""trial"",""time""
""fullscreenenter"",""1"",""13576""
","
","","","","","","795.6999998092651","images/table5.png","","","memory_trial","3","maybe_new",""
"html-keyboard-response","119","662184","0.0-18.0-0.38","7694","approach_avoid_sv1","""event"",""trial"",""time""
""fullscreenenter"",""1"",""13576""
""blur"",""16"",""417672""
""focus"",""16"",""420985""
","""event"",""trial"",""time""
""blur"",""16"",""417672""
","""event"",""trial"",""time""
""focus"",""16"",""420985""
","""event"",""trial"",""time""
""fullscreenenter"",""1"",""13576""
","
","","","","","","null","<div style=""font-size:60px;"">+</div>","null","","fixation","","",""
"memory-trial","120","664488","0.0-18.0-1.38","7694","approach_avoid_sv1","""event"",""trial"",""time""
""fullscreenenter"",""1"",""13576""
""blur"",""16"",""417672""
""focus"",""16"",""420985""
","""event"",""trial"",""time""
""blur"",""16"",""417672""
","""event"",""trial"",""time""
""focus"",""16"",""420985""
","""event"",""trial"",""time""
""fullscreenenter"",""1"",""13576""
","
","","","","","","1298.4000000953674","images/bed8.png","","","memory_trial","2","maybe_old",""
"html-keyboard-response","121","664992","0.0-18.0-0.39","7694","approach_avoid_sv1","""event"",""trial"",""time""
""fullscreenenter"",""1"",""13576""
""blur"",""16"",""417672""
""focus"",""16"",""420985""
","""event"",""trial"",""time""
""blur"",""16"",""417672""
","""event"",""trial"",""time""
""focus"",""16"",""420985""
","""event"",""trial"",""time""
""fullscreenenter"",""1"",""13576""
","
","","","","","","null","<div style=""font-size:60px;"">+</div>","null","","fixation","","",""
"memory-trial","122","667944","0.0-18.0-1.39","7694","approach_avoid_sv1","""event"",""trial"",""time""
""fullscreenenter"",""1"",""13576""
""blur"",""16"",""417672""
""focus"",""16"",""420985""
","""event"",""trial"",""time""
""blur"",""16"",""417672""
","""event"",""trial"",""time""
""focus"",""16"",""420985""
","""event"",""trial"",""time""
""fullscreenenter"",""1"",""13576""
","
","","","","","","1944.8000001907349","images/cactus3.png","","","memory_trial","2","maybe_old",""
"html-keyboard-response","123","668448","0.0-18.0-0.40","7694","approach_avoid_sv1","""event"",""trial"",""time""
""fullscreenenter"",""1"",""13576""
""blur"",""16"",""417672""
""focus"",""16"",""420985""
","""event"",""trial"",""time""
""blur"",""16"",""417672""
","""event"",""trial"",""time""
""focus"",""16"",""420985""
","""event"",""trial"",""time""
""fullscreenenter"",""1"",""13576""
","
","","","","","","null","<div style=""font-size:60px;"">+</div>","null","","fixation","","",""
"memory-trial","124","670569","0.0-18.0-1.40","7694","approach_avoid_sv1","""event"",""trial"",""time""
""fullscreenenter"",""1"",""13576""
""blur"",""16"",""417672""
""focus"",""16"",""420985""
","""event"",""trial"",""time""
""blur"",""16"",""417672""
","""event"",""trial"",""time""
""focus"",""16"",""420985""
","""event"",""trial"",""time""
""fullscreenenter"",""1"",""13576""
","
","","","","","","1115.6999998092651","images/banana5.png","","","memory_trial","1","definitely_old",""
"html-keyboard-response","125","671073","0.0-18.0-0.41","7694","approach_avoid_sv1","""event"",""trial"",""time""
""fullscreenenter"",""1"",""13576""
""blur"",""16"",""417672""
""focus"",""16"",""420985""
","""event"",""trial"",""time""
""blur"",""16"",""417672""
","""event"",""trial"",""time""
""focus"",""16"",""420985""
","""event"",""trial"",""time""
""fullscreenenter"",""1"",""13576""
","
","","","","","","null","<div style=""font-size:60px;"">+</div>","null","","fixation","","",""
"memory-trial","126","672969","0.0-18.0-1.41","7694","approach_avoid_sv1","""event"",""trial"",""time""
""fullscreenenter"",""1"",""13576""
""blur"",""16"",""417672""
""focus"",""16"",""420985""
","""event"",""trial"",""time""
""blur"",""16"",""417672""
","""event"",""trial"",""time""
""focus"",""16"",""420985""
","""event"",""trial"",""time""
""fullscreenenter"",""1"",""13576""
","
","","","","","","885.7000002861023","images/tree8.png","","","memory_trial","4","definitely_new",""
"html-button-response","127","676455","0.0-18.0-2.41-0.41","7694","approach_avoid_sv1","""event"",""trial"",""time""
""fullscreenenter"",""1"",""13576""
""blur"",""16"",""417672""
""focus"",""16"",""420985""
","""event"",""trial"",""time""
""blur"",""16"",""417672""
","""event"",""trial"",""time""
""focus"",""16"",""420985""
","""event"",""trial"",""time""
""fullscreenenter"",""1"",""13576""
","
","","","","","","3484.6000003814697","<p> Take a break! </p><p> Click the button to continue. </p>","0","","break","","",""
"html-keyboard-response","128","676960","0.0-18.0-0.42","7694","approach_avoid_sv1","""event"",""trial"",""time""
""fullscreenenter"",""1"",""13576""
""blur"",""16"",""417672""
""focus"",""16"",""420985""
","""event"",""trial"",""time""
""blur"",""16"",""417672""
","""event"",""trial"",""time""
""focus"",""16"",""420985""
","""event"",""trial"",""time""
""fullscreenenter"",""1"",""13576""
","
","","","","","","null","<div style=""font-size:60px;"">+</div>","null","","fixation","","",""
"memory-trial","129","678969","0.0-18.0-1.42","7694","approach_avoid_sv1","""event"",""trial"",""time""
""fullscreenenter"",""1"",""13576""
""blur"",""16"",""417672""
""focus"",""16"",""420985""
","""event"",""trial"",""time""
""blur"",""16"",""417672""
","""event"",""trial"",""time""
""focus"",""16"",""420985""
","""event"",""trial"",""time""
""fullscreenenter"",""1"",""13576""
","
","","","","","","1002.4000000953674","images/train7.png","","","memory_trial","4","definitely_new",""
"html-keyboard-response","130","679472","0.0-18.0-0.43","7694","approach_avoid_sv1","""event"",""trial"",""time""
""fullscreenenter"",""1"",""13576""
""blur"",""16"",""417672""
""focus"",""16"",""420985""
","""event"",""trial"",""time""
""blur"",""16"",""417672""
","""event"",""trial"",""time""
""focus"",""16"",""420985""
","""event"",""trial"",""time""
""fullscreenenter"",""1"",""13576""
","
","","","","","","null","<div style=""font-size:60px;"">+</div>","null","","fixation","","",""
"memory-trial","131","681329","0.0-18.0-1.43","7694","approach_avoid_sv1","""event"",""trial"",""time""
""fullscreenenter"",""1"",""13576""
""blur"",""16"",""417672""
""focus"",""16"",""420985""
","""event"",""trial"",""time""
""blur"",""16"",""417672""
","""event"",""trial"",""time""
""focus"",""16"",""420985""
","""event"",""trial"",""time""
""fullscreenenter"",""1"",""13576""
","
","","","","","","847.6000003814697","images/goat7.png","","","memory_trial","2","maybe_old",""
"html-keyboard-response","132","681833","0.0-18.0-0.44","7694","approach_avoid_sv1","""event"",""trial"",""time""
""fullscreenenter"",""1"",""13576""
""blur"",""16"",""417672""
""focus"",""16"",""420985""
","""event"",""trial"",""time""
""blur"",""16"",""417672""
","""event"",""trial"",""time""
""focus"",""16"",""420985""
","""event"",""trial"",""time""
""fullscreenenter"",""1"",""13576""
","
","","","","","","null","<div style=""font-size:60px;"">+</div>","null","","fixation","","",""
"memory-trial","133","683681","0.0-18.0-1.44","7694","approach_avoid_sv1","""event"",""trial"",""time""
""fullscreenenter"",""1"",""13576""
""blur"",""16"",""417672""
""focus"",""16"",""420985""
","""event"",""trial"",""time""
""blur"",""16"",""417672""
","""event"",""trial"",""time""
""focus"",""16"",""420985""
","""event"",""trial"",""time""
""fullscreenenter"",""1"",""13576""
","
","","","","","","836.5999999046326","images/cow4.png","","","memory_trial","4","definitely_new",""
"html-keyboard-response","134","684185","0.0-18.0-0.45","7694","approach_avoid_sv1","""event"",""trial"",""time""
""fullscreenenter"",""1"",""13576""
""blur"",""16"",""417672""
""focus"",""16"",""420985""
","""event"",""trial"",""time""
""blur"",""16"",""417672""
","""event"",""trial"",""time""
""focus"",""16"",""420985""
","""event"",""trial"",""time""
""fullscreenenter"",""1"",""13576""
","
","","","","","","null","<div style=""font-size:60px;"">+</div>","null","","fixation","","",""
"memory-trial","135","686225","0.0-18.0-1.45","7694","approach_avoid_sv1","""event"",""trial"",""time""
""fullscreenenter"",""1"",""13576""
""blur"",""16"",""417672""
""focus"",""16"",""420985""
","""event"",""trial"",""time""
""blur"",""16"",""417672""
","""event"",""trial"",""time""
""focus"",""16"",""420985""
","""event"",""trial"",""time""
""fullscreenenter"",""1"",""13576""
","
","","","","","","1032","images/flower8.png","","","memory_trial","2","maybe_old",""
"html-keyboard-response","136","686729","0.0-18.0-0.46","7694","approach_avoid_sv1","""event"",""trial"",""time""
""fullscreenenter"",""1"",""13576""
""blur"",""16"",""417672""
""focus"",""16"",""420985""
","""event"",""trial"",""time""
""blur"",""16"",""417672""
","""event"",""trial"",""time""
""focus"",""16"",""420985""
","""event"",""trial"",""time""
""fullscreenenter"",""1"",""13576""
","
","","","","","","null","<div style=""font-size:60px;"">+</div>","null","","fixation","","",""
"memory-trial","137","688512","0.0-18.0-1.46","7694","approach_avoid_sv1","""event"",""trial"",""time""
""fullscreenenter"",""1"",""13576""
""blur"",""16"",""417672""
""focus"",""16"",""420985""
","""event"",""trial"",""time""
""blur"",""16"",""417672""
","""event"",""trial"",""time""
""focus"",""16"",""420985""
","""event"",""trial"",""time""
""fullscreenenter"",""1"",""13576""
","
","","","","","","774","images/cow7.png","","","memory_trial","4","definitely_new",""
"html-keyboard-response","138","689017","0.0-18.0-0.47","7694","approach_avoid_sv1","""event"",""trial"",""time""
""fullscreenenter"",""1"",""13576""
""blur"",""16"",""417672""
""focus"",""16"",""420985""
","""event"",""trial"",""time""
""blur"",""16"",""417672""
","""event"",""trial"",""time""
""focus"",""16"",""420985""
","""event"",""trial"",""time""
""fullscreenenter"",""1"",""13576""
","
","","","","","","null","<div style=""font-size:60px;"">+</div>","null","","fixation","","",""
"memory-trial","139","690921","0.0-18.0-1.47","7694","approach_avoid_sv1","""event"",""trial"",""time""
""fullscreenenter"",""1"",""13576""
""blur"",""16"",""417672""
""focus"",""16"",""420985""
","""event"",""trial"",""time""
""blur"",""16"",""417672""
","""event"",""trial"",""time""
""focus"",""16"",""420985""
","""event"",""trial"",""time""
""fullscreenenter"",""1"",""13576""
","
","","","","","","894.5999999046326","images/boat7.png","","","memory_trial","1","definitely_old",""
"html-keyboard-response","140","691424","0.0-18.0-0.48","7694","approach_avoid_sv1","""event"",""trial"",""time""
""fullscreenenter"",""1"",""13576""
""blur"",""16"",""417672""
""focus"",""16"",""420985""
","""event"",""trial"",""time""
""blur"",""16"",""417672""
","""event"",""trial"",""time""
""focus"",""16"",""420985""
","""event"",""trial"",""time""
""fullscreenenter"",""1"",""13576""
","
","","","","","","null","<div style=""font-size:60px;"">+</div>","null","","fixation","","",""
"memory-trial","141","693280","0.0-18.0-1.48","7694","approach_avoid_sv1","""event"",""trial"",""time""
""fullscreenenter"",""1"",""13576""
""blur"",""16"",""417672""
""focus"",""16"",""420985""
","""event"",""trial"",""time""
""blur"",""16"",""417672""
","""event"",""trial"",""time""
""focus"",""16"",""420985""
","""event"",""trial"",""time""
""fullscreenenter"",""1"",""13576""
","
","","","","","","849.8999996185303","images/rabbit5.png","","","memory_trial","2","maybe_old",""
"html-keyboard-response","142","693785","0.0-18.0-0.49","7694","approach_avoid_sv1","""event"",""trial"",""time""
""fullscreenenter"",""1"",""13576""
""blur"",""16"",""417672""
""focus"",""16"",""420985""
","""event"",""trial"",""time""
""blur"",""16"",""417672""
","""event"",""trial"",""time""
""focus"",""16"",""420985""
","""event"",""trial"",""time""
""fullscreenenter"",""1"",""13576""
","
","","","","","","null","<div style=""font-size:60px;"">+</div>","null","","fixation","","",""
"memory-trial","143","695697","0.0-18.0-1.49","7694","approach_avoid_sv1","""event"",""trial"",""time""
""fullscreenenter"",""1"",""13576""
""blur"",""16"",""417672""
""focus"",""16"",""420985""
","""event"",""trial"",""time""
""blur"",""16"",""417672""
","""event"",""trial"",""time""
""focus"",""16"",""420985""
","""event"",""trial"",""time""
""fullscreenenter"",""1"",""13576""
","
","","","","","","906.9000000953674","images/rodent2.png","","","memory_trial","2","maybe_old",""
"html-keyboard-response","144","696200","0.0-18.0-0.50","7694","approach_avoid_sv1","""event"",""trial"",""time""
""fullscreenenter"",""1"",""13576""
""blur"",""16"",""417672""
""focus"",""16"",""420985""
","""event"",""trial"",""time""
""blur"",""16"",""417672""
","""event"",""trial"",""time""
""focus"",""16"",""420985""
","""event"",""trial"",""time""
""fullscreenenter"",""1"",""13576""
","
","","","","","","null","<div style=""font-size:60px;"">+</div>","null","","fixation","","",""
"memory-trial","145","698761","0.0-18.0-1.50","7694","approach_avoid_sv1","""event"",""trial"",""time""
""fullscreenenter"",""1"",""13576""
""blur"",""16"",""417672""
""focus"",""16"",""420985""
","""event"",""trial"",""time""
""blur"",""16"",""417672""
","""event"",""trial"",""time""
""focus"",""16"",""420985""
","""event"",""trial"",""time""
""fullscreenenter"",""1"",""13576""
","
","","","","","","1548.9000000953674","images/goat8.png","","","memory_trial","4","definitely_new",""
"html-keyboard-response","146","699264","0.0-18.0-0.51","7694","approach_avoid_sv1","""event"",""trial"",""time""
""fullscreenenter"",""1"",""13576""
""blur"",""16"",""417672""
""focus"",""16"",""420985""
","""event"",""trial"",""time""
""blur"",""16"",""417672""
","""event"",""trial"",""time""
""focus"",""16"",""420985""
","""event"",""trial"",""time""
""fullscreenenter"",""1"",""13576""
","
","","","","","","null","<div style=""font-size:60px;"">+</div>","null","","fixation","","",""
"memory-trial","147","701856","0.0-18.0-1.51","7694","approach_avoid_sv1","""event"",""trial"",""time""
""fullscreenenter"",""1"",""13576""
""blur"",""16"",""417672""
""focus"",""16"",""420985""
","""event"",""trial"",""time""
""blur"",""16"",""417672""
","""event"",""trial"",""time""
""focus"",""16"",""420985""
","""event"",""trial"",""time""
""fullscreenenter"",""1"",""13576""
","
","","","","","","1583.2999997138977","images/flower7.png","","","memory_trial","3","maybe_new",""
"html-keyboard-response","148","702360","0.0-18.0-0.52","7694","approach_avoid_sv1","""event"",""trial"",""time""
""fullscreenenter"",""1"",""13576""
""blur"",""16"",""417672""
""focus"",""16"",""420985""
","""event"",""trial"",""time""
""blur"",""16"",""417672""
","""event"",""trial"",""time""
""focus"",""16"",""420985""
","""event"",""trial"",""time""
""fullscreenenter"",""1"",""13576""
","
","","","","","","null","<div style=""font-size:60px;"">+</div>","null","","fixation","","",""
"memory-trial","149","704473","0.0-18.0-1.52","7694","approach_avoid_sv1","""event"",""trial"",""time""
""fullscreenenter"",""1"",""13576""
""blur"",""16"",""417672""
""focus"",""16"",""420985""
","""event"",""trial"",""time""
""blur"",""16"",""417672""
","""event"",""trial"",""time""
""focus"",""16"",""420985""
","""event"",""trial"",""time""
""fullscreenenter"",""1"",""13576""
","
","","","","","","1103.5","images/rodent5.png","","","memory_trial","1","definitely_old",""
"html-keyboard-response","150","704977","0.0-18.0-0.53","7694","approach_avoid_sv1","""event"",""trial"",""time""
""fullscreenenter"",""1"",""13576""
""blur"",""16"",""417672""
""focus"",""16"",""420985""
","""event"",""trial"",""time""
""blur"",""16"",""417672""
","""event"",""trial"",""time""
""focus"",""16"",""420985""
","""event"",""trial"",""time""
""fullscreenenter"",""1"",""13576""
","
","","","","","","null","<div style=""font-size:60px;"">+</div>","null","","fixation","","",""
"memory-trial","151","707945","0.0-18.0-1.53","7694","approach_avoid_sv1","""event"",""trial"",""time""
""fullscreenenter"",""1"",""13576""
""blur"",""16"",""417672""
""focus"",""16"",""420985""
","""event"",""trial"",""time""
""blur"",""16"",""417672""
","""event"",""trial"",""time""
""focus"",""16"",""420985""
","""event"",""trial"",""time""
""fullscreenenter"",""1"",""13576""
","
","","","","","","1962.7999997138977","images/cactus1.png","","","memory_trial","3","maybe_new",""
"html-keyboard-response","152","708449","0.0-18.0-0.54","7694","approach_avoid_sv1","""event"",""trial"",""time""
""fullscreenenter"",""1"",""13576""
""blur"",""16"",""417672""
""focus"",""16"",""420985""
","""event"",""trial"",""time""
""blur"",""16"",""417672""
","""event"",""trial"",""time""
""focus"",""16"",""420985""
","""event"",""trial"",""time""
""fullscreenenter"",""1"",""13576""
","
","","","","","","null","<div style=""font-size:60px;"">+</div>","null","","fixation","","",""
"memory-trial","153","710792","0.0-18.0-1.54","7694","approach_avoid_sv1","""event"",""trial"",""time""
""fullscreenenter"",""1"",""13576""
""blur"",""16"",""417672""
""focus"",""16"",""420985""
","""event"",""trial"",""time""
""blur"",""16"",""417672""
","""event"",""trial"",""time""
""focus"",""16"",""420985""
","""event"",""trial"",""time""
""fullscreenenter"",""1"",""13576""
","
","","","","","","1337.6999998092651","images/tree1.png","","","memory_trial","1","definitely_old",""
"html-keyboard-response","154","711298","0.0-18.0-0.55","7694","approach_avoid_sv1","""event"",""trial"",""time""
""fullscreenenter"",""1"",""13576""
""blur"",""16"",""417672""
""focus"",""16"",""420985""
","""event"",""trial"",""time""
""blur"",""16"",""417672""
","""event"",""trial"",""time""
""focus"",""16"",""420985""
","""event"",""trial"",""time""
""fullscreenenter"",""1"",""13576""
","
","","","","","","null","<div style=""font-size:60px;"">+</div>","null","","fixation","","",""
"memory-trial","155","713288","0.0-18.0-1.55","7694","approach_avoid_sv1","""event"",""trial"",""time""
""fullscreenenter"",""1"",""13576""
""blur"",""16"",""417672""
""focus"",""16"",""420985""
","""event"",""trial"",""time""
""blur"",""16"",""417672""
","""event"",""trial"",""time""
""focus"",""16"",""420985""
","""event"",""trial"",""time""
""fullscreenenter"",""1"",""13576""
","
","","","","","","982.9000000953674","images/plane5.png","","","memory_trial","2","maybe_old",""
"html-keyboard-response","156","713792","0.0-18.0-0.56","7694","approach_avoid_sv1","""event"",""trial"",""time""
""fullscreenenter"",""1"",""13576""
""blur"",""16"",""417672""
""focus"",""16"",""420985""
","""event"",""trial"",""time""
""blur"",""16"",""417672""
","""event"",""trial"",""time""
""focus"",""16"",""420985""
","""event"",""trial"",""time""
""fullscreenenter"",""1"",""13576""
","
","","","","","","null","<div style=""font-size:60px;"">+</div>","null","","fixation","","",""
"memory-trial","157","716009","0.0-18.0-1.56","7694","approach_avoid_sv1","""event"",""trial"",""time""
""fullscreenenter"",""1"",""13576""
""blur"",""16"",""417672""
""focus"",""16"",""420985""
","""event"",""trial"",""time""
""blur"",""16"",""417672""
","""event"",""trial"",""time""
""focus"",""16"",""420985""
","""event"",""trial"",""time""
""fullscreenenter"",""1"",""13576""
","
","","","","","","1206.9000000953674","images/goat1.png","","","memory_trial","4","definitely_new",""
"html-keyboard-response","158","716512","0.0-18.0-0.57","7694","approach_avoid_sv1","""event"",""trial"",""time""
""fullscreenenter"",""1"",""13576""
""blur"",""16"",""417672""
""focus"",""16"",""420985""
","""event"",""trial"",""time""
""blur"",""16"",""417672""
","""event"",""trial"",""time""
""focus"",""16"",""420985""
","""event"",""trial"",""time""
""fullscreenenter"",""1"",""13576""
","
","","","","","","null","<div style=""font-size:60px;"">+</div>","null","","fixation","","",""
"memory-trial","159","718745","0.0-18.0-1.57","7694","approach_avoid_sv1","""event"",""trial"",""time""
""fullscreenenter"",""1"",""13576""
""blur"",""16"",""417672""
""focus"",""16"",""420985""
","""event"",""trial"",""time""
""blur"",""16"",""417672""
","""event"",""trial"",""time""
""focus"",""16"",""420985""
","""event"",""trial"",""time""
""fullscreenenter"",""1"",""13576""
","
","","","","","","1226.3000001907349","images/horse7.png","","","memory_trial","4","definitely_new",""
"html-keyboard-response","160","719248","0.0-18.0-0.58","7694","approach_avoid_sv1","""event"",""trial"",""time""
""fullscreenenter"",""1"",""13576""
""blur"",""16"",""417672""
""focus"",""16"",""420985""
","""event"",""trial"",""time""
""blur"",""16"",""417672""
","""event"",""trial"",""time""
""focus"",""16"",""420985""
","""event"",""trial"",""time""
""fullscreenenter"",""1"",""13576""
","
","","","","","","null","<div style=""font-size:60px;"">+</div>","null","","fixation","","",""
"memory-trial","161","721000","0.0-18.0-1.58","7694","approach_avoid_sv1","""event"",""trial"",""time""
""fullscreenenter"",""1"",""13576""
""blur"",""16"",""417672""
""focus"",""16"",""420985""
","""event"",""trial"",""time""
""blur"",""16"",""417672""
","""event"",""trial"",""time""
""focus"",""16"",""420985""
","""event"",""trial"",""time""
""fullscreenenter"",""1"",""13576""
","
","","","","","","748.7999997138977","images/train6.png","","","memory_trial","4","definitely_new",""
"html-keyboard-response","162","721505","0.0-18.0-0.59","7694","approach_avoid_sv1","""event"",""trial"",""time""
""fullscreenenter"",""1"",""13576""
""blur"",""16"",""417672""
""focus"",""16"",""420985""
","""event"",""trial"",""time""
""blur"",""16"",""417672""
","""event"",""trial"",""time""
""focus"",""16"",""420985""
","""event"",""trial"",""time""
""fullscreenenter"",""1"",""13576""
","
","","","","","","null","<div style=""font-size:60px;"">+</div>","null","","fixation","","",""
"memory-trial","163","724081","0.0-18.0-1.59","7694","approach_avoid_sv1","""event"",""trial"",""time""
""fullscreenenter"",""1"",""13576""
""blur"",""16"",""417672""
""focus"",""16"",""420985""
","""event"",""trial"",""time""
""blur"",""16"",""417672""
","""event"",""trial"",""time""
""focus"",""16"",""420985""
","""event"",""trial"",""time""
""fullscreenenter"",""1"",""13576""
","
","","","","","","1569.3000001907349","images/boat5.png","","","memory_trial","3","maybe_new",""
"html-keyboard-response","164","724585","0.0-18.0-0.60","7694","approach_avoid_sv1","""event"",""trial"",""time""
""fullscreenenter"",""1"",""13576""
""blur"",""16"",""417672""
""focus"",""16"",""420985""
","""event"",""trial"",""time""
""blur"",""16"",""417672""
","""event"",""trial"",""time""
""focus"",""16"",""420985""
","""event"",""trial"",""time""
""fullscreenenter"",""1"",""13576""
","
","","","","","","null","<div style=""font-size:60px;"">+</div>","null","","fixation","","",""
"memory-trial","165","727320","0.0-18.0-1.60","7694","approach_avoid_sv1","""event"",""trial"",""time""
""fullscreenenter"",""1"",""13576""
""blur"",""16"",""417672""
""focus"",""16"",""420985""
","""event"",""trial"",""time""
""blur"",""16"",""417672""
","""event"",""trial"",""time""
""focus"",""16"",""420985""
","""event"",""trial"",""time""
""fullscreenenter"",""1"",""13576""
","
","","","","","","1725.2000002861023","images/dog6.png","","","memory_trial","1","definitely_old",""
"html-keyboard-response","166","727824","0.0-18.0-0.61","7694","approach_avoid_sv1","""event"",""trial"",""time""
""fullscreenenter"",""1"",""13576""
""blur"",""16"",""417672""
""focus"",""16"",""420985""
","""event"",""trial"",""time""
""blur"",""16"",""417672""
","""event"",""trial"",""time""
""focus"",""16"",""420985""
","""event"",""trial"",""time""
""fullscreenenter"",""1"",""13576""
","
","","","","","","null","<div style=""font-size:60px;"">+</div>","null","","fixation","","",""
"memory-trial","167","729505","0.0-18.0-1.61","7694","approach_avoid_sv1","""event"",""trial"",""time""
""fullscreenenter"",""1"",""13576""
""blur"",""16"",""417672""
""focus"",""16"",""420985""
","""event"",""trial"",""time""
""blur"",""16"",""417672""
","""event"",""trial"",""time""
""focus"",""16"",""420985""
","""event"",""trial"",""time""
""fullscreenenter"",""1"",""13576""
","
","","","","","","673.8000001907349","images/train3.png","","","memory_trial","4","definitely_new",""
"html-keyboard-response","168","730008","0.0-18.0-0.62","7694","approach_avoid_sv1","""event"",""trial"",""time""
""fullscreenenter"",""1"",""13576""
""blur"",""16"",""417672""
""focus"",""16"",""420985""
","""event"",""trial"",""time""
""blur"",""16"",""417672""
","""event"",""trial"",""time""
""focus"",""16"",""420985""
","""event"",""trial"",""time""
""fullscreenenter"",""1"",""13576""
","
","","","","","","null","<div style=""font-size:60px;"">+</div>","null","","fixation","","",""
"memory-trial","169","731993","0.0-18.0-1.62","7694","approach_avoid_sv1","""event"",""trial"",""time""
""fullscreenenter"",""1"",""13576""
""blur"",""16"",""417672""
""focus"",""16"",""420985""
","""event"",""trial"",""time""
""blur"",""16"",""417672""
","""event"",""trial"",""time""
""focus"",""16"",""420985""
","""event"",""trial"",""time""
""fullscreenenter"",""1"",""13576""
","
","","","","","","973.9000000953674","images/sofa5.png","","","memory_trial","2","maybe_old",""
"html-keyboard-response","170","732496","0.0-18.0-0.63","7694","approach_avoid_sv1","""event"",""trial"",""time""
""fullscreenenter"",""1"",""13576""
""blur"",""16"",""417672""
""focus"",""16"",""420985""
","""event"",""trial"",""time""
""blur"",""16"",""417672""
","""event"",""trial"",""time""
""focus"",""16"",""420985""
","""event"",""trial"",""time""
""fullscreenenter"",""1"",""13576""
","
","","","","","","null","<div style=""font-size:60px;"">+</div>","null","","fixation","","",""
"memory-trial","171","735041","0.0-18.0-1.63","7694","approach_avoid_sv1","""event"",""trial"",""time""
""fullscreenenter"",""1"",""13576""
""blur"",""16"",""417672""
""focus"",""16"",""420985""
","""event"",""trial"",""time""
""blur"",""16"",""417672""
","""event"",""trial"",""time""
""focus"",""16"",""420985""
","""event"",""trial"",""time""
""fullscreenenter"",""1"",""13576""
","
","","","","","","1536.7000002861023","images/cactus2.png","","","memory_trial","2","maybe_old",""
"html-keyboard-response","172","735545","0.0-18.0-0.64","7694","approach_avoid_sv1","""event"",""trial"",""time""
""fullscreenenter"",""1"",""13576""
""blur"",""16"",""417672""
""focus"",""16"",""420985""
","""event"",""trial"",""time""
""blur"",""16"",""417672""
","""event"",""trial"",""time""
""focus"",""16"",""420985""
","""event"",""trial"",""time""
""fullscreenenter"",""1"",""13576""
","
","","","","","","null","<div style=""font-size:60px;"">+</div>","null","","fixation","","",""
"memory-trial","173","737993","0.0-18.0-1.64","7694","approach_avoid_sv1","""event"",""trial"",""time""
""fullscreenenter"",""1"",""13576""
""blur"",""16"",""417672""
""focus"",""16"",""420985""
","""event"",""trial"",""time""
""blur"",""16"",""417672""
","""event"",""trial"",""time""
""focus"",""16"",""420985""
","""event"",""trial"",""time""
""fullscreenenter"",""1"",""13576""
","
","","","","","","1446.0999999046326","images/tree3.png","","","memory_trial","2","maybe_old",""
"html-keyboard-response","174","738496","0.0-18.0-0.65","7694","approach_avoid_sv1","""event"",""trial"",""time""
""fullscreenenter"",""1"",""13576""
""blur"",""16"",""417672""
""focus"",""16"",""420985""
","""event"",""trial"",""time""
""blur"",""16"",""417672""
","""event"",""trial"",""time""
""focus"",""16"",""420985""
","""event"",""trial"",""time""
""fullscreenenter"",""1"",""13576""
","
","","","","","","null","<div style=""font-size:60px;"">+</div>","null","","fixation","","",""
"memory-trial","175","740856","0.0-18.0-1.65","7694","approach_avoid_sv1","""event"",""trial"",""time""
""fullscreenenter"",""1"",""13576""
""blur"",""16"",""417672""
""focus"",""16"",""420985""
","""event"",""trial"",""time""
""blur"",""16"",""417672""
","""event"",""trial"",""time""
""focus"",""16"",""420985""
","""event"",""trial"",""time""
""fullscreenenter"",""1"",""13576""
","
","","","","","","1347.8000001907349","images/banana6.png","","","memory_trial","1","definitely_old",""
"html-keyboard-response","176","741368","0.0-18.0-0.66","7694","approach_avoid_sv1","""event"",""trial"",""time""
""fullscreenenter"",""1"",""13576""
""blur"",""16"",""417672""
""focus"",""16"",""420985""
","""event"",""trial"",""time""
""blur"",""16"",""417672""
","""event"",""trial"",""time""
""focus"",""16"",""420985""
","""event"",""trial"",""time""
""fullscreenenter"",""1"",""13576""
","
","","","","","","null","<div style=""font-size:60px;"">+</div>","null","","fixation","","",""
"memory-trial","177","743713","0.0-18.0-1.66","7694","approach_avoid_sv1","""event"",""trial"",""time""
""fullscreenenter"",""1"",""13576""
""blur"",""16"",""417672""
""focus"",""16"",""420985""
","""event"",""trial"",""time""
""blur"",""16"",""417672""
","""event"",""trial"",""time""
""focus"",""16"",""420985""
","""event"",""trial"",""time""
""fullscreenenter"",""1"",""13576""
","
","","","","","","1334","images/horse5.png","","","memory_trial","4","definitely_new",""
"html-keyboard-response","178","744216","0.0-18.0-0.67","7694","approach_avoid_sv1","""event"",""trial"",""time""
""fullscreenenter"",""1"",""13576""
""blur"",""16"",""417672""
""focus"",""16"",""420985""
","""event"",""trial"",""time""
""blur"",""16"",""417672""
","""event"",""trial"",""time""
""focus"",""16"",""420985""
","""event"",""trial"",""time""
""fullscreenenter"",""1"",""13576""
","
","","","","","","null","<div style=""font-size:60px;"">+</div>","null","","fixation","","",""
"memory-trial","179","746408","0.0-18.0-1.67","7694","approach_avoid_sv1","""event"",""trial"",""time""
""fullscreenenter"",""1"",""13576""
""blur"",""16"",""417672""
""focus"",""16"",""420985""
","""event"",""trial"",""time""
""blur"",""16"",""417672""
","""event"",""trial"",""time""
""focus"",""16"",""420985""
","""event"",""trial"",""time""
""fullscreenenter"",""1"",""13576""
","
","","","","","","1183.0999999046326","images/straw3.png","","","memory_trial","3","maybe_new",""
"html-keyboard-response","180","746912","0.0-18.0-0.68","7694","approach_avoid_sv1","""event"",""trial"",""time""
""fullscreenenter"",""1"",""13576""
""blur"",""16"",""417672""
""focus"",""16"",""420985""
","""event"",""trial"",""time""
""blur"",""16"",""417672""
","""event"",""trial"",""time""
""focus"",""16"",""420985""
","""event"",""trial"",""time""
""fullscreenenter"",""1"",""13576""
","
","","","","","","null","<div style=""font-size:60px;"">+</div>","null","","fixation","","",""
"memory-trial","181","748736","0.0-18.0-1.68","7694","approach_avoid_sv1","""event"",""trial"",""time""
""fullscreenenter"",""1"",""13576""
""blur"",""16"",""417672""
""focus"",""16"",""420985""
","""event"",""trial"",""time""
""blur"",""16"",""417672""
","""event"",""trial"",""time""
""focus"",""16"",""420985""
","""event"",""trial"",""time""
""fullscreenenter"",""1"",""13576""
","
","","","","","","816.7999997138977","images/train8.png","","","memory_trial","4","definitely_new",""
"html-keyboard-response","182","749240","0.0-18.0-0.69","7694","approach_avoid_sv1","""event"",""trial"",""time""
""fullscreenenter"",""1"",""13576""
""blur"",""16"",""417672""
""focus"",""16"",""420985""
","""event"",""trial"",""time""
""blur"",""16"",""417672""
","""event"",""trial"",""time""
""focus"",""16"",""420985""
","""event"",""trial"",""time""
""fullscreenenter"",""1"",""13576""
","
","","","","","","null","<div style=""font-size:60px;"">+</div>","null","","fixation","","",""
"memory-trial","183","751648","0.0-18.0-1.69","7694","approach_avoid_sv1","""event"",""trial"",""time""
""fullscreenenter"",""1"",""13576""
""blur"",""16"",""417672""
""focus"",""16"",""420985""
","""event"",""trial"",""time""
""blur"",""16"",""417672""
","""event"",""trial"",""time""
""focus"",""16"",""420985""
","""event"",""trial"",""time""
""fullscreenenter"",""1"",""13576""
","
","","","","","","1402.2999997138977","images/tree6.png","","","memory_trial","2","maybe_old",""
"html-keyboard-response","184","752152","0.0-18.0-0.70","7694","approach_avoid_sv1","""event"",""trial"",""time""
""fullscreenenter"",""1"",""13576""
""blur"",""16"",""417672""
""focus"",""16"",""420985""
","""event"",""trial"",""time""
""blur"",""16"",""417672""
","""event"",""trial"",""time""
""focus"",""16"",""420985""
","""event"",""trial"",""time""
""fullscreenenter"",""1"",""13576""
","
","","","","","","null","<div style=""font-size:60px;"">+</div>","null","","fixation","","",""
"memory-trial","185","753816","0.0-18.0-1.70","7694","approach_avoid_sv1","""event"",""trial"",""time""
""fullscreenenter"",""1"",""13576""
""blur"",""16"",""417672""
""focus"",""16"",""420985""
","""event"",""trial"",""time""
""blur"",""16"",""417672""
","""event"",""trial"",""time""
""focus"",""16"",""420985""
","""event"",""trial"",""time""
""fullscreenenter"",""1"",""13576""
","
","","","","","","656.3999996185303","images/cat5.png","","","memory_trial","1","definitely_old",""
"html-keyboard-response","186","754320","0.0-18.0-0.71","7694","approach_avoid_sv1","""event"",""trial"",""time""
""fullscreenenter"",""1"",""13576""
""blur"",""16"",""417672""
""focus"",""16"",""420985""
","""event"",""trial"",""time""
""blur"",""16"",""417672""
","""event"",""trial"",""time""
""focus"",""16"",""420985""
","""event"",""trial"",""time""
""fullscreenenter"",""1"",""13576""
","
","","","","","","null","<div style=""font-size:60px;"">+</div>","null","","fixation","","",""
"memory-trial","187","755904","0.0-18.0-1.71","7694","approach_avoid_sv1","""event"",""trial"",""time""
""fullscreenenter"",""1"",""13576""
""blur"",""16"",""417672""
""focus"",""16"",""420985""
","""event"",""trial"",""time""
""blur"",""16"",""417672""
","""event"",""trial"",""time""
""focus"",""16"",""420985""
","""event"",""trial"",""time""
""fullscreenenter"",""1"",""13576""
","
","","","","","","579.3000001907349","images/sheep6.png","","","memory_trial","2","maybe_old",""
"html-keyboard-response","188","756408","0.0-18.0-0.72","7694","approach_avoid_sv1","""event"",""trial"",""time""
""fullscreenenter"",""1"",""13576""
""blur"",""16"",""417672""
""focus"",""16"",""420985""
","""event"",""trial"",""time""
""blur"",""16"",""417672""
","""event"",""trial"",""time""
""focus"",""16"",""420985""
","""event"",""trial"",""time""
""fullscreenenter"",""1"",""13576""
","
","","","","","","null","<div style=""font-size:60px;"">+</div>","null","","fixation","","",""
"memory-trial","189","758440","0.0-18.0-1.72","7694","approach_avoid_sv1","""event"",""trial"",""time""
""fullscreenenter"",""1"",""13576""
""blur"",""16"",""417672""
""focus"",""16"",""420985""
","""event"",""trial"",""time""
""blur"",""16"",""417672""
","""event"",""trial"",""time""
""focus"",""16"",""420985""
","""event"",""trial"",""time""
""fullscreenenter"",""1"",""13576""
","
","","","","","","1029.6000003814697","images/plane4.png","","","memory_trial","3","maybe_new",""
"html-keyboard-response","190","758944","0.0-18.0-0.73","7694","approach_avoid_sv1","""event"",""trial"",""time""
""fullscreenenter"",""1"",""13576""
""blur"",""16"",""417672""
""focus"",""16"",""420985""
","""event"",""trial"",""time""
""blur"",""16"",""417672""
","""event"",""trial"",""time""
""focus"",""16"",""420985""
","""event"",""trial"",""time""
""fullscreenenter"",""1"",""13576""
","
","","","","","","null","<div style=""font-size:60px;"">+</div>","null","","fixation","","",""
"memory-trial","191","761113","0.0-18.0-1.73","7694","approach_avoid_sv1","""event"",""trial"",""time""
""fullscreenenter"",""1"",""13576""
""blur"",""16"",""417672""
""focus"",""16"",""420985""
","""event"",""trial"",""time""
""blur"",""16"",""417672""
","""event"",""trial"",""time""
""focus"",""16"",""420985""
","""event"",""trial"",""time""
""fullscreenenter"",""1"",""13576""
","
","","","","","","1159","images/straw5.png","","","memory_trial","2","maybe_old",""
"html-keyboard-response","192","761616","0.0-18.0-0.74","7694","approach_avoid_sv1","""event"",""trial"",""time""
""fullscreenenter"",""1"",""13576""
""blur"",""16"",""417672""
""focus"",""16"",""420985""
","""event"",""trial"",""time""
""blur"",""16"",""417672""
","""event"",""trial"",""time""
""focus"",""16"",""420985""
","""event"",""trial"",""time""
""fullscreenenter"",""1"",""13576""
","
","","","","","","null","<div style=""font-size:60px;"">+</div>","null","","fixation","","",""
"memory-trial","193","763473","0.0-18.0-1.74","7694","approach_avoid_sv1","""event"",""trial"",""time""
""fullscreenenter"",""1"",""13576""
""blur"",""16"",""417672""
""focus"",""16"",""420985""
","""event"",""trial"",""time""
""blur"",""16"",""417672""
","""event"",""trial"",""time""
""focus"",""16"",""420985""
","""event"",""trial"",""time""
""fullscreenenter"",""1"",""13576""
","
","","","","","","849","images/bush5.png","","","memory_trial","4","definitely_new",""
"html-keyboard-response","194","763976","0.0-18.0-0.75","7694","approach_avoid_sv1","""event"",""trial"",""time""
""fullscreenenter"",""1"",""13576""
""blur"",""16"",""417672""
""focus"",""16"",""420985""
","""event"",""trial"",""time""
""blur"",""16"",""417672""
","""event"",""trial"",""time""
""focus"",""16"",""420985""
","""event"",""trial"",""time""
""fullscreenenter"",""1"",""13576""
","
","","","","","","null","<div style=""font-size:60px;"">+</div>","null","","fixation","","",""
"memory-trial","195","765993","0.0-18.0-1.75","7694","approach_avoid_sv1","""event"",""trial"",""time""
""fullscreenenter"",""1"",""13576""
""blur"",""16"",""417672""
""focus"",""16"",""420985""
","""event"",""trial"",""time""
""blur"",""16"",""417672""
","""event"",""trial"",""time""
""focus"",""16"",""420985""
","""event"",""trial"",""time""
""fullscreenenter"",""1"",""13576""
","
","","","","","","1012.6999998092651","images/rabbit2.png","","","memory_trial","1","definitely_old",""
"html-keyboard-response","196","766496","0.0-18.0-0.76","7694","approach_avoid_sv1","""event"",""trial"",""time""
""fullscreenenter"",""1"",""13576""
""blur"",""16"",""417672""
""focus"",""16"",""420985""
","""event"",""trial"",""time""
""blur"",""16"",""417672""
","""event"",""trial"",""time""
""focus"",""16"",""420985""
","""event"",""trial"",""time""
""fullscreenenter"",""1"",""13576""
","
","","","","","","null","<div style=""font-size:60px;"">+</div>","null","","fixation","","",""
"memory-trial","197","768617","0.0-18.0-1.76","7694","approach_avoid_sv1","""event"",""trial"",""time""
""fullscreenenter"",""1"",""13576""
""blur"",""16"",""417672""
""focus"",""16"",""420985""
","""event"",""trial"",""time""
""blur"",""16"",""417672""
","""event"",""trial"",""time""
""focus"",""16"",""420985""
","""event"",""trial"",""time""
""fullscreenenter"",""1"",""13576""
","
","","","","","","1112.8999996185303","images/cow8.png","","","memory_trial","2","maybe_old",""
"html-keyboard-response","198","769120","0.0-18.0-0.77","7694","approach_avoid_sv1","""event"",""trial"",""time""
""fullscreenenter"",""1"",""13576""
""blur"",""16"",""417672""
""focus"",""16"",""420985""
","""event"",""trial"",""time""
""blur"",""16"",""417672""
","""event"",""trial"",""time""
""focus"",""16"",""420985""
","""event"",""trial"",""time""
""fullscreenenter"",""1"",""13576""
","
","","","","","","null","<div style=""font-size:60px;"">+</div>","null","","fixation","","",""
"memory-trial","199","771912","0.0-18.0-1.77","7694","approach_avoid_sv1","""event"",""trial"",""time""
""fullscreenenter"",""1"",""13576""
""blur"",""16"",""417672""
""focus"",""16"",""420985""
","""event"",""trial"",""time""
""blur"",""16"",""417672""
","""event"",""trial"",""time""
""focus"",""16"",""420985""
","""event"",""trial"",""time""
""fullscreenenter"",""1"",""13576""
","
","","","","","","1787","images/apple5.png","","","memory_trial","3","maybe_new",""
"html-keyboard-response","200","772416","0.0-18.0-0.78","7694","approach_avoid_sv1","""event"",""trial"",""time""
""fullscreenenter"",""1"",""13576""
