"trial_type","trial_index","time_elapsed","internal_node_id","subject_id","task_version","interactions","blur_events","focus_events","fullscreenenter_events","fullscreenexit_events","success","timeout","failed_images","failed_audio","failed_video","rt","stimulus","response","button_pressed","task_part","key_press","answer","correct"
"pavlovia","0","5","0.0-0.0","7683","approach_avoid_sv1","""event"",""trial"",""time""
""fullscreenenter"",""1"",""11604""
","
","
","""event"",""trial"",""time""
""fullscreenenter"",""1"",""11604""
","
","","","","","","","","","","","","",""
"fullscreen","1","12596","0.0-1.0","7683","approach_avoid_sv1","""event"",""trial"",""time""
""fullscreenenter"",""1"",""11604""
","
","
","""event"",""trial"",""time""
""fullscreenenter"",""1"",""11604""
","
","true","","","","","","","","","","","",""
"preload","2","14220","0.0-2.0","7683","approach_avoid_sv1","""event"",""trial"",""time""
""fullscreenenter"",""1"",""11604""
","
","
","""event"",""trial"",""time""
""fullscreenenter"",""1"",""11604""
","
","true","false","[]","[]","[]","","","","","","","",""
"preload","3","14866","0.0-3.0","7683","approach_avoid_sv1","""event"",""trial"",""time""
""fullscreenenter"",""1"",""11604""
","
","
","""event"",""trial"",""time""
""fullscreenenter"",""1"",""11604""
","
","true","false","[]","[]","[]","","","","","","","",""
"preload","4","15135","0.0-4.0","7683","approach_avoid_sv1","""event"",""trial"",""time""
""fullscreenenter"",""1"",""11604""
","
","
","""event"",""trial"",""time""
""fullscreenenter"",""1"",""11604""
","
","true","false","[]","[]","[]","","","","","","","",""
"audio-keyboard-response","5","18776","0.0-5.0","7683","approach_avoid_sv1","""event"",""trial"",""time""
""fullscreenenter"",""1"",""11604""
","
","
","""event"",""trial"",""time""
""fullscreenenter"",""1"",""11604""
","
","","","","","","3639.9999999999995","audio/beep_loop.wav"," ","","","","",""
"audio-button-response","6","20410","0.0-6.0","7683","approach_avoid_sv1","""event"",""trial"",""time""
""fullscreenenter"",""1"",""11604""
","
","
","""event"",""trial"",""time""
""fullscreenenter"",""1"",""11604""
","
","","","","","","1629","audio/turtle.wav","3","","","","",""
"audio-button-response","7","22595","0.0-7.0","7683","approach_avoid_sv1","""event"",""trial"",""time""
""fullscreenenter"",""1"",""11604""
","
","
","""event"",""trial"",""time""
""fullscreenenter"",""1"",""11604""
","
","","","","","","1168","audio/shark.wav","2","","","","",""
"preload","8","25307","0.0-8.0","7683","approach_avoid_sv1","""event"",""trial"",""time""
""fullscreenenter"",""1"",""11604""
","
","
","""event"",""trial"",""time""
""fullscreenenter"",""1"",""11604""
","
","true","false","[]","[]","[]","","","","","","","",""
"learning-instructions","9","38133","0.0-9.0-0.0","7683","approach_avoid_sv1","""event"",""trial"",""time""
""fullscreenenter"",""1"",""11604""
","
","
","""event"",""trial"",""time""
""fullscreenenter"",""1"",""11604""
","
","","","","","","8352.400000095367","<p> Welcome back! </p><p> Last week, you had to make choices about lots of different items.  </p>","","0","instructions","","",""
"learning-instructions","10","44118","0.0-9.0-0.1","7683","approach_avoid_sv1","""event"",""trial"",""time""
""fullscreenenter"",""1"",""11604""
","
","
","""event"",""trial"",""time""
""fullscreenenter"",""1"",""11604""
","
","","","","","","1877.2000000476837","<p> Today, we are going to ask you to try to remember all the items. </p>","","0","instructions","","",""
"learning-instructions","11","55419","0.0-9.0-0.2","7683","approach_avoid_sv1","""event"",""trial"",""time""
""fullscreenenter"",""1"",""11604""
","
","
","""event"",""trial"",""time""
""fullscreenenter"",""1"",""11604""
","
","","","","","","1176.7999999523163","<p> On every trial, you will see an image. </p><p> The image may be an OLD image you saw during the games last week or it may be a NEW image that was not presented. </p>","","0","instructions","","",""
"learning-instructions","12","65526","0.0-9.0-0.3","7683","approach_avoid_sv1","""event"",""trial"",""time""
""fullscreenenter"",""1"",""11604""
","
","
","""event"",""trial"",""time""
""fullscreenenter"",""1"",""11604""
","
","","","","","","1581.6999998092651","<p> You need to select whether the image is:  </p><p>  'Definitely old', 'Maybe old', 'Maybe new', or 'Definitely new.'  </p><div class=""mem-choice-instructions-grid""><div class=""choice-option"" id=""choice-option-1"" ><img src=""images/definitely_old_1.png"" id=""choice-option-img-1"" class=""choice-option-img"" stage=""1""></div><div class=""choice-option"" id=""choice-option-2"" ><img src=""images/maybe_old_1.png"" id=""choice-option-img-2"" class=""choice-option-img"" stage=""1""></div><div class=""choice-option"" id=""choice-option-3"" ><img src=""images/maybe_new_1.png"" id=""choice-option-img-3"" class=""choice-option-img"" stage=""1""></div><div class=""choice-option"" id=""choice-option-4"" > <img src=""images/definitely_new_1.png"" id=""choice-option-img-4"" class=""choice-option-img"" stage=""1""></div></div>","","0","instructions","","",""
"learning-instructions","13","125161","0.0-9.0-0.4","7683","approach_avoid_sv1","""event"",""trial"",""time""
""fullscreenenter"",""1"",""11604""
","
","
","""event"",""trial"",""time""
""fullscreenenter"",""1"",""11604""
","
","","","","","","53130.10000014305","<p> You should use the 1, 2, 3, and 4 keys to make your responses.  </p><div class=""mem-choice-instructions-grid""><div class=""choice-option"" id=""choice-option-1"" ><img src=""images/definitely_old.png"" id=""choice-option-img-1"" class=""choice-option-img"" stage=""1""></div><div class=""choice-option"" id=""choice-option-2"" ><img src=""images/maybe_old.png"" id=""choice-option-img-2"" class=""choice-option-img"" stage=""1""></div><div class=""choice-option"" id=""choice-option-3"" ><img src=""images/maybe_new.png"" id=""choice-option-img-3"" class=""choice-option-img"" stage=""1""></div><div class=""choice-option"" id=""choice-option-4"" > <img src=""images/definitely_new.png"" id=""choice-option-img-4"" class=""choice-option-img"" stage=""1""></div></div>","","0","instructions","","",""
"learning-instructions","14","132929","0.0-9.0-0.5","7683","approach_avoid_sv1","""event"",""trial"",""time""
""fullscreenenter"",""1"",""11604""
","
","
","""event"",""trial"",""time""
""fullscreenenter"",""1"",""11604""
","
","","","","","","947.4000000953674","<p> You will have 10 seconds to make each response.  </p><p>  Make sure to respond before time runs out! </p>","","0","instructions","","",""
"learning-instructions","15","142681","0.0-9.0-0.6","7683","approach_avoid_sv1","""event"",""trial"",""time""
""fullscreenenter"",""1"",""11604""
","
","
","""event"",""trial"",""time""
""fullscreenenter"",""1"",""11604""
","
","","","","","","2670.0999999046326","<p> Today, you will see each image ONCE only.  </p><p>  That means none of the images will repeat. </p>","","0","instructions","","",""
"learning-instructions","16","157074","0.0-9.0-0.7","7683","approach_avoid_sv1","""event"",""trial"",""time""
""fullscreenenter"",""1"",""11604""
","
","
","""event"",""trial"",""time""
""fullscreenenter"",""1"",""11604""
","
","","","","","","1722.9000000953674","<p> Before you play the real game, it is time to practice. </p><p>  Just like in the real game, some of the images in the practice will be ones you have seen before. </p><p>  Others will be entirely new. </p>","","0","instructions","","",""
"html-button-response","17","159617","0.0-10.0","7683","approach_avoid_sv1","""event"",""trial"",""time""
""fullscreenenter"",""1"",""11604""
","
","
","""event"",""trial"",""time""
""fullscreenenter"",""1"",""11604""
","
","","","","","","2435.4000000953674","<p> Ready to practice? </p><p> Remember, use the 1, 2, 3, and 4 keys to make your responses. </p>","0","","instructions","","",""
"html-keyboard-response","18","160239","0.0-11.0-0.0","7683","approach_avoid_sv1","""event"",""trial"",""time""
""fullscreenenter"",""1"",""11604""
","
","
","""event"",""trial"",""time""
""fullscreenenter"",""1"",""11604""
","
","","","","","","null","<div style=""font-size:60px;"">+</div>","null","","fixation","","",""
"memory-trial","19","163939","0.0-11.0-1.0","7683","approach_avoid_sv1","""event"",""trial"",""time""
""fullscreenenter"",""1"",""11604""
","
","
","""event"",""trial"",""time""
""fullscreenenter"",""1"",""11604""
","
","","","","","","2682.5","images/ball1.png","","","practice","1","definitely_old",""
"html-keyboard-response","20","164459","0.0-11.0-0.1","7683","approach_avoid_sv1","""event"",""trial"",""time""
""fullscreenenter"",""1"",""11604""
","
","
","""event"",""trial"",""time""
""fullscreenenter"",""1"",""11604""
","
","","","","","","null","<div style=""font-size:60px;"">+</div>","null","","fixation","","",""
"memory-trial","21","166569","0.0-11.0-1.1","7683","approach_avoid_sv1","""event"",""trial"",""time""
""fullscreenenter"",""1"",""11604""
","
","
","""event"",""trial"",""time""
""fullscreenenter"",""1"",""11604""
","
","","","","","","1092.4000000953674","images/racket1.png","","","practice","1","definitely_old",""
"html-keyboard-response","22","167079","0.0-11.0-0.2","7683","approach_avoid_sv1","""event"",""trial"",""time""
""fullscreenenter"",""1"",""11604""
","
","
","""event"",""trial"",""time""
""fullscreenenter"",""1"",""11604""
","
","","","","","","null","<div style=""font-size:60px;"">+</div>","null","","fixation","","",""
"memory-trial","23","173919","0.0-11.0-1.2","7683","approach_avoid_sv1","""event"",""trial"",""time""
""fullscreenenter"",""1"",""11604""
","
","
","""event"",""trial"",""time""
""fullscreenenter"",""1"",""11604""
","
","","","","","","5821.400000095367","images/ball3.png","","","practice","3","maybe_new",""
"html-keyboard-response","24","174429","0.0-11.0-0.3","7683","approach_avoid_sv1","""event"",""trial"",""time""
""fullscreenenter"",""1"",""11604""
","
","
","""event"",""trial"",""time""
""fullscreenenter"",""1"",""11604""
","
","","","","","","null","<div style=""font-size:60px;"">+</div>","null","","fixation","","",""
"memory-trial","25","176948","0.0-11.0-1.3","7683","approach_avoid_sv1","""event"",""trial"",""time""
""fullscreenenter"",""1"",""11604""
","
","
","""event"",""trial"",""time""
""fullscreenenter"",""1"",""11604""
","
","","","","","","1514","images/ball5.png","","","practice","1","definitely_old",""
"html-keyboard-response","26","177450","0.0-11.0-0.4","7683","approach_avoid_sv1","""event"",""trial"",""time""
""fullscreenenter"",""1"",""11604""
","
","
","""event"",""trial"",""time""
""fullscreenenter"",""1"",""11604""
","
","","","","","","null","<div style=""font-size:60px;"">+</div>","null","","fixation","","",""
"memory-trial","27","179948","0.0-11.0-1.4","7683","approach_avoid_sv1","""event"",""trial"",""time""
""fullscreenenter"",""1"",""11604""
","
","
","""event"",""trial"",""time""
""fullscreenenter"",""1"",""11604""
","
","","","","","","1487.7999999523163","images/racket3.png","","","practice","1","definitely_old",""
"html-keyboard-response","28","180458","0.0-11.0-0.5","7683","approach_avoid_sv1","""event"",""trial"",""time""
""fullscreenenter"",""1"",""11604""
","
","
","""event"",""trial"",""time""
""fullscreenenter"",""1"",""11604""
","
","","","","","","null","<div style=""font-size:60px;"">+</div>","null","","fixation","","",""
"memory-trial","29","183849","0.0-11.0-1.5","7683","approach_avoid_sv1","""event"",""trial"",""time""
""fullscreenenter"",""1"",""11604""
","
","
","""event"",""trial"",""time""
""fullscreenenter"",""1"",""11604""
","
","","","","","","2383.9000000953674","images/racket5.png","","","practice","4","definitely_new",""
"html-keyboard-response","30","184351","0.0-11.0-0.6","7683","approach_avoid_sv1","""event"",""trial"",""time""
""fullscreenenter"",""1"",""11604""
","
","
","""event"",""trial"",""time""
""fullscreenenter"",""1"",""11604""
","
","","","","","","null","<div style=""font-size:60px;"">+</div>","null","","fixation","","",""
"memory-trial","31","187577","0.0-11.0-1.6","7683","approach_avoid_sv1","""event"",""trial"",""time""
""fullscreenenter"",""1"",""11604""
","
","
","""event"",""trial"",""time""
""fullscreenenter"",""1"",""11604""
","
","","","","","","2220.0999999046326","images/ball2.png","","","practice","3","maybe_new",""
"html-keyboard-response","32","188078","0.0-11.0-0.7","7683","approach_avoid_sv1","""event"",""trial"",""time""
""fullscreenenter"",""1"",""11604""
","
","
","""event"",""trial"",""time""
""fullscreenenter"",""1"",""11604""
","
","","","","","","null","<div style=""font-size:60px;"">+</div>","null","","fixation","","",""
"memory-trial","33","192775","0.0-11.0-1.7","7683","approach_avoid_sv1","""event"",""trial"",""time""
""fullscreenenter"",""1"",""11604""
","
","
","""event"",""trial"",""time""
""fullscreenenter"",""1"",""11604""
","
","","","","","","3692","images/racket2.png","","","practice","3","maybe_new",""
"learning-instructions","34","203986","0.0-12.0-0.0","7683","approach_avoid_sv1","""event"",""trial"",""time""
""fullscreenenter"",""1"",""11604""
","
","
","""event"",""trial"",""time""
""fullscreenenter"",""1"",""11604""
","
","","","","","","3639.100000143051","<p> Great! You have completed the practice. </p><p> Before you start, we're going to ask you a few questions about how the game works.  </p>","","0","instructions","","",""
"preload","35","205492","0.0-13.0","7683","approach_avoid_sv1","""event"",""trial"",""time""
""fullscreenenter"",""1"",""11604""
","
","
","""event"",""trial"",""time""
""fullscreenenter"",""1"",""11604""
","
","true","false","[]","[]","[]","","","","","","","",""
"comp-q","36","213814","0.0-14.0-0.0","7683","approach_avoid_sv1","""event"",""trial"",""time""
""fullscreenenter"",""1"",""11604""
","
","
","""event"",""trial"",""time""
""fullscreenenter"",""1"",""11604""
","
","","","","","","2495.5","<p> <b> True or False? </b> </p><p> In this game, you will only see each image once. </p>","","0","comp_question","","","true"
"comp-q","37","221897","0.0-14.0-1.0","7683","approach_avoid_sv1","""event"",""trial"",""time""
""fullscreenenter"",""1"",""11604""
","
","
","""event"",""trial"",""time""
""fullscreenenter"",""1"",""11604""
","
","","","","","","1740.4000000953674","<p> <b> That's right! </b> You will see many different images <i> one time each </i> in this game. </p>","","0","comp_answer","","",""
"comp-q","38","228361","0.0-15.0-0.0","7683","approach_avoid_sv1","""event"",""trial"",""time""
""fullscreenenter"",""1"",""11604""
","
","
","""event"",""trial"",""time""
""fullscreenenter"",""1"",""11604""
","
","","","","","","1452.5","<p> <b> True or False? </b> </p><p> You should use the mouse and click to make your response. </p>","","1","comp_question","","","true"
"comp-q","39","236188","0.0-15.0-1.0","7683","approach_avoid_sv1","""event"",""trial"",""time""
""fullscreenenter"",""1"",""11604""
","
","
","""event"",""trial"",""time""
""fullscreenenter"",""1"",""11604""
","
","","","","","","1321.1000001430511","<p><b> That's right! </b> You should use the '1', '2', '3', and '4' keys to make your response. </p>","","0","comp_answer","","",""
"comp-q","40","242342","0.0-16.0-0.0","7683","approach_avoid_sv1","""event"",""trial"",""time""
""fullscreenenter"",""1"",""11604""
""blur"",""41"",""244455""
""focus"",""41"",""250613""
","""event"",""trial"",""time""
""blur"",""41"",""244455""
","""event"",""trial"",""time""
""focus"",""41"",""250613""
","""event"",""trial"",""time""
""fullscreenenter"",""1"",""11604""
","
","","","","","","476.30000019073486","<p> <b> True or False? </b> </p><p> You will have as much time as you want to make each choice. </p>","","1","comp_question","","","true"
"comp-q","41","250771","0.0-16.0-1.0","7683","approach_avoid_sv1","""event"",""trial"",""time""
""fullscreenenter"",""1"",""11604""
""blur"",""41"",""244455""
""focus"",""41"",""250613""
","""event"",""trial"",""time""
""blur"",""41"",""244455""
","""event"",""trial"",""time""
""focus"",""41"",""250613""
","""event"",""trial"",""time""
""fullscreenenter"",""1"",""11604""
","
","","","","","","3724.7999999523163","<p> <b> That's right! </b> You will only have 10 seconds to make each choice. </p>","","0","comp_answer","","",""
"learning-instructions","42","260702","0.0-17.0","7683","approach_avoid_sv1","""event"",""trial"",""time""
""fullscreenenter"",""1"",""11604""
""blur"",""41"",""244455""
""focus"",""41"",""250613""
","""event"",""trial"",""time""
""blur"",""41"",""244455""
","""event"",""trial"",""time""
""focus"",""41"",""250613""
","""event"",""trial"",""time""
""fullscreenenter"",""1"",""11604""
","
","","","","","","1256.6000001430511","<p> Great! You are now ready to begin the game. </p><p> Remember, use the 1, 2, 3, and 4 keys to make your responses. </p>","","0","instructions","","",""
"html-keyboard-response","43","261314","0.0-18.0-0.0","7683","approach_avoid_sv1","""event"",""trial"",""time""
""fullscreenenter"",""1"",""11604""
""blur"",""41"",""244455""
""focus"",""41"",""250613""
","""event"",""trial"",""time""
""blur"",""41"",""244455""
","""event"",""trial"",""time""
""focus"",""41"",""250613""
","""event"",""trial"",""time""
""fullscreenenter"",""1"",""11604""
","
","","","","","","null","<div style=""font-size:60px;"">+</div>","null","","fixation","","",""
"memory-trial","44","263985","0.0-18.0-1.0","7683","approach_avoid_sv1","""event"",""trial"",""time""
""fullscreenenter"",""1"",""11604""
""blur"",""41"",""244455""
""focus"",""41"",""250613""
","""event"",""trial"",""time""
""blur"",""41"",""244455""
","""event"",""trial"",""time""
""focus"",""41"",""250613""
","""event"",""trial"",""time""
""fullscreenenter"",""1"",""11604""
","
","","","","","","1661.4000000953674","images/sofa8.png","","","memory_trial","1","definitely_old",""
"html-keyboard-response","45","264493","0.0-18.0-0.1","7683","approach_avoid_sv1","""event"",""trial"",""time""
""fullscreenenter"",""1"",""11604""
""blur"",""41"",""244455""
""focus"",""41"",""250613""
","""event"",""trial"",""time""
""blur"",""41"",""244455""
","""event"",""trial"",""time""
""focus"",""41"",""250613""
","""event"",""trial"",""time""
""fullscreenenter"",""1"",""11604""
","
","","","","","","null","<div style=""font-size:60px;"">+</div>","null","","fixation","","",""
"memory-trial","46","268075","0.0-18.0-1.1","7683","approach_avoid_sv1","""event"",""trial"",""time""
""fullscreenenter"",""1"",""11604""
""blur"",""41"",""244455""
""focus"",""41"",""250613""
","""event"",""trial"",""time""
""blur"",""41"",""244455""
","""event"",""trial"",""time""
""focus"",""41"",""250613""
","""event"",""trial"",""time""
""fullscreenenter"",""1"",""11604""
","
","","","","","","2578.7999999523163","images/dog6.png","","","memory_trial","2","maybe_old",""
"html-keyboard-response","47","268594","0.0-18.0-0.2","7683","approach_avoid_sv1","""event"",""trial"",""time""
""fullscreenenter"",""1"",""11604""
""blur"",""41"",""244455""
""focus"",""41"",""250613""
","""event"",""trial"",""time""
""blur"",""41"",""244455""
","""event"",""trial"",""time""
""focus"",""41"",""250613""
","""event"",""trial"",""time""
""fullscreenenter"",""1"",""11604""
","
","","","","","","null","<div style=""font-size:60px;"">+</div>","null","","fixation","","",""
"memory-trial","48","271594","0.0-18.0-1.2","7683","approach_avoid_sv1","""event"",""trial"",""time""
""fullscreenenter"",""1"",""11604""
""blur"",""41"",""244455""
""focus"",""41"",""250613""
","""event"",""trial"",""time""
""blur"",""41"",""244455""
","""event"",""trial"",""time""
""focus"",""41"",""250613""
","""event"",""trial"",""time""
""fullscreenenter"",""1"",""11604""
","
","","","","","","1993.3999998569489","images/dog8.png","","","memory_trial","1","definitely_old",""
"html-keyboard-response","49","272104","0.0-18.0-0.3","7683","approach_avoid_sv1","""event"",""trial"",""time""
""fullscreenenter"",""1"",""11604""
""blur"",""41"",""244455""
""focus"",""41"",""250613""
","""event"",""trial"",""time""
""blur"",""41"",""244455""
","""event"",""trial"",""time""
""focus"",""41"",""250613""
","""event"",""trial"",""time""
""fullscreenenter"",""1"",""11604""
","
","","","","","","null","<div style=""font-size:60px;"">+</div>","null","","fixation","","",""
"memory-trial","50","274954","0.0-18.0-1.3","7683","approach_avoid_sv1","""event"",""trial"",""time""
""fullscreenenter"",""1"",""11604""
""blur"",""41"",""244455""
""focus"",""41"",""250613""
","""event"",""trial"",""time""
""blur"",""41"",""244455""
","""event"",""trial"",""time""
""focus"",""41"",""250613""
","""event"",""trial"",""time""
""fullscreenenter"",""1"",""11604""
","
","","","","","","1840.4000000953674","images/banana8.png","","","memory_trial","4","definitely_new",""
"html-keyboard-response","51","275474","0.0-18.0-0.4","7683","approach_avoid_sv1","""event"",""trial"",""time""
""fullscreenenter"",""1"",""11604""
""blur"",""41"",""244455""
""focus"",""41"",""250613""
","""event"",""trial"",""time""
""blur"",""41"",""244455""
","""event"",""trial"",""time""
""focus"",""41"",""250613""
","""event"",""trial"",""time""
""fullscreenenter"",""1"",""11604""
","
","","","","","","null","<div style=""font-size:60px;"">+</div>","null","","fixation","","",""
"memory-trial","52","278084","0.0-18.0-1.4","7683","approach_avoid_sv1","""event"",""trial"",""time""
""fullscreenenter"",""1"",""11604""
""blur"",""41"",""244455""
""focus"",""41"",""250613""
","""event"",""trial"",""time""
""blur"",""41"",""244455""
","""event"",""trial"",""time""
""focus"",""41"",""250613""
","""event"",""trial"",""time""
""fullscreenenter"",""1"",""11604""
","
","","","","","","1599.4000000953674","images/train2.png","","","memory_trial","1","definitely_old",""
"html-keyboard-response","53","278594","0.0-18.0-0.5","7683","approach_avoid_sv1","""event"",""trial"",""time""
""fullscreenenter"",""1"",""11604""
""blur"",""41"",""244455""
""focus"",""41"",""250613""
","""event"",""trial"",""time""
""blur"",""41"",""244455""
","""event"",""trial"",""time""
""focus"",""41"",""250613""
","""event"",""trial"",""time""
""fullscreenenter"",""1"",""11604""
","
","","","","","","null","<div style=""font-size:60px;"">+</div>","null","","fixation","","",""
"memory-trial","54","282803","0.0-18.0-1.5","7683","approach_avoid_sv1","""event"",""trial"",""time""
""fullscreenenter"",""1"",""11604""
""blur"",""41"",""244455""
""focus"",""41"",""250613""
","""event"",""trial"",""time""
""blur"",""41"",""244455""
","""event"",""trial"",""time""
""focus"",""41"",""250613""
","""event"",""trial"",""time""
""fullscreenenter"",""1"",""11604""
","
","","","","","","3192.5","images/bed8.png","","","memory_trial","3","maybe_new",""
"html-keyboard-response","55","283313","0.0-18.0-0.6","7683","approach_avoid_sv1","""event"",""trial"",""time""
""fullscreenenter"",""1"",""11604""
""blur"",""41"",""244455""
""focus"",""41"",""250613""
","""event"",""trial"",""time""
""blur"",""41"",""244455""
","""event"",""trial"",""time""
""focus"",""41"",""250613""
","""event"",""trial"",""time""
""fullscreenenter"",""1"",""11604""
","
","","","","","","null","<div style=""font-size:60px;"">+</div>","null","","fixation","","",""
"memory-trial","56","285804","0.0-18.0-1.6","7683","approach_avoid_sv1","""event"",""trial"",""time""
""fullscreenenter"",""1"",""11604""
""blur"",""41"",""244455""
""focus"",""41"",""250613""
","""event"",""trial"",""time""
""blur"",""41"",""244455""
","""event"",""trial"",""time""
""focus"",""41"",""250613""
","""event"",""trial"",""time""
""fullscreenenter"",""1"",""11604""
","
","","","","","","1471.5","images/chair7.png","","","memory_trial","4","definitely_new",""
"html-keyboard-response","57","286324","0.0-18.0-0.7","7683","approach_avoid_sv1","""event"",""trial"",""time""
""fullscreenenter"",""1"",""11604""
""blur"",""41"",""244455""
""focus"",""41"",""250613""
","""event"",""trial"",""time""
""blur"",""41"",""244455""
","""event"",""trial"",""time""
""focus"",""41"",""250613""
","""event"",""trial"",""time""
""fullscreenenter"",""1"",""11604""
","
","","","","","","null","<div style=""font-size:60px;"">+</div>","null","","fixation","","",""
"memory-trial","58","290699","0.0-18.0-1.7","7683","approach_avoid_sv1","""event"",""trial"",""time""
""fullscreenenter"",""1"",""11604""
""blur"",""41"",""244455""
""focus"",""41"",""250613""
","""event"",""trial"",""time""
""blur"",""41"",""244455""
","""event"",""trial"",""time""
""focus"",""41"",""250613""
","""event"",""trial"",""time""
""fullscreenenter"",""1"",""11604""
","
","","","","","","3372.0999999046326","images/table1.png","","","memory_trial","3","maybe_new",""
"html-keyboard-response","59","291200","0.0-18.0-0.8","7683","approach_avoid_sv1","""event"",""trial"",""time""
""fullscreenenter"",""1"",""11604""
""blur"",""41"",""244455""
""focus"",""41"",""250613""
","""event"",""trial"",""time""
""blur"",""41"",""244455""
","""event"",""trial"",""time""
""focus"",""41"",""250613""
","""event"",""trial"",""time""
""fullscreenenter"",""1"",""11604""
","
","","","","","","null","<div style=""font-size:60px;"">+</div>","null","","fixation","","",""
"memory-trial","60","293073","0.0-18.0-1.8","7683","approach_avoid_sv1","""event"",""trial"",""time""
""fullscreenenter"",""1"",""11604""
""blur"",""41"",""244455""
""focus"",""41"",""250613""
","""event"",""trial"",""time""
""blur"",""41"",""244455""
","""event"",""trial"",""time""
""focus"",""41"",""250613""
","""event"",""trial"",""time""
""fullscreenenter"",""1"",""11604""
","
","","","","","","867.7000000476837","images/rabbit6.png","","","memory_trial","1","definitely_old",""
"html-keyboard-response","61","293575","0.0-18.0-0.9","7683","approach_avoid_sv1","""event"",""trial"",""time""
""fullscreenenter"",""1"",""11604""
""blur"",""41"",""244455""
""focus"",""41"",""250613""
","""event"",""trial"",""time""
""blur"",""41"",""244455""
","""event"",""trial"",""time""
""focus"",""41"",""250613""
","""event"",""trial"",""time""
""fullscreenenter"",""1"",""11604""
","
","","","","","","null","<div style=""font-size:60px;"">+</div>","null","","fixation","","",""
"memory-trial","62","296233","0.0-18.0-1.9","7683","approach_avoid_sv1","""event"",""trial"",""time""
""fullscreenenter"",""1"",""11604""
""blur"",""41"",""244455""
""focus"",""41"",""250613""
","""event"",""trial"",""time""
""blur"",""41"",""244455""
","""event"",""trial"",""time""
""focus"",""41"",""250613""
","""event"",""trial"",""time""
""fullscreenenter"",""1"",""11604""
","
","","","","","","1653.2000000476837","images/banana6.png","","","memory_trial","4","definitely_new",""
"html-keyboard-response","63","296735","0.0-18.0-0.10","7683","approach_avoid_sv1","""event"",""trial"",""time""
""fullscreenenter"",""1"",""11604""
""blur"",""41"",""244455""
""focus"",""41"",""250613""
","""event"",""trial"",""time""
""blur"",""41"",""244455""
","""event"",""trial"",""time""
""focus"",""41"",""250613""
","""event"",""trial"",""time""
""fullscreenenter"",""1"",""11604""
","
","","","","","","null","<div style=""font-size:60px;"">+</div>","null","","fixation","","",""
"memory-trial","64","298729","0.0-18.0-1.10","7683","approach_avoid_sv1","""event"",""trial"",""time""
""fullscreenenter"",""1"",""11604""
""blur"",""41"",""244455""
""focus"",""41"",""250613""
","""event"",""trial"",""time""
""blur"",""41"",""244455""
","""event"",""trial"",""time""
""focus"",""41"",""250613""
","""event"",""trial"",""time""
""fullscreenenter"",""1"",""11604""
","
","","","","","","990.5","images/truck4.png","","","memory_trial","4","definitely_new",""
"html-keyboard-response","65","299231","0.0-18.0-0.11","7683","approach_avoid_sv1","""event"",""trial"",""time""
""fullscreenenter"",""1"",""11604""
""blur"",""41"",""244455""
""focus"",""41"",""250613""
","""event"",""trial"",""time""
""blur"",""41"",""244455""
","""event"",""trial"",""time""
""focus"",""41"",""250613""
","""event"",""trial"",""time""
""fullscreenenter"",""1"",""11604""
","
","","","","","","null","<div style=""font-size:60px;"">+</div>","null","","fixation","","",""
"memory-trial","66","302030","0.0-18.0-1.11","7683","approach_avoid_sv1","""event"",""trial"",""time""
""fullscreenenter"",""1"",""11604""
""blur"",""41"",""244455""
""focus"",""41"",""250613""
","""event"",""trial"",""time""
""blur"",""41"",""244455""
","""event"",""trial"",""time""
""focus"",""41"",""250613""
","""event"",""trial"",""time""
""fullscreenenter"",""1"",""11604""
","
","","","","","","1794.0999999046326","images/horse6.png","","","memory_trial","3","maybe_new",""
"html-keyboard-response","67","302532","0.0-18.0-0.12","7683","approach_avoid_sv1","""event"",""trial"",""time""
""fullscreenenter"",""1"",""11604""
""blur"",""41"",""244455""
""focus"",""41"",""250613""
","""event"",""trial"",""time""
""blur"",""41"",""244455""
","""event"",""trial"",""time""
""focus"",""41"",""250613""
","""event"",""trial"",""time""
""fullscreenenter"",""1"",""11604""
","
","","","","","","null","<div style=""font-size:60px;"">+</div>","null","","fixation","","",""
"memory-trial","68","305913","0.0-18.0-1.12","7683","approach_avoid_sv1","""event"",""trial"",""time""
""fullscreenenter"",""1"",""11604""
""blur"",""41"",""244455""
""focus"",""41"",""250613""
","""event"",""trial"",""time""
""blur"",""41"",""244455""
","""event"",""trial"",""time""
""focus"",""41"",""250613""
","""event"",""trial"",""time""
""fullscreenenter"",""1"",""11604""
","
","","","","","","2376.600000143051","images/sofa4.png","","","memory_trial","2","maybe_old",""
"html-keyboard-response","69","306415","0.0-18.0-0.13","7683","approach_avoid_sv1","""event"",""trial"",""time""
""fullscreenenter"",""1"",""11604""
""blur"",""41"",""244455""
""focus"",""41"",""250613""
","""event"",""trial"",""time""
""blur"",""41"",""244455""
","""event"",""trial"",""time""
""focus"",""41"",""250613""
","""event"",""trial"",""time""
""fullscreenenter"",""1"",""11604""
","
","","","","","","null","<div style=""font-size:60px;"">+</div>","null","","fixation","","",""
"memory-trial","70","309860","0.0-18.0-1.13","7683","approach_avoid_sv1","""event"",""trial"",""time""
""fullscreenenter"",""1"",""11604""
""blur"",""41"",""244455""
""focus"",""41"",""250613""
","""event"",""trial"",""time""
""blur"",""41"",""244455""
","""event"",""trial"",""time""
""focus"",""41"",""250613""
","""event"",""trial"",""time""
""fullscreenenter"",""1"",""11604""
","
","","","","","","2439.9000000953674","images/rabbit4.png","","","memory_trial","3","maybe_new",""
"html-keyboard-response","71","310362","0.0-18.0-0.14","7683","approach_avoid_sv1","""event"",""trial"",""time""
""fullscreenenter"",""1"",""11604""
""blur"",""41"",""244455""
""focus"",""41"",""250613""
","""event"",""trial"",""time""
""blur"",""41"",""244455""
","""event"",""trial"",""time""
""focus"",""41"",""250613""
","""event"",""trial"",""time""
""fullscreenenter"",""1"",""11604""
","
","","","","","","null","<div style=""font-size:60px;"">+</div>","null","","fixation","","",""
"memory-trial","72","315478","0.0-18.0-1.14","7683","approach_avoid_sv1","""event"",""trial"",""time""
""fullscreenenter"",""1"",""11604""
""blur"",""41"",""244455""
""focus"",""41"",""250613""
","""event"",""trial"",""time""
""blur"",""41"",""244455""
","""event"",""trial"",""time""
""focus"",""41"",""250613""
","""event"",""trial"",""time""
""fullscreenenter"",""1"",""11604""
","
","","","","","","4111.5","images/train7.png","","","memory_trial","2","maybe_old",""
"html-keyboard-response","73","315979","0.0-18.0-0.15","7683","approach_avoid_sv1","""event"",""trial"",""time""
""fullscreenenter"",""1"",""11604""
""blur"",""41"",""244455""
""focus"",""41"",""250613""
","""event"",""trial"",""time""
""blur"",""41"",""244455""
","""event"",""trial"",""time""
""focus"",""41"",""250613""
","""event"",""trial"",""time""
""fullscreenenter"",""1"",""11604""
","
","","","","","","null","<div style=""font-size:60px;"">+</div>","null","","fixation","","",""
"memory-trial","74","317981","0.0-18.0-1.15","7683","approach_avoid_sv1","""event"",""trial"",""time""
""fullscreenenter"",""1"",""11604""
""blur"",""41"",""244455""
""focus"",""41"",""250613""
","""event"",""trial"",""time""
""blur"",""41"",""244455""
","""event"",""trial"",""time""
""focus"",""41"",""250613""
","""event"",""trial"",""time""
""fullscreenenter"",""1"",""11604""
","
","","","","","","996.2999999523163","images/table3.png","","","memory_trial","1","definitely_old",""
"html-keyboard-response","75","318484","0.0-18.0-0.16","7683","approach_avoid_sv1","""event"",""trial"",""time""
""fullscreenenter"",""1"",""11604""
""blur"",""41"",""244455""
""focus"",""41"",""250613""
","""event"",""trial"",""time""
""blur"",""41"",""244455""
","""event"",""trial"",""time""
""focus"",""41"",""250613""
","""event"",""trial"",""time""
""fullscreenenter"",""1"",""11604""
","
","","","","","","null","<div style=""font-size:60px;"">+</div>","null","","fixation","","",""
"memory-trial","76","321174","0.0-18.0-1.16","7683","approach_avoid_sv1","""event"",""trial"",""time""
""fullscreenenter"",""1"",""11604""
""blur"",""41"",""244455""
""focus"",""41"",""250613""
","""event"",""trial"",""time""
""blur"",""41"",""244455""
","""event"",""trial"",""time""
""focus"",""41"",""250613""
","""event"",""trial"",""time""
""fullscreenenter"",""1"",""11604""
","
","","","","","","1685.8999998569489","images/cat7.png","","","memory_trial","4","definitely_new",""
"html-keyboard-response","77","321675","0.0-18.0-0.17","7683","approach_avoid_sv1","""event"",""trial"",""time""
""fullscreenenter"",""1"",""11604""
""blur"",""41"",""244455""
""focus"",""41"",""250613""
","""event"",""trial"",""time""
""blur"",""41"",""244455""
","""event"",""trial"",""time""
""focus"",""41"",""250613""
","""event"",""trial"",""time""
""fullscreenenter"",""1"",""11604""
","
","","","","","","null","<div style=""font-size:60px;"">+</div>","null","","fixation","","",""
"memory-trial","78","323762","0.0-18.0-1.17","7683","approach_avoid_sv1","""event"",""trial"",""time""
""fullscreenenter"",""1"",""11604""
""blur"",""41"",""244455""
""focus"",""41"",""250613""
","""event"",""trial"",""time""
""blur"",""41"",""244455""
","""event"",""trial"",""time""
""focus"",""41"",""250613""
","""event"",""trial"",""time""
""fullscreenenter"",""1"",""11604""
","
","","","","","","1082.2000000476837","images/sheep8.png","","","memory_trial","4","definitely_new",""
"html-keyboard-response","79","324264","0.0-18.0-0.18","7683","approach_avoid_sv1","""event"",""trial"",""time""
""fullscreenenter"",""1"",""11604""
""blur"",""41"",""244455""
""focus"",""41"",""250613""
","""event"",""trial"",""time""
""blur"",""41"",""244455""
","""event"",""trial"",""time""
""focus"",""41"",""250613""
","""event"",""trial"",""time""
""fullscreenenter"",""1"",""11604""
","
","","","","","","null","<div style=""font-size:60px;"">+</div>","null","","fixation","","",""
"memory-trial","80","327106","0.0-18.0-1.18","7683","approach_avoid_sv1","""event"",""trial"",""time""
""fullscreenenter"",""1"",""11604""
""blur"",""41"",""244455""
""focus"",""41"",""250613""
","""event"",""trial"",""time""
""blur"",""41"",""244455""
","""event"",""trial"",""time""
""focus"",""41"",""250613""
","""event"",""trial"",""time""
""fullscreenenter"",""1"",""11604""
","
","","","","","","1831.7000000476837","images/sofa5.png","","","memory_trial","3","maybe_new",""
"html-keyboard-response","81","327609","0.0-18.0-0.19","7683","approach_avoid_sv1","""event"",""trial"",""time""
""fullscreenenter"",""1"",""11604""
""blur"",""41"",""244455""
""focus"",""41"",""250613""
","""event"",""trial"",""time""
""blur"",""41"",""244455""
","""event"",""trial"",""time""
""focus"",""41"",""250613""
","""event"",""trial"",""time""
""fullscreenenter"",""1"",""11604""
","
","","","","","","null","<div style=""font-size:60px;"">+</div>","null","","fixation","","",""
"memory-trial","82","329980","0.0-18.0-1.19","7683","approach_avoid_sv1","""event"",""trial"",""time""
""fullscreenenter"",""1"",""11604""
""blur"",""41"",""244455""
""focus"",""41"",""250613""
","""event"",""trial"",""time""
""blur"",""41"",""244455""
","""event"",""trial"",""time""
""focus"",""41"",""250613""
","""event"",""trial"",""time""
""fullscreenenter"",""1"",""11604""
","
","","","","","","1367.7000000476837","images/cow7.png","","","memory_trial","4","definitely_new",""
"html-keyboard-response","83","330483","0.0-18.0-0.20","7683","approach_avoid_sv1","""event"",""trial"",""time""
""fullscreenenter"",""1"",""11604""
""blur"",""41"",""244455""
""focus"",""41"",""250613""
","""event"",""trial"",""time""
""blur"",""41"",""244455""
","""event"",""trial"",""time""
""focus"",""41"",""250613""
","""event"",""trial"",""time""
""fullscreenenter"",""1"",""11604""
","
","","","","","","null","<div style=""font-size:60px;"">+</div>","null","","fixation","","",""
"memory-trial","84","332757","0.0-18.0-1.20","7683","approach_avoid_sv1","""event"",""trial"",""time""
""fullscreenenter"",""1"",""11604""
""blur"",""41"",""244455""
""focus"",""41"",""250613""
","""event"",""trial"",""time""
""blur"",""41"",""244455""
","""event"",""trial"",""time""
""focus"",""41"",""250613""
","""event"",""trial"",""time""
""fullscreenenter"",""1"",""11604""
","
","","","","","","1270.7999999523163","images/cow6.png","","","memory_trial","4","definitely_new",""
"html-keyboard-response","85","333259","0.0-18.0-0.21","7683","approach_avoid_sv1","""event"",""trial"",""time""
""fullscreenenter"",""1"",""11604""
""blur"",""41"",""244455""
""focus"",""41"",""250613""
","""event"",""trial"",""time""
""blur"",""41"",""244455""
","""event"",""trial"",""time""
""focus"",""41"",""250613""
","""event"",""trial"",""time""
""fullscreenenter"",""1"",""11604""
","
","","","","","","null","<div style=""font-size:60px;"">+</div>","null","","fixation","","",""
"memory-trial","86","335742","0.0-18.0-1.21","7683","approach_avoid_sv1","""event"",""trial"",""time""
""fullscreenenter"",""1"",""11604""
""blur"",""41"",""244455""
""focus"",""41"",""250613""
","""event"",""trial"",""time""
""blur"",""41"",""244455""
","""event"",""trial"",""time""
""focus"",""41"",""250613""
","""event"",""trial"",""time""
""fullscreenenter"",""1"",""11604""
","
","","","","","","1480.7999999523163","images/sheep7.png","","","memory_trial","1","definitely_old",""
"html-keyboard-response","87","336244","0.0-18.0-0.22","7683","approach_avoid_sv1","""event"",""trial"",""time""
""fullscreenenter"",""1"",""11604""
""blur"",""41"",""244455""
""focus"",""41"",""250613""
","""event"",""trial"",""time""
""blur"",""41"",""244455""
","""event"",""trial"",""time""
""focus"",""41"",""250613""
","""event"",""trial"",""time""
""fullscreenenter"",""1"",""11604""
","
","","","","","","null","<div style=""font-size:60px;"">+</div>","null","","fixation","","",""
"memory-trial","88","338458","0.0-18.0-1.22","7683","approach_avoid_sv1","""event"",""trial"",""time""
""fullscreenenter"",""1"",""11604""
""blur"",""41"",""244455""
""focus"",""41"",""250613""
","""event"",""trial"",""time""
""blur"",""41"",""244455""
","""event"",""trial"",""time""
""focus"",""41"",""250613""
","""event"",""trial"",""time""
""fullscreenenter"",""1"",""11604""
","
","","","","","","1210.2000000476837","images/straw7.png","","","memory_trial","1","definitely_old",""
"html-keyboard-response","89","338960","0.0-18.0-0.23","7683","approach_avoid_sv1","""event"",""trial"",""time""
""fullscreenenter"",""1"",""11604""
""blur"",""41"",""244455""
""focus"",""41"",""250613""
","""event"",""trial"",""time""
""blur"",""41"",""244455""
","""event"",""trial"",""time""
""focus"",""41"",""250613""
","""event"",""trial"",""time""
""fullscreenenter"",""1"",""11604""
","
","","","","","","null","<div style=""font-size:60px;"">+</div>","null","","fixation","","",""
"memory-trial","90","341098","0.0-18.0-1.23","7683","approach_avoid_sv1","""event"",""trial"",""time""
""fullscreenenter"",""1"",""11604""
""blur"",""41"",""244455""
""focus"",""41"",""250613""
","""event"",""trial"",""time""
""blur"",""41"",""244455""
","""event"",""trial"",""time""
""focus"",""41"",""250613""
","""event"",""trial"",""time""
""fullscreenenter"",""1"",""11604""
","
","","","","","","1133.5","images/bed2.png","","","memory_trial","4","definitely_new",""
"html-keyboard-response","91","341601","0.0-18.0-0.24","7683","approach_avoid_sv1","""event"",""trial"",""time""
""fullscreenenter"",""1"",""11604""
""blur"",""41"",""244455""
""focus"",""41"",""250613""
","""event"",""trial"",""time""
""blur"",""41"",""244455""
","""event"",""trial"",""time""
""focus"",""41"",""250613""
","""event"",""trial"",""time""
""fullscreenenter"",""1"",""11604""
","
","","","","","","null","<div style=""font-size:60px;"">+</div>","null","","fixation","","",""
"memory-trial","92","344341","0.0-18.0-1.24","7683","approach_avoid_sv1","""event"",""trial"",""time""
""fullscreenenter"",""1"",""11604""
""blur"",""41"",""244455""
""focus"",""41"",""250613""
","""event"",""trial"",""time""
""blur"",""41"",""244455""
","""event"",""trial"",""time""
""focus"",""41"",""250613""
","""event"",""trial"",""time""
""fullscreenenter"",""1"",""11604""
","
","","","","","","1735.6000001430511","images/straw6.png","","","memory_trial","4","definitely_new",""
"html-keyboard-response","93","344844","0.0-18.0-0.25","7683","approach_avoid_sv1","""event"",""trial"",""time""
""fullscreenenter"",""1"",""11604""
""blur"",""41"",""244455""
""focus"",""41"",""250613""
","""event"",""trial"",""time""
""blur"",""41"",""244455""
","""event"",""trial"",""time""
""focus"",""41"",""250613""
","""event"",""trial"",""time""
""fullscreenenter"",""1"",""11604""
","
","","","","","","null","<div style=""font-size:60px;"">+</div>","null","","fixation","","",""
"memory-trial","94","348048","0.0-18.0-1.25","7683","approach_avoid_sv1","""event"",""trial"",""time""
""fullscreenenter"",""1"",""11604""
""blur"",""41"",""244455""
""focus"",""41"",""250613""
","""event"",""trial"",""time""
""blur"",""41"",""244455""
","""event"",""trial"",""time""
""focus"",""41"",""250613""
","""event"",""trial"",""time""
""fullscreenenter"",""1"",""11604""
","
","","","","","","2200.2999999523163","images/apple6.png","","","memory_trial","1","definitely_old",""
"html-keyboard-response","95","348550","0.0-18.0-0.26","7683","approach_avoid_sv1","""event"",""trial"",""time""
""fullscreenenter"",""1"",""11604""
""blur"",""41"",""244455""
""focus"",""41"",""250613""
","""event"",""trial"",""time""
""blur"",""41"",""244455""
","""event"",""trial"",""time""
""focus"",""41"",""250613""
","""event"",""trial"",""time""
""fullscreenenter"",""1"",""11604""
","
","","","","","","null","<div style=""font-size:60px;"">+</div>","null","","fixation","","",""
"memory-trial","96","354277","0.0-18.0-1.26","7683","approach_avoid_sv1","""event"",""trial"",""time""
""fullscreenenter"",""1"",""11604""
""blur"",""41"",""244455""
""focus"",""41"",""250613""
","""event"",""trial"",""time""
""blur"",""41"",""244455""
","""event"",""trial"",""time""
""focus"",""41"",""250613""
","""event"",""trial"",""time""
""fullscreenenter"",""1"",""11604""
","
","","","","","","4721.199999809265","images/cactus8.png","","","memory_trial","2","maybe_old",""
"html-keyboard-response","97","354778","0.0-18.0-0.27","7683","approach_avoid_sv1","""event"",""trial"",""time""
""fullscreenenter"",""1"",""11604""
""blur"",""41"",""244455""
""focus"",""41"",""250613""
","""event"",""trial"",""time""
""blur"",""41"",""244455""
","""event"",""trial"",""time""
""focus"",""41"",""250613""
","""event"",""trial"",""time""
""fullscreenenter"",""1"",""11604""
","
","","","","","","null","<div style=""font-size:60px;"">+</div>","null","","fixation","","",""
"memory-trial","98","358182","0.0-18.0-1.27","7683","approach_avoid_sv1","""event"",""trial"",""time""
""fullscreenenter"",""1"",""11604""
""blur"",""41"",""244455""
""focus"",""41"",""250613""
","""event"",""trial"",""time""
""blur"",""41"",""244455""
","""event"",""trial"",""time""
""focus"",""41"",""250613""
","""event"",""trial"",""time""
""fullscreenenter"",""1"",""11604""
","
","","","","","","2399.2999999523163","images/plane8.png","","","memory_trial","3","maybe_new",""
"html-keyboard-response","99","358684","0.0-18.0-0.28","7683","approach_avoid_sv1","""event"",""trial"",""time""
""fullscreenenter"",""1"",""11604""
""blur"",""41"",""244455""
""focus"",""41"",""250613""
","""event"",""trial"",""time""
""blur"",""41"",""244455""
","""event"",""trial"",""time""
""focus"",""41"",""250613""
","""event"",""trial"",""time""
""fullscreenenter"",""1"",""11604""
","
","","","","","","null","<div style=""font-size:60px;"">+</div>","null","","fixation","","",""
"memory-trial","100","363492","0.0-18.0-1.28","7683","approach_avoid_sv1","""event"",""trial"",""time""
""fullscreenenter"",""1"",""11604""
""blur"",""41"",""244455""
""focus"",""41"",""250613""
","""event"",""trial"",""time""
""blur"",""41"",""244455""
","""event"",""trial"",""time""
""focus"",""41"",""250613""
","""event"",""trial"",""time""
""fullscreenenter"",""1"",""11604""
","
","","","","","","3803","images/goat7.png","","","memory_trial","1","definitely_old",""
"html-keyboard-response","101","363993","0.0-18.0-0.29","7683","approach_avoid_sv1","""event"",""trial"",""time""
""fullscreenenter"",""1"",""11604""
""blur"",""41"",""244455""
""focus"",""41"",""250613""
","""event"",""trial"",""time""
""blur"",""41"",""244455""
","""event"",""trial"",""time""
""focus"",""41"",""250613""
","""event"",""trial"",""time""
""fullscreenenter"",""1"",""11604""
","
","","","","","","null","<div style=""font-size:60px;"">+</div>","null","","fixation","","",""
"memory-trial","102","367954","0.0-18.0-1.29","7683","approach_avoid_sv1","""event"",""trial"",""time""
""fullscreenenter"",""1"",""11604""
""blur"",""41"",""244455""
""focus"",""41"",""250613""
","""event"",""trial"",""time""
""blur"",""41"",""244455""
","""event"",""trial"",""time""
""focus"",""41"",""250613""
","""event"",""trial"",""time""
""fullscreenenter"",""1"",""11604""
","
","","","","","","2956.7000000476837","images/bush1.png","","","memory_trial","3","maybe_new",""
"html-keyboard-response","103","368456","0.0-18.0-0.30","7683","approach_avoid_sv1","""event"",""trial"",""time""
""fullscreenenter"",""1"",""11604""
""blur"",""41"",""244455""
""focus"",""41"",""250613""
","""event"",""trial"",""time""
""blur"",""41"",""244455""
","""event"",""trial"",""time""
""focus"",""41"",""250613""
","""event"",""trial"",""time""
""fullscreenenter"",""1"",""11604""
","
","","","","","","null","<div style=""font-size:60px;"">+</div>","null","","fixation","","",""
"memory-trial","104","373843","0.0-18.0-1.30","7683","approach_avoid_sv1","""event"",""trial"",""time""
""fullscreenenter"",""1"",""11604""
""blur"",""41"",""244455""
""focus"",""41"",""250613""
","""event"",""trial"",""time""
""blur"",""41"",""244455""
","""event"",""trial"",""time""
""focus"",""41"",""250613""
","""event"",""trial"",""time""
""fullscreenenter"",""1"",""11604""
","
","","","","","","4382","images/straw2.png","","","memory_trial","2","maybe_old",""
"html-keyboard-response","105","374345","0.0-18.0-0.31","7683","approach_avoid_sv1","""event"",""trial"",""time""
""fullscreenenter"",""1"",""11604""
""blur"",""41"",""244455""
""focus"",""41"",""250613""
","""event"",""trial"",""time""
""blur"",""41"",""244455""
","""event"",""trial"",""time""
""focus"",""41"",""250613""
","""event"",""trial"",""time""
""fullscreenenter"",""1"",""11604""
","
","","","","","","null","<div style=""font-size:60px;"">+</div>","null","","fixation","","",""
"memory-trial","106","376682","0.0-18.0-1.31","7683","approach_avoid_sv1","""event"",""trial"",""time""
""fullscreenenter"",""1"",""11604""
""blur"",""41"",""244455""
""focus"",""41"",""250613""
","""event"",""trial"",""time""
""blur"",""41"",""244455""
","""event"",""trial"",""time""
""focus"",""41"",""250613""
","""event"",""trial"",""time""
""fullscreenenter"",""1"",""11604""
","
","","","","","","1332.5","images/train8.png","","","memory_trial","1","definitely_old",""
"html-keyboard-response","107","377184","0.0-18.0-0.32","7683","approach_avoid_sv1","""event"",""trial"",""time""
""fullscreenenter"",""1"",""11604""
""blur"",""41"",""244455""
""focus"",""41"",""250613""
","""event"",""trial"",""time""
""blur"",""41"",""244455""
","""event"",""trial"",""time""
""focus"",""41"",""250613""
","""event"",""trial"",""time""
""fullscreenenter"",""1"",""11604""
","
","","","","","","null","<div style=""font-size:60px;"">+</div>","null","","fixation","","",""
"memory-trial","108","379258","0.0-18.0-1.32","7683","approach_avoid_sv1","""event"",""trial"",""time""
""fullscreenenter"",""1"",""11604""
""blur"",""41"",""244455""
""focus"",""41"",""250613""
","""event"",""trial"",""time""
""blur"",""41"",""244455""
","""event"",""trial"",""time""
""focus"",""41"",""250613""
","""event"",""trial"",""time""
""fullscreenenter"",""1"",""11604""
","
","","","","","","1070","images/horse5.png","","","memory_trial","1","definitely_old",""
"html-keyboard-response","109","379760","0.0-18.0-0.33","7683","approach_avoid_sv1","""event"",""trial"",""time""
""fullscreenenter"",""1"",""11604""
""blur"",""41"",""244455""
""focus"",""41"",""250613""
","""event"",""trial"",""time""
""blur"",""41"",""244455""
","""event"",""trial"",""time""
""focus"",""41"",""250613""
","""event"",""trial"",""time""
""fullscreenenter"",""1"",""11604""
","
","","","","","","null","<div style=""font-size:60px;"">+</div>","null","","fixation","","",""
"memory-trial","110","382304","0.0-18.0-1.33","7683","approach_avoid_sv1","""event"",""trial"",""time""
""fullscreenenter"",""1"",""11604""
""blur"",""41"",""244455""
""focus"",""41"",""250613""
","""event"",""trial"",""time""
""blur"",""41"",""244455""
","""event"",""trial"",""time""
""focus"",""41"",""250613""
","""event"",""trial"",""time""
""fullscreenenter"",""1"",""11604""
","
","","","","","","1539.7000000476837","images/bush4.png","","","memory_trial","4","definitely_new",""
"html-keyboard-response","111","382806","0.0-18.0-0.34","7683","approach_avoid_sv1","""event"",""trial"",""time""
""fullscreenenter"",""1"",""11604""
""blur"",""41"",""244455""
""focus"",""41"",""250613""
","""event"",""trial"",""time""
""blur"",""41"",""244455""
","""event"",""trial"",""time""
""focus"",""41"",""250613""
","""event"",""trial"",""time""
""fullscreenenter"",""1"",""11604""
","
","","","","","","null","<div style=""font-size:60px;"">+</div>","null","","fixation","","",""
"memory-trial","112","386064","0.0-18.0-1.34","7683","approach_avoid_sv1","""event"",""trial"",""time""
""fullscreenenter"",""1"",""11604""
""blur"",""41"",""244455""
""focus"",""41"",""250613""
","""event"",""trial"",""time""
""blur"",""41"",""244455""
","""event"",""trial"",""time""
""focus"",""41"",""250613""
","""event"",""trial"",""time""
""fullscreenenter"",""1"",""11604""
","
","","","","","","2254.2000000476837","images/horse4.png","","","memory_trial","2","maybe_old",""
"html-keyboard-response","113","386566","0.0-18.0-0.35","7683","approach_avoid_sv1","""event"",""trial"",""time""
""fullscreenenter"",""1"",""11604""
""blur"",""41"",""244455""
""focus"",""41"",""250613""
","""event"",""trial"",""time""
""blur"",""41"",""244455""
","""event"",""trial"",""time""
""focus"",""41"",""250613""
","""event"",""trial"",""time""
""fullscreenenter"",""1"",""11604""
","
","","","","","","null","<div style=""font-size:60px;"">+</div>","null","","fixation","","",""
"memory-trial","114","390189","0.0-18.0-1.35","7683","approach_avoid_sv1","""event"",""trial"",""time""
""fullscreenenter"",""1"",""11604""
""blur"",""41"",""244455""
""focus"",""41"",""250613""
","""event"",""trial"",""time""
""blur"",""41"",""244455""
","""event"",""trial"",""time""
""focus"",""41"",""250613""
","""event"",""trial"",""time""
""fullscreenenter"",""1"",""11604""
","
","","","","","","2617.9000000953674","images/dog2.png","","","memory_trial","3","maybe_new",""
"html-keyboard-response","115","390691","0.0-18.0-0.36","7683","approach_avoid_sv1","""event"",""trial"",""time""
""fullscreenenter"",""1"",""11604""
""blur"",""41"",""244455""
""focus"",""41"",""250613""
","""event"",""trial"",""time""
""blur"",""41"",""244455""
","""event"",""trial"",""time""
""focus"",""41"",""250613""
","""event"",""trial"",""time""
""fullscreenenter"",""1"",""11604""
","
","","","","","","null","<div style=""font-size:60px;"">+</div>","null","","fixation","","",""
"memory-trial","116","394904","0.0-18.0-1.36","7683","approach_avoid_sv1","""event"",""trial"",""time""
""fullscreenenter"",""1"",""11604""
""blur"",""41"",""244455""
""focus"",""41"",""250613""
","""event"",""trial"",""time""
""blur"",""41"",""244455""
","""event"",""trial"",""time""
""focus"",""41"",""250613""
","""event"",""trial"",""time""
""fullscreenenter"",""1"",""11604""
","
","","","","","","3207.399999856949","images/orange8.png","","","memory_trial","4","definitely_new",""
"html-keyboard-response","117","395407","0.0-18.0-0.37","7683","approach_avoid_sv1","""event"",""trial"",""time""
""fullscreenenter"",""1"",""11604""
""blur"",""41"",""244455""
""focus"",""41"",""250613""
","""event"",""trial"",""time""
""blur"",""41"",""244455""
","""event"",""trial"",""time""
""focus"",""41"",""250613""
","""event"",""trial"",""time""
""fullscreenenter"",""1"",""11604""
","
","","","","","","null","<div style=""font-size:60px;"">+</div>","null","","fixation","","",""
"memory-trial","118","398466","0.0-18.0-1.37","7683","approach_avoid_sv1","""event"",""trial"",""time""
""fullscreenenter"",""1"",""11604""
""blur"",""41"",""244455""
""focus"",""41"",""250613""
","""event"",""trial"",""time""
""blur"",""41"",""244455""
","""event"",""trial"",""time""
""focus"",""41"",""250613""
","""event"",""trial"",""time""
""fullscreenenter"",""1"",""11604""
","
","","","","","","2053.2000000476837","images/cow8.png","","","memory_trial","3","maybe_new",""
"html-keyboard-response","119","398968","0.0-18.0-0.38","7683","approach_avoid_sv1","""event"",""trial"",""time""
""fullscreenenter"",""1"",""11604""
""blur"",""41"",""244455""
""focus"",""41"",""250613""
","""event"",""trial"",""time""
""blur"",""41"",""244455""
","""event"",""trial"",""time""
""focus"",""41"",""250613""
","""event"",""trial"",""time""
""fullscreenenter"",""1"",""11604""
","
","","","","","","null","<div style=""font-size:60px;"">+</div>","null","","fixation","","",""
"memory-trial","120","401517","0.0-18.0-1.38","7683","approach_avoid_sv1","""event"",""trial"",""time""
""fullscreenenter"",""1"",""11604""
""blur"",""41"",""244455""
""focus"",""41"",""250613""
","""event"",""trial"",""time""
""blur"",""41"",""244455""
","""event"",""trial"",""time""
""focus"",""41"",""250613""
","""event"",""trial"",""time""
""fullscreenenter"",""1"",""11604""
","
","","","","","","1543.5","images/table7.png","","","memory_trial","1","definitely_old",""
"html-keyboard-response","121","402020","0.0-18.0-0.39","7683","approach_avoid_sv1","""event"",""trial"",""time""
""fullscreenenter"",""1"",""11604""
""blur"",""41"",""244455""
""focus"",""41"",""250613""
","""event"",""trial"",""time""
""blur"",""41"",""244455""
","""event"",""trial"",""time""
""focus"",""41"",""250613""
","""event"",""trial"",""time""
""fullscreenenter"",""1"",""11604""
","
","","","","","","null","<div style=""font-size:60px;"">+</div>","null","","fixation","","",""
"memory-trial","122","404196","0.0-18.0-1.39","7683","approach_avoid_sv1","""event"",""trial"",""time""
""fullscreenenter"",""1"",""11604""
""blur"",""41"",""244455""
""focus"",""41"",""250613""
","""event"",""trial"",""time""
""blur"",""41"",""244455""
","""event"",""trial"",""time""
""focus"",""41"",""250613""
","""event"",""trial"",""time""
""fullscreenenter"",""1"",""11604""
","
","","","","","","1171.5","images/plane4.png","","","memory_trial","1","definitely_old",""
"html-keyboard-response","123","404697","0.0-18.0-0.40","7683","approach_avoid_sv1","""event"",""trial"",""time""
""fullscreenenter"",""1"",""11604""
""blur"",""41"",""244455""
""focus"",""41"",""250613""
","""event"",""trial"",""time""
""blur"",""41"",""244455""
","""event"",""trial"",""time""
""focus"",""41"",""250613""
","""event"",""trial"",""time""
""fullscreenenter"",""1"",""11604""
","
","","","","","","null","<div style=""font-size:60px;"">+</div>","null","","fixation","","",""
"memory-trial","124","406575","0.0-18.0-1.40","7683","approach_avoid_sv1","""event"",""trial"",""time""
""fullscreenenter"",""1"",""11604""
""blur"",""41"",""244455""
""focus"",""41"",""250613""
","""event"",""trial"",""time""
""blur"",""41"",""244455""
","""event"",""trial"",""time""
""focus"",""41"",""250613""
","""event"",""trial"",""time""
""fullscreenenter"",""1"",""11604""
","
","","","","","","873.7999999523163","images/tree4.png","","","memory_trial","1","definitely_old",""
"html-keyboard-response","125","407077","0.0-18.0-0.41","7683","approach_avoid_sv1","""event"",""trial"",""time""
""fullscreenenter"",""1"",""11604""
""blur"",""41"",""244455""
""focus"",""41"",""250613""
","""event"",""trial"",""time""
""blur"",""41"",""244455""
","""event"",""trial"",""time""
""focus"",""41"",""250613""
","""event"",""trial"",""time""
""fullscreenenter"",""1"",""11604""
","
","","","","","","null","<div style=""font-size:60px;"">+</div>","null","","fixation","","",""
"memory-trial","126","411801","0.0-18.0-1.41","7683","approach_avoid_sv1","""event"",""trial"",""time""
""fullscreenenter"",""1"",""11604""
""blur"",""41"",""244455""
""focus"",""41"",""250613""
","""event"",""trial"",""time""
""blur"",""41"",""244455""
","""event"",""trial"",""time""
""focus"",""41"",""250613""
","""event"",""trial"",""time""
""fullscreenenter"",""1"",""11604""
","
","","","","","","3719.2999999523163","images/goat8.png","","","memory_trial","2","maybe_old",""
"html-button-response","127","416817","0.0-18.0-2.41-0.41","7683","approach_avoid_sv1","""event"",""trial"",""time""
""fullscreenenter"",""1"",""11604""
""blur"",""41"",""244455""
""focus"",""41"",""250613""
","""event"",""trial"",""time""
""blur"",""41"",""244455""
","""event"",""trial"",""time""
""focus"",""41"",""250613""
","""event"",""trial"",""time""
""fullscreenenter"",""1"",""11604""
","
","","","","","","5014","<p> Take a break! </p><p> Click the button to continue. </p>","0","","break","","",""
"html-keyboard-response","128","417318","0.0-18.0-0.42","7683","approach_avoid_sv1","""event"",""trial"",""time""
""fullscreenenter"",""1"",""11604""
""blur"",""41"",""244455""
""focus"",""41"",""250613""
","""event"",""trial"",""time""
""blur"",""41"",""244455""
","""event"",""trial"",""time""
""focus"",""41"",""250613""
","""event"",""trial"",""time""
""fullscreenenter"",""1"",""11604""
","
","","","","","","null","<div style=""font-size:60px;"">+</div>","null","","fixation","","",""
"memory-trial","129","419795","0.0-18.0-1.42","7683","approach_avoid_sv1","""event"",""trial"",""time""
""fullscreenenter"",""1"",""11604""
""blur"",""41"",""244455""
""focus"",""41"",""250613""
","""event"",""trial"",""time""
""blur"",""41"",""244455""
","""event"",""trial"",""time""
""focus"",""41"",""250613""
","""event"",""trial"",""time""
""fullscreenenter"",""1"",""11604""
","
","","","","","","1471.6999998092651","images/sofa3.png","","","memory_trial","1","definitely_old",""
"html-keyboard-response","130","420297","0.0-18.0-0.43","7683","approach_avoid_sv1","""event"",""trial"",""time""
""fullscreenenter"",""1"",""11604""
""blur"",""41"",""244455""
""focus"",""41"",""250613""
","""event"",""trial"",""time""
""blur"",""41"",""244455""
","""event"",""trial"",""time""
""focus"",""41"",""250613""
","""event"",""trial"",""time""
""fullscreenenter"",""1"",""11604""
","
","","","","","","null","<div style=""font-size:60px;"">+</div>","null","","fixation","","",""
"memory-trial","131","422089","0.0-18.0-1.43","7683","approach_avoid_sv1","""event"",""trial"",""time""
""fullscreenenter"",""1"",""11604""
""blur"",""41"",""244455""
""focus"",""41"",""250613""
","""event"",""trial"",""time""
""blur"",""41"",""244455""
","""event"",""trial"",""time""
""focus"",""41"",""250613""
","""event"",""trial"",""time""
""fullscreenenter"",""1"",""11604""
","
","","","","","","787.5999999046326","images/bed6.png","","","memory_trial","1","definitely_old",""
"html-keyboard-response","132","422591","0.0-18.0-0.44","7683","approach_avoid_sv1","""event"",""trial"",""time""
""fullscreenenter"",""1"",""11604""
""blur"",""41"",""244455""
""focus"",""41"",""250613""
","""event"",""trial"",""time""
""blur"",""41"",""244455""
","""event"",""trial"",""time""
""focus"",""41"",""250613""
","""event"",""trial"",""time""
""fullscreenenter"",""1"",""11604""
","
","","","","","","null","<div style=""font-size:60px;"">+</div>","null","","fixation","","",""
"memory-trial","133","425057","0.0-18.0-1.44","7683","approach_avoid_sv1","""event"",""trial"",""time""
""fullscreenenter"",""1"",""11604""
""blur"",""41"",""244455""
""focus"",""41"",""250613""
","""event"",""trial"",""time""
""blur"",""41"",""244455""
","""event"",""trial"",""time""
""focus"",""41"",""250613""
","""event"",""trial"",""time""
""fullscreenenter"",""1"",""11604""
","
","","","","","","1461.8000001907349","images/train6.png","","","memory_trial","4","definitely_new",""
"html-keyboard-response","134","425560","0.0-18.0-0.45","7683","approach_avoid_sv1","""event"",""trial"",""time""
""fullscreenenter"",""1"",""11604""
""blur"",""41"",""244455""
""focus"",""41"",""250613""
","""event"",""trial"",""time""
""blur"",""41"",""244455""
","""event"",""trial"",""time""
""focus"",""41"",""250613""
","""event"",""trial"",""time""
""fullscreenenter"",""1"",""11604""
","
","","","","","","null","<div style=""font-size:60px;"">+</div>","null","","fixation","","",""
"memory-trial","135","428053","0.0-18.0-1.45","7683","approach_avoid_sv1","""event"",""trial"",""time""
""fullscreenenter"",""1"",""11604""
""blur"",""41"",""244455""
""focus"",""41"",""250613""
","""event"",""trial"",""time""
""blur"",""41"",""244455""
","""event"",""trial"",""time""
""focus"",""41"",""250613""
","""event"",""trial"",""time""
""fullscreenenter"",""1"",""11604""
","
","","","","","","1487.4000000953674","images/sofa2.png","","","memory_trial","4","definitely_new",""
"html-keyboard-response","136","428554","0.0-18.0-0.46","7683","approach_avoid_sv1","""event"",""trial"",""time""
""fullscreenenter"",""1"",""11604""
""blur"",""41"",""244455""
""focus"",""41"",""250613""
","""event"",""trial"",""time""
""blur"",""41"",""244455""
","""event"",""trial"",""time""
""focus"",""41"",""250613""
","""event"",""trial"",""time""
""fullscreenenter"",""1"",""11604""
","
","","","","","","null","<div style=""font-size:60px;"">+</div>","null","","fixation","","",""
"memory-trial","137","433569","0.0-18.0-1.46","7683","approach_avoid_sv1","""event"",""trial"",""time""
""fullscreenenter"",""1"",""11604""
""blur"",""41"",""244455""
""focus"",""41"",""250613""
","""event"",""trial"",""time""
""blur"",""41"",""244455""
","""event"",""trial"",""time""
""focus"",""41"",""250613""
","""event"",""trial"",""time""
""fullscreenenter"",""1"",""11604""
","
","","","","","","4011.699999809265","images/boat8.png","","","memory_trial","4","definitely_new",""
"html-keyboard-response","138","434071","0.0-18.0-0.47","7683","approach_avoid_sv1","""event"",""trial"",""time""
""fullscreenenter"",""1"",""11604""
""blur"",""41"",""244455""
""focus"",""41"",""250613""
","""event"",""trial"",""time""
""blur"",""41"",""244455""
","""event"",""trial"",""time""
""focus"",""41"",""250613""
","""event"",""trial"",""time""
""fullscreenenter"",""1"",""11604""
","
","","","","","","null","<div style=""font-size:60px;"">+</div>","null","","fixation","","",""
"memory-trial","139","436278","0.0-18.0-1.47","7683","approach_avoid_sv1","""event"",""trial"",""time""
""fullscreenenter"",""1"",""11604""
""blur"",""41"",""244455""
""focus"",""41"",""250613""
","""event"",""trial"",""time""
""blur"",""41"",""244455""
","""event"",""trial"",""time""
""focus"",""41"",""250613""
","""event"",""trial"",""time""
""fullscreenenter"",""1"",""11604""
","
","","","","","","1201.0999999046326","images/orange5.png","","","memory_trial","1","definitely_old",""
"html-keyboard-response","140","436780","0.0-18.0-0.48","7683","approach_avoid_sv1","""event"",""trial"",""time""
""fullscreenenter"",""1"",""11604""
""blur"",""41"",""244455""
""focus"",""41"",""250613""
","""event"",""trial"",""time""
""blur"",""41"",""244455""
","""event"",""trial"",""time""
""focus"",""41"",""250613""
","""event"",""trial"",""time""
""fullscreenenter"",""1"",""11604""
","
","","","","","","null","<div style=""font-size:60px;"">+</div>","null","","fixation","","",""
"memory-trial","141","439160","0.0-18.0-1.48","7683","approach_avoid_sv1","""event"",""trial"",""time""
""fullscreenenter"",""1"",""11604""
""blur"",""41"",""244455""
""focus"",""41"",""250613""
","""event"",""trial"",""time""
""blur"",""41"",""244455""
","""event"",""trial"",""time""
""focus"",""41"",""250613""
","""event"",""trial"",""time""
""fullscreenenter"",""1"",""11604""
","
","","","","","","1376.8999998569489","images/chair6.png","","","memory_trial","4","definitely_new",""
"html-keyboard-response","142","439662","0.0-18.0-0.49","7683","approach_avoid_sv1","""event"",""trial"",""time""
""fullscreenenter"",""1"",""11604""
""blur"",""41"",""244455""
""focus"",""41"",""250613""
","""event"",""trial"",""time""
""blur"",""41"",""244455""
","""event"",""trial"",""time""
""focus"",""41"",""250613""
","""event"",""trial"",""time""
""fullscreenenter"",""1"",""11604""
","
","","","","","","null","<div style=""font-size:60px;"">+</div>","null","","fixation","","",""
"memory-trial","143","441877","0.0-18.0-1.49","7683","approach_avoid_sv1","""event"",""trial"",""time""
""fullscreenenter"",""1"",""11604""
""blur"",""41"",""244455""
""focus"",""41"",""250613""
","""event"",""trial"",""time""
""blur"",""41"",""244455""
","""event"",""trial"",""time""
""focus"",""41"",""250613""
","""event"",""trial"",""time""
""fullscreenenter"",""1"",""11604""
","
","","","","","","1210.8000001907349","images/boat4.png","","","memory_trial","4","definitely_new",""
"html-keyboard-response","144","442379","0.0-18.0-0.50","7683","approach_avoid_sv1","""event"",""trial"",""time""
""fullscreenenter"",""1"",""11604""
""blur"",""41"",""244455""
""focus"",""41"",""250613""
","""event"",""trial"",""time""
""blur"",""41"",""244455""
","""event"",""trial"",""time""
""focus"",""41"",""250613""
","""event"",""trial"",""time""
""fullscreenenter"",""1"",""11604""
","
","","","","","","null","<div style=""font-size:60px;"">+</div>","null","","fixation","","",""
"memory-trial","145","444821","0.0-18.0-1.50","7683","approach_avoid_sv1","""event"",""trial"",""time""
""fullscreenenter"",""1"",""11604""
""blur"",""41"",""244455""
""focus"",""41"",""250613""
","""event"",""trial"",""time""
""blur"",""41"",""244455""
","""event"",""trial"",""time""
""focus"",""41"",""250613""
","""event"",""trial"",""time""
""fullscreenenter"",""1"",""11604""
","
","","","","","","1437.5999999046326","images/truck5.png","","","memory_trial","1","definitely_old",""
"html-keyboard-response","146","445322","0.0-18.0-0.51","7683","approach_avoid_sv1","""event"",""trial"",""time""
""fullscreenenter"",""1"",""11604""
""blur"",""41"",""244455""
""focus"",""41"",""250613""
","""event"",""trial"",""time""
""blur"",""41"",""244455""
","""event"",""trial"",""time""
""focus"",""41"",""250613""
","""event"",""trial"",""time""
""fullscreenenter"",""1"",""11604""
","
","","","","","","null","<div style=""font-size:60px;"">+</div>","null","","fixation","","",""
"memory-trial","147","447765","0.0-18.0-1.51","7683","approach_avoid_sv1","""event"",""trial"",""time""
""fullscreenenter"",""1"",""11604""
""blur"",""41"",""244455""
""focus"",""41"",""250613""
","""event"",""trial"",""time""
""blur"",""41"",""244455""
","""event"",""trial"",""time""
""focus"",""41"",""250613""
","""event"",""trial"",""time""
""fullscreenenter"",""1"",""11604""
","
","","","","","","1439.2999999523163","images/cat5.png","","","memory_trial","2","maybe_old",""
"html-keyboard-response","148","448268","0.0-18.0-0.52","7683","approach_avoid_sv1","""event"",""trial"",""time""
""fullscreenenter"",""1"",""11604""
""blur"",""41"",""244455""
""focus"",""41"",""250613""
","""event"",""trial"",""time""
""blur"",""41"",""244455""
","""event"",""trial"",""time""
""focus"",""41"",""250613""
","""event"",""trial"",""time""
""fullscreenenter"",""1"",""11604""
","
","","","","","","null","<div style=""font-size:60px;"">+</div>","null","","fixation","","",""
"memory-trial","149","451432","0.0-18.0-1.52","7683","approach_avoid_sv1","""event"",""trial"",""time""
""fullscreenenter"",""1"",""11604""
""blur"",""41"",""244455""
""focus"",""41"",""250613""
","""event"",""trial"",""time""
""blur"",""41"",""244455""
","""event"",""trial"",""time""
""focus"",""41"",""250613""
","""event"",""trial"",""time""
""fullscreenenter"",""1"",""11604""
","
","","","","","","2159.199999809265","images/sheep1.png","","","memory_trial","3","maybe_new",""
"html-keyboard-response","150","451933","0.0-18.0-0.53","7683","approach_avoid_sv1","""event"",""trial"",""time""
""fullscreenenter"",""1"",""11604""
""blur"",""41"",""244455""
""focus"",""41"",""250613""
","""event"",""trial"",""time""
""blur"",""41"",""244455""
","""event"",""trial"",""time""
""focus"",""41"",""250613""
","""event"",""trial"",""time""
""fullscreenenter"",""1"",""11604""
","
","","","","","","null","<div style=""font-size:60px;"">+</div>","null","","fixation","","",""
"memory-trial","151","453919","0.0-18.0-1.53","7683","approach_avoid_sv1","""event"",""trial"",""time""
""fullscreenenter"",""1"",""11604""
""blur"",""41"",""244455""
""focus"",""41"",""250613""
","""event"",""trial"",""time""
""blur"",""41"",""244455""
","""event"",""trial"",""time""
""focus"",""41"",""250613""
","""event"",""trial"",""time""
""fullscreenenter"",""1"",""11604""
","
","","","","","","978.5","images/flower8.png","","","memory_trial","1","definitely_old",""
"html-keyboard-response","152","454421","0.0-18.0-0.54","7683","approach_avoid_sv1","""event"",""trial"",""time""
""fullscreenenter"",""1"",""11604""
""blur"",""41"",""244455""
""focus"",""41"",""250613""
","""event"",""trial"",""time""
""blur"",""41"",""244455""
","""event"",""trial"",""time""
""focus"",""41"",""250613""
","""event"",""trial"",""time""
""fullscreenenter"",""1"",""11604""
","
","","","","","","null","<div style=""font-size:60px;"">+</div>","null","","fixation","","",""
"memory-trial","153","456733","0.0-18.0-1.54","7683","approach_avoid_sv1","""event"",""trial"",""time""
""fullscreenenter"",""1"",""11604""
""blur"",""41"",""244455""
""focus"",""41"",""250613""
","""event"",""trial"",""time""
""blur"",""41"",""244455""
","""event"",""trial"",""time""
""focus"",""41"",""250613""
","""event"",""trial"",""time""
""fullscreenenter"",""1"",""11604""
","
","","","","","","1309.2999999523163","images/bed1.png","","","memory_trial","1","definitely_old",""
"html-keyboard-response","154","457235","0.0-18.0-0.55","7683","approach_avoid_sv1","""event"",""trial"",""time""
""fullscreenenter"",""1"",""11604""
""blur"",""41"",""244455""
""focus"",""41"",""250613""
","""event"",""trial"",""time""
""blur"",""41"",""244455""
","""event"",""trial"",""time""
""focus"",""41"",""250613""
","""event"",""trial"",""time""
""fullscreenenter"",""1"",""11604""
","
","","","","","","null","<div style=""font-size:60px;"">+</div>","null","","fixation","","",""
"memory-trial","155","460395","0.0-18.0-1.55","7683","approach_avoid_sv1","""event"",""trial"",""time""
""fullscreenenter"",""1"",""11604""
""blur"",""41"",""244455""
""focus"",""41"",""250613""
","""event"",""trial"",""time""
""blur"",""41"",""244455""
","""event"",""trial"",""time""
""focus"",""41"",""250613""
","""event"",""trial"",""time""
""fullscreenenter"",""1"",""11604""
","
","","","","","","2155.2999999523163","images/tree3.png","","","memory_trial","3","maybe_new",""
"html-keyboard-response","156","460896","0.0-18.0-0.56","7683","approach_avoid_sv1","""event"",""trial"",""time""
""fullscreenenter"",""1"",""11604""
""blur"",""41"",""244455""
""focus"",""41"",""250613""
","""event"",""trial"",""time""
""blur"",""41"",""244455""
","""event"",""trial"",""time""
""focus"",""41"",""250613""
","""event"",""trial"",""time""
""fullscreenenter"",""1"",""11604""
","
","","","","","","null","<div style=""font-size:60px;"">+</div>","null","","fixation","","",""
"memory-trial","157","462792","0.0-18.0-1.56","7683","approach_avoid_sv1","""event"",""trial"",""time""
""fullscreenenter"",""1"",""11604""
""blur"",""41"",""244455""
""focus"",""41"",""250613""
","""event"",""trial"",""time""
""blur"",""41"",""244455""
","""event"",""trial"",""time""
""focus"",""41"",""250613""
","""event"",""trial"",""time""
""fullscreenenter"",""1"",""11604""
","
","","","","","","890.2000000476837","images/rabbit1.png","","","memory_trial","1","definitely_old",""
"html-keyboard-response","158","463294","0.0-18.0-0.57","7683","approach_avoid_sv1","""event"",""trial"",""time""
""fullscreenenter"",""1"",""11604""
""blur"",""41"",""244455""
""focus"",""41"",""250613""
","""event"",""trial"",""time""
""blur"",""41"",""244455""
","""event"",""trial"",""time""
""focus"",""41"",""250613""
","""event"",""trial"",""time""
""fullscreenenter"",""1"",""11604""
","
","","","","","","null","<div style=""font-size:60px;"">+</div>","null","","fixation","","",""
"memory-trial","159","465012","0.0-18.0-1.57","7683","approach_avoid_sv1","""event"",""trial"",""time""
""fullscreenenter"",""1"",""11604""
""blur"",""41"",""244455""
""focus"",""41"",""250613""
","""event"",""trial"",""time""
""blur"",""41"",""244455""
","""event"",""trial"",""time""
""focus"",""41"",""250613""
","""event"",""trial"",""time""
""fullscreenenter"",""1"",""11604""
","
","","","","","","714","images/boat7.png","","","memory_trial","4","definitely_new",""
"html-keyboard-response","160","465514","0.0-18.0-0.58","7683","approach_avoid_sv1","""event"",""trial"",""time""
""fullscreenenter"",""1"",""11604""
""blur"",""41"",""244455""
""focus"",""41"",""250613""
","""event"",""trial"",""time""
""blur"",""41"",""244455""
","""event"",""trial"",""time""
""focus"",""41"",""250613""
","""event"",""trial"",""time""
""fullscreenenter"",""1"",""11604""
","
","","","","","","null","<div style=""font-size:60px;"">+</div>","null","","fixation","","",""
"memory-trial","161","467323","0.0-18.0-1.58","7683","approach_avoid_sv1","""event"",""trial"",""time""
""fullscreenenter"",""1"",""11604""
""blur"",""41"",""244455""
""focus"",""41"",""250613""
","""event"",""trial"",""time""
""blur"",""41"",""244455""
","""event"",""trial"",""time""
""focus"",""41"",""250613""
","""event"",""trial"",""time""
""fullscreenenter"",""1"",""11604""
","
","","","","","","804.9000000953674","images/plane1.png","","","memory_trial","1","definitely_old",""
"html-keyboard-response","162","467825","0.0-18.0-0.59","7683","approach_avoid_sv1","""event"",""trial"",""time""
""fullscreenenter"",""1"",""11604""
""blur"",""41"",""244455""
""focus"",""41"",""250613""
","""event"",""trial"",""time""
""blur"",""41"",""244455""
","""event"",""trial"",""time""
""focus"",""41"",""250613""
","""event"",""trial"",""time""
""fullscreenenter"",""1"",""11604""
","
","","","","","","null","<div style=""font-size:60px;"">+</div>","null","","fixation","","",""
"memory-trial","163","469486","0.0-18.0-1.59","7683","approach_avoid_sv1","""event"",""trial"",""time""
""fullscreenenter"",""1"",""11604""
""blur"",""41"",""244455""
""focus"",""41"",""250613""
","""event"",""trial"",""time""
""blur"",""41"",""244455""
","""event"",""trial"",""time""
""focus"",""41"",""250613""
","""event"",""trial"",""time""
""fullscreenenter"",""1"",""11604""
","
","","","","","","657.5","images/straw1.png","","","memory_trial","1","definitely_old",""
"html-keyboard-response","164","469989","0.0-18.0-0.60","7683","approach_avoid_sv1","""event"",""trial"",""time""
""fullscreenenter"",""1"",""11604""
""blur"",""41"",""244455""
""focus"",""41"",""250613""
","""event"",""trial"",""time""
""blur"",""41"",""244455""
","""event"",""trial"",""time""
""focus"",""41"",""250613""
","""event"",""trial"",""time""
""fullscreenenter"",""1"",""11604""
","
","","","","","","null","<div style=""font-size:60px;"">+</div>","null","","fixation","","",""
"memory-trial","165","472238","0.0-18.0-1.60","7683","approach_avoid_sv1","""event"",""trial"",""time""
""fullscreenenter"",""1"",""11604""
""blur"",""41"",""244455""
""focus"",""41"",""250613""
","""event"",""trial"",""time""
""blur"",""41"",""244455""
","""event"",""trial"",""time""
""focus"",""41"",""250613""
","""event"",""trial"",""time""
""fullscreenenter"",""1"",""11604""
","
","","","","","","1245.1999998092651","images/flower5.png","","","memory_trial","1","definitely_old",""
"html-keyboard-response","166","472740","0.0-18.0-0.61","7683","approach_avoid_sv1","""event"",""trial"",""time""
""fullscreenenter"",""1"",""11604""
""blur"",""41"",""244455""
""focus"",""41"",""250613""
","""event"",""trial"",""time""
""blur"",""41"",""244455""
","""event"",""trial"",""time""
""focus"",""41"",""250613""
","""event"",""trial"",""time""
""fullscreenenter"",""1"",""11604""
","
","","","","","","null","<div style=""font-size:60px;"">+</div>","null","","fixation","","",""
"memory-trial","167","476164","0.0-18.0-1.61","7683","approach_avoid_sv1","""event"",""trial"",""time""
""fullscreenenter"",""1"",""11604""
""blur"",""41"",""244455""
""focus"",""41"",""250613""
","""event"",""trial"",""time""
""blur"",""41"",""244455""
","""event"",""trial"",""time""
""focus"",""41"",""250613""
","""event"",""trial"",""time""
""fullscreenenter"",""1"",""11604""
","
","","","","","","2421.100000143051","images/bush8.png","","","memory_trial","3","maybe_new",""
"html-keyboard-response","168","476665","0.0-18.0-0.62","7683","approach_avoid_sv1","""event"",""trial"",""time""
""fullscreenenter"",""1"",""11604""
""blur"",""41"",""244455""
""focus"",""41"",""250613""
","""event"",""trial"",""time""
""blur"",""41"",""244455""
","""event"",""trial"",""time""
""focus"",""41"",""250613""
","""event"",""trial"",""time""
""fullscreenenter"",""1"",""11604""
","
","","","","","","null","<div style=""font-size:60px;"">+</div>","null","","fixation","","",""
"memory-trial","169","478459","0.0-18.0-1.62","7683","approach_avoid_sv1","""event"",""trial"",""time""
""fullscreenenter"",""1"",""11604""
""blur"",""41"",""244455""
""focus"",""41"",""250613""
","""event"",""trial"",""time""
""blur"",""41"",""244455""
","""event"",""trial"",""time""
""focus"",""41"",""250613""
","""event"",""trial"",""time""
""fullscreenenter"",""1"",""11604""
","
","","","","","","787.2999999523163","images/train3.png","","","memory_trial","1","definitely_old",""
"html-keyboard-response","170","478960","0.0-18.0-0.63","7683","approach_avoid_sv1","""event"",""trial"",""time""
""fullscreenenter"",""1"",""11604""
""blur"",""41"",""244455""
""focus"",""41"",""250613""
","""event"",""trial"",""time""
""blur"",""41"",""244455""
","""event"",""trial"",""time""
""focus"",""41"",""250613""
","""event"",""trial"",""time""
""fullscreenenter"",""1"",""11604""
","
","","","","","","null","<div style=""font-size:60px;"">+</div>","null","","fixation","","",""
"memory-trial","171","483713","0.0-18.0-1.63","7683","approach_avoid_sv1","""event"",""trial"",""time""
""fullscreenenter"",""1"",""11604""
""blur"",""41"",""244455""
""focus"",""41"",""250613""
","""event"",""trial"",""time""
""blur"",""41"",""244455""
","""event"",""trial"",""time""
""focus"",""41"",""250613""
","""event"",""trial"",""time""
""fullscreenenter"",""1"",""11604""
","
","","","","","","3749.4000000953674","images/flower6.png","","","memory_trial","2","maybe_old",""
"html-keyboard-response","172","484215","0.0-18.0-0.64","7683","approach_avoid_sv1","""event"",""trial"",""time""
""fullscreenenter"",""1"",""11604""
""blur"",""41"",""244455""
""focus"",""41"",""250613""
","""event"",""trial"",""time""
""blur"",""41"",""244455""
","""event"",""trial"",""time""
""focus"",""41"",""250613""
","""event"",""trial"",""time""
""fullscreenenter"",""1"",""11604""
","
","","","","","","null","<div style=""font-size:60px;"">+</div>","null","","fixation","","",""
"memory-trial","173","487256","0.0-18.0-1.64","7683","approach_avoid_sv1","""event"",""trial"",""time""
""fullscreenenter"",""1"",""11604""
""blur"",""41"",""244455""
""focus"",""41"",""250613""
","""event"",""trial"",""time""
""blur"",""41"",""244455""
","""event"",""trial"",""time""
""focus"",""41"",""250613""
","""event"",""trial"",""time""
""fullscreenenter"",""1"",""11604""
","
","","","","","","2036.2000000476837","images/dog1.png","","","memory_trial","4","definitely_new",""
"html-keyboard-response","174","487758","0.0-18.0-0.65","7683","approach_avoid_sv1","""event"",""trial"",""time""
""fullscreenenter"",""1"",""11604""
""blur"",""41"",""244455""
""focus"",""41"",""250613""
","""event"",""trial"",""time""
""blur"",""41"",""244455""
","""event"",""trial"",""time""
""focus"",""41"",""250613""
","""event"",""trial"",""time""
""fullscreenenter"",""1"",""11604""
","
","","","","","","null","<div style=""font-size:60px;"">+</div>","null","","fixation","","",""
"memory-trial","175","489777","0.0-18.0-1.65","7683","approach_avoid_sv1","""event"",""trial"",""time""
""fullscreenenter"",""1"",""11604""
""blur"",""41"",""244455""
""focus"",""41"",""250613""
","""event"",""trial"",""time""
""blur"",""41"",""244455""
","""event"",""trial"",""time""
""focus"",""41"",""250613""
","""event"",""trial"",""time""
""fullscreenenter"",""1"",""11604""
","
","","","","","","1013.6999998092651","images/horse2.png","","","memory_trial","1","definitely_old",""
"html-keyboard-response","176","490279","0.0-18.0-0.66","7683","approach_avoid_sv1","""event"",""trial"",""time""
""fullscreenenter"",""1"",""11604""
""blur"",""41"",""244455""
""focus"",""41"",""250613""
","""event"",""trial"",""time""
""blur"",""41"",""244455""
","""event"",""trial"",""time""
""focus"",""41"",""250613""
","""event"",""trial"",""time""
""fullscreenenter"",""1"",""11604""
","
","","","","","","null","<div style=""font-size:60px;"">+</div>","null","","fixation","","",""
"memory-trial","177","492961","0.0-18.0-1.66","7683","approach_avoid_sv1","""event"",""trial"",""time""
""fullscreenenter"",""1"",""11604""
""blur"",""41"",""244455""
""focus"",""41"",""250613""
","""event"",""trial"",""time""
""blur"",""41"",""244455""
","""event"",""trial"",""time""
""focus"",""41"",""250613""
","""event"",""trial"",""time""
""fullscreenenter"",""1"",""11604""
","
","","","","","","1678.3000001907349","images/goat3.png","","","memory_trial","4","definitely_new",""
"html-keyboard-response","178","493463","0.0-18.0-0.67","7683","approach_avoid_sv1","""event"",""trial"",""time""
""fullscreenenter"",""1"",""11604""
""blur"",""41"",""244455""
""focus"",""41"",""250613""
","""event"",""trial"",""time""
""blur"",""41"",""244455""
","""event"",""trial"",""time""
""focus"",""41"",""250613""
","""event"",""trial"",""time""
""fullscreenenter"",""1"",""11604""
","
","","","","","","null","<div style=""font-size:60px;"">+</div>","null","","fixation","","",""
"memory-trial","179","496001","0.0-18.0-1.67","7683","approach_avoid_sv1","""event"",""trial"",""time""
""fullscreenenter"",""1"",""11604""
""blur"",""41"",""244455""
""focus"",""41"",""250613""
","""event"",""trial"",""time""
""blur"",""41"",""244455""
","""event"",""trial"",""time""
""focus"",""41"",""250613""
","""event"",""trial"",""time""
""fullscreenenter"",""1"",""11604""
","
","","","","","","1532.1000001430511","images/chair1.png","","","memory_trial","4","definitely_new",""
"html-keyboard-response","180","496503","0.0-18.0-0.68","7683","approach_avoid_sv1","""event"",""trial"",""time""
""fullscreenenter"",""1"",""11604""
""blur"",""41"",""244455""
""focus"",""41"",""250613""
","""event"",""trial"",""time""
""blur"",""41"",""244455""
","""event"",""trial"",""time""
""focus"",""41"",""250613""
","""event"",""trial"",""time""
""fullscreenenter"",""1"",""11604""
","
","","","","","","null","<div style=""font-size:60px;"">+</div>","null","","fixation","","",""
"memory-trial","181","499181","0.0-18.0-1.68","7683","approach_avoid_sv1","""event"",""trial"",""time""
""fullscreenenter"",""1"",""11604""
""blur"",""41"",""244455""
""focus"",""41"",""250613""
","""event"",""trial"",""time""
""blur"",""41"",""244455""
","""event"",""trial"",""time""
""focus"",""41"",""250613""
","""event"",""trial"",""time""
""fullscreenenter"",""1"",""11604""
","
","","","","","","1674.7000000476837","images/plane3.png","","","memory_trial","4","definitely_new",""
"html-keyboard-response","182","499683","0.0-18.0-0.69","7683","approach_avoid_sv1","""event"",""trial"",""time""
""fullscreenenter"",""1"",""11604""
""blur"",""41"",""244455""
""focus"",""41"",""250613""
","""event"",""trial"",""time""
""blur"",""41"",""244455""
","""event"",""trial"",""time""
""focus"",""41"",""250613""
","""event"",""trial"",""time""
""fullscreenenter"",""1"",""11604""
","
","","","","","","null","<div style=""font-size:60px;"">+</div>","null","","fixation","","",""
"memory-trial","183","501811","0.0-18.0-1.69","7683","approach_avoid_sv1","""event"",""trial"",""time""
""fullscreenenter"",""1"",""11604""
""blur"",""41"",""244455""
""focus"",""41"",""250613""
","""event"",""trial"",""time""
""blur"",""41"",""244455""
","""event"",""trial"",""time""
""focus"",""41"",""250613""
","""event"",""trial"",""time""
""fullscreenenter"",""1"",""11604""
","
","","","","","","1124","images/train4.png","","","memory_trial","1","definitely_old",""
"html-keyboard-response","184","502314","0.0-18.0-0.70","7683","approach_avoid_sv1","""event"",""trial"",""time""
""fullscreenenter"",""1"",""11604""
""blur"",""41"",""244455""
""focus"",""41"",""250613""
","""event"",""trial"",""time""
""blur"",""41"",""244455""
","""event"",""trial"",""time""
""focus"",""41"",""250613""
","""event"",""trial"",""time""
""fullscreenenter"",""1"",""11604""
","
","","","","","","null","<div style=""font-size:60px;"">+</div>","null","","fixation","","",""
"memory-trial","185","505588","0.0-18.0-1.70","7683","approach_avoid_sv1","""event"",""trial"",""time""
""fullscreenenter"",""1"",""11604""
""blur"",""41"",""244455""
""focus"",""41"",""250613""
","""event"",""trial"",""time""
""blur"",""41"",""244455""
","""event"",""trial"",""time""
""focus"",""41"",""250613""
","""event"",""trial"",""time""
""fullscreenenter"",""1"",""11604""
","
","","","","","","2269.7999999523163","images/table2.png","","","memory_trial","3","maybe_new",""
"html-keyboard-response","186","506089","0.0-18.0-0.71","7683","approach_avoid_sv1","""event"",""trial"",""time""
""fullscreenenter"",""1"",""11604""
""blur"",""41"",""244455""
""focus"",""41"",""250613""
","""event"",""trial"",""time""
""blur"",""41"",""244455""
","""event"",""trial"",""time""
""focus"",""41"",""250613""
","""event"",""trial"",""time""
""fullscreenenter"",""1"",""11604""
","
","","","","","","null","<div style=""font-size:60px;"">+</div>","null","","fixation","","",""
"memory-trial","187","510519","0.0-18.0-1.71","7683","approach_avoid_sv1","""event"",""trial"",""time""
""fullscreenenter"",""1"",""11604""
""blur"",""41"",""244455""
""focus"",""41"",""250613""
","""event"",""trial"",""time""
""blur"",""41"",""244455""
","""event"",""trial"",""time""
""focus"",""41"",""250613""
","""event"",""trial"",""time""
""fullscreenenter"",""1"",""11604""
","
","","","","","","3424.899999856949","images/plane2.png","","","memory_trial","3","maybe_new",""
"html-keyboard-response","188","511022","0.0-18.0-0.72","7683","approach_avoid_sv1","""event"",""trial"",""time""
""fullscreenenter"",""1"",""11604""
""blur"",""41"",""244455""
""focus"",""41"",""250613""
","""event"",""trial"",""time""
""blur"",""41"",""244455""
","""event"",""trial"",""time""
""focus"",""41"",""250613""
","""event"",""trial"",""time""
""fullscreenenter"",""1"",""11604""
","
","","","","","","null","<div style=""font-size:60px;"">+</div>","null","","fixation","","",""
"memory-trial","189","514971","0.0-18.0-1.72","7683","approach_avoid_sv1","""event"",""trial"",""time""
""fullscreenenter"",""1"",""11604""
""blur"",""41"",""244455""
""focus"",""41"",""250613""
","""event"",""trial"",""time""
""blur"",""41"",""244455""
","""event"",""trial"",""time""
""focus"",""41"",""250613""
","""event"",""trial"",""time""
""fullscreenenter"",""1"",""11604""
","
","","","","","","2943.2999999523163","images/plane5.png","","","memory_trial","3","maybe_new",""
"html-keyboard-response","190","515473","0.0-18.0-0.73","7683","approach_avoid_sv1","""event"",""trial"",""time""
""fullscreenenter"",""1"",""11604""
""blur"",""41"",""244455""
""focus"",""41"",""250613""
","""event"",""trial"",""time""
""blur"",""41"",""244455""
","""event"",""trial"",""time""
""focus"",""41"",""250613""
","""event"",""trial"",""time""
""fullscreenenter"",""1"",""11604""
","
","","","","","","null","<div style=""font-size:60px;"">+</div>","null","","fixation","","",""
"memory-trial","191","517172","0.0-18.0-1.73","7683","approach_avoid_sv1","""event"",""trial"",""time""
""fullscreenenter"",""1"",""11604""
""blur"",""41"",""244455""
""focus"",""41"",""250613""
","""event"",""trial"",""time""
""blur"",""41"",""244455""
","""event"",""trial"",""time""
""focus"",""41"",""250613""
","""event"",""trial"",""time""
""fullscreenenter"",""1"",""11604""
","
","","","","","","693.8999998569489","images/apple2.png","","","memory_trial","1","definitely_old",""
"html-keyboard-response","192","517674","0.0-18.0-0.74","7683","approach_avoid_sv1","""event"",""trial"",""time""
""fullscreenenter"",""1"",""11604""
""blur"",""41"",""244455""
""focus"",""41"",""250613""
","""event"",""trial"",""time""
""blur"",""41"",""244455""
","""event"",""trial"",""time""
""focus"",""41"",""250613""
","""event"",""trial"",""time""
""fullscreenenter"",""1"",""11604""
","
","","","","","","null","<div style=""font-size:60px;"">+</div>","null","","fixation","","",""
"memory-trial","193","519321","0.0-18.0-1.74","7683","approach_avoid_sv1","""event"",""trial"",""time""
""fullscreenenter"",""1"",""11604""
""blur"",""41"",""244455""
""focus"",""41"",""250613""
","""event"",""trial"",""time""
""blur"",""41"",""244455""
","""event"",""trial"",""time""
""focus"",""41"",""250613""
","""event"",""trial"",""time""
""fullscreenenter"",""1"",""11604""
","
","","","","","","643.2999999523163","images/orange7.png","","","memory_trial","1","definitely_old",""
"html-keyboard-response","194","519822","0.0-18.0-0.75","7683","approach_avoid_sv1","""event"",""trial"",""time""
""fullscreenenter"",""1"",""11604""
""blur"",""41"",""244455""
""focus"",""41"",""250613""
","""event"",""trial"",""time""
""blur"",""41"",""244455""
","""event"",""trial"",""time""
""focus"",""41"",""250613""
","""event"",""trial"",""time""
""fullscreenenter"",""1"",""11604""
","
","","","","","","null","<div style=""font-size:60px;"">+</div>","null","","fixation","","",""
"memory-trial","195","521615","0.0-18.0-1.75","7683","approach_avoid_sv1","""event"",""trial"",""time""
""fullscreenenter"",""1"",""11604""
""blur"",""41"",""244455""
""focus"",""41"",""250613""
","""event"",""trial"",""time""
""blur"",""41"",""244455""
","""event"",""trial"",""time""
""focus"",""41"",""250613""
","""event"",""trial"",""time""
""fullscreenenter"",""1"",""11604""
","
","","","","","","790","images/sofa7.png","","","memory_trial","1","definitely_old",""
"html-keyboard-response","196","522118","0.0-18.0-0.76","7683","approach_avoid_sv1","""event"",""trial"",""time""
""fullscreenenter"",""1"",""11604""
""blur"",""41"",""244455""
""focus"",""41"",""250613""
","""event"",""trial"",""time""
""blur"",""41"",""244455""
","""event"",""trial"",""time""
""focus"",""41"",""250613""
","""event"",""trial"",""time""
""fullscreenenter"",""1"",""11604""
","
","","","","","","null","<div style=""font-size:60px;"">+</div>","null","","fixation","","",""
"memory-trial","197","523931","0.0-18.0-1.76","7683","approach_avoid_sv1","""event"",""trial"",""time""
""fullscreenenter"",""1"",""11604""
""blur"",""41"",""244455""
""focus"",""41"",""250613""
","""event"",""trial"",""time""
""blur"",""41"",""244455""
","""event"",""trial"",""time""
""focus"",""41"",""250613""
","""event"",""trial"",""time""
""fullscreenenter"",""1"",""11604""
","
","","","","","","808.3999998569489","images/table5.png","","","memory_trial","4","definitely_new",""
"html-keyboard-response","198","524434","0.0-18.0-0.77","7683","approach_avoid_sv1","""event"",""trial"",""time""
""fullscreenenter"",""1"",""11604""
""blur"",""41"",""244455""
""focus"",""41"",""250613""
","""event"",""trial"",""time""
""blur"",""41"",""244455""
","""event"",""trial"",""time""
""focus"",""41"",""250613""
","""event"",""trial"",""time""
""fullscreenenter"",""1"",""11604""
","
","","","","","","null","<div style=""font-size:60px;"">+</div>","null","","fixation","","",""
"memory-trial","199","526996","0.0-18.0-1.77","7683","approach_avoid_sv1","""event"",""trial"",""time""
""fullscreenenter"",""1"",""11604""
""blur"",""41"",""244455""
""focus"",""41"",""250613""
","""event"",""trial"",""time""
""blur"",""41"",""244455""
","""event"",""trial"",""time""
""focus"",""41"",""250613""
","""event"",""trial"",""time""
""fullscreenenter"",""1"",""11604""
","
","","","","","","1559","images/rodent6.png","","","memory_trial","1","definitely_old",""
"html-keyboard-response","200","527498","0.0-18.0-0.78","7683","approach_avoid_sv1","""event"",""trial"",""time""
""fullscreenenter"",""1"",""11604""
""blur"",""41"",""244455""
""focus"",""41"",""250613""
","""event"",""trial"",""time""
""blur"",""41"",""244455""
","""event"",""trial"",""time""
""focus"",""41"",""250613""
","""event"",""trial"",""time""
""fullscreenenter"",""1"",""11604""
","
","","","","","","null","<div style=""font-size:60px;"">+</div>","null","","fixation","","",""
"memory-trial","201","529404","0.0-18.0-1.78","7683","approach_avoid_sv1","""event"",""trial"",""time""
""fullscreenenter"",""1"",""11604""
""blur"",""41"",""244455""
""focus"",""41"",""250613""
","""event"",""trial"",""time""
""blur"",""41"",""244455""
","""event"",""trial"",""time""
""focus"",""41"",""250613""
","""event"",""trial"",""time""
""fullscreenenter"",""1"",""11604""
","
","","","","","","900.9000000953674","images/truck3.png","","","memory_trial","1","definitely_old",""
"html-keyboard-response","202","529905","0.0-18.0-0.79","7683","approach_avoid_sv1","""event"",""trial"",""time""
""fullscreenenter"",""1"",""11604""
""blur"",""41"",""244455""
""focus"",""41"",""250613""
","""event"",""trial"",""time""
""blur"",""41"",""244455""
","""event"",""trial"",""time""
""focus"",""41"",""250613""
","""event"",""trial"",""time""
""fullscreenenter"",""1"",""11604""
","
","","","","","","null","<div style=""font-size:60px;"">+</div>","null","","fixation","","",""
"memory-trial","203","532209","0.0-18.0-1.79","7683","approach_avoid_sv1","""event"",""trial"",""time""
""fullscreenenter"",""1"",""11604""
""blur"",""41"",""244455""
""focus"",""41"",""250613""
","""event"",""trial"",""time""
""blur"",""41"",""244455""
","""event"",""trial"",""time""
""focus"",""41"",""250613""
","""event"",""trial"",""time""
""fullscreenenter"",""1"",""11604""
","
","","","","","","1300.4000000953674","images/plane7.png","","","memory_trial","1","definitely_old",""
"html-keyboard-response","204","532711","0.0-18.0-0.80","7683","approach_avoid_sv1","""event"",""trial"",""time""
""fullscreenenter"",""1"",""11604""
""blur"",""41"",""244455""
""focus"",""41"",""250613""
","""event"",""trial"",""time""
""blur"",""41"",""244455""
","""event"",""trial"",""time""
""focus"",""41"",""250613""
","""event"",""trial"",""time""
""fullscreenenter"",""1"",""11604""
","
","","","","","","null","<div style=""font-size:60px;"">+</div>","null","","fixation","","",""
"memory-trial","205","535718","0.0-18.0-1.80","7683","approach_avoid_sv1","""event"",""trial"",""time""
""fullscreenenter"",""1"",""11604""
""blur"",""41"",""244455""
""focus"",""41"",""250613""
","""event"",""trial"",""time""
""blur"",""41"",""244455""
","""event"",""trial"",""time""
""focus"",""41"",""250613""
","""event"",""trial"",""time""
""fullscreenenter"",""1"",""11604""
","
","","","","","","2002.7000000476837","images/sheep5.png","","","memory_trial","3","maybe_new",""
"html-keyboard-response","206","536219","0.0-18.0-0.81","7683","approach_avoid_sv1","""event"",""trial"",""time""
""fullscreenenter"",""1"",""11604""
""blur"",""41"",""244455""
""focus"",""41"",""250613""
","""event"",""trial"",""time""
""blur"",""41"",""244455""
","""event"",""trial"",""time""
""focus"",""41"",""250613""
","""event"",""trial"",""time""
""fullscreenenter"",""1"",""11604""
","
","","","","","","null","<div style=""font-size:60px;"">+</div>","null","","fixation","","",""
"memory-trial","207","538733","0.0-18.0-1.81","7683","approach_avoid_sv1","""event"",""trial"",""time""
""fullscreenenter"",""1"",""11604""
""blur"",""41"",""244455""
""focus"",""41"",""250613""
","""event"",""trial"",""time""
""blur"",""41"",""244455""
","""event"",""trial"",""time""
""focus"",""41"",""250613""
","""event"",""trial"",""time""
""fullscreenenter"",""1"",""11604""
","
","","","","","","1508.2000000476837","images/horse8.png","","","memory_trial","3","maybe_new",""
"html-keyboard-response","208","539235","0.0-18.0-0.82","7683","approach_avoid_sv1","""event"",""trial"",""time""
""fullscreenenter"",""1"",""11604""
""blur"",""41"",""244455""
""focus"",""41"",""250613""
","""event"",""trial"",""time""
""blur"",""41"",""244455""
","""event"",""trial"",""time""
""focus"",""41"",""250613""
","""event"",""trial"",""time""
""fullscreenenter"",""1"",""11604""
","
