"trial_type","trial_index","time_elapsed","internal_node_id","subject_id","task_version","interactions","blur_events","focus_events","fullscreenenter_events","fullscreenexit_events","success","timeout","failed_images","failed_audio","failed_video","rt","stimulus","response","button_pressed","task_part","key_press","answer","correct"
"pavlovia","0","10","0.0-0.0","4124","approach_avoid_sv1","""event"",""trial"",""time""
""fullscreenenter"",""1"",""1499""
","
","
","""event"",""trial"",""time""
""fullscreenenter"",""1"",""1499""
","
","","","","","","","","","","","","",""
"fullscreen","1","2461","0.0-1.0","4124","approach_avoid_sv1","""event"",""trial"",""time""
""fullscreenenter"",""1"",""1499""
","
","
","""event"",""trial"",""time""
""fullscreenenter"",""1"",""1499""
","
","true","","","","","","","","","","","",""
"preload","2","4345","0.0-2.0","4124","approach_avoid_sv1","""event"",""trial"",""time""
""fullscreenenter"",""1"",""1499""
","
","
","""event"",""trial"",""time""
""fullscreenenter"",""1"",""1499""
","
","true","false","[]","[]","[]","","","","","","","",""
"preload","3","5465","0.0-3.0","4124","approach_avoid_sv1","""event"",""trial"",""time""
""fullscreenenter"",""1"",""1499""
","
","
","""event"",""trial"",""time""
""fullscreenenter"",""1"",""1499""
","
","true","false","[]","[]","[]","","","","","","","",""
"preload","4","5724","0.0-4.0","4124","approach_avoid_sv1","""event"",""trial"",""time""
""fullscreenenter"",""1"",""1499""
","
","
","""event"",""trial"",""time""
""fullscreenenter"",""1"",""1499""
","
","true","false","[]","[]","[]","","","","","","","",""
"audio-keyboard-response","5","7223","0.0-5.0","4124","approach_avoid_sv1","""event"",""trial"",""time""
""fullscreenenter"",""1"",""1499""
","
","
","""event"",""trial"",""time""
""fullscreenenter"",""1"",""1499""
","
","","","","","","1504","audio/beep_loop.wav"," ","","","","",""
"audio-button-response","6","9426","0.0-6.0","4124","approach_avoid_sv1","""event"",""trial"",""time""
""fullscreenenter"",""1"",""1499""
","
","
","""event"",""trial"",""time""
""fullscreenenter"",""1"",""1499""
","
","","","","","","2197","audio/turtle.wav","3","","","","",""
"audio-button-response","7","11267","0.0-7.0","4124","approach_avoid_sv1","""event"",""trial"",""time""
""fullscreenenter"",""1"",""1499""
","
","
","""event"",""trial"",""time""
""fullscreenenter"",""1"",""1499""
","
","","","","","","843","audio/shark.wav","2","","","","",""
"preload","8","14052","0.0-8.0","4124","approach_avoid_sv1","""event"",""trial"",""time""
""fullscreenenter"",""1"",""1499""
","
","
","""event"",""trial"",""time""
""fullscreenenter"",""1"",""1499""
","
","true","false","[]","[]","[]","","","","","","","",""
"learning-instructions","9","20529","0.0-9.0-0.0","4124","approach_avoid_sv1","""event"",""trial"",""time""
""fullscreenenter"",""1"",""1499""
","
","
","""event"",""trial"",""time""
""fullscreenenter"",""1"",""1499""
","
","","","","","","1994.5","<p> Welcome back! </p><p> Last week, you had to make choices about lots of different items.  </p>","","0","instructions","","",""
"learning-instructions","10","26031","0.0-9.0-0.1","4124","approach_avoid_sv1","""event"",""trial"",""time""
""fullscreenenter"",""1"",""1499""
","
","
","""event"",""trial"",""time""
""fullscreenenter"",""1"",""1499""
","
","","","","","","1381.800000000745","<p> Today, we are going to ask you to try to remember all the items. </p>","","0","instructions","","",""
"learning-instructions","11","36730","0.0-9.0-0.2","4124","approach_avoid_sv1","""event"",""trial"",""time""
""fullscreenenter"",""1"",""1499""
","
","
","""event"",""trial"",""time""
""fullscreenenter"",""1"",""1499""
","
","","","","","","555.5","<p> On every trial, you will see an image. </p><p> The image may be an OLD image you saw during the games last week or it may be a NEW image that was not presented. </p>","","0","instructions","","",""
"learning-instructions","12","46047","0.0-9.0-0.3","4124","approach_avoid_sv1","""event"",""trial"",""time""
""fullscreenenter"",""1"",""1499""
","
","
","""event"",""trial"",""time""
""fullscreenenter"",""1"",""1499""
","
","","","","","","811.1999999992549","<p> You need to select whether the image is:  </p><p>  'Definitely old', 'Maybe old', 'Maybe new', or 'Definitely new.'  </p><div class=""mem-choice-instructions-grid""><div class=""choice-option"" id=""choice-option-1"" ><img src=""images/definitely_old_1.png"" id=""choice-option-img-1"" class=""choice-option-img"" stage=""1""></div><div class=""choice-option"" id=""choice-option-2"" ><img src=""images/maybe_old_1.png"" id=""choice-option-img-2"" class=""choice-option-img"" stage=""1""></div><div class=""choice-option"" id=""choice-option-3"" ><img src=""images/maybe_new_1.png"" id=""choice-option-img-3"" class=""choice-option-img"" stage=""1""></div><div class=""choice-option"" id=""choice-option-4"" > <img src=""images/definitely_new_1.png"" id=""choice-option-img-4"" class=""choice-option-img"" stage=""1""></div></div>","","0","instructions","","",""
"learning-instructions","13","53466","0.0-9.0-0.4","4124","approach_avoid_sv1","""event"",""trial"",""time""
""fullscreenenter"",""1"",""1499""
","
","
","""event"",""trial"",""time""
""fullscreenenter"",""1"",""1499""
","
","","","","","","909.4000000022352","<p> You should use the 1, 2, 3, and 4 keys to make your responses.  </p><div class=""mem-choice-instructions-grid""><div class=""choice-option"" id=""choice-option-1"" ><img src=""images/definitely_old.png"" id=""choice-option-img-1"" class=""choice-option-img"" stage=""1""></div><div class=""choice-option"" id=""choice-option-2"" ><img src=""images/maybe_old.png"" id=""choice-option-img-2"" class=""choice-option-img"" stage=""1""></div><div class=""choice-option"" id=""choice-option-3"" ><img src=""images/maybe_new.png"" id=""choice-option-img-3"" class=""choice-option-img"" stage=""1""></div><div class=""choice-option"" id=""choice-option-4"" > <img src=""images/definitely_new.png"" id=""choice-option-img-4"" class=""choice-option-img"" stage=""1""></div></div>","","0","instructions","","",""
"learning-instructions","14","60926","0.0-9.0-0.5","4124","approach_avoid_sv1","""event"",""trial"",""time""
""fullscreenenter"",""1"",""1499""
","
","
","""event"",""trial"",""time""
""fullscreenenter"",""1"",""1499""
","
","","","","","","1123.2000000029802","<p> You will have 10 seconds to make each response.  </p><p>  Make sure to respond before time runs out! </p>","","0","instructions","","",""
"learning-instructions","15","68610","0.0-9.0-0.6","4124","approach_avoid_sv1","""event"",""trial"",""time""
""fullscreenenter"",""1"",""1499""
","
","
","""event"",""trial"",""time""
""fullscreenenter"",""1"",""1499""
","
","","","","","","600.6000000014901","<p> Today, you will see each image ONCE only.  </p><p>  That means none of the images will repeat. </p>","","0","instructions","","",""
"learning-instructions","16","81969","0.0-9.0-0.7","4124","approach_avoid_sv1","""event"",""trial"",""time""
""fullscreenenter"",""1"",""1499""
","
","
","""event"",""trial"",""time""
""fullscreenenter"",""1"",""1499""
","
","","","","","","683","<p> Before you play the real game, it is time to practice. </p><p>  Just like in the real game, some of the images in the practice will be ones you have seen before. </p><p>  Others will be entirely new. </p>","","0","instructions","","",""
"html-button-response","17","84495","0.0-10.0","4124","approach_avoid_sv1","""event"",""trial"",""time""
""fullscreenenter"",""1"",""1499""
","
","
","""event"",""trial"",""time""
""fullscreenenter"",""1"",""1499""
","
","","","","","","2422.10000000149","<p> Ready to practice? </p><p> Remember, use the 1, 2, 3, and 4 keys to make your responses. </p>","0","","instructions","","",""
"html-keyboard-response","18","85101","0.0-11.0-0.0","4124","approach_avoid_sv1","""event"",""trial"",""time""
""fullscreenenter"",""1"",""1499""
","
","
","""event"",""trial"",""time""
""fullscreenenter"",""1"",""1499""
","
","","","","","","null","<div style=""font-size:60px;"">+</div>","null","","fixation","","",""
"memory-trial","19","88837","0.0-11.0-1.0","4124","approach_avoid_sv1","""event"",""trial"",""time""
""fullscreenenter"",""1"",""1499""
","
","
","""event"",""trial"",""time""
""fullscreenenter"",""1"",""1499""
","
","","","","","","2728.39999999851","images/ball3.png","","","practice","4","definitely_new",""
"html-keyboard-response","20","89341","0.0-11.0-0.1","4124","approach_avoid_sv1","""event"",""trial"",""time""
""fullscreenenter"",""1"",""1499""
","
","
","""event"",""trial"",""time""
""fullscreenenter"",""1"",""1499""
","
","","","","","","null","<div style=""font-size:60px;"">+</div>","null","","fixation","","",""
"memory-trial","21","92805","0.0-11.0-1.1","4124","approach_avoid_sv1","""event"",""trial"",""time""
""fullscreenenter"",""1"",""1499""
","
","
","""event"",""trial"",""time""
""fullscreenenter"",""1"",""1499""
","
","","","","","","2460.099999997765","images/racket3.png","","","practice","1","definitely_old",""
"html-keyboard-response","22","93309","0.0-11.0-0.2","4124","approach_avoid_sv1","""event"",""trial"",""time""
""fullscreenenter"",""1"",""1499""
","
","
","""event"",""trial"",""time""
""fullscreenenter"",""1"",""1499""
","
","","","","","","null","<div style=""font-size:60px;"">+</div>","null","","fixation","","",""
"memory-trial","23","95565","0.0-11.0-1.2","4124","approach_avoid_sv1","""event"",""trial"",""time""
""fullscreenenter"",""1"",""1499""
","
","
","""event"",""trial"",""time""
""fullscreenenter"",""1"",""1499""
","
","","","","","","1250.300000000745","images/racket5.png","","","practice","2","maybe_old",""
"html-keyboard-response","24","96069","0.0-11.0-0.3","4124","approach_avoid_sv1","""event"",""trial"",""time""
""fullscreenenter"",""1"",""1499""
","
","
","""event"",""trial"",""time""
""fullscreenenter"",""1"",""1499""
","
","","","","","","null","<div style=""font-size:60px;"">+</div>","null","","fixation","","",""
"memory-trial","25","98629","0.0-11.0-1.3","4124","approach_avoid_sv1","""event"",""trial"",""time""
""fullscreenenter"",""1"",""1499""
","
","
","""event"",""trial"",""time""
""fullscreenenter"",""1"",""1499""
","
","","","","","","1554.5","images/racket2.png","","","practice","3","maybe_new",""
"html-keyboard-response","26","99133","0.0-11.0-0.4","4124","approach_avoid_sv1","""event"",""trial"",""time""
""fullscreenenter"",""1"",""1499""
","
","
","""event"",""trial"",""time""
""fullscreenenter"",""1"",""1499""
","
","","","","","","null","<div style=""font-size:60px;"">+</div>","null","","fixation","","",""
"memory-trial","27","101901","0.0-11.0-1.4","4124","approach_avoid_sv1","""event"",""trial"",""time""
""fullscreenenter"",""1"",""1499""
","
","
","""event"",""trial"",""time""
""fullscreenenter"",""1"",""1499""
","
","","","","","","1762.300000000745","images/racket1.png","","","practice","2","maybe_old",""
"html-keyboard-response","28","102405","0.0-11.0-0.5","4124","approach_avoid_sv1","""event"",""trial"",""time""
""fullscreenenter"",""1"",""1499""
","
","
","""event"",""trial"",""time""
""fullscreenenter"",""1"",""1499""
","
","","","","","","null","<div style=""font-size:60px;"">+</div>","null","","fixation","","",""
"memory-trial","29","105446","0.0-11.0-1.5","4124","approach_avoid_sv1","""event"",""trial"",""time""
""fullscreenenter"",""1"",""1499""
","
","
","""event"",""trial"",""time""
""fullscreenenter"",""1"",""1499""
","
","","","","","","2036.4000000022352","images/ball5.png","","","practice","4","definitely_new",""
"html-keyboard-response","30","105949","0.0-11.0-0.6","4124","approach_avoid_sv1","""event"",""trial"",""time""
""fullscreenenter"",""1"",""1499""
","
","
","""event"",""trial"",""time""
""fullscreenenter"",""1"",""1499""
","
","","","","","","null","<div style=""font-size:60px;"">+</div>","null","","fixation","","",""
"memory-trial","31","110013","0.0-11.0-1.6","4124","approach_avoid_sv1","""event"",""trial"",""time""
""fullscreenenter"",""1"",""1499""
","
","
","""event"",""trial"",""time""
""fullscreenenter"",""1"",""1499""
","
","","","","","","3053.300000000745","images/ball1.png","","","practice","2","maybe_old",""
"html-keyboard-response","32","110517","0.0-11.0-0.7","4124","approach_avoid_sv1","""event"",""trial"",""time""
""fullscreenenter"",""1"",""1499""
","
","
","""event"",""trial"",""time""
""fullscreenenter"",""1"",""1499""
","
","","","","","","null","<div style=""font-size:60px;"">+</div>","null","","fixation","","",""
"memory-trial","33","113422","0.0-11.0-1.7","4124","approach_avoid_sv1","""event"",""trial"",""time""
""fullscreenenter"",""1"",""1499""
","
","
","""event"",""trial"",""time""
""fullscreenenter"",""1"",""1499""
","
","","","","","","1894.9000000022352","images/ball2.png","","","practice","3","maybe_new",""
"learning-instructions","34","122147","0.0-12.0-0.0","4124","approach_avoid_sv1","""event"",""trial"",""time""
""fullscreenenter"",""1"",""1499""
","
","
","""event"",""trial"",""time""
""fullscreenenter"",""1"",""1499""
","
","","","","","","1417.300000000745","<p> Great! You have completed the practice. </p><p> Before you start, we're going to ask you a few questions about how the game works.  </p>","","0","instructions","","",""
"preload","35","123979","0.0-13.0","4124","approach_avoid_sv1","""event"",""trial"",""time""
""fullscreenenter"",""1"",""1499""
","
","
","""event"",""trial"",""time""
""fullscreenenter"",""1"",""1499""
","
","true","false","[]","[]","[]","","","","","","","",""
"comp-q","36","130834","0.0-14.0-0.0","4124","approach_avoid_sv1","""event"",""trial"",""time""
""fullscreenenter"",""1"",""1499""
","
","
","""event"",""trial"",""time""
""fullscreenenter"",""1"",""1499""
","
","","","","","","1022","<p> <b> True or False? </b> </p><p> In this game, you will only see each image once. </p>","","0","comp_question","","","true"
"comp-q","37","138294","0.0-14.0-1.0","4124","approach_avoid_sv1","""event"",""trial"",""time""
""fullscreenenter"",""1"",""1499""
","
","
","""event"",""trial"",""time""
""fullscreenenter"",""1"",""1499""
","
","","","","","","1107.300000000745","<p> <b> That's right! </b> You will see many different images <i> one time each </i> in this game. </p>","","0","comp_answer","","",""
"comp-q","38","143996","0.0-15.0-0.0","4124","approach_avoid_sv1","""event"",""trial"",""time""
""fullscreenenter"",""1"",""1499""
","
","
","""event"",""trial"",""time""
""fullscreenenter"",""1"",""1499""
","
","","","","","","695.2000000029802","<p> <b> True or False? </b> </p><p> You should use the mouse and click to make your response. </p>","","1","comp_question","","","true"
"comp-q","39","152021","0.0-15.0-1.0","4124","approach_avoid_sv1","""event"",""trial"",""time""
""fullscreenenter"",""1"",""1499""
","
","
","""event"",""trial"",""time""
""fullscreenenter"",""1"",""1499""
","
","","","","","","1517.5","<p><b> That's right! </b> You should use the '1', '2', '3', and '4' keys to make your response. </p>","","0","comp_answer","","",""
"comp-q","40","158495","0.0-16.0-0.0","4124","approach_avoid_sv1","""event"",""trial"",""time""
""fullscreenenter"",""1"",""1499""
","
","
","""event"",""trial"",""time""
""fullscreenenter"",""1"",""1499""
","
","","","","","","787.5","<p> <b> True or False? </b> </p><p> You will have as much time as you want to make each choice. </p>","","1","comp_question","","","true"
"comp-q","41","166694","0.0-16.0-1.0","4124","approach_avoid_sv1","""event"",""trial"",""time""
""fullscreenenter"",""1"",""1499""
","
","
","""event"",""trial"",""time""
""fullscreenenter"",""1"",""1499""
","
","","","","","","3500.599999997765","<p> <b> That's right! </b> You will only have 10 seconds to make each choice. </p>","","0","comp_answer","","",""
"learning-instructions","42","176320","0.0-17.0","4124","approach_avoid_sv1","""event"",""trial"",""time""
""fullscreenenter"",""1"",""1499""
","
","
","""event"",""trial"",""time""
""fullscreenenter"",""1"",""1499""
","
","","","","","","950.3000000007451","<p> Great! You are now ready to begin the game. </p><p> Remember, use the 1, 2, 3, and 4 keys to make your responses. </p>","","0","instructions","","",""
"html-keyboard-response","43","176925","0.0-18.0-0.0","4124","approach_avoid_sv1","""event"",""trial"",""time""
""fullscreenenter"",""1"",""1499""
","
","
","""event"",""trial"",""time""
""fullscreenenter"",""1"",""1499""
","
","","","","","","null","<div style=""font-size:60px;"">+</div>","null","","fixation","","",""
"memory-trial","44","180101","0.0-18.0-1.0","4124","approach_avoid_sv1","""event"",""trial"",""time""
""fullscreenenter"",""1"",""1499""
","
","
","""event"",""trial"",""time""
""fullscreenenter"",""1"",""1499""
","
","","","","","","2168.199999999255","images/sofa1.png","","","memory_trial","3","maybe_new",""
"html-keyboard-response","45","180604","0.0-18.0-0.1","4124","approach_avoid_sv1","""event"",""trial"",""time""
""fullscreenenter"",""1"",""1499""
","
","
","""event"",""trial"",""time""
""fullscreenenter"",""1"",""1499""
","
","","","","","","null","<div style=""font-size:60px;"">+</div>","null","","fixation","","",""
"memory-trial","46","182821","0.0-18.0-1.1","4124","approach_avoid_sv1","""event"",""trial"",""time""
""fullscreenenter"",""1"",""1499""
","
","
","""event"",""trial"",""time""
""fullscreenenter"",""1"",""1499""
","
","","","","","","1207.3999999985099","images/sofa7.png","","","memory_trial","3","maybe_new",""
"html-keyboard-response","47","183325","0.0-18.0-0.2","4124","approach_avoid_sv1","""event"",""trial"",""time""
""fullscreenenter"",""1"",""1499""
","
","
","""event"",""trial"",""time""
""fullscreenenter"",""1"",""1499""
","
","","","","","","null","<div style=""font-size:60px;"">+</div>","null","","fixation","","",""
"memory-trial","48","185669","0.0-18.0-1.2","4124","approach_avoid_sv1","""event"",""trial"",""time""
""fullscreenenter"",""1"",""1499""
","
","
","""event"",""trial"",""time""
""fullscreenenter"",""1"",""1499""
","
","","","","","","1341","images/straw2.png","","","memory_trial","1","definitely_old",""
"html-keyboard-response","49","186173","0.0-18.0-0.3","4124","approach_avoid_sv1","""event"",""trial"",""time""
""fullscreenenter"",""1"",""1499""
","
","
","""event"",""trial"",""time""
""fullscreenenter"",""1"",""1499""
","
","","","","","","null","<div style=""font-size:60px;"">+</div>","null","","fixation","","",""
"memory-trial","50","188397","0.0-18.0-1.3","4124","approach_avoid_sv1","""event"",""trial"",""time""
""fullscreenenter"",""1"",""1499""
","
","
","""event"",""trial"",""time""
""fullscreenenter"",""1"",""1499""
","
","","","","","","1209.300000000745","images/cow4.png","","","memory_trial","1","definitely_old",""
"html-keyboard-response","51","188901","0.0-18.0-0.4","4124","approach_avoid_sv1","""event"",""trial"",""time""
""fullscreenenter"",""1"",""1499""
","
","
","""event"",""trial"",""time""
""fullscreenenter"",""1"",""1499""
","
","","","","","","null","<div style=""font-size:60px;"">+</div>","null","","fixation","","",""
"memory-trial","52","191309","0.0-18.0-1.4","4124","approach_avoid_sv1","""event"",""trial"",""time""
""fullscreenenter"",""1"",""1499""
","
","
","""event"",""trial"",""time""
""fullscreenenter"",""1"",""1499""
","
","","","","","","1401.6000000014901","images/bed7.png","","","memory_trial","1","definitely_old",""
"html-keyboard-response","53","191813","0.0-18.0-0.5","4124","approach_avoid_sv1","""event"",""trial"",""time""
""fullscreenenter"",""1"",""1499""
","
","
","""event"",""trial"",""time""
""fullscreenenter"",""1"",""1499""
","
","","","","","","null","<div style=""font-size:60px;"">+</div>","null","","fixation","","",""
"memory-trial","54","194165","0.0-18.0-1.5","4124","approach_avoid_sv1","""event"",""trial"",""time""
""fullscreenenter"",""1"",""1499""
","
","
","""event"",""trial"",""time""
""fullscreenenter"",""1"",""1499""
","
","","","","","","1343.699999999255","images/rabbit3.png","","","memory_trial","2","maybe_old",""
"html-keyboard-response","55","194669","0.0-18.0-0.6","4124","approach_avoid_sv1","""event"",""trial"",""time""
""fullscreenenter"",""1"",""1499""
","
","
","""event"",""trial"",""time""
""fullscreenenter"",""1"",""1499""
","
","","","","","","null","<div style=""font-size:60px;"">+</div>","null","","fixation","","",""
"memory-trial","56","196917","0.0-18.0-1.6","4124","approach_avoid_sv1","""event"",""trial"",""time""
""fullscreenenter"",""1"",""1499""
","
","
","""event"",""trial"",""time""
""fullscreenenter"",""1"",""1499""
","
","","","","","","1243.6000000014901","images/rabbit2.png","","","memory_trial","1","definitely_old",""
"html-keyboard-response","57","197421","0.0-18.0-0.7","4124","approach_avoid_sv1","""event"",""trial"",""time""
""fullscreenenter"",""1"",""1499""
","
","
","""event"",""trial"",""time""
""fullscreenenter"",""1"",""1499""
","
","","","","","","null","<div style=""font-size:60px;"">+</div>","null","","fixation","","",""
"memory-trial","58","199429","0.0-18.0-1.7","4124","approach_avoid_sv1","""event"",""trial"",""time""
""fullscreenenter"",""1"",""1499""
","
","
","""event"",""trial"",""time""
""fullscreenenter"",""1"",""1499""
","
","","","","","","997.8000000007451","images/sheep4.png","","","memory_trial","1","definitely_old",""
"html-keyboard-response","59","199933","0.0-18.0-0.8","4124","approach_avoid_sv1","""event"",""trial"",""time""
""fullscreenenter"",""1"",""1499""
","
","
","""event"",""trial"",""time""
""fullscreenenter"",""1"",""1499""
","
","","","","","","null","<div style=""font-size:60px;"">+</div>","null","","fixation","","",""
"memory-trial","60","202157","0.0-18.0-1.8","4124","approach_avoid_sv1","""event"",""trial"",""time""
""fullscreenenter"",""1"",""1499""
","
","
","""event"",""trial"",""time""
""fullscreenenter"",""1"",""1499""
","
","","","","","","1220.5","images/straw4.png","","","memory_trial","2","maybe_old",""
"html-keyboard-response","61","202661","0.0-18.0-0.9","4124","approach_avoid_sv1","""event"",""trial"",""time""
""fullscreenenter"",""1"",""1499""
","
","
","""event"",""trial"",""time""
""fullscreenenter"",""1"",""1499""
","
","","","","","","null","<div style=""font-size:60px;"">+</div>","null","","fixation","","",""
"memory-trial","62","204669","0.0-18.0-1.9","4124","approach_avoid_sv1","""event"",""trial"",""time""
""fullscreenenter"",""1"",""1499""
","
","
","""event"",""trial"",""time""
""fullscreenenter"",""1"",""1499""
","
","","","","","","1005.2999999970198","images/sheep2.png","","","memory_trial","1","definitely_old",""
"html-keyboard-response","63","205173","0.0-18.0-0.10","4124","approach_avoid_sv1","""event"",""trial"",""time""
""fullscreenenter"",""1"",""1499""
","
","
","""event"",""trial"",""time""
""fullscreenenter"",""1"",""1499""
","
","","","","","","null","<div style=""font-size:60px;"">+</div>","null","","fixation","","",""
"memory-trial","64","207221","0.0-18.0-1.10","4124","approach_avoid_sv1","""event"",""trial"",""time""
""fullscreenenter"",""1"",""1499""
","
","
","""event"",""trial"",""time""
""fullscreenenter"",""1"",""1499""
","
","","","","","","1040.8999999985099","images/banana5.png","","","memory_trial","1","definitely_old",""
"html-keyboard-response","65","207725","0.0-18.0-0.11","4124","approach_avoid_sv1","""event"",""trial"",""time""
""fullscreenenter"",""1"",""1499""
","
","
","""event"",""trial"",""time""
""fullscreenenter"",""1"",""1499""
","
","","","","","","null","<div style=""font-size:60px;"">+</div>","null","","fixation","","",""
"memory-trial","66","209885","0.0-18.0-1.11","4124","approach_avoid_sv1","""event"",""trial"",""time""
""fullscreenenter"",""1"",""1499""
","
","
","""event"",""trial"",""time""
""fullscreenenter"",""1"",""1499""
","
","","","","","","1155.5","images/table1.png","","","memory_trial","2","maybe_old",""
"html-keyboard-response","67","210389","0.0-18.0-0.12","4124","approach_avoid_sv1","""event"",""trial"",""time""
""fullscreenenter"",""1"",""1499""
","
","
","""event"",""trial"",""time""
""fullscreenenter"",""1"",""1499""
","
","","","","","","null","<div style=""font-size:60px;"">+</div>","null","","fixation","","",""
"memory-trial","68","212477","0.0-18.0-1.12","4124","approach_avoid_sv1","""event"",""trial"",""time""
""fullscreenenter"",""1"",""1499""
","
","
","""event"",""trial"",""time""
""fullscreenenter"",""1"",""1499""
","
","","","","","","1082.1000000014901","images/banana8.png","","","memory_trial","1","definitely_old",""
"html-keyboard-response","69","212981","0.0-18.0-0.13","4124","approach_avoid_sv1","""event"",""trial"",""time""
""fullscreenenter"",""1"",""1499""
","
","
","""event"",""trial"",""time""
""fullscreenenter"",""1"",""1499""
","
","","","","","","null","<div style=""font-size:60px;"">+</div>","null","","fixation","","",""
"memory-trial","70","215357","0.0-18.0-1.13","4124","approach_avoid_sv1","""event"",""trial"",""time""
""fullscreenenter"",""1"",""1499""
","
","
","""event"",""trial"",""time""
""fullscreenenter"",""1"",""1499""
","
","","","","","","1370.7000000029802","images/train3.png","","","memory_trial","1","definitely_old",""
"html-keyboard-response","71","215861","0.0-18.0-0.14","4124","approach_avoid_sv1","""event"",""trial"",""time""
""fullscreenenter"",""1"",""1499""
","
","
","""event"",""trial"",""time""
""fullscreenenter"",""1"",""1499""
","
","","","","","","null","<div style=""font-size:60px;"">+</div>","null","","fixation","","",""
"memory-trial","72","218229","0.0-18.0-1.14","4124","approach_avoid_sv1","""event"",""trial"",""time""
""fullscreenenter"",""1"",""1499""
","
","
","""event"",""trial"",""time""
""fullscreenenter"",""1"",""1499""
","
","","","","","","1362","images/straw5.png","","","memory_trial","2","maybe_old",""
"html-keyboard-response","73","218733","0.0-18.0-0.15","4124","approach_avoid_sv1","""event"",""trial"",""time""
""fullscreenenter"",""1"",""1499""
","
","
","""event"",""trial"",""time""
""fullscreenenter"",""1"",""1499""
","
","","","","","","null","<div style=""font-size:60px;"">+</div>","null","","fixation","","",""
"memory-trial","74","221221","0.0-18.0-1.15","4124","approach_avoid_sv1","""event"",""trial"",""time""
""fullscreenenter"",""1"",""1499""
","
","
","""event"",""trial"",""time""
""fullscreenenter"",""1"",""1499""
","
","","","","","","1479.5","images/horse7.png","","","memory_trial","4","definitely_new",""
"html-keyboard-response","75","221725","0.0-18.0-0.16","4124","approach_avoid_sv1","""event"",""trial"",""time""
""fullscreenenter"",""1"",""1499""
","
","
","""event"",""trial"",""time""
""fullscreenenter"",""1"",""1499""
","
","","","","","","null","<div style=""font-size:60px;"">+</div>","null","","fixation","","",""
"memory-trial","76","224117","0.0-18.0-1.16","4124","approach_avoid_sv1","""event"",""trial"",""time""
""fullscreenenter"",""1"",""1499""
","
","
","""event"",""trial"",""time""
""fullscreenenter"",""1"",""1499""
","
","","","","","","1388.8999999985099","images/bush8.png","","","memory_trial","4","definitely_new",""
"html-keyboard-response","77","224621","0.0-18.0-0.17","4124","approach_avoid_sv1","""event"",""trial"",""time""
""fullscreenenter"",""1"",""1499""
","
","
","""event"",""trial"",""time""
""fullscreenenter"",""1"",""1499""
","
","","","","","","null","<div style=""font-size:60px;"">+</div>","null","","fixation","","",""
"memory-trial","78","226829","0.0-18.0-1.17","4124","approach_avoid_sv1","""event"",""trial"",""time""
""fullscreenenter"",""1"",""1499""
","
","
","""event"",""trial"",""time""
""fullscreenenter"",""1"",""1499""
","
","","","","","","1204.300000000745","images/tree6.png","","","memory_trial","1","definitely_old",""
"html-keyboard-response","79","227333","0.0-18.0-0.18","4124","approach_avoid_sv1","""event"",""trial"",""time""
""fullscreenenter"",""1"",""1499""
","
","
","""event"",""trial"",""time""
""fullscreenenter"",""1"",""1499""
","
","","","","","","null","<div style=""font-size:60px;"">+</div>","null","","fixation","","",""
"memory-trial","80","229037","0.0-18.0-1.18","4124","approach_avoid_sv1","""event"",""trial"",""time""
""fullscreenenter"",""1"",""1499""
","
","
","""event"",""trial"",""time""
""fullscreenenter"",""1"",""1499""
","
","","","","","","693","images/banana3.png","","","memory_trial","1","definitely_old",""
"html-keyboard-response","81","229541","0.0-18.0-0.19","4124","approach_avoid_sv1","""event"",""trial"",""time""
""fullscreenenter"",""1"",""1499""
","
","
","""event"",""trial"",""time""
""fullscreenenter"",""1"",""1499""
","
","","","","","","null","<div style=""font-size:60px;"">+</div>","null","","fixation","","",""
"memory-trial","82","231837","0.0-18.0-1.19","4124","approach_avoid_sv1","""event"",""trial"",""time""
""fullscreenenter"",""1"",""1499""
","
","
","""event"",""trial"",""time""
""fullscreenenter"",""1"",""1499""
","
","","","","","","1293.2000000029802","images/chair4.png","","","memory_trial","3","maybe_new",""
"html-keyboard-response","83","232341","0.0-18.0-0.20","4124","approach_avoid_sv1","""event"",""trial"",""time""
""fullscreenenter"",""1"",""1499""
","
","
","""event"",""trial"",""time""
""fullscreenenter"",""1"",""1499""
","
","","","","","","null","<div style=""font-size:60px;"">+</div>","null","","fixation","","",""
"memory-trial","84","234653","0.0-18.0-1.20","4124","approach_avoid_sv1","""event"",""trial"",""time""
""fullscreenenter"",""1"",""1499""
","
","
","""event"",""trial"",""time""
""fullscreenenter"",""1"",""1499""
","
","","","","","","1306.2000000029802","images/truck2.png","","","memory_trial","2","maybe_old",""
"html-keyboard-response","85","235157","0.0-18.0-0.21","4124","approach_avoid_sv1","""event"",""trial"",""time""
""fullscreenenter"",""1"",""1499""
","
","
","""event"",""trial"",""time""
""fullscreenenter"",""1"",""1499""
","
","","","","","","null","<div style=""font-size:60px;"">+</div>","null","","fixation","","",""
"memory-trial","86","237685","0.0-18.0-1.21","4124","approach_avoid_sv1","""event"",""trial"",""time""
""fullscreenenter"",""1"",""1499""
","
","
","""event"",""trial"",""time""
""fullscreenenter"",""1"",""1499""
","
","","","","","","1521.199999999255","images/bed1.png","","","memory_trial","3","maybe_new",""
"html-keyboard-response","87","238189","0.0-18.0-0.22","4124","approach_avoid_sv1","""event"",""trial"",""time""
""fullscreenenter"",""1"",""1499""
","
","
","""event"",""trial"",""time""
""fullscreenenter"",""1"",""1499""
","
","","","","","","null","<div style=""font-size:60px;"">+</div>","null","","fixation","","",""
"memory-trial","88","241197","0.0-18.0-1.22","4124","approach_avoid_sv1","""event"",""trial"",""time""
""fullscreenenter"",""1"",""1499""
","
","
","""event"",""trial"",""time""
""fullscreenenter"",""1"",""1499""
","
","","","","","","2004.300000000745","images/horse6.png","","","memory_trial","4","definitely_new",""
"html-keyboard-response","89","241701","0.0-18.0-0.23","4124","approach_avoid_sv1","""event"",""trial"",""time""
""fullscreenenter"",""1"",""1499""
","
","
","""event"",""trial"",""time""
""fullscreenenter"",""1"",""1499""
","
","","","","","","null","<div style=""font-size:60px;"">+</div>","null","","fixation","","",""
"memory-trial","90","244293","0.0-18.0-1.23","4124","approach_avoid_sv1","""event"",""trial"",""time""
""fullscreenenter"",""1"",""1499""
","
","
","""event"",""trial"",""time""
""fullscreenenter"",""1"",""1499""
","
","","","","","","1583","images/cow7.png","","","memory_trial","2","maybe_old",""
"html-keyboard-response","91","244797","0.0-18.0-0.24","4124","approach_avoid_sv1","""event"",""trial"",""time""
""fullscreenenter"",""1"",""1499""
","
","
","""event"",""trial"",""time""
""fullscreenenter"",""1"",""1499""
","
","","","","","","null","<div style=""font-size:60px;"">+</div>","null","","fixation","","",""
"memory-trial","92","247949","0.0-18.0-1.24","4124","approach_avoid_sv1","""event"",""trial"",""time""
""fullscreenenter"",""1"",""1499""
","
","
","""event"",""trial"",""time""
""fullscreenenter"",""1"",""1499""
","
","","","","","","2148.5","images/sheep7.png","","","memory_trial","3","maybe_new",""
"html-keyboard-response","93","248453","0.0-18.0-0.25","4124","approach_avoid_sv1","""event"",""trial"",""time""
""fullscreenenter"",""1"",""1499""
","
","
","""event"",""trial"",""time""
""fullscreenenter"",""1"",""1499""
","
","","","","","","null","<div style=""font-size:60px;"">+</div>","null","","fixation","","",""
"memory-trial","94","250693","0.0-18.0-1.25","4124","approach_avoid_sv1","""event"",""trial"",""time""
""fullscreenenter"",""1"",""1499""
","
","
","""event"",""trial"",""time""
""fullscreenenter"",""1"",""1499""
","
","","","","","","1231.1000000014901","images/flower8.png","","","memory_trial","1","definitely_old",""
"html-keyboard-response","95","251197","0.0-18.0-0.26","4124","approach_avoid_sv1","""event"",""trial"",""time""
""fullscreenenter"",""1"",""1499""
","
","
","""event"",""trial"",""time""
""fullscreenenter"",""1"",""1499""
","
","","","","","","null","<div style=""font-size:60px;"">+</div>","null","","fixation","","",""
"memory-trial","96","253229","0.0-18.0-1.26","4124","approach_avoid_sv1","""event"",""trial"",""time""
""fullscreenenter"",""1"",""1499""
","
","
","""event"",""trial"",""time""
""fullscreenenter"",""1"",""1499""
","
","","","","","","1025","images/cat5.png","","","memory_trial","1","definitely_old",""
"html-keyboard-response","97","253733","0.0-18.0-0.27","4124","approach_avoid_sv1","""event"",""trial"",""time""
""fullscreenenter"",""1"",""1499""
","
","
","""event"",""trial"",""time""
""fullscreenenter"",""1"",""1499""
","
","","","","","","null","<div style=""font-size:60px;"">+</div>","null","","fixation","","",""
"memory-trial","98","255869","0.0-18.0-1.27","4124","approach_avoid_sv1","""event"",""trial"",""time""
""fullscreenenter"",""1"",""1499""
","
","
","""event"",""trial"",""time""
""fullscreenenter"",""1"",""1499""
","
","","","","","","1128.6000000014901","images/horse1.png","","","memory_trial","4","definitely_new",""
"html-keyboard-response","99","256373","0.0-18.0-0.28","4124","approach_avoid_sv1","""event"",""trial"",""time""
""fullscreenenter"",""1"",""1499""
","
","
","""event"",""trial"",""time""
""fullscreenenter"",""1"",""1499""
","
","","","","","","null","<div style=""font-size:60px;"">+</div>","null","","fixation","","",""
"memory-trial","100","258437","0.0-18.0-1.28","4124","approach_avoid_sv1","""event"",""trial"",""time""
""fullscreenenter"",""1"",""1499""
","
","
","""event"",""trial"",""time""
""fullscreenenter"",""1"",""1499""
","
","","","","","","1057.199999999255","images/orange1.png","","","memory_trial","1","definitely_old",""
"html-keyboard-response","101","258941","0.0-18.0-0.29","4124","approach_avoid_sv1","""event"",""trial"",""time""
""fullscreenenter"",""1"",""1499""
","
","
","""event"",""trial"",""time""
""fullscreenenter"",""1"",""1499""
","
","","","","","","null","<div style=""font-size:60px;"">+</div>","null","","fixation","","",""
"memory-trial","102","261101","0.0-18.0-1.29","4124","approach_avoid_sv1","""event"",""trial"",""time""
""fullscreenenter"",""1"",""1499""
","
","
","""event"",""trial"",""time""
""fullscreenenter"",""1"",""1499""
","
","","","","","","1155.800000000745","images/horse3.png","","","memory_trial","4","definitely_new",""
"html-keyboard-response","103","261605","0.0-18.0-0.30","4124","approach_avoid_sv1","""event"",""trial"",""time""
""fullscreenenter"",""1"",""1499""
","
","
","""event"",""trial"",""time""
""fullscreenenter"",""1"",""1499""
","
","","","","","","null","<div style=""font-size:60px;"">+</div>","null","","fixation","","",""
"memory-trial","104","264189","0.0-18.0-1.30","4124","approach_avoid_sv1","""event"",""trial"",""time""
""fullscreenenter"",""1"",""1499""
","
","
","""event"",""trial"",""time""
""fullscreenenter"",""1"",""1499""
","
","","","","","","1574.1000000014901","images/boat2.png","","","memory_trial","2","maybe_old",""
"html-keyboard-response","105","264693","0.0-18.0-0.31","4124","approach_avoid_sv1","""event"",""trial"",""time""
""fullscreenenter"",""1"",""1499""
","
","
","""event"",""trial"",""time""
""fullscreenenter"",""1"",""1499""
","
","","","","","","null","<div style=""font-size:60px;"">+</div>","null","","fixation","","",""
"memory-trial","106","266917","0.0-18.0-1.31","4124","approach_avoid_sv1","""event"",""trial"",""time""
""fullscreenenter"",""1"",""1499""
","
","
","""event"",""trial"",""time""
""fullscreenenter"",""1"",""1499""
","
","","","","","","1215.4000000022352","images/table5.png","","","memory_trial","3","maybe_new",""
"html-keyboard-response","107","267421","0.0-18.0-0.32","4124","approach_avoid_sv1","""event"",""trial"",""time""
""fullscreenenter"",""1"",""1499""
","
","
","""event"",""trial"",""time""
""fullscreenenter"",""1"",""1499""
","
","","","","","","null","<div style=""font-size:60px;"">+</div>","null","","fixation","","",""
"memory-trial","108","269709","0.0-18.0-1.32","4124","approach_avoid_sv1","""event"",""trial"",""time""
""fullscreenenter"",""1"",""1499""
","
","
","""event"",""trial"",""time""
""fullscreenenter"",""1"",""1499""
","
","","","","","","1278.800000000745","images/apple6.png","","","memory_trial","3","maybe_new",""
"html-keyboard-response","109","270213","0.0-18.0-0.33","4124","approach_avoid_sv1","""event"",""trial"",""time""
""fullscreenenter"",""1"",""1499""
","
","
","""event"",""trial"",""time""
""fullscreenenter"",""1"",""1499""
","
","","","","","","null","<div style=""font-size:60px;"">+</div>","null","","fixation","","",""
"memory-trial","110","272253","0.0-18.0-1.33","4124","approach_avoid_sv1","""event"",""trial"",""time""
""fullscreenenter"",""1"",""1499""
","
","
","""event"",""trial"",""time""
""fullscreenenter"",""1"",""1499""
","
","","","","","","1034.300000000745","images/boat1.png","","","memory_trial","2","maybe_old",""
"html-keyboard-response","111","272757","0.0-18.0-0.34","4124","approach_avoid_sv1","""event"",""trial"",""time""
""fullscreenenter"",""1"",""1499""
","
","
","""event"",""trial"",""time""
""fullscreenenter"",""1"",""1499""
","
","","","","","","null","<div style=""font-size:60px;"">+</div>","null","","fixation","","",""
"memory-trial","112","275165","0.0-18.0-1.34","4124","approach_avoid_sv1","""event"",""trial"",""time""
""fullscreenenter"",""1"",""1499""
","
","
","""event"",""trial"",""time""
""fullscreenenter"",""1"",""1499""
","
","","","","","","1403.5","images/flower6.png","","","memory_trial","3","maybe_new",""
"html-keyboard-response","113","275669","0.0-18.0-0.35","4124","approach_avoid_sv1","""event"",""trial"",""time""
""fullscreenenter"",""1"",""1499""
","
","
","""event"",""trial"",""time""
""fullscreenenter"",""1"",""1499""
","
","","","","","","null","<div style=""font-size:60px;"">+</div>","null","","fixation","","",""
"memory-trial","114","278133","0.0-18.0-1.35","4124","approach_avoid_sv1","""event"",""trial"",""time""
""fullscreenenter"",""1"",""1499""
","
","
","""event"",""trial"",""time""
""fullscreenenter"",""1"",""1499""
","
","","","","","","1453.8999999985099","images/goat6.png","","","memory_trial","3","maybe_new",""
"html-keyboard-response","115","278637","0.0-18.0-0.36","4124","approach_avoid_sv1","""event"",""trial"",""time""
""fullscreenenter"",""1"",""1499""
","
","
","""event"",""trial"",""time""
""fullscreenenter"",""1"",""1499""
","
","","","","","","null","<div style=""font-size:60px;"">+</div>","null","","fixation","","",""
"memory-trial","116","280989","0.0-18.0-1.36","4124","approach_avoid_sv1","""event"",""trial"",""time""
""fullscreenenter"",""1"",""1499""
","
","
","""event"",""trial"",""time""
""fullscreenenter"",""1"",""1499""
","
","","","","","","1346.8999999985099","images/straw8.png","","","memory_trial","3","maybe_new",""
"html-keyboard-response","117","281493","0.0-18.0-0.37","4124","approach_avoid_sv1","""event"",""trial"",""time""
""fullscreenenter"",""1"",""1499""
","
","
","""event"",""trial"",""time""
""fullscreenenter"",""1"",""1499""
","
","","","","","","null","<div style=""font-size:60px;"">+</div>","null","","fixation","","",""
"memory-trial","118","283749","0.0-18.0-1.37","4124","approach_avoid_sv1","""event"",""trial"",""time""
""fullscreenenter"",""1"",""1499""
","
","
","""event"",""trial"",""time""
""fullscreenenter"",""1"",""1499""
","
","","","","","","1245.9000000022352","images/tree2.png","","","memory_trial","4","definitely_new",""
"html-keyboard-response","119","284253","0.0-18.0-0.38","4124","approach_avoid_sv1","""event"",""trial"",""time""
""fullscreenenter"",""1"",""1499""
","
","
","""event"",""trial"",""time""
""fullscreenenter"",""1"",""1499""
","
","","","","","","null","<div style=""font-size:60px;"">+</div>","null","","fixation","","",""
"memory-trial","120","286597","0.0-18.0-1.38","4124","approach_avoid_sv1","""event"",""trial"",""time""
""fullscreenenter"",""1"",""1499""
","
","
","""event"",""trial"",""time""
""fullscreenenter"",""1"",""1499""
","
","","","","","","1340.199999999255","images/goat4.png","","","memory_trial","2","maybe_old",""
"html-keyboard-response","121","287101","0.0-18.0-0.39","4124","approach_avoid_sv1","""event"",""trial"",""time""
""fullscreenenter"",""1"",""1499""
","
","
","""event"",""trial"",""time""
""fullscreenenter"",""1"",""1499""
","
","","","","","","null","<div style=""font-size:60px;"">+</div>","null","","fixation","","",""
"memory-trial","122","289437","0.0-18.0-1.39","4124","approach_avoid_sv1","""event"",""trial"",""time""
""fullscreenenter"",""1"",""1499""
","
","
","""event"",""trial"",""time""
""fullscreenenter"",""1"",""1499""
","
","","","","","","1325.800000000745","images/apple4.png","","","memory_trial","4","definitely_new",""
"html-keyboard-response","123","289941","0.0-18.0-0.40","4124","approach_avoid_sv1","""event"",""trial"",""time""
""fullscreenenter"",""1"",""1499""
","
","
","""event"",""trial"",""time""
""fullscreenenter"",""1"",""1499""
","
","","","","","","null","<div style=""font-size:60px;"">+</div>","null","","fixation","","",""
"memory-trial","124","292213","0.0-18.0-1.40","4124","approach_avoid_sv1","""event"",""trial"",""time""
""fullscreenenter"",""1"",""1499""
","
","
","""event"",""trial"",""time""
""fullscreenenter"",""1"",""1499""
","
","","","","","","1269","images/flower1.png","","","memory_trial","1","definitely_old",""
"html-keyboard-response","125","292717","0.0-18.0-0.41","4124","approach_avoid_sv1","""event"",""trial"",""time""
""fullscreenenter"",""1"",""1499""
","
","
","""event"",""trial"",""time""
""fullscreenenter"",""1"",""1499""
","
","","","","","","null","<div style=""font-size:60px;"">+</div>","null","","fixation","","",""
"memory-trial","126","295397","0.0-18.0-1.41","4124","approach_avoid_sv1","""event"",""trial"",""time""
""fullscreenenter"",""1"",""1499""
","
","
","""event"",""trial"",""time""
""fullscreenenter"",""1"",""1499""
","
","","","","","","1676.300000000745","images/cactus6.png","","","memory_trial","3","maybe_new",""
"html-button-response","127","297504","0.0-18.0-2.41-0.41","4124","approach_avoid_sv1","""event"",""trial"",""time""
""fullscreenenter"",""1"",""1499""
","
","
","""event"",""trial"",""time""
""fullscreenenter"",""1"",""1499""
","
","","","","","","2105.89999999851","<p> Take a break! </p><p> Click the button to continue. </p>","0","","break","","",""
"html-keyboard-response","128","298005","0.0-18.0-0.42","4124","approach_avoid_sv1","""event"",""trial"",""time""
""fullscreenenter"",""1"",""1499""
","
","
","""event"",""trial"",""time""
""fullscreenenter"",""1"",""1499""
","
","","","","","","null","<div style=""font-size:60px;"">+</div>","null","","fixation","","",""
"memory-trial","129","300381","0.0-18.0-1.42","4124","approach_avoid_sv1","""event"",""trial"",""time""
""fullscreenenter"",""1"",""1499""
","
","
","""event"",""trial"",""time""
""fullscreenenter"",""1"",""1499""
","
","","","","","","1366.4000000022352","images/sheep6.png","","","memory_trial","2","maybe_old",""
"html-keyboard-response","130","300885","0.0-18.0-0.43","4124","approach_avoid_sv1","""event"",""trial"",""time""
""fullscreenenter"",""1"",""1499""
","
","
","""event"",""trial"",""time""
""fullscreenenter"",""1"",""1499""
","
","","","","","","null","<div style=""font-size:60px;"">+</div>","null","","fixation","","",""
"memory-trial","131","303069","0.0-18.0-1.43","4124","approach_avoid_sv1","""event"",""trial"",""time""
""fullscreenenter"",""1"",""1499""
","
","
","""event"",""trial"",""time""
""fullscreenenter"",""1"",""1499""
","
","","","","","","1179.800000000745","images/orange2.png","","","memory_trial","3","maybe_new",""
"html-keyboard-response","132","303573","0.0-18.0-0.44","4124","approach_avoid_sv1","""event"",""trial"",""time""
""fullscreenenter"",""1"",""1499""
","
","
","""event"",""trial"",""time""
""fullscreenenter"",""1"",""1499""
","
","","","","","","null","<div style=""font-size:60px;"">+</div>","null","","fixation","","",""
"memory-trial","133","305869","0.0-18.0-1.44","4124","approach_avoid_sv1","""event"",""trial"",""time""
""fullscreenenter"",""1"",""1499""
","
","
","""event"",""trial"",""time""
""fullscreenenter"",""1"",""1499""
","
","","","","","","1285.6000000014901","images/plane5.png","","","memory_trial","4","definitely_new",""
"html-keyboard-response","134","306373","0.0-18.0-0.45","4124","approach_avoid_sv1","""event"",""trial"",""time""
""fullscreenenter"",""1"",""1499""
","
","
","""event"",""trial"",""time""
""fullscreenenter"",""1"",""1499""
","
","","","","","","null","<div style=""font-size:60px;"">+</div>","null","","fixation","","",""
"memory-trial","135","308645","0.0-18.0-1.45","4124","approach_avoid_sv1","""event"",""trial"",""time""
""fullscreenenter"",""1"",""1499""
","
","
","""event"",""trial"",""time""
""fullscreenenter"",""1"",""1499""
","
","","","","","","1263.5999999977648","images/boat6.png","","","memory_trial","1","definitely_old",""
"html-keyboard-response","136","309149","0.0-18.0-0.46","4124","approach_avoid_sv1","""event"",""trial"",""time""
""fullscreenenter"",""1"",""1499""
","
","
","""event"",""trial"",""time""
""fullscreenenter"",""1"",""1499""
","
","","","","","","null","<div style=""font-size:60px;"">+</div>","null","","fixation","","",""
"memory-trial","137","311885","0.0-18.0-1.46","4124","approach_avoid_sv1","""event"",""trial"",""time""
""fullscreenenter"",""1"",""1499""
","
","
","""event"",""trial"",""time""
""fullscreenenter"",""1"",""1499""
","
","","","","","","1730.9000000022352","images/flower5.png","","","memory_trial","4","definitely_new",""
"html-keyboard-response","138","312389","0.0-18.0-0.47","4124","approach_avoid_sv1","""event"",""trial"",""time""
""fullscreenenter"",""1"",""1499""
","
","
","""event"",""trial"",""time""
""fullscreenenter"",""1"",""1499""
","
","","","","","","null","<div style=""font-size:60px;"">+</div>","null","","fixation","","",""
"memory-trial","139","314717","0.0-18.0-1.47","4124","approach_avoid_sv1","""event"",""trial"",""time""
""fullscreenenter"",""1"",""1499""
","
","
","""event"",""trial"",""time""
""fullscreenenter"",""1"",""1499""
","
","","","","","","1321.5999999977648","images/truck3.png","","","memory_trial","1","definitely_old",""
"html-keyboard-response","140","315221","0.0-18.0-0.48","4124","approach_avoid_sv1","""event"",""trial"",""time""
""fullscreenenter"",""1"",""1499""
","
","
","""event"",""trial"",""time""
""fullscreenenter"",""1"",""1499""
","
","","","","","","null","<div style=""font-size:60px;"">+</div>","null","","fixation","","",""
"memory-trial","141","317309","0.0-18.0-1.48","4124","approach_avoid_sv1","""event"",""trial"",""time""
""fullscreenenter"",""1"",""1499""
","
","
","""event"",""trial"",""time""
""fullscreenenter"",""1"",""1499""
","
","","","","","","1077.8999999985099","images/bed3.png","","","memory_trial","2","maybe_old",""
"html-keyboard-response","142","317813","0.0-18.0-0.49","4124","approach_avoid_sv1","""event"",""trial"",""time""
""fullscreenenter"",""1"",""1499""
","
","
","""event"",""trial"",""time""
""fullscreenenter"",""1"",""1499""
","
","","","","","","null","<div style=""font-size:60px;"">+</div>","null","","fixation","","",""
"memory-trial","143","320133","0.0-18.0-1.49","4124","approach_avoid_sv1","""event"",""trial"",""time""
""fullscreenenter"",""1"",""1499""
","
","
","""event"",""trial"",""time""
""fullscreenenter"",""1"",""1499""
","
","","","","","","1316.2999999970198","images/apple7.png","","","memory_trial","3","maybe_new",""
"html-keyboard-response","144","320637","0.0-18.0-0.50","4124","approach_avoid_sv1","""event"",""trial"",""time""
""fullscreenenter"",""1"",""1499""
","
","
","""event"",""trial"",""time""
""fullscreenenter"",""1"",""1499""
","
","","","","","","null","<div style=""font-size:60px;"">+</div>","null","","fixation","","",""
"memory-trial","145","323021","0.0-18.0-1.50","4124","approach_avoid_sv1","""event"",""trial"",""time""
""fullscreenenter"",""1"",""1499""
","
","
","""event"",""trial"",""time""
""fullscreenenter"",""1"",""1499""
","
","","","","","","1375.1000000014901","images/orange3.png","","","memory_trial","1","definitely_old",""
"html-keyboard-response","146","323525","0.0-18.0-0.51","4124","approach_avoid_sv1","""event"",""trial"",""time""
""fullscreenenter"",""1"",""1499""
","
","
","""event"",""trial"",""time""
""fullscreenenter"",""1"",""1499""
","
","","","","","","null","<div style=""font-size:60px;"">+</div>","null","","fixation","","",""
"memory-trial","147","325605","0.0-18.0-1.51","4124","approach_avoid_sv1","""event"",""trial"",""time""
""fullscreenenter"",""1"",""1499""
","
","
","""event"",""trial"",""time""
""fullscreenenter"",""1"",""1499""
","
","","","","","","1076.300000000745","images/cat7.png","","","memory_trial","1","definitely_old",""
"html-keyboard-response","148","326109","0.0-18.0-0.52","4124","approach_avoid_sv1","""event"",""trial"",""time""
""fullscreenenter"",""1"",""1499""
","
","
","""event"",""trial"",""time""
""fullscreenenter"",""1"",""1499""
","
","","","","","","null","<div style=""font-size:60px;"">+</div>","null","","fixation","","",""
"memory-trial","149","328053","0.0-18.0-1.52","4124","approach_avoid_sv1","""event"",""trial"",""time""
""fullscreenenter"",""1"",""1499""
","
","
","""event"",""trial"",""time""
""fullscreenenter"",""1"",""1499""
","
","","","","","","934.1000000014901","images/banana1.png","","","memory_trial","1","definitely_old",""
"html-keyboard-response","150","328557","0.0-18.0-0.53","4124","approach_avoid_sv1","""event"",""trial"",""time""
""fullscreenenter"",""1"",""1499""
","
","
","""event"",""trial"",""time""
""fullscreenenter"",""1"",""1499""
","
","","","","","","null","<div style=""font-size:60px;"">+</div>","null","","fixation","","",""
"memory-trial","151","330805","0.0-18.0-1.53","4124","approach_avoid_sv1","""event"",""trial"",""time""
""fullscreenenter"",""1"",""1499""
","
","
","""event"",""trial"",""time""
""fullscreenenter"",""1"",""1499""
","
","","","","","","1245.6000000014901","images/chair2.png","","","memory_trial","3","maybe_new",""
"html-keyboard-response","152","331309","0.0-18.0-0.54","4124","approach_avoid_sv1","""event"",""trial"",""time""
""fullscreenenter"",""1"",""1499""
","
","
","""event"",""trial"",""time""
""fullscreenenter"",""1"",""1499""
","
","","","","","","null","<div style=""font-size:60px;"">+</div>","null","","fixation","","",""
"memory-trial","153","333685","0.0-18.0-1.54","4124","approach_avoid_sv1","""event"",""trial"",""time""
""fullscreenenter"",""1"",""1499""
","
","
","""event"",""trial"",""time""
""fullscreenenter"",""1"",""1499""
","
","","","","","","1370.6000000014901","images/cat3.png","","","memory_trial","3","maybe_new",""
"html-keyboard-response","154","334189","0.0-18.0-0.55","4124","approach_avoid_sv1","""event"",""trial"",""time""
""fullscreenenter"",""1"",""1499""
","
","
","""event"",""trial"",""time""
""fullscreenenter"",""1"",""1499""
","
","","","","","","null","<div style=""font-size:60px;"">+</div>","null","","fixation","","",""
"memory-trial","155","336421","0.0-18.0-1.55","4124","approach_avoid_sv1","""event"",""trial"",""time""
""fullscreenenter"",""1"",""1499""
","
","
","""event"",""trial"",""time""
""fullscreenenter"",""1"",""1499""
","
","","","","","","1228.5","images/cow3.png","","","memory_trial","1","definitely_old",""
"html-keyboard-response","156","336925","0.0-18.0-0.56","4124","approach_avoid_sv1","""event"",""trial"",""time""
""fullscreenenter"",""1"",""1499""
","
","
","""event"",""trial"",""time""
""fullscreenenter"",""1"",""1499""
","
","","","","","","null","<div style=""font-size:60px;"">+</div>","null","","fixation","","",""
"memory-trial","157","339301","0.0-18.0-1.56","4124","approach_avoid_sv1","""event"",""trial"",""time""
""fullscreenenter"",""1"",""1499""
","
","
","""event"",""trial"",""time""
""fullscreenenter"",""1"",""1499""
","
","","","","","","1373.199999999255","images/plane3.png","","","memory_trial","3","maybe_new",""
"html-keyboard-response","158","339805","0.0-18.0-0.57","4124","approach_avoid_sv1","""event"",""trial"",""time""
""fullscreenenter"",""1"",""1499""
","
","
","""event"",""trial"",""time""
""fullscreenenter"",""1"",""1499""
","
","","","","","","null","<div style=""font-size:60px;"">+</div>","null","","fixation","","",""
"memory-trial","159","341965","0.0-18.0-1.57","4124","approach_avoid_sv1","""event"",""trial"",""time""
""fullscreenenter"",""1"",""1499""
","
","
","""event"",""trial"",""time""
""fullscreenenter"",""1"",""1499""
","
","","","","","","1155","images/orange4.png","","","memory_trial","2","maybe_old",""
"html-keyboard-response","160","342469","0.0-18.0-0.58","4124","approach_avoid_sv1","""event"",""trial"",""time""
""fullscreenenter"",""1"",""1499""
","
","
","""event"",""trial"",""time""
""fullscreenenter"",""1"",""1499""
","
","","","","","","null","<div style=""font-size:60px;"">+</div>","null","","fixation","","",""
"memory-trial","161","344613","0.0-18.0-1.58","4124","approach_avoid_sv1","""event"",""trial"",""time""
""fullscreenenter"",""1"",""1499""
","
","
","""event"",""trial"",""time""
""fullscreenenter"",""1"",""1499""
","
","","","","","","1141.2999999970198","images/tree7.png","","","memory_trial","1","definitely_old",""
"html-keyboard-response","162","345117","0.0-18.0-0.59","4124","approach_avoid_sv1","""event"",""trial"",""time""
""fullscreenenter"",""1"",""1499""
","
","
","""event"",""trial"",""time""
""fullscreenenter"",""1"",""1499""
","
","","","","","","null","<div style=""font-size:60px;"">+</div>","null","","fixation","","",""
"memory-trial","163","347397","0.0-18.0-1.59","4124","approach_avoid_sv1","""event"",""trial"",""time""
""fullscreenenter"",""1"",""1499""
","
","
","""event"",""trial"",""time""
""fullscreenenter"",""1"",""1499""
","
","","","","","","1274.699999999255","images/sofa4.png","","","memory_trial","3","maybe_new",""
"html-keyboard-response","164","347901","0.0-18.0-0.60","4124","approach_avoid_sv1","""event"",""trial"",""time""
""fullscreenenter"",""1"",""1499""
","
","
","""event"",""trial"",""time""
""fullscreenenter"",""1"",""1499""
","
","","","","","","null","<div style=""font-size:60px;"">+</div>","null","","fixation","","",""
"memory-trial","165","350285","0.0-18.0-1.60","4124","approach_avoid_sv1","""event"",""trial"",""time""
""fullscreenenter"",""1"",""1499""
","
","
","""event"",""trial"",""time""
""fullscreenenter"",""1"",""1499""
","
","","","","","","1374.2000000029802","images/sheep3.png","","","memory_trial","4","definitely_new",""
"html-keyboard-response","166","350789","0.0-18.0-0.61","4124","approach_avoid_sv1","""event"",""trial"",""time""
""fullscreenenter"",""1"",""1499""
","
","
","""event"",""trial"",""time""
""fullscreenenter"",""1"",""1499""
","
","","","","","","null","<div style=""font-size:60px;"">+</div>","null","","fixation","","",""
"memory-trial","167","353045","0.0-18.0-1.61","4124","approach_avoid_sv1","""event"",""trial"",""time""
""fullscreenenter"",""1"",""1499""
","
","
","""event"",""trial"",""time""
""fullscreenenter"",""1"",""1499""
","
","","","","","","1251.1000000014901","images/rabbit5.png","","","memory_trial","4","definitely_new",""
"html-keyboard-response","168","353549","0.0-18.0-0.62","4124","approach_avoid_sv1","""event"",""trial"",""time""
""fullscreenenter"",""1"",""1499""
","
","
","""event"",""trial"",""time""
""fullscreenenter"",""1"",""1499""
","
","","","","","","null","<div style=""font-size:60px;"">+</div>","null","","fixation","","",""
"memory-trial","169","355901","0.0-18.0-1.62","4124","approach_avoid_sv1","""event"",""trial"",""time""
""fullscreenenter"",""1"",""1499""
","
","
","""event"",""trial"",""time""
""fullscreenenter"",""1"",""1499""
","
","","","","","","1346.699999999255","images/truck5.png","","","memory_trial","3","maybe_new",""
"html-keyboard-response","170","356405","0.0-18.0-0.63","4124","approach_avoid_sv1","""event"",""trial"",""time""
""fullscreenenter"",""1"",""1499""
","
","
","""event"",""trial"",""time""
""fullscreenenter"",""1"",""1499""
","
","","","","","","null","<div style=""font-size:60px;"">+</div>","null","","fixation","","",""
"memory-trial","171","358797","0.0-18.0-1.63","4124","approach_avoid_sv1","""event"",""trial"",""time""
""fullscreenenter"",""1"",""1499""
","
","
","""event"",""trial"",""time""
""fullscreenenter"",""1"",""1499""
","
","","","","","","1383.5","images/truck1.png","","","memory_trial","3","maybe_new",""
"html-keyboard-response","172","359301","0.0-18.0-0.64","4124","approach_avoid_sv1","""event"",""trial"",""time""
""fullscreenenter"",""1"",""1499""
","
","
","""event"",""trial"",""time""
""fullscreenenter"",""1"",""1499""
","
","","","","","","null","<div style=""font-size:60px;"">+</div>","null","","fixation","","",""
"memory-trial","173","361557","0.0-18.0-1.64","4124","approach_avoid_sv1","""event"",""trial"",""time""
""fullscreenenter"",""1"",""1499""
","
","
","""event"",""trial"",""time""
""fullscreenenter"",""1"",""1499""
","
","","","","","","1252.300000000745","images/rabbit8.png","","","memory_trial","2","maybe_old",""
"html-keyboard-response","174","362061","0.0-18.0-0.65","4124","approach_avoid_sv1","""event"",""trial"",""time""
""fullscreenenter"",""1"",""1499""
","
","
","""event"",""trial"",""time""
""fullscreenenter"",""1"",""1499""
","
","","","","","","null","<div style=""font-size:60px;"">+</div>","null","","fixation","","",""
"memory-trial","175","364381","0.0-18.0-1.65","4124","approach_avoid_sv1","""event"",""trial"",""time""
""fullscreenenter"",""1"",""1499""
","
","
","""event"",""trial"",""time""
""fullscreenenter"",""1"",""1499""
","
","","","","","","1311.5","images/cat2.png","","","memory_trial","1","definitely_old",""
"html-keyboard-response","176","364885","0.0-18.0-0.66","4124","approach_avoid_sv1","""event"",""trial"",""time""
""fullscreenenter"",""1"",""1499""
","
","
","""event"",""trial"",""time""
""fullscreenenter"",""1"",""1499""
","
","","","","","","null","<div style=""font-size:60px;"">+</div>","null","","fixation","","",""
"memory-trial","177","367141","0.0-18.0-1.66","4124","approach_avoid_sv1","""event"",""trial"",""time""
""fullscreenenter"",""1"",""1499""
","
","
","""event"",""trial"",""time""
""fullscreenenter"",""1"",""1499""
","
","","","","","","1248","images/tree5.png","","","memory_trial","4","definitely_new",""
"html-keyboard-response","178","367645","0.0-18.0-0.67","4124","approach_avoid_sv1","""event"",""trial"",""time""
""fullscreenenter"",""1"",""1499""
","
","
","""event"",""trial"",""time""
""fullscreenenter"",""1"",""1499""
","
","","","","","","null","<div style=""font-size:60px;"">+</div>","null","","fixation","","",""
"memory-trial","179","370037","0.0-18.0-1.67","4124","approach_avoid_sv1","""event"",""trial"",""time""
""fullscreenenter"",""1"",""1499""
","
","
","""event"",""trial"",""time""
""fullscreenenter"",""1"",""1499""
","
","","","","","","1385.699999999255","images/dog1.png","","","memory_trial","4","definitely_new",""
"html-keyboard-response","180","370541","0.0-18.0-0.68","4124","approach_avoid_sv1","""event"",""trial"",""time""
""fullscreenenter"",""1"",""1499""
","
","
","""event"",""trial"",""time""
""fullscreenenter"",""1"",""1499""
","
","","","","","","null","<div style=""font-size:60px;"">+</div>","null","","fixation","","",""
"memory-trial","181","373573","0.0-18.0-1.68","4124","approach_avoid_sv1","""event"",""trial"",""time""
""fullscreenenter"",""1"",""1499""
","
","
","""event"",""trial"",""time""
""fullscreenenter"",""1"",""1499""
","
","","","","","","2028.6000000014901","images/boat4.png","","","memory_trial","3","maybe_new",""
"html-keyboard-response","182","374077","0.0-18.0-0.69","4124","approach_avoid_sv1","""event"",""trial"",""time""
""fullscreenenter"",""1"",""1499""
","
","
","""event"",""trial"",""time""
""fullscreenenter"",""1"",""1499""
","
","","","","","","null","<div style=""font-size:60px;"">+</div>","null","","fixation","","",""
"memory-trial","183","376197","0.0-18.0-1.69","4124","approach_avoid_sv1","""event"",""trial"",""time""
""fullscreenenter"",""1"",""1499""
","
","
","""event"",""trial"",""time""
""fullscreenenter"",""1"",""1499""
","
","","","","","","1111.5","images/horse2.png","","","memory_trial","4","definitely_new",""
"html-keyboard-response","184","376701","0.0-18.0-0.70","4124","approach_avoid_sv1","""event"",""trial"",""time""
""fullscreenenter"",""1"",""1499""
","
","
","""event"",""trial"",""time""
""fullscreenenter"",""1"",""1499""
","
","","","","","","null","<div style=""font-size:60px;"">+</div>","null","","fixation","","",""
"memory-trial","185","378773","0.0-18.0-1.70","4124","approach_avoid_sv1","""event"",""trial"",""time""
""fullscreenenter"",""1"",""1499""
","
","
","""event"",""trial"",""time""
""fullscreenenter"",""1"",""1499""
","
","","","","","","1066.699999999255","images/orange8.png","","","memory_trial","1","definitely_old",""
"html-keyboard-response","186","379277","0.0-18.0-0.71","4124","approach_avoid_sv1","""event"",""trial"",""time""
""fullscreenenter"",""1"",""1499""
","
","
","""event"",""trial"",""time""
""fullscreenenter"",""1"",""1499""
","
","","","","","","null","<div style=""font-size:60px;"">+</div>","null","","fixation","","",""
"memory-trial","187","381685","0.0-18.0-1.71","4124","approach_avoid_sv1","""event"",""trial"",""time""
""fullscreenenter"",""1"",""1499""
","
","
","""event"",""trial"",""time""
""fullscreenenter"",""1"",""1499""
","
","","","","","","1402.199999999255","images/chair8.png","","","memory_trial","2","maybe_old",""
"html-keyboard-response","188","382189","0.0-18.0-0.72","4124","approach_avoid_sv1","""event"",""trial"",""time""
""fullscreenenter"",""1"",""1499""
","
","
","""event"",""trial"",""time""
""fullscreenenter"",""1"",""1499""
","
","","","","","","null","<div style=""font-size:60px;"">+</div>","null","","fixation","","",""
"memory-trial","189","384285","0.0-18.0-1.72","4124","approach_avoid_sv1","""event"",""trial"",""time""
""fullscreenenter"",""1"",""1499""
","
","
","""event"",""trial"",""time""
""fullscreenenter"",""1"",""1499""
","
","","","","","","1089.300000000745","images/dog5.png","","","memory_trial","4","definitely_new",""
"html-keyboard-response","190","384789","0.0-18.0-0.73","4124","approach_avoid_sv1","""event"",""trial"",""time""
""fullscreenenter"",""1"",""1499""
","
","
","""event"",""trial"",""time""
""fullscreenenter"",""1"",""1499""
","
","","","","","","null","<div style=""font-size:60px;"">+</div>","null","","fixation","","",""
"memory-trial","191","386941","0.0-18.0-1.73","4124","approach_avoid_sv1","""event"",""trial"",""time""
""fullscreenenter"",""1"",""1499""
","
","
","""event"",""trial"",""time""
""fullscreenenter"",""1"",""1499""
","
","","","","","","1146.1000000014901","images/table4.png","","","memory_trial","2","maybe_old",""
"html-keyboard-response","192","387445","0.0-18.0-0.74","4124","approach_avoid_sv1","""event"",""trial"",""time""
""fullscreenenter"",""1"",""1499""
","
","
","""event"",""trial"",""time""
""fullscreenenter"",""1"",""1499""
","
","","","","","","null","<div style=""font-size:60px;"">+</div>","null","","fixation","","",""
"memory-trial","193","389829","0.0-18.0-1.74","4124","approach_avoid_sv1","""event"",""trial"",""time""
""fullscreenenter"",""1"",""1499""
","
","
","""event"",""trial"",""time""
""fullscreenenter"",""1"",""1499""
","
","","","","","","1375.300000000745","images/straw6.png","","","memory_trial","2","maybe_old",""
"html-keyboard-response","194","390341","0.0-18.0-0.75","4124","approach_avoid_sv1","""event"",""trial"",""time""
""fullscreenenter"",""1"",""1499""
","
","
","""event"",""trial"",""time""
""fullscreenenter"",""1"",""1499""
","
","","","","","","null","<div style=""font-size:60px;"">+</div>","null","","fixation","","",""
"memory-trial","195","392453","0.0-18.0-1.75","4124","approach_avoid_sv1","""event"",""trial"",""time""
""fullscreenenter"",""1"",""1499""
","
","
","""event"",""trial"",""time""
""fullscreenenter"",""1"",""1499""
","
","","","","","","1103.699999999255","images/sheep1.png","","","memory_trial","2","maybe_old",""
"html-keyboard-response","196","392957","0.0-18.0-0.76","4124","approach_avoid_sv1","""event"",""trial"",""time""
""fullscreenenter"",""1"",""1499""
","
","
","""event"",""trial"",""time""
""fullscreenenter"",""1"",""1499""
","
","","","","","","null","<div style=""font-size:60px;"">+</div>","null","","fixation","","",""
"memory-trial","197","395229","0.0-18.0-1.76","4124","approach_avoid_sv1","""event"",""trial"",""time""
""fullscreenenter"",""1"",""1499""
","
","
","""event"",""trial"",""time""
""fullscreenenter"",""1"",""1499""
","
","","","","","","1265.800000000745","images/rabbit1.png","","","memory_trial","3","maybe_new",""
"html-keyboard-response","198","395733","0.0-18.0-0.77","4124","approach_avoid_sv1","""event"",""trial"",""time""
""fullscreenenter"",""1"",""1499""
","
","
","""event"",""trial"",""time""
""fullscreenenter"",""1"",""1499""
","
","","","","","","null","<div style=""font-size:60px;"">+</div>","null","","fixation","","",""
"memory-trial","199","398125","0.0-18.0-1.77","4124","approach_avoid_sv1","""event"",""trial"",""time""
""fullscreenenter"",""1"",""1499""
","
","
","""event"",""trial"",""time""
""fullscreenenter"",""1"",""1499""
","
","","","","","","1387.1000000014901","images/table2.png","","","memory_trial","3","maybe_new",""
"html-keyboard-response","200","398629","0.0-18.0-0.78","4124","approach_avoid_sv1","""event"",""trial"",""time""
""fullscreenenter"",""1"",""1499""
","
","
","""event"",""trial"",""time""
""fullscreenenter"",""1"",""1499""
","
","","","","","","null","<div style=""font-size:60px;"">+</div>","null","","fixation","","",""
"memory-trial","201","400853","0.0-18.0-1.78","4124","approach_avoid_sv1","""event"",""trial"",""time""
""fullscreenenter"",""1"",""1499""
","
","
","""event"",""trial"",""time""
""fullscreenenter"",""1"",""1499""
","
","","","","","","1220.5999999977648","images/rodent5.png","","","memory_trial","1","definitely_old",""
"html-keyboard-response","202","401357","0.0-18.0-0.79","4124","approach_avoid_sv1","""event"",""trial"",""time""
""fullscreenenter"",""1"",""1499""
","
","
","""event"",""trial"",""time""
""fullscreenenter"",""1"",""1499""
","
","","","","","","null","<div style=""font-size:60px;"">+</div>","null","","fixation","","",""
"memory-trial","203","403365","0.0-18.0-1.79","4124","approach_avoid_sv1","""event"",""trial"",""time""
""fullscreenenter"",""1"",""1499""
","
","
","""event"",""trial"",""time""
""fullscreenenter"",""1"",""1499""
","
","","","","","","998.9000000022352","images/train4.png","","","memory_trial","2","maybe_old",""
"html-keyboard-response","204","403869","0.0-18.0-0.80","4124","approach_avoid_sv1","""event"",""trial"",""time""
""fullscreenenter"",""1"",""1499""
","
","
","""event"",""trial"",""time""
""fullscreenenter"",""1"",""1499""
","
","","","","","","null","<div style=""font-size:60px;"">+</div>","null","","fixation","","",""
"memory-trial","205","405949","0.0-18.0-1.80","4124","approach_avoid_sv1","""event"",""trial"",""time""
""fullscreenenter"",""1"",""1499""
","
","
","""event"",""trial"",""time""
""fullscreenenter"",""1"",""1499""
","
","","","","","","1071.4000000022352","images/straw3.png","","","memory_trial","2","maybe_old",""
"html-keyboard-response","206","406453","0.0-18.0-0.81","4124","approach_avoid_sv1","""event"",""trial"",""time""
""fullscreenenter"",""1"",""1499""
","
","
","""event"",""trial"",""time""
""fullscreenenter"",""1"",""1499""
","
","","","","","","null","<div style=""font-size:60px;"">+</div>","null","","fixation","","",""
"memory-trial","207","408917","0.0-18.0-1.81","4124","approach_avoid_sv1","""event"",""trial"",""time""
""fullscreenenter"",""1"",""1499""
","
","
","""event"",""trial"",""time""
""fullscreenenter"",""1"",""1499""
","
","","","","","","1456.8999999985099","images/truck6.png","","","memory_trial","3","maybe_new",""
"html-keyboard-response","208","409421","0.0-18.0-0.82","4124","approach_avoid_sv1","""event"",""trial"",""time""
""fullscreenenter"",""1"",""1499""
","
","
","""event"",""trial"",""time""
""fullscreenenter"",""1"",""1499""
","
","","","","","","null","<div style=""font-size:60px;"">+</div>","null","","fixation","","",""
"memory-trial","209","411765","0.0-18.0-1.82","4124","approach_avoid_sv1","""event"",""trial"",""time""
""fullscreenenter"",""1"",""1499""
","
","
","""event"",""trial"",""time""
""fullscreenenter"",""1"",""1499""
","
","","","","","","1339","images/cactus4.png","","","memory_trial","1","definitely_old",""
"html-keyboard-response","210","412269","0.0-18.0-0.83","4124","approach_avoid_sv1","""event"",""trial"",""time""
""fullscreenenter"",""1"",""1499""
","
","
","""event"",""trial"",""time""
""fullscreenenter"",""1"",""1499""
","
","","","","","","null","<div style=""font-size:60px;"">+</div>","null","","fixation","","",""
"memory-trial","211","415157","0.0-18.0-1.83","4124","approach_avoid_sv1","""event"",""trial"",""time""
""fullscreenenter"",""1"",""1499""
","
","
","""event"",""trial"",""time""
""fullscreenenter"",""1"",""1499""
","
","","","","","","1880.800000000745","images/sofa8.png","","","memory_trial","4","definitely_new",""
"html-keyboard-response","212","415661","0.0-18.0-0.84","4124","approach_avoid_sv1","""event"",""trial"",""time""
""fullscreenenter"",""1"",""1499""
","
","
","""event"",""trial"",""time""
""fullscreenenter"",""1"",""1499""
","
","","","","","","null","<div style=""font-size:60px;"">+</div>","null","","fixation","","",""
"memory-trial","213","417597","0.0-18.0-1.84","4124","approach_avoid_sv1","""event"",""trial"",""time""
""fullscreenenter"",""1"",""1499""
","
","
","""event"",""trial"",""time""
""fullscreenenter"",""1"",""1499""
","
","","","","","","932.5999999977648","images/dog3.png","","","memory_trial","4","definitely_new",""
"html-keyboard-response","214","418101","0.0-18.0-0.85","4124","approach_avoid_sv1","""event"",""trial"",""time""
""fullscreenenter"",""1"",""1499""
","
","
","""event"",""trial"",""time""
""fullscreenenter"",""1"",""1499""
","
","","","","","","null","<div style=""font-size:60px;"">+</div>","null","","fixation","","",""
"memory-trial","215","420685","0.0-18.0-1.85","4124","approach_avoid_sv1","""event"",""trial"",""time""
""fullscreenenter"",""1"",""1499""
","
","
","""event"",""trial"",""time""
""fullscreenenter"",""1"",""1499""
","
","","","","","","1573.4000000022352","images/plane6.png","","","memory_trial","3","maybe_new",""
"html-keyboard-response","216","421189","0.0-18.0-0.86","4124","approach_avoid_sv1","""event"",""trial"",""time""
""fullscreenenter"",""1"",""1499""
","
","
","""event"",""trial"",""time""
""fullscreenenter"",""1"",""1499""
","
","","","","","","null","<div style=""font-size:60px;"">+</div>","null","","fixation","","",""
"memory-trial","217","423749","0.0-18.0-1.86","4124","approach_avoid_sv1","""event"",""trial"",""time""
""fullscreenenter"",""1"",""1499""
","
","
","""event"",""trial"",""time""
""fullscreenenter"",""1"",""1499""
","
","","","","","","1550.5","images/bush1.png","","","memory_trial","4","definitely_new",""
"html-keyboard-response","218","424253","0.0-18.0-0.87","4124","approach_avoid_sv1","""event"",""trial"",""time""
""fullscreenenter"",""1"",""1499""
","
","
","""event"",""trial"",""time""
""fullscreenenter"",""1"",""1499""
","
","","","","","","null","<div style=""font-size:60px;"">+</div>","null","","fixation","","",""
"memory-trial","219","426381","0.0-18.0-1.87","4124","approach_avoid_sv1","""event"",""trial"",""time""
""fullscreenenter"",""1"",""1499""
","
","
","""event"",""trial"",""time""
""fullscreenenter"",""1"",""1499""
","
","","","","","","1124.199999999255","images/tree1.png","","","memory_trial","1","definitely_old",""
"html-keyboard-response","220","426885","0.0-18.0-0.88","4124","approach_avoid_sv1","""event"",""trial"",""time""
""fullscreenenter"",""1"",""1499""
","
","
","""event"",""trial"",""time""
""fullscreenenter"",""1"",""1499""
","
","","","","","","null","<div style=""font-size:60px;"">+</div>","null","","fixation","","",""
"memory-trial","221","429325","0.0-18.0-1.88","4124","approach_avoid_sv1","""event"",""trial"",""time""
""fullscreenenter"",""1"",""1499""
","
","
","""event"",""trial"",""time""
""fullscreenenter"",""1"",""1499""
","
","","","","","","1437.3999999985099","images/apple2.png","","","memory_trial","3","maybe_new",""
"html-keyboard-response","222","429829","0.0-18.0-0.89","4124","approach_avoid_sv1","""event"",""trial"",""time""
""fullscreenenter"",""1"",""1499""
","
","
","""event"",""trial"",""time""
""fullscreenenter"",""1"",""1499""
","
","","","","","","null","<div style=""font-size:60px;"">+</div>","null","","fixation","","",""
"memory-trial","223","431909","0.0-18.0-1.89","4124","approach_avoid_sv1","""event"",""trial"",""time""
""fullscreenenter"",""1"",""1499""
","
","
","""event"",""trial"",""time""
""fullscreenenter"",""1"",""1499""
","
","","","","","","1075.6000000014901","images/orange6.png","","","memory_trial","1","definitely_old",""
"html-keyboard-response","224","432413","0.0-18.0-0.90","4124","approach_avoid_sv1","""event"",""trial"",""time""
""fullscreenenter"",""1"",""1499""
","
","
","""event"",""trial"",""time""
""fullscreenenter"",""1"",""1499""
","
","","","","","","null","<div style=""font-size:60px;"">+</div>","null","","fixation","","",""
"memory-trial","225","434621","0.0-18.0-1.90","4124","approach_avoid_sv1","""event"",""trial"",""time""
""fullscreenenter"",""1"",""1499""
","
","
","""event"",""trial"",""time""
""fullscreenenter"",""1"",""1499""
","
","","","","","","1199.6000000014901","images/bed2.png","","","memory_trial","4","definitely_new",""
"html-keyboard-response","226","435125","0.0-18.0-0.91","4124","approach_avoid_sv1","""event"",""trial"",""time""
""fullscreenenter"",""1"",""1499""
","
","
","""event"",""trial"",""time""
""fullscreenenter"",""1"",""1499""
","
","","","","","","null","<div style=""font-size:60px;"">+</div>","null","","fixation","","",""
"memory-trial","227","437349","0.0-18.0-1.91","4124","approach_avoid_sv1","""event"",""trial"",""time""
""fullscreenenter"",""1"",""1499""
","
","
","""event"",""trial"",""time""
""fullscreenenter"",""1"",""1499""
","
","","","","","","1213.9000000022352","images/plane8.png","","","memory_trial","3","maybe_new",""
"html-button-response","228","482328","0.0-18.0-2.91-0.91","4124","approach_avoid_sv1","""event"",""trial"",""time""
""fullscreenenter"",""1"",""1499""
","
","
","""event"",""trial"",""time""
""fullscreenenter"",""1"",""1499""
","
","","","","","","44978","<p> Take a break! </p><p> Click the button to continue. </p>","0","","break","","",""
"html-keyboard-response","229","482837","0.0-18.0-0.92","4124","approach_avoid_sv1","""event"",""trial"",""time""
""fullscreenenter"",""1"",""1499""
","
","
","""event"",""trial"",""time""
""fullscreenenter"",""1"",""1499""
","
","","","","","","null","<div style=""font-size:60px;"">+</div>","null","","fixation","","",""
"memory-trial","230","485365","0.0-18.0-1.92","4124","approach_avoid_sv1","""event"",""trial"",""time""
""fullscreenenter"",""1"",""1499""
","
","
","""event"",""trial"",""time""
""fullscreenenter"",""1"",""1499""
","
","","","","","","1518.300000000745","images/bed4.png","","","memory_trial","2","maybe_old",""
"html-keyboard-response","231","485869","0.0-18.0-0.93","4124","approach_avoid_sv1","""event"",""trial"",""time""
""fullscreenenter"",""1"",""1499""
","
","
","""event"",""trial"",""time""
""fullscreenenter"",""1"",""1499""
","
","","","","","","null","<div style=""font-size:60px;"">+</div>","null","","fixation","","",""
"memory-trial","232","488277","0.0-18.0-1.93","4124","approach_avoid_sv1","""event"",""trial"",""time""
""fullscreenenter"",""1"",""1499""
","
","
","""event"",""trial"",""time""
""fullscreenenter"",""1"",""1499""
","
","","","","","","1403.7999999970198","images/rodent4.png","","","memory_trial","4","definitely_new",""
"html-keyboard-response","233","488781","0.0-18.0-0.94","4124","approach_avoid_sv1","""event"",""trial"",""time""
""fullscreenenter"",""1"",""1499""
","
","
","""event"",""trial"",""time""
""fullscreenenter"",""1"",""1499""
","
","","","","","","null","<div style=""font-size:60px;"">+</div>","null","","fixation","","",""
"memory-trial","234","491109","0.0-18.0-1.94","4124","approach_avoid_sv1","""event"",""trial"",""time""
""fullscreenenter"",""1"",""1499""
","
","
","""event"",""trial"",""time""
""fullscreenenter"",""1"",""1499""
","
","","","","","","1325","images/rabbit4.png","","","memory_trial","1","definitely_old",""
"html-keyboard-response","235","491613","0.0-18.0-0.95","4124","approach_avoid_sv1","""event"",""trial"",""time""
""fullscreenenter"",""1"",""1499""
","
","
","""event"",""trial"",""time""
""fullscreenenter"",""1"",""1499""
","
","","","","","","null","<div style=""font-size:60px;"">+</div>","null","","fixation","","",""
"memory-trial","236","493717","0.0-18.0-1.95","4124","approach_avoid_sv1","""event"",""trial"",""time""
""fullscreenenter"",""1"",""1499""
","
","
","""event"",""trial"",""time""
""fullscreenenter"",""1"",""1499""
","
","","","","","","1092.7999999970198","images/train5.png","","","memory_trial","2","maybe_old",""
"html-keyboard-response","237","494221","0.0-18.0-0.96","4124","approach_avoid_sv1","""event"",""trial"",""time""
""fullscreenenter"",""1"",""1499""
","
","
","""event"",""trial"",""time""
""fullscreenenter"",""1"",""1499""
","
","","","","","","null","<div style=""font-size:60px;"">+</div>","null","","fixation","","",""
"memory-trial","238","496221","0.0-18.0-1.96","4124","approach_avoid_sv1","""event"",""trial"",""time""
""fullscreenenter"",""1"",""1499""
","
","
","""event"",""trial"",""time""
""fullscreenenter"",""1"",""1499""
","
","","","","","","993.6999999992549","images/sheep8.png","","","memory_trial","1","definitely_old",""
"html-keyboard-response","239","496725","0.0-18.0-0.97","4124","approach_avoid_sv1","""event"",""trial"",""time""
""fullscreenenter"",""1"",""1499""
","
","
","""event"",""trial"",""time""
""fullscreenenter"",""1"",""1499""
","
","","","","","","null","<div style=""font-size:60px;"">+</div>","null","","fixation","","",""
"memory-trial","240","498677","0.0-18.0-1.97","4124","approach_avoid_sv1","""event"",""trial"",""time""
""fullscreenenter"",""1"",""1499""
","
","
","""event"",""trial"",""time""
""fullscreenenter"",""1"",""1499""
","
","","","","","","947.3999999985099","images/dog2.png","","","memory_trial","4","definitely_new",""
"html-keyboard-response","241","499181","0.0-18.0-0.98","4124","approach_avoid_sv1","""event"",""trial"",""time""
""fullscreenenter"",""1"",""1499""
","
","
","""event"",""trial"",""time""
""fullscreenenter"",""1"",""1499""
","
","","","","","","null","<div style=""font-size:60px;"">+</div>","null","","fixation","","",""
"memory-trial","242","501541","0.0-18.0-1.98","4124","approach_avoid_sv1","""event"",""trial"",""time""
""fullscreenenter"",""1"",""1499""
","
","
","""event"",""trial"",""time""
""fullscreenenter"",""1"",""1499""
","
","","","","","","1350.5999999977648","images/train6.png","","","memory_trial","1","definitely_old",""
"html-keyboard-response","243","502045","0.0-18.0-0.99","4124","approach_avoid_sv1","""event"",""trial"",""time""
""fullscreenenter"",""1"",""1499""
","
","
","""event"",""trial"",""time""
""fullscreenenter"",""1"",""1499""
","
","","","","","","null","<div style=""font-size:60px;"">+</div>","null","","fixation","","",""
"memory-trial","244","504157","0.0-18.0-1.99","4124","approach_avoid_sv1","""event"",""trial"",""time""
""fullscreenenter"",""1"",""1499""
","
","
","""event"",""trial"",""time""
""fullscreenenter"",""1"",""1499""
","
","","","","","","1103.800000000745","images/bush7.png","","","memory_trial","4","definitely_new",""
"html-keyboard-response","245","504661","0.0-18.0-0.100","4124","approach_avoid_sv1","""event"",""trial"",""time""
""fullscreenenter"",""1"",""1499""
","
","
","""event"",""trial"",""time""
""fullscreenenter"",""1"",""1499""
","
","","","","","","null","<div style=""font-size:60px;"">+</div>","null","","fixation","","",""
"memory-trial","246","506893","0.0-18.0-1.100","4124","approach_avoid_sv1","""event"",""trial"",""time""
""fullscreenenter"",""1"",""1499""
","
","
","""event"",""trial"",""time""
""fullscreenenter"",""1"",""1499""
","
","","","","","","1223","images/flower4.png","","","memory_trial","2","maybe_old",""
"html-keyboard-response","247","507397","0.0-18.0-0.101","4124","approach_avoid_sv1","""event"",""trial"",""time""
""fullscreenenter"",""1"",""1499""
","
","
","""event"",""trial"",""time""
""fullscreenenter"",""1"",""1499""
","
","","","","","","null","<div style=""font-size:60px;"">+</div>","null","","fixation","","",""
"memory-trial","248","509781","0.0-18.0-1.101","4124","approach_avoid_sv1","""event"",""trial"",""time""
""fullscreenenter"",""1"",""1499""
","
","
","""event"",""trial"",""time""
""fullscreenenter"",""1"",""1499""
","
","","","","","","1373.699999999255","images/table8.png","","","memory_trial","3","maybe_new",""
"html-keyboard-response","249","510285","0.0-18.0-0.102","4124","approach_avoid_sv1","""event"",""trial"",""time""
""fullscreenenter"",""1"",""1499""
","
","
","""event"",""trial"",""time""
""fullscreenenter"",""1"",""1499""
","
","","","","","","null","<div style=""font-size:60px;"">+</div>","null","","fixation","","",""
"memory-trial","250","512389","0.0-18.0-1.102","4124","approach_avoid_sv1","""event"",""trial"",""time""
""fullscreenenter"",""1"",""1499""
","
","
","""event"",""trial"",""time""
""fullscreenenter"",""1"",""1499""
","
","","","","","","1093.699999999255","images/plane7.png","","","memory_trial","3","maybe_new",""
"html-keyboard-response","251","512893","0.0-18.0-0.103","4124","approach_avoid_sv1","""event"",""trial"",""time""
""fullscreenenter"",""1"",""1499""
","
","
","""event"",""trial"",""time""
""fullscreenenter"",""1"",""1499""
","
","","","","","","null","<div style=""font-size:60px;"">+</div>","null","","fixation","","",""
"memory-trial","252","515061","0.0-18.0-1.103","4124","approach_avoid_sv1","""event"",""trial"",""time""
""fullscreenenter"",""1"",""1499""
","
","
","""event"",""trial"",""time""
""fullscreenenter"",""1"",""1499""
","
","","","","","","1162.800000000745","images/bed6.png","","","memory_trial","2","maybe_old",""
"html-keyboard-response","253","515565","0.0-18.0-0.104","4124","approach_avoid_sv1","""event"",""trial"",""time""
""fullscreenenter"",""1"",""1499""
","
","
","""event"",""trial"",""time""
""fullscreenenter"",""1"",""1499""
","
","","","","","","null","<div style=""font-size:60px;"">+</div>","null","","fixation","","",""
"memory-trial","254","517557","0.0-18.0-1.104","4124","approach_avoid_sv1","""event"",""trial"",""time""
""fullscreenenter"",""1"",""1499""
","
","
","""event"",""trial"",""time""
""fullscreenenter"",""1"",""1499""
","
","","","","","","983.6000000014901","images/dog6.png","","","memory_trial","4","definitely_new",""
"html-keyboard-response","255","518061","0.0-18.0-0.105","4124","approach_avoid_sv1","""event"",""trial"",""time""
""fullscreenenter"",""1"",""1499""
","
","
","""event"",""trial"",""time""
""fullscreenenter"",""1"",""1499""
","
","","","","","","null","<div style=""font-size:60px;"">+</div>","null","","fixation","","",""
"memory-trial","256","520381","0.0-18.0-1.105","4124","approach_avoid_sv1","""event"",""trial"",""time""
""fullscreenenter"",""1"",""1499""
","
","
","""event"",""trial"",""time""
""fullscreenenter"",""1"",""1499""
","
","","","","","","1314.699999999255","images/tree4.png","","","memory_trial","1","definitely_old",""
"html-keyboard-response","257","520885","0.0-18.0-0.106","4124","approach_avoid_sv1","""event"",""trial"",""time""
""fullscreenenter"",""1"",""1499""
","
","
","""event"",""trial"",""time""
""fullscreenenter"",""1"",""1499""
","
","","","","","","null","<div style=""font-size:60px;"">+</div>","null","","fixation","","",""
"memory-trial","258","523509","0.0-18.0-1.106","4124","approach_avoid_sv1","""event"",""trial"",""time""
""fullscreenenter"",""1"",""1499""
","
","
","""event"",""trial"",""time""
""fullscreenenter"",""1"",""1499""
","
","","","","","","1614.1000000014901","images/cactus5.png","","","memory_trial","4","definitely_new",""
"html-keyboard-response","259","524013","0.0-18.0-0.107","4124","approach_avoid_sv1","""event"",""trial"",""time""
""fullscreenenter"",""1"",""1499""
","
","
","""event"",""trial"",""time""
""fullscreenenter"",""1"",""1499""
","
","","","","","","null","<div style=""font-size:60px;"">+</div>","null","","fixation","","",""
"memory-trial","260","526277","0.0-18.0-1.107","4124","approach_avoid_sv1","""event"",""trial"",""time""
""fullscreenenter"",""1"",""1499""
","
","
","""event"",""trial"",""time""
""fullscreenenter"",""1"",""1499""
","
","","","","","","1254.6000000014901","images/apple8.png","","","memory_trial","2","maybe_old",""
"html-keyboard-response","261","526781","0.0-18.0-0.108","4124","approach_avoid_sv1","""event"",""trial"",""time""
""fullscreenenter"",""1"",""1499""
","
","
","""event"",""trial"",""time""
""fullscreenenter"",""1"",""1499""
","
","","","","","","null","<div style=""font-size:60px;"">+</div>","null","","fixation","","",""
"memory-trial","262","529293","0.0-18.0-1.108","4124","approach_avoid_sv1","""event"",""trial"",""time""
""fullscreenenter"",""1"",""1499""
","
","
","""event"",""trial"",""time""
""fullscreenenter"",""1"",""1499""
","
","","","","","","1508.699999999255","images/cactus3.png","","","memory_trial","3","maybe_new",""
"html-keyboard-response","263","529805","0.0-18.0-0.109","4124","approach_avoid_sv1","""event"",""trial"",""time""
""fullscreenenter"",""1"",""1499""
","
","
","""event"",""trial"",""time""
""fullscreenenter"",""1"",""1499""
","
","","","","","","null","<div style=""font-size:60px;"">+</div>","null","","fixation","","",""
"memory-trial","264","532214","0.0-18.0-1.109","4124","approach_avoid_sv1","""event"",""trial"",""time""
""fullscreenenter"",""1"",""1499""
","
","
","""event"",""trial"",""time""
""fullscreenenter"",""1"",""1499""
","
","","","","","","1401.800000000745","images/boat5.png","","","memory_trial","2","maybe_old",""
"html-keyboard-response","265","532717","0.0-18.0-0.110","4124","approach_avoid_sv1","""event"",""trial"",""time""
""fullscreenenter"",""1"",""1499""
","
","
","""event"",""trial"",""time""
""fullscreenenter"",""1"",""1499""
","
","","","","","","null","<div style=""font-size:60px;"">+</div>","null","","fixation","","",""
"memory-trial","266","535013","0.0-18.0-1.110","4124","approach_avoid_sv1","""event"",""trial"",""time""
""fullscreenenter"",""1"",""1499""
","
","
","""event"",""trial"",""time""
""fullscreenenter"",""1"",""1499""
","
","","","","","","1292.6000000014901","images/truck7.png","","","memory_trial","1","definitely_old",""
"html-keyboard-response","267","535517","0.0-18.0-0.111","4124","approach_avoid_sv1","""event"",""trial"",""time""
""fullscreenenter"",""1"",""1499""
","
","
","""event"",""trial"",""time""
""fullscreenenter"",""1"",""1499""
","
","","","","","","null","<div style=""font-size:60px;"">+</div>","null","","fixation","","",""
"memory-trial","268","537693","0.0-18.0-1.111","4124","approach_avoid_sv1","""event"",""trial"",""time""
""fullscreenenter"",""1"",""1499""
","
","
","""event"",""trial"",""time""
""fullscreenenter"",""1"",""1499""
","
","","","","","","1168.9000000022352","images/train8.png","","","memory_trial","1","definitely_old",""
"html-keyboard-response","269","538197","0.0-18.0-0.112","4124","approach_avoid_sv1","""event"",""trial"",""time""
""fullscreenenter"",""1"",""1499""
","
","
","""event"",""trial"",""time""
""fullscreenenter"",""1"",""1499""
","
","","","","","","null","<div style=""font-size:60px;"">+</div>","null","","fixation","","",""
"memory-trial","270","540917","0.0-18.0-1.112","4124","approach_avoid_sv1","""event"",""trial"",""time""
""fullscreenenter"",""1"",""1499""
","
","
","""event"",""trial"",""time""
""fullscreenenter"",""1"",""1499""
","
","","","","","","1712.8999999985099","images/bed8.png","","","memory_trial","3","maybe_new",""
"html-keyboard-response","271","541421","0.0-18.0-0.113","4124","approach_avoid_sv1","""event"",""trial"",""time""
""fullscreenenter"",""1"",""1499""
","
","
","""event"",""trial"",""time""
""fullscreenenter"",""1"",""1499""
","
","","","","","","null","<div style=""font-size:60px;"">+</div>","null","","fixation","","",""
"memory-trial","272","543669","0.0-18.0-1.113","4124","approach_avoid_sv1","""event"",""trial"",""time""
""fullscreenenter"",""1"",""1499""
","
","
","""event"",""trial"",""time""
""fullscreenenter"",""1"",""1499""
","
","","","","","","1242.9000000022352","images/banana6.png","","","memory_trial","2","maybe_old",""
"html-keyboard-response","273","544173","0.0-18.0-0.114","4124","approach_avoid_sv1","""event"",""trial"",""time""
""fullscreenenter"",""1"",""1499""
","
","
","""event"",""trial"",""time""
""fullscreenenter"",""1"",""1499""
","
","","","","","","null","<div style=""font-size:60px;"">+</div>","null","","fixation","","",""
"memory-trial","274","546197","0.0-18.0-1.114","4124","approach_avoid_sv1","""event"",""trial"",""time""
""fullscreenenter"",""1"",""1499""
","
","
","""event"",""trial"",""time""
""fullscreenenter"",""1"",""1499""
","
","","","","","","1014.8000000007451","images/dog4.png","","","memory_trial","4","definitely_new",""
"html-keyboard-response","275","546701","0.0-18.0-0.115","4124","approach_avoid_sv1","""event"",""trial"",""time""
""fullscreenenter"",""1"",""1499""
","
","
","""event"",""trial"",""time""
""fullscreenenter"",""1"",""1499""
","
","","","","","","null","<div style=""font-size:60px;"">+</div>","null","","fixation","","",""
"memory-trial","276","548949","0.0-18.0-1.115","4124","approach_avoid_sv1","""event"",""trial"",""time""
""fullscreenenter"",""1"",""1499""
","
","
","""event"",""trial"",""time""
""fullscreenenter"",""1"",""1499""
","
","","","","","","1242.4000000022352","images/goat5.png","","","memory_trial","2","maybe_old",""
"html-keyboard-response","277","549453","0.0-18.0-0.116","4124","approach_avoid_sv1","""event"",""trial"",""time""
""fullscreenenter"",""1"",""1499""
","
","
","""event"",""trial"",""time""
""fullscreenenter"",""1"",""1499""
","
","","","","","","null","<div style=""font-size:60px;"">+</div>","null","","fixation","","",""
"memory-trial","278","551437","0.0-18.0-1.116","4124","approach_avoid_sv1","""event"",""trial"",""time""
""fullscreenenter"",""1"",""1499""
","
","
","""event"",""trial"",""time""
""fullscreenenter"",""1"",""1499""
","
","","","","","","974.5","images/dog8.png","","","memory_trial","4","definitely_new",""
"html-keyboard-response","279","551941","0.0-18.0-0.117","4124","approach_avoid_sv1","""event"",""trial"",""time""
""fullscreenenter"",""1"",""1499""
","
","
","""event"",""trial"",""time""
""fullscreenenter"",""1"",""1499""
","
","","","","","","null","<div style=""font-size:60px;"">+</div>","null","","fixation","","",""
"memory-trial","280","553893","0.0-18.0-1.117","4124","approach_avoid_sv1","""event"",""trial"",""time""
""fullscreenenter"",""1"",""1499""
","
","
","""event"",""trial"",""time""
""fullscreenenter"",""1"",""1499""
","
","","","","","","949.1999999992549","images/horse8.png","","","memory_trial","4","definitely_new",""
"html-keyboard-response","281","554397","0.0-18.0-0.118","4124","approach_avoid_sv1","""event"",""trial"",""time""
""fullscreenenter"",""1"",""1499""
","
","
","""event"",""trial"",""time""
""fullscreenenter"",""1"",""1499""
","
","","","","","","null","<div style=""font-size:60px;"">+</div>","null","","fixation","","",""
"memory-trial","282","556541","0.0-18.0-1.118","4124","approach_avoid_sv1","""event"",""trial"",""time""
""fullscreenenter"",""1"",""1499""
","
","
","""event"",""trial"",""time""
""fullscreenenter"",""1"",""1499""
","
","","","","","","1133.7999999970198","images/sofa6.png","","","memory_trial","2","maybe_old",""
"html-keyboard-response","283","557045","0.0-18.0-0.119","4124","approach_avoid_sv1","""event"",""trial"",""time""
""fullscreenenter"",""1"",""1499""
","
","
","""event"",""trial"",""time""
""fullscreenenter"",""1"",""1499""
","
","","","","","","null","<div style=""font-size:60px;"">+</div>","null","","fixation","","",""
"memory-trial","284","559237","0.0-18.0-1.119","4124","approach_avoid_sv1","""event"",""trial"",""time""
""fullscreenenter"",""1"",""1499""
","
","
","""event"",""trial"",""time""
""fullscreenenter"",""1"",""1499""
","
","","","","","","1188.4000000022352","images/rabbit7.png","","","memory_trial","1","definitely_old",""
"html-keyboard-response","285","559741","0.0-18.0-0.120","4124","approach_avoid_sv1","""event"",""trial"",""time""
""fullscreenenter"",""1"",""1499""
","
","
","""event"",""trial"",""time""
""fullscreenenter"",""1"",""1499""
","
","","","","","","null","<div style=""font-size:60px;"">+</div>","null","","fixation","","",""
"memory-trial","286","561909","0.0-18.0-1.120","4124","approach_avoid_sv1","""event"",""trial"",""time""
""fullscreenenter"",""1"",""1499""
","
","
","""event"",""trial"",""time""
""fullscreenenter"",""1"",""1499""
","
","","","","","","1162.9000000022352","images/cactus1.png","","","memory_trial","1","definitely_old",""
"html-keyboard-response","287","562413","0.0-18.0-0.121","4124","approach_avoid_sv1","""event"",""trial"",""time""
""fullscreenenter"",""1"",""1499""
","
","
","""event"",""trial"",""time""
""fullscreenenter"",""1"",""1499""
","
","","","","","","null","<div style=""font-size:60px;"">+</div>","null","","fixation","","",""
"memory-trial","288","564525","0.0-18.0-1.121","4124","approach_avoid_sv1","""event"",""trial"",""time""
""fullscreenenter"",""1"",""1499""
","
","
","""event"",""trial"",""time""
""fullscreenenter"",""1"",""1499""
","
","","","","","","1105.199999999255","images/rodent6.png","","","memory_trial","1","definitely_old",""
"html-keyboard-response","289","565029","0.0-18.0-0.122","4124","approach_avoid_sv1","""event"",""trial"",""time""
""fullscreenenter"",""1"",""1499""
","
","
","""event"",""trial"",""time""
""fullscreenenter"",""1"",""1499""
","
","","","","","","null","<div style=""font-size:60px;"">+</div>","null","","fixation","","",""
"memory-trial","290","567733","0.0-18.0-1.122","4124","approach_avoid_sv1","""event"",""trial"",""time""
""fullscreenenter"",""1"",""1499""
","
","
","""event"",""trial"",""time""
""fullscreenenter"",""1"",""1499""
","
","","","","","","1697.6000000014901","images/bed5.png","","","memory_trial","3","maybe_new",""
"html-keyboard-response","291","568237","0.0-18.0-0.123","4124","approach_avoid_sv1","""event"",""trial"",""time""
""fullscreenenter"",""1"",""1499""
","
","
","""event"",""trial"",""time""
""fullscreenenter"",""1"",""1499""
","
","","","","","","null","<div style=""font-size:60px;"">+</div>","null","","fixation","","",""
"memory-trial","292","570349","0.0-18.0-1.123","4124","approach_avoid_sv1","""event"",""trial"",""time""
""fullscreenenter"",""1"",""1499""
","
","
","""event"",""trial"",""time""
""fullscreenenter"",""1"",""1499""
","
","","","","","","1107.699999999255","images/chair7.png","","","memory_trial","2","maybe_old",""
"html-keyboard-response","293","570853","0.0-18.0-0.124","4124","approach_avoid_sv1","""event"",""trial"",""time""
""fullscreenenter"",""1"",""1499""
","
","
","""event"",""trial"",""time""
""fullscreenenter"",""1"",""1499""
","
","","","","","","null","<div style=""font-size:60px;"">+</div>","null","","fixation","","",""
"memory-trial","294","572949","0.0-18.0-1.124","4124","approach_avoid_sv1","""event"",""trial"",""time""
""fullscreenenter"",""1"",""1499""
","
","
","""event"",""trial"",""time""
""fullscreenenter"",""1"",""1499""
","
","","","","","","1092.1000000014901","images/sofa2.png","","","memory_trial","3","maybe_new",""
"html-keyboard-response","295","573453","0.0-18.0-0.125","4124","approach_avoid_sv1","""event"",""trial"",""time""
""fullscreenenter"",""1"",""1499""
","
","
","""event"",""trial"",""time""
""fullscreenenter"",""1"",""1499""
","
","","","","","","null","<div style=""font-size:60px;"">+</div>","null","","fixation","","",""
"memory-trial","296","575613","0.0-18.0-1.125","4124","approach_avoid_sv1","""event"",""trial"",""time""
""fullscreenenter"",""1"",""1499""
","
","
","""event"",""trial"",""time""
""fullscreenenter"",""1"",""1499""
","
","","","","","","1149.6000000014901","images/bush4.png","","","memory_trial","4","definitely_new",""
"html-keyboard-response","297","576117","0.0-18.0-0.126","4124","approach_avoid_sv1","""event"",""trial"",""time""
""fullscreenenter"",""1"",""1499""
","
","
","""event"",""trial"",""time""
""fullscreenenter"",""1"",""1499""
","
