"trial_type","trial_index","time_elapsed","internal_node_id","subject_id","task_version","interactions","blur_events","focus_events","fullscreenenter_events","fullscreenexit_events","success","timeout","failed_images","failed_audio","failed_video","rt","stimulus","response","button_pressed","task_part","key_press","answer","correct"
"pavlovia","0","3","0.0-0.0","5932","approach_avoid_sv1","""event"",""trial"",""time""
""fullscreenenter"",""1"",""2805""
","
","
","""event"",""trial"",""time""
""fullscreenenter"",""1"",""2805""
","
","","","","","","","","","","","","",""
"fullscreen","1","3776","0.0-1.0","5932","approach_avoid_sv1","""event"",""trial"",""time""
""fullscreenenter"",""1"",""2805""
","
","
","""event"",""trial"",""time""
""fullscreenenter"",""1"",""2805""
","
","true","","","","","","","","","","","",""
"preload","2","25331","0.0-2.0","5932","approach_avoid_sv1","""event"",""trial"",""time""
""fullscreenenter"",""1"",""2805""
","
","
","""event"",""trial"",""time""
""fullscreenenter"",""1"",""2805""
","
","true","false","[]","[]","[]","","","","","","","",""
"preload","3","46723","0.0-3.0","5932","approach_avoid_sv1","""event"",""trial"",""time""
""fullscreenenter"",""1"",""2805""
","
","
","""event"",""trial"",""time""
""fullscreenenter"",""1"",""2805""
","
","true","false","[]","[]","[]","","","","","","","",""
"preload","4","47911","0.0-4.0","5932","approach_avoid_sv1","""event"",""trial"",""time""
""fullscreenenter"",""1"",""2805""
","
","
","""event"",""trial"",""time""
""fullscreenenter"",""1"",""2805""
","
","true","false","[]","[]","[]","","","","","","","",""
"audio-keyboard-response","5","54504","0.0-5.0","5932","approach_avoid_sv1","""event"",""trial"",""time""
""fullscreenenter"",""1"",""2805""
","
","
","""event"",""trial"",""time""
""fullscreenenter"",""1"",""2805""
","
","","","","","","6588.662131519274","audio/beep_loop.wav","contextmenu","","","","",""
"audio-button-response","6","66158","0.0-6.0","5932","approach_avoid_sv1","""event"",""trial"",""time""
""fullscreenenter"",""1"",""2805""
","
","
","""event"",""trial"",""time""
""fullscreenenter"",""1"",""2805""
","
","","","","","","11651","audio/turtle.wav","3","","","","",""
"audio-button-response","7","69093","0.0-7.0","5932","approach_avoid_sv1","""event"",""trial"",""time""
""fullscreenenter"",""1"",""2805""
","
","
","""event"",""trial"",""time""
""fullscreenenter"",""1"",""2805""
","
","","","","","","1930","audio/shark.wav","2","","","","",""
"preload","8","87083","0.0-8.0","5932","approach_avoid_sv1","""event"",""trial"",""time""
""fullscreenenter"",""1"",""2805""
","
","
","""event"",""trial"",""time""
""fullscreenenter"",""1"",""2805""
","
","true","false","[]","[]","[]","","","","","","","",""
"learning-instructions","9","98816","0.0-9.0-0.0","5932","approach_avoid_sv1","""event"",""trial"",""time""
""fullscreenenter"",""1"",""2805""
","
","
","""event"",""trial"",""time""
""fullscreenenter"",""1"",""2805""
","
","","","","","","7251.79999999702","<p> Welcome back! </p><p> Last week, you had to make choices about lots of different items.  </p>","","0","instructions","","",""
"learning-instructions","10","106790","0.0-9.0-0.1","5932","approach_avoid_sv1","""event"",""trial"",""time""
""fullscreenenter"",""1"",""2805""
","
","
","""event"",""trial"",""time""
""fullscreenenter"",""1"",""2805""
","
","","","","","","3857.6000000089407","<p> Today, we are going to ask you to try to remember all the items. </p>","","0","instructions","","",""
"learning-instructions","11","117766","0.0-9.0-0.2","5932","approach_avoid_sv1","""event"",""trial"",""time""
""fullscreenenter"",""1"",""2805""
","
","
","""event"",""trial"",""time""
""fullscreenenter"",""1"",""2805""
","
","","","","","","844.1999999880791","<p> On every trial, you will see an image. </p><p> The image may be an OLD image you saw during the games last week or it may be a NEW image that was not presented. </p>","","0","instructions","","",""
"learning-instructions","12","130697","0.0-9.0-0.3","5932","approach_avoid_sv1","""event"",""trial"",""time""
""fullscreenenter"",""1"",""2805""
","
","
","""event"",""trial"",""time""
""fullscreenenter"",""1"",""2805""
","
","","","","","","4420.29999999702","<p> You need to select whether the image is:  </p><p>  'Definitely old', 'Maybe old', 'Maybe new', or 'Definitely new.'  </p><div class=""mem-choice-instructions-grid""><div class=""choice-option"" id=""choice-option-1"" ><img src=""images/definitely_old_1.png"" id=""choice-option-img-1"" class=""choice-option-img"" stage=""1""></div><div class=""choice-option"" id=""choice-option-2"" ><img src=""images/maybe_old_1.png"" id=""choice-option-img-2"" class=""choice-option-img"" stage=""1""></div><div class=""choice-option"" id=""choice-option-3"" ><img src=""images/maybe_new_1.png"" id=""choice-option-img-3"" class=""choice-option-img"" stage=""1""></div><div class=""choice-option"" id=""choice-option-4"" > <img src=""images/definitely_new_1.png"" id=""choice-option-img-4"" class=""choice-option-img"" stage=""1""></div></div>","","0","instructions","","",""
"learning-instructions","13","137985","0.0-9.0-0.4","5932","approach_avoid_sv1","""event"",""trial"",""time""
""fullscreenenter"",""1"",""2805""
","
","
","""event"",""trial"",""time""
""fullscreenenter"",""1"",""2805""
","
","","","","","","769.2000000029802","<p> You should use the 1, 2, 3, and 4 keys to make your responses.  </p><div class=""mem-choice-instructions-grid""><div class=""choice-option"" id=""choice-option-1"" ><img src=""images/definitely_old.png"" id=""choice-option-img-1"" class=""choice-option-img"" stage=""1""></div><div class=""choice-option"" id=""choice-option-2"" ><img src=""images/maybe_old.png"" id=""choice-option-img-2"" class=""choice-option-img"" stage=""1""></div><div class=""choice-option"" id=""choice-option-3"" ><img src=""images/maybe_new.png"" id=""choice-option-img-3"" class=""choice-option-img"" stage=""1""></div><div class=""choice-option"" id=""choice-option-4"" > <img src=""images/definitely_new.png"" id=""choice-option-img-4"" class=""choice-option-img"" stage=""1""></div></div>","","0","instructions","","",""
"learning-instructions","14","146696","0.0-9.0-0.5","5932","approach_avoid_sv1","""event"",""trial"",""time""
""fullscreenenter"",""1"",""2805""
","
","
","""event"",""trial"",""time""
""fullscreenenter"",""1"",""2805""
","
","","","","","","2371.7999999970198","<p> You will have 10 seconds to make each response.  </p><p>  Make sure to respond before time runs out! </p>","","0","instructions","","",""
"learning-instructions","15","157984","0.0-9.0-0.6","5932","approach_avoid_sv1","""event"",""trial"",""time""
""fullscreenenter"",""1"",""2805""
","
","
","""event"",""trial"",""time""
""fullscreenenter"",""1"",""2805""
","
","","","","","","4210.100000008941","<p> Today, you will see each image ONCE only.  </p><p>  That means none of the images will repeat. </p>","","0","instructions","","",""
"learning-instructions","16","171487","0.0-9.0-0.7","5932","approach_avoid_sv1","""event"",""trial"",""time""
""fullscreenenter"",""1"",""2805""
","
","
","""event"",""trial"",""time""
""fullscreenenter"",""1"",""2805""
","
","","","","","","823.7999999970198","<p> Before you play the real game, it is time to practice. </p><p>  Just like in the real game, some of the images in the practice will be ones you have seen before. </p><p>  Others will be entirely new. </p>","","0","instructions","","",""
"html-button-response","17","174461","0.0-10.0","5932","approach_avoid_sv1","""event"",""trial"",""time""
""fullscreenenter"",""1"",""2805""
","
","
","""event"",""trial"",""time""
""fullscreenenter"",""1"",""2805""
","
","","","","","","2871.5","<p> Ready to practice? </p><p> Remember, use the 1, 2, 3, and 4 keys to make your responses. </p>","0","","instructions","","",""
"html-keyboard-response","18","175068","0.0-11.0-0.0","5932","approach_avoid_sv1","""event"",""trial"",""time""
""fullscreenenter"",""1"",""2805""
","
","
","""event"",""trial"",""time""
""fullscreenenter"",""1"",""2805""
","
","","","","","","null","<div style=""font-size:60px;"">+</div>","null","","fixation","","",""
"memory-trial","19","177747","0.0-11.0-1.0","5932","approach_avoid_sv1","""event"",""trial"",""time""
""fullscreenenter"",""1"",""2805""
","
","
","""event"",""trial"",""time""
""fullscreenenter"",""1"",""2805""
","
","","","","","","1669.300000011921","images/ball1.png","","","practice","1","definitely_old",""
"html-keyboard-response","20","178251","0.0-11.0-0.1","5932","approach_avoid_sv1","""event"",""trial"",""time""
""fullscreenenter"",""1"",""2805""
","
","
","""event"",""trial"",""time""
""fullscreenenter"",""1"",""2805""
","
","","","","","","null","<div style=""font-size:60px;"">+</div>","null","","fixation","","",""
"memory-trial","21","180979","0.0-11.0-1.1","5932","approach_avoid_sv1","""event"",""trial"",""time""
""fullscreenenter"",""1"",""2805""
","
","
","""event"",""trial"",""time""
""fullscreenenter"",""1"",""2805""
","
","","","","","","1719.4000000059605","images/racket3.png","","","practice","1","definitely_old",""
"html-keyboard-response","22","181483","0.0-11.0-0.2","5932","approach_avoid_sv1","""event"",""trial"",""time""
""fullscreenenter"",""1"",""2805""
","
","
","""event"",""trial"",""time""
""fullscreenenter"",""1"",""2805""
","
","","","","","","null","<div style=""font-size:60px;"">+</div>","null","","fixation","","",""
"memory-trial","23","183331","0.0-11.0-1.2","5932","approach_avoid_sv1","""event"",""trial"",""time""
""fullscreenenter"",""1"",""2805""
","
","
","""event"",""trial"",""time""
""fullscreenenter"",""1"",""2805""
","
","","","","","","839.3999999910593","images/racket2.png","","","practice","1","definitely_old",""
"html-keyboard-response","24","183835","0.0-11.0-0.3","5932","approach_avoid_sv1","""event"",""trial"",""time""
""fullscreenenter"",""1"",""2805""
","
","
","""event"",""trial"",""time""
""fullscreenenter"",""1"",""2805""
","
","","","","","","null","<div style=""font-size:60px;"">+</div>","null","","fixation","","",""
"memory-trial","25","186580","0.0-11.0-1.3","5932","approach_avoid_sv1","""event"",""trial"",""time""
""fullscreenenter"",""1"",""2805""
","
","
","""event"",""trial"",""time""
""fullscreenenter"",""1"",""2805""
","
","","","","","","1735.2999999970198","images/racket1.png","","","practice","2","maybe_old",""
"html-keyboard-response","26","187084","0.0-11.0-0.4","5932","approach_avoid_sv1","""event"",""trial"",""time""
""fullscreenenter"",""1"",""2805""
","
","
","""event"",""trial"",""time""
""fullscreenenter"",""1"",""2805""
","
","","","","","","null","<div style=""font-size:60px;"">+</div>","null","","fixation","","",""
"memory-trial","27","189092","0.0-11.0-1.4","5932","approach_avoid_sv1","""event"",""trial"",""time""
""fullscreenenter"",""1"",""2805""
","
","
","""event"",""trial"",""time""
""fullscreenenter"",""1"",""2805""
","
","","","","","","998.6000000089407","images/ball5.png","","","practice","1","definitely_old",""
"html-keyboard-response","28","189596","0.0-11.0-0.5","5932","approach_avoid_sv1","""event"",""trial"",""time""
""fullscreenenter"",""1"",""2805""
","
","
","""event"",""trial"",""time""
""fullscreenenter"",""1"",""2805""
","
","","","","","","null","<div style=""font-size:60px;"">+</div>","null","","fixation","","",""
"memory-trial","29","191319","0.0-11.0-1.5","5932","approach_avoid_sv1","""event"",""trial"",""time""
""fullscreenenter"",""1"",""2805""
","
","
","""event"",""trial"",""time""
""fullscreenenter"",""1"",""2805""
","
","","","","","","709.5999999940395","images/ball2.png","","","practice","1","definitely_old",""
"html-keyboard-response","30","191822","0.0-11.0-0.6","5932","approach_avoid_sv1","""event"",""trial"",""time""
""fullscreenenter"",""1"",""2805""
","
","
","""event"",""trial"",""time""
""fullscreenenter"",""1"",""2805""
","
","","","","","","null","<div style=""font-size:60px;"">+</div>","null","","fixation","","",""
"memory-trial","31","194134","0.0-11.0-1.6","5932","approach_avoid_sv1","""event"",""trial"",""time""
""fullscreenenter"",""1"",""2805""
","
","
","""event"",""trial"",""time""
""fullscreenenter"",""1"",""2805""
","
","","","","","","1302.7000000029802","images/ball3.png","","","practice","1","definitely_old",""
"html-keyboard-response","32","194638","0.0-11.0-0.7","5932","approach_avoid_sv1","""event"",""trial"",""time""
""fullscreenenter"",""1"",""2805""
","
","
","""event"",""trial"",""time""
""fullscreenenter"",""1"",""2805""
","
","","","","","","null","<div style=""font-size:60px;"">+</div>","null","","fixation","","",""
"memory-trial","33","197094","0.0-11.0-1.7","5932","approach_avoid_sv1","""event"",""trial"",""time""
""fullscreenenter"",""1"",""2805""
","
","
","""event"",""trial"",""time""
""fullscreenenter"",""1"",""2805""
","
","","","","","","1446.5","images/racket5.png","","","practice","2","maybe_old",""
"learning-instructions","34","207207","0.0-12.0-0.0","5932","approach_avoid_sv1","""event"",""trial"",""time""
""fullscreenenter"",""1"",""2805""
","
","
","""event"",""trial"",""time""
""fullscreenenter"",""1"",""2805""
","
","","","","","","2804","<p> Great! You have completed the practice. </p><p> Before you start, we're going to ask you a few questions about how the game works.  </p>","","0","instructions","","",""
"preload","35","219830","0.0-13.0","5932","approach_avoid_sv1","""event"",""trial"",""time""
""fullscreenenter"",""1"",""2805""
","
","
","""event"",""trial"",""time""
""fullscreenenter"",""1"",""2805""
","
","true","false","[]","[]","[]","","","","","","","",""
"comp-q","36","228151","0.0-14.0-0.0","5932","approach_avoid_sv1","""event"",""trial"",""time""
""fullscreenenter"",""1"",""2805""
","
","
","""event"",""trial"",""time""
""fullscreenenter"",""1"",""2805""
","
","","","","","","2487.8999999910593","<p> <b> True or False? </b> </p><p> In this game, you will only see each image once. </p>","","0","comp_question","","","true"
"comp-q","37","236582","0.0-14.0-1.0","5932","approach_avoid_sv1","""event"",""trial"",""time""
""fullscreenenter"",""1"",""2805""
","
","
","""event"",""trial"",""time""
""fullscreenenter"",""1"",""2805""
","
","","","","","","2100.0999999940395","<p> <b> That's right! </b> You will see many different images <i> one time each </i> in this game. </p>","","0","comp_answer","","",""
"comp-q","38","243141","0.0-15.0-0.0","5932","approach_avoid_sv1","""event"",""trial"",""time""
""fullscreenenter"",""1"",""2805""
","
","
","""event"",""trial"",""time""
""fullscreenenter"",""1"",""2805""
","
","","","","","","1549.4000000059605","<p> <b> True or False? </b> </p><p> You should use the mouse and click to make your response. </p>","","1","comp_question","","","true"
"comp-q","39","251232","0.0-15.0-1.0","5932","approach_avoid_sv1","""event"",""trial"",""time""
""fullscreenenter"",""1"",""2805""
","
","
","""event"",""trial"",""time""
""fullscreenenter"",""1"",""2805""
","
","","","","","","1588.2000000029802","<p><b> That's right! </b> You should use the '1', '2', '3', and '4' keys to make your response. </p>","","0","comp_answer","","",""
"comp-q","40","258008","0.0-16.0-0.0","5932","approach_avoid_sv1","""event"",""trial"",""time""
""fullscreenenter"",""1"",""2805""
","
","
","""event"",""trial"",""time""
""fullscreenenter"",""1"",""2805""
","
","","","","","","1094","<p> <b> True or False? </b> </p><p> You will have as much time as you want to make each choice. </p>","","1","comp_question","","","true"
"comp-q","41","265759","0.0-16.0-1.0","5932","approach_avoid_sv1","""event"",""trial"",""time""
""fullscreenenter"",""1"",""2805""
","
","
","""event"",""trial"",""time""
""fullscreenenter"",""1"",""2805""
","
","","","","","","3055.7999999970198","<p> <b> That's right! </b> You will only have 10 seconds to make each choice. </p>","","0","comp_answer","","",""
"learning-instructions","42","284663","0.0-17.0","5932","approach_avoid_sv1","""event"",""trial"",""time""
""fullscreenenter"",""1"",""2805""
","
","
","""event"",""trial"",""time""
""fullscreenenter"",""1"",""2805""
","
","","","","","","10229.59999999404","<p> Great! You are now ready to begin the game. </p><p> Remember, use the 1, 2, 3, and 4 keys to make your responses. </p>","","0","instructions","","",""
"html-keyboard-response","43","285273","0.0-18.0-0.0","5932","approach_avoid_sv1","""event"",""trial"",""time""
""fullscreenenter"",""1"",""2805""
","
","
","""event"",""trial"",""time""
""fullscreenenter"",""1"",""2805""
","
","","","","","","null","<div style=""font-size:60px;"">+</div>","null","","fixation","","",""
"memory-trial","44","287619","0.0-18.0-1.0","5932","approach_avoid_sv1","""event"",""trial"",""time""
""fullscreenenter"",""1"",""2805""
","
","
","""event"",""trial"",""time""
""fullscreenenter"",""1"",""2805""
","
","","","","","","1335.5999999940395","images/bush1.png","","","memory_trial","1","definitely_old",""
"html-keyboard-response","45","288122","0.0-18.0-0.1","5932","approach_avoid_sv1","""event"",""trial"",""time""
""fullscreenenter"",""1"",""2805""
","
","
","""event"",""trial"",""time""
""fullscreenenter"",""1"",""2805""
","
","","","","","","null","<div style=""font-size:60px;"">+</div>","null","","fixation","","",""
"memory-trial","46","290226","0.0-18.0-1.1","5932","approach_avoid_sv1","""event"",""trial"",""time""
""fullscreenenter"",""1"",""2805""
","
","
","""event"",""trial"",""time""
""fullscreenenter"",""1"",""2805""
","
","","","","","","1096.2000000029802","images/straw4.png","","","memory_trial","1","definitely_old",""
"html-keyboard-response","47","290730","0.0-18.0-0.2","5932","approach_avoid_sv1","""event"",""trial"",""time""
""fullscreenenter"",""1"",""2805""
","
","
","""event"",""trial"",""time""
""fullscreenenter"",""1"",""2805""
","
","","","","","","null","<div style=""font-size:60px;"">+</div>","null","","fixation","","",""
"memory-trial","48","292994","0.0-18.0-1.2","5932","approach_avoid_sv1","""event"",""trial"",""time""
""fullscreenenter"",""1"",""2805""
","
","
","""event"",""trial"",""time""
""fullscreenenter"",""1"",""2805""
","
","","","","","","1256.0999999940395","images/sofa6.png","","","memory_trial","4","definitely_new",""
"html-keyboard-response","49","293500","0.0-18.0-0.3","5932","approach_avoid_sv1","""event"",""trial"",""time""
""fullscreenenter"",""1"",""2805""
","
","
","""event"",""trial"",""time""
""fullscreenenter"",""1"",""2805""
","
","","","","","","null","<div style=""font-size:60px;"">+</div>","null","","fixation","","",""
"memory-trial","50","295938","0.0-18.0-1.3","5932","approach_avoid_sv1","""event"",""trial"",""time""
""fullscreenenter"",""1"",""2805""
","
","
","""event"",""trial"",""time""
""fullscreenenter"",""1"",""2805""
","
","","","","","","1430.2999999970198","images/plane7.png","","","memory_trial","1","definitely_old",""
"html-keyboard-response","51","296442","0.0-18.0-0.4","5932","approach_avoid_sv1","""event"",""trial"",""time""
""fullscreenenter"",""1"",""2805""
","
","
","""event"",""trial"",""time""
""fullscreenenter"",""1"",""2805""
","
","","","","","","null","<div style=""font-size:60px;"">+</div>","null","","fixation","","",""
"memory-trial","52","298690","0.0-18.0-1.4","5932","approach_avoid_sv1","""event"",""trial"",""time""
""fullscreenenter"",""1"",""2805""
","
","
","""event"",""trial"",""time""
""fullscreenenter"",""1"",""2805""
","
","","","","","","1240.4000000059605","images/rabbit6.png","","","memory_trial","1","definitely_old",""
"html-keyboard-response","53","299194","0.0-18.0-0.5","5932","approach_avoid_sv1","""event"",""trial"",""time""
""fullscreenenter"",""1"",""2805""
","
","
","""event"",""trial"",""time""
""fullscreenenter"",""1"",""2805""
","
","","","","","","null","<div style=""font-size:60px;"">+</div>","null","","fixation","","",""
"memory-trial","54","300994","0.0-18.0-1.5","5932","approach_avoid_sv1","""event"",""trial"",""time""
""fullscreenenter"",""1"",""2805""
","
","
","""event"",""trial"",""time""
""fullscreenenter"",""1"",""2805""
","
","","","","","","792.2000000029802","images/sheep1.png","","","memory_trial","1","definitely_old",""
"html-keyboard-response","55","301497","0.0-18.0-0.6","5932","approach_avoid_sv1","""event"",""trial"",""time""
""fullscreenenter"",""1"",""2805""
","
","
","""event"",""trial"",""time""
""fullscreenenter"",""1"",""2805""
","
","","","","","","null","<div style=""font-size:60px;"">+</div>","null","","fixation","","",""
"memory-trial","56","303521","0.0-18.0-1.6","5932","approach_avoid_sv1","""event"",""trial"",""time""
""fullscreenenter"",""1"",""2805""
","
","
","""event"",""trial"",""time""
""fullscreenenter"",""1"",""2805""
","
","","","","","","1015.3000000119209","images/train6.png","","","memory_trial","1","definitely_old",""
"html-keyboard-response","57","304025","0.0-18.0-0.7","5932","approach_avoid_sv1","""event"",""trial"",""time""
""fullscreenenter"",""1"",""2805""
","
","
","""event"",""trial"",""time""
""fullscreenenter"",""1"",""2805""
","
","","","","","","null","<div style=""font-size:60px;"">+</div>","null","","fixation","","",""
"memory-trial","58","306242","0.0-18.0-1.7","5932","approach_avoid_sv1","""event"",""trial"",""time""
""fullscreenenter"",""1"",""2805""
","
","
","""event"",""trial"",""time""
""fullscreenenter"",""1"",""2805""
","
","","","","","","1209.7000000029802","images/straw6.png","","","memory_trial","1","definitely_old",""
"html-keyboard-response","59","306746","0.0-18.0-0.8","5932","approach_avoid_sv1","""event"",""trial"",""time""
""fullscreenenter"",""1"",""2805""
","
","
","""event"",""trial"",""time""
""fullscreenenter"",""1"",""2805""
","
","","","","","","null","<div style=""font-size:60px;"">+</div>","null","","fixation","","",""
"memory-trial","60","308914","0.0-18.0-1.8","5932","approach_avoid_sv1","""event"",""trial"",""time""
""fullscreenenter"",""1"",""2805""
","
","
","""event"",""trial"",""time""
""fullscreenenter"",""1"",""2805""
","
","","","","","","1159.5","images/cactus7.png","","","memory_trial","1","definitely_old",""
"html-keyboard-response","61","309418","0.0-18.0-0.9","5932","approach_avoid_sv1","""event"",""trial"",""time""
""fullscreenenter"",""1"",""2805""
","
","
","""event"",""trial"",""time""
""fullscreenenter"",""1"",""2805""
","
","","","","","","null","<div style=""font-size:60px;"">+</div>","null","","fixation","","",""
"memory-trial","62","311830","0.0-18.0-1.9","5932","approach_avoid_sv1","""event"",""trial"",""time""
""fullscreenenter"",""1"",""2805""
","
","
","""event"",""trial"",""time""
""fullscreenenter"",""1"",""2805""
","
","","","","","","1398.5","images/bed3.png","","","memory_trial","1","definitely_old",""
"html-keyboard-response","63","312334","0.0-18.0-0.10","5932","approach_avoid_sv1","""event"",""trial"",""time""
""fullscreenenter"",""1"",""2805""
","
","
","""event"",""trial"",""time""
""fullscreenenter"",""1"",""2805""
","
","","","","","","null","<div style=""font-size:60px;"">+</div>","null","","fixation","","",""
"memory-trial","64","314166","0.0-18.0-1.10","5932","approach_avoid_sv1","""event"",""trial"",""time""
""fullscreenenter"",""1"",""2805""
","
","
","""event"",""trial"",""time""
""fullscreenenter"",""1"",""2805""
","
","","","","","","823.7000000029802","images/apple6.png","","","memory_trial","1","definitely_old",""
"html-keyboard-response","65","314669","0.0-18.0-0.11","5932","approach_avoid_sv1","""event"",""trial"",""time""
""fullscreenenter"",""1"",""2805""
","
","
","""event"",""trial"",""time""
""fullscreenenter"",""1"",""2805""
","
","","","","","","null","<div style=""font-size:60px;"">+</div>","null","","fixation","","",""
"memory-trial","66","316456","0.0-18.0-1.11","5932","approach_avoid_sv1","""event"",""trial"",""time""
""fullscreenenter"",""1"",""2805""
","
","
","""event"",""trial"",""time""
""fullscreenenter"",""1"",""2805""
","
","","","","","","776.5999999940395","images/rabbit5.png","","","memory_trial","1","definitely_old",""
"html-keyboard-response","67","316965","0.0-18.0-0.12","5932","approach_avoid_sv1","""event"",""trial"",""time""
""fullscreenenter"",""1"",""2805""
","
","
","""event"",""trial"",""time""
""fullscreenenter"",""1"",""2805""
","
","","","","","","null","<div style=""font-size:60px;"">+</div>","null","","fixation","","",""
"memory-trial","68","319157","0.0-18.0-1.12","5932","approach_avoid_sv1","""event"",""trial"",""time""
""fullscreenenter"",""1"",""2805""
","
","
","""event"",""trial"",""time""
""fullscreenenter"",""1"",""2805""
","
","","","","","","1183.6000000089407","images/cactus3.png","","","memory_trial","1","definitely_old",""
"html-keyboard-response","69","319661","0.0-18.0-0.13","5932","approach_avoid_sv1","""event"",""trial"",""time""
""fullscreenenter"",""1"",""2805""
","
","
","""event"",""trial"",""time""
""fullscreenenter"",""1"",""2805""
","
","","","","","","null","<div style=""font-size:60px;"">+</div>","null","","fixation","","",""
"memory-trial","70","321846","0.0-18.0-1.13","5932","approach_avoid_sv1","""event"",""trial"",""time""
""fullscreenenter"",""1"",""2805""
","
","
","""event"",""trial"",""time""
""fullscreenenter"",""1"",""2805""
","
","","","","","","1174.2999999970198","images/sheep3.png","","","memory_trial","3","maybe_new",""
"html-keyboard-response","71","322350","0.0-18.0-0.14","5932","approach_avoid_sv1","""event"",""trial"",""time""
""fullscreenenter"",""1"",""2805""
","
","
","""event"",""trial"",""time""
""fullscreenenter"",""1"",""2805""
","
","","","","","","null","<div style=""font-size:60px;"">+</div>","null","","fixation","","",""
"memory-trial","72","324982","0.0-18.0-1.14","5932","approach_avoid_sv1","""event"",""trial"",""time""
""fullscreenenter"",""1"",""2805""
","
","
","""event"",""trial"",""time""
""fullscreenenter"",""1"",""2805""
","
","","","","","","1622.2000000029802","images/cat1.png","","","memory_trial","3","maybe_new",""
"html-keyboard-response","73","325486","0.0-18.0-0.15","5932","approach_avoid_sv1","""event"",""trial"",""time""
""fullscreenenter"",""1"",""2805""
","
","
","""event"",""trial"",""time""
""fullscreenenter"",""1"",""2805""
","
","","","","","","null","<div style=""font-size:60px;"">+</div>","null","","fixation","","",""
"memory-trial","74","327702","0.0-18.0-1.15","5932","approach_avoid_sv1","""event"",""trial"",""time""
""fullscreenenter"",""1"",""2805""
","
","
","""event"",""trial"",""time""
""fullscreenenter"",""1"",""2805""
","
","","","","","","1208.5","images/cat6.png","","","memory_trial","4","definitely_new",""
"html-keyboard-response","75","328206","0.0-18.0-0.16","5932","approach_avoid_sv1","""event"",""trial"",""time""
""fullscreenenter"",""1"",""2805""
","
","
","""event"",""trial"",""time""
""fullscreenenter"",""1"",""2805""
","
","","","","","","null","<div style=""font-size:60px;"">+</div>","null","","fixation","","",""
"memory-trial","76","330358","0.0-18.0-1.16","5932","approach_avoid_sv1","""event"",""trial"",""time""
""fullscreenenter"",""1"",""2805""
","
","
","""event"",""trial"",""time""
""fullscreenenter"",""1"",""2805""
","
","","","","","","1142","images/train4.png","","","memory_trial","1","definitely_old",""
"html-keyboard-response","77","330861","0.0-18.0-0.17","5932","approach_avoid_sv1","""event"",""trial"",""time""
""fullscreenenter"",""1"",""2805""
","
","
","""event"",""trial"",""time""
""fullscreenenter"",""1"",""2805""
","
","","","","","","null","<div style=""font-size:60px;"">+</div>","null","","fixation","","",""
"memory-trial","78","332901","0.0-18.0-1.17","5932","approach_avoid_sv1","""event"",""trial"",""time""
""fullscreenenter"",""1"",""2805""
","
","
","""event"",""trial"",""time""
""fullscreenenter"",""1"",""2805""
","
","","","","","","1030.2000000029802","images/cow6.png","","","memory_trial","1","definitely_old",""
"html-keyboard-response","79","333405","0.0-18.0-0.18","5932","approach_avoid_sv1","""event"",""trial"",""time""
""fullscreenenter"",""1"",""2805""
","
","
","""event"",""trial"",""time""
""fullscreenenter"",""1"",""2805""
","
","","","","","","null","<div style=""font-size:60px;"">+</div>","null","","fixation","","",""
"memory-trial","80","335861","0.0-18.0-1.18","5932","approach_avoid_sv1","""event"",""trial"",""time""
""fullscreenenter"",""1"",""2805""
","
","
","""event"",""trial"",""time""
""fullscreenenter"",""1"",""2805""
","
","","","","","","1446.5999999940395","images/sofa5.png","","","memory_trial","2","maybe_old",""
"html-keyboard-response","81","336365","0.0-18.0-0.19","5932","approach_avoid_sv1","""event"",""trial"",""time""
""fullscreenenter"",""1"",""2805""
","
","
","""event"",""trial"",""time""
""fullscreenenter"",""1"",""2805""
","
","","","","","","null","<div style=""font-size:60px;"">+</div>","null","","fixation","","",""
"memory-trial","82","338534","0.0-18.0-1.19","5932","approach_avoid_sv1","""event"",""trial"",""time""
""fullscreenenter"",""1"",""2805""
","
","
","""event"",""trial"",""time""
""fullscreenenter"",""1"",""2805""
","
","","","","","","1158.1000000089407","images/bed8.png","","","memory_trial","1","definitely_old",""
"html-keyboard-response","83","339038","0.0-18.0-0.20","5932","approach_avoid_sv1","""event"",""trial"",""time""
""fullscreenenter"",""1"",""2805""
","
","
","""event"",""trial"",""time""
""fullscreenenter"",""1"",""2805""
","
","","","","","","null","<div style=""font-size:60px;"">+</div>","null","","fixation","","",""
"memory-trial","84","340790","0.0-18.0-1.20","5932","approach_avoid_sv1","""event"",""trial"",""time""
""fullscreenenter"",""1"",""2805""
","
","
","""event"",""trial"",""time""
""fullscreenenter"",""1"",""2805""
","
","","","","","","741.2999999970198","images/table6.png","","","memory_trial","1","definitely_old",""
"html-keyboard-response","85","341294","0.0-18.0-0.21","5932","approach_avoid_sv1","""event"",""trial"",""time""
""fullscreenenter"",""1"",""2805""
","
","
","""event"",""trial"",""time""
""fullscreenenter"",""1"",""2805""
","
","","","","","","null","<div style=""font-size:60px;"">+</div>","null","","fixation","","",""
"memory-trial","86","343110","0.0-18.0-1.21","5932","approach_avoid_sv1","""event"",""trial"",""time""
""fullscreenenter"",""1"",""2805""
","
","
","""event"",""trial"",""time""
""fullscreenenter"",""1"",""2805""
","
","","","","","","805.6999999880791","images/truck2.png","","","memory_trial","1","definitely_old",""
"html-keyboard-response","87","343614","0.0-18.0-0.22","5932","approach_avoid_sv1","""event"",""trial"",""time""
""fullscreenenter"",""1"",""2805""
","
","
","""event"",""trial"",""time""
""fullscreenenter"",""1"",""2805""
","
","","","","","","null","<div style=""font-size:60px;"">+</div>","null","","fixation","","",""
"memory-trial","88","345382","0.0-18.0-1.22","5932","approach_avoid_sv1","""event"",""trial"",""time""
""fullscreenenter"",""1"",""2805""
","
","
","""event"",""trial"",""time""
""fullscreenenter"",""1"",""2805""
","
","","","","","","756.1999999880791","images/sheep2.png","","","memory_trial","1","definitely_old",""
"html-keyboard-response","89","345886","0.0-18.0-0.23","5932","approach_avoid_sv1","""event"",""trial"",""time""
""fullscreenenter"",""1"",""2805""
","
","
","""event"",""trial"",""time""
""fullscreenenter"",""1"",""2805""
","
","","","","","","null","<div style=""font-size:60px;"">+</div>","null","","fixation","","",""
"memory-trial","90","348230","0.0-18.0-1.23","5932","approach_avoid_sv1","""event"",""trial"",""time""
""fullscreenenter"",""1"",""2805""
","
","
","""event"",""trial"",""time""
""fullscreenenter"",""1"",""2805""
","
","","","","","","1333.5","images/rabbit8.png","","","memory_trial","4","definitely_new",""
"html-keyboard-response","91","348733","0.0-18.0-0.24","5932","approach_avoid_sv1","""event"",""trial"",""time""
""fullscreenenter"",""1"",""2805""
","
","
","""event"",""trial"",""time""
""fullscreenenter"",""1"",""2805""
","
","","","","","","null","<div style=""font-size:60px;"">+</div>","null","","fixation","","",""
"memory-trial","92","350965","0.0-18.0-1.24","5932","approach_avoid_sv1","""event"",""trial"",""time""
""fullscreenenter"",""1"",""2805""
","
","
","""event"",""trial"",""time""
""fullscreenenter"",""1"",""2805""
","
","","","","","","1222.2999999970198","images/plane8.png","","","memory_trial","1","definitely_old",""
"html-keyboard-response","93","351469","0.0-18.0-0.25","5932","approach_avoid_sv1","""event"",""trial"",""time""
""fullscreenenter"",""1"",""2805""
","
","
","""event"",""trial"",""time""
""fullscreenenter"",""1"",""2805""
","
","","","","","","null","<div style=""font-size:60px;"">+</div>","null","","fixation","","",""
"memory-trial","94","354165","0.0-18.0-1.25","5932","approach_avoid_sv1","""event"",""trial"",""time""
""fullscreenenter"",""1"",""2805""
","
","
","""event"",""trial"",""time""
""fullscreenenter"",""1"",""2805""
","
","","","","","","1685.7000000029802","images/truck4.png","","","memory_trial","3","maybe_new",""
"html-keyboard-response","95","354669","0.0-18.0-0.26","5932","approach_avoid_sv1","""event"",""trial"",""time""
""fullscreenenter"",""1"",""2805""
","
","
","""event"",""trial"",""time""
""fullscreenenter"",""1"",""2805""
","
","","","","","","null","<div style=""font-size:60px;"">+</div>","null","","fixation","","",""
"memory-trial","96","356662","0.0-18.0-1.26","5932","approach_avoid_sv1","""event"",""trial"",""time""
""fullscreenenter"",""1"",""2805""
","
","
","""event"",""trial"",""time""
""fullscreenenter"",""1"",""2805""
","
","","","","","","980.6000000089407","images/truck1.png","","","memory_trial","4","definitely_new",""
"html-keyboard-response","97","357166","0.0-18.0-0.27","5932","approach_avoid_sv1","""event"",""trial"",""time""
""fullscreenenter"",""1"",""2805""
","
","
","""event"",""trial"",""time""
""fullscreenenter"",""1"",""2805""
","
","","","","","","null","<div style=""font-size:60px;"">+</div>","null","","fixation","","",""
"memory-trial","98","359318","0.0-18.0-1.27","5932","approach_avoid_sv1","""event"",""trial"",""time""
""fullscreenenter"",""1"",""2805""
","
","
","""event"",""trial"",""time""
""fullscreenenter"",""1"",""2805""
","
","","","","","","1140.699999988079","images/truck3.png","","","memory_trial","4","definitely_new",""
"html-keyboard-response","99","359822","0.0-18.0-0.28","5932","approach_avoid_sv1","""event"",""trial"",""time""
""fullscreenenter"",""1"",""2805""
","
","
","""event"",""trial"",""time""
""fullscreenenter"",""1"",""2805""
","
","","","","","","null","<div style=""font-size:60px;"">+</div>","null","","fixation","","",""
"memory-trial","100","362454","0.0-18.0-1.28","5932","approach_avoid_sv1","""event"",""trial"",""time""
""fullscreenenter"",""1"",""2805""
","
","
","""event"",""trial"",""time""
""fullscreenenter"",""1"",""2805""
","
","","","","","","1620","images/horse1.png","","","memory_trial","1","definitely_old",""
"html-keyboard-response","101","362958","0.0-18.0-0.29","5932","approach_avoid_sv1","""event"",""trial"",""time""
""fullscreenenter"",""1"",""2805""
","
","
","""event"",""trial"",""time""
""fullscreenenter"",""1"",""2805""
","
","","","","","","null","<div style=""font-size:60px;"">+</div>","null","","fixation","","",""
"memory-trial","102","365646","0.0-18.0-1.29","5932","approach_avoid_sv1","""event"",""trial"",""time""
""fullscreenenter"",""1"",""2805""
","
","
","""event"",""trial"",""time""
""fullscreenenter"",""1"",""2805""
","
","","","","","","1684.2000000029802","images/banana4.png","","","memory_trial","3","maybe_new",""
"html-keyboard-response","103","366149","0.0-18.0-0.30","5932","approach_avoid_sv1","""event"",""trial"",""time""
""fullscreenenter"",""1"",""2805""
","
","
","""event"",""trial"",""time""
""fullscreenenter"",""1"",""2805""
","
","","","","","","null","<div style=""font-size:60px;"">+</div>","null","","fixation","","",""
"memory-trial","104","368277","0.0-18.0-1.30","5932","approach_avoid_sv1","""event"",""trial"",""time""
""fullscreenenter"",""1"",""2805""
","
","
","""event"",""trial"",""time""
""fullscreenenter"",""1"",""2805""
","
","","","","","","1115.699999988079","images/table8.png","","","memory_trial","1","definitely_old",""
"html-keyboard-response","105","368781","0.0-18.0-0.31","5932","approach_avoid_sv1","""event"",""trial"",""time""
""fullscreenenter"",""1"",""2805""
","
","
","""event"",""trial"",""time""
""fullscreenenter"",""1"",""2805""
","
","","","","","","null","<div style=""font-size:60px;"">+</div>","null","","fixation","","",""
"memory-trial","106","370813","0.0-18.0-1.31","5932","approach_avoid_sv1","""event"",""trial"",""time""
""fullscreenenter"",""1"",""2805""
","
","
","""event"",""trial"",""time""
""fullscreenenter"",""1"",""2805""
","
","","","","","","1028.199999988079","images/train3.png","","","memory_trial","1","definitely_old",""
"html-keyboard-response","107","371321","0.0-18.0-0.32","5932","approach_avoid_sv1","""event"",""trial"",""time""
""fullscreenenter"",""1"",""2805""
","
","
","""event"",""trial"",""time""
""fullscreenenter"",""1"",""2805""
","
","","","","","","null","<div style=""font-size:60px;"">+</div>","null","","fixation","","",""
"memory-trial","108","374026","0.0-18.0-1.32","5932","approach_avoid_sv1","""event"",""trial"",""time""
""fullscreenenter"",""1"",""2805""
","
","
","""event"",""trial"",""time""
""fullscreenenter"",""1"",""2805""
","
","","","","","","1693.2999999970198","images/bed2.png","","","memory_trial","2","maybe_old",""
"html-keyboard-response","109","374530","0.0-18.0-0.33","5932","approach_avoid_sv1","""event"",""trial"",""time""
""fullscreenenter"",""1"",""2805""
","
","
","""event"",""trial"",""time""
""fullscreenenter"",""1"",""2805""
","
","","","","","","null","<div style=""font-size:60px;"">+</div>","null","","fixation","","",""
"memory-trial","110","377066","0.0-18.0-1.33","5932","approach_avoid_sv1","""event"",""trial"",""time""
""fullscreenenter"",""1"",""2805""
","
","
","""event"",""trial"",""time""
""fullscreenenter"",""1"",""2805""
","
","","","","","","1522.7999999970198","images/tree6.png","","","memory_trial","1","definitely_old",""
"html-keyboard-response","111","377569","0.0-18.0-0.34","5932","approach_avoid_sv1","""event"",""trial"",""time""
""fullscreenenter"",""1"",""2805""
","
","
","""event"",""trial"",""time""
""fullscreenenter"",""1"",""2805""
","
","","","","","","null","<div style=""font-size:60px;"">+</div>","null","","fixation","","",""
"memory-trial","112","379417","0.0-18.0-1.34","5932","approach_avoid_sv1","""event"",""trial"",""time""
""fullscreenenter"",""1"",""2805""
","
","
","""event"",""trial"",""time""
""fullscreenenter"",""1"",""2805""
","
","","","","","","835.7000000029802","images/tree3.png","","","memory_trial","1","definitely_old",""
"html-keyboard-response","113","379921","0.0-18.0-0.35","5932","approach_avoid_sv1","""event"",""trial"",""time""
""fullscreenenter"",""1"",""2805""
","
","
","""event"",""trial"",""time""
""fullscreenenter"",""1"",""2805""
","
","","","","","","null","<div style=""font-size:60px;"">+</div>","null","","fixation","","",""
"memory-trial","114","382450","0.0-18.0-1.35","5932","approach_avoid_sv1","""event"",""trial"",""time""
""fullscreenenter"",""1"",""2805""
","
","
","""event"",""trial"",""time""
""fullscreenenter"",""1"",""2805""
","
","","","","","","1525","images/rabbit1.png","","","memory_trial","4","definitely_new",""
"html-keyboard-response","115","382953","0.0-18.0-0.36","5932","approach_avoid_sv1","""event"",""trial"",""time""
""fullscreenenter"",""1"",""2805""
","
","
","""event"",""trial"",""time""
""fullscreenenter"",""1"",""2805""
","
","","","","","","null","<div style=""font-size:60px;"">+</div>","null","","fixation","","",""
"memory-trial","116","385321","0.0-18.0-1.36","5932","approach_avoid_sv1","""event"",""trial"",""time""
""fullscreenenter"",""1"",""2805""
","
","
","""event"",""trial"",""time""
""fullscreenenter"",""1"",""2805""
","
","","","","","","1356.5999999940395","images/dog1.png","","","memory_trial","1","definitely_old",""
"html-keyboard-response","117","385825","0.0-18.0-0.37","5932","approach_avoid_sv1","""event"",""trial"",""time""
""fullscreenenter"",""1"",""2805""
","
","
","""event"",""trial"",""time""
""fullscreenenter"",""1"",""2805""
","
","","","","","","null","<div style=""font-size:60px;"">+</div>","null","","fixation","","",""
"memory-trial","118","387617","0.0-18.0-1.37","5932","approach_avoid_sv1","""event"",""trial"",""time""
""fullscreenenter"",""1"",""2805""
","
","
","""event"",""trial"",""time""
""fullscreenenter"",""1"",""2805""
","
","","","","","","785.6999999880791","images/tree1.png","","","memory_trial","1","definitely_old",""
"html-keyboard-response","119","388121","0.0-18.0-0.38","5932","approach_avoid_sv1","""event"",""trial"",""time""
""fullscreenenter"",""1"",""2805""
","
","
","""event"",""trial"",""time""
""fullscreenenter"",""1"",""2805""
","
","","","","","","null","<div style=""font-size:60px;"">+</div>","null","","fixation","","",""
"memory-trial","120","391058","0.0-18.0-1.38","5932","approach_avoid_sv1","""event"",""trial"",""time""
""fullscreenenter"",""1"",""2805""
","
","
","""event"",""trial"",""time""
""fullscreenenter"",""1"",""2805""
","
","","","","","","1931.5999999940395","images/bush2.png","","","memory_trial","3","maybe_new",""
"html-keyboard-response","121","391562","0.0-18.0-0.39","5932","approach_avoid_sv1","""event"",""trial"",""time""
""fullscreenenter"",""1"",""2805""
","
","
","""event"",""trial"",""time""
""fullscreenenter"",""1"",""2805""
","
","","","","","","null","<div style=""font-size:60px;"">+</div>","null","","fixation","","",""
"memory-trial","122","394146","0.0-18.0-1.39","5932","approach_avoid_sv1","""event"",""trial"",""time""
""fullscreenenter"",""1"",""2805""
","
","
","""event"",""trial"",""time""
""fullscreenenter"",""1"",""2805""
","
","","","","","","1578.5","images/goat8.png","","","memory_trial","3","maybe_new",""
"html-keyboard-response","123","394649","0.0-18.0-0.40","5932","approach_avoid_sv1","""event"",""trial"",""time""
""fullscreenenter"",""1"",""2805""
","
","
","""event"",""trial"",""time""
""fullscreenenter"",""1"",""2805""
","
","","","","","","null","<div style=""font-size:60px;"">+</div>","null","","fixation","","",""
"memory-trial","124","396905","0.0-18.0-1.40","5932","approach_avoid_sv1","""event"",""trial"",""time""
""fullscreenenter"",""1"",""2805""
","
","
","""event"",""trial"",""time""
""fullscreenenter"",""1"",""2805""
","
","","","","","","1242.5","images/horse7.png","","","memory_trial","4","definitely_new",""
"html-keyboard-response","125","397409","0.0-18.0-0.41","5932","approach_avoid_sv1","""event"",""trial"",""time""
""fullscreenenter"",""1"",""2805""
","
","
","""event"",""trial"",""time""
""fullscreenenter"",""1"",""2805""
","
","","","","","","null","<div style=""font-size:60px;"">+</div>","null","","fixation","","",""
"memory-trial","126","399522","0.0-18.0-1.41","5932","approach_avoid_sv1","""event"",""trial"",""time""
""fullscreenenter"",""1"",""2805""
","
","
","""event"",""trial"",""time""
""fullscreenenter"",""1"",""2805""
","
","","","","","","1106.5","images/plane5.png","","","memory_trial","1","definitely_old",""
"html-button-response","127","403711","0.0-18.0-2.41-0.41","5932","approach_avoid_sv1","""event"",""trial"",""time""
""fullscreenenter"",""1"",""2805""
","
","
","""event"",""trial"",""time""
""fullscreenenter"",""1"",""2805""
","
","","","","","","4187.199999988079","<p> Take a break! </p><p> Click the button to continue. </p>","0","","break","","",""
"html-keyboard-response","128","404217","0.0-18.0-0.42","5932","approach_avoid_sv1","""event"",""trial"",""time""
""fullscreenenter"",""1"",""2805""
","
","
","""event"",""trial"",""time""
""fullscreenenter"",""1"",""2805""
","
","","","","","","null","<div style=""font-size:60px;"">+</div>","null","","fixation","","",""
"memory-trial","129","407458","0.0-18.0-1.42","5932","approach_avoid_sv1","""event"",""trial"",""time""
""fullscreenenter"",""1"",""2805""
","
","
","""event"",""trial"",""time""
""fullscreenenter"",""1"",""2805""
","
","","","","","","2234.9000000059605","images/truck5.png","","","memory_trial","1","definitely_old",""
"html-keyboard-response","130","407962","0.0-18.0-0.43","5932","approach_avoid_sv1","""event"",""trial"",""time""
""fullscreenenter"",""1"",""2805""
","
","
","""event"",""trial"",""time""
""fullscreenenter"",""1"",""2805""
","
","","","","","","null","<div style=""font-size:60px;"">+</div>","null","","fixation","","",""
"memory-trial","131","410194","0.0-18.0-1.43","5932","approach_avoid_sv1","""event"",""trial"",""time""
""fullscreenenter"",""1"",""2805""
","
","
","""event"",""trial"",""time""
""fullscreenenter"",""1"",""2805""
","
","","","","","","1224.199999988079","images/goat1.png","","","memory_trial","4","definitely_new",""
"html-keyboard-response","132","410698","0.0-18.0-0.44","5932","approach_avoid_sv1","""event"",""trial"",""time""
""fullscreenenter"",""1"",""2805""
","
","
","""event"",""trial"",""time""
""fullscreenenter"",""1"",""2805""
","
","","","","","","null","<div style=""font-size:60px;"">+</div>","null","","fixation","","",""
"memory-trial","133","412578","0.0-18.0-1.44","5932","approach_avoid_sv1","""event"",""trial"",""time""
""fullscreenenter"",""1"",""2805""
","
","
","""event"",""trial"",""time""
""fullscreenenter"",""1"",""2805""
","
","","","","","","872.7999999970198","images/orange7.png","","","memory_trial","1","definitely_old",""
"html-keyboard-response","134","413081","0.0-18.0-0.45","5932","approach_avoid_sv1","""event"",""trial"",""time""
""fullscreenenter"",""1"",""2805""
","
","
","""event"",""trial"",""time""
""fullscreenenter"",""1"",""2805""
","
","","","","","","null","<div style=""font-size:60px;"">+</div>","null","","fixation","","",""
"memory-trial","135","415457","0.0-18.0-1.45","5932","approach_avoid_sv1","""event"",""trial"",""time""
""fullscreenenter"",""1"",""2805""
","
","
","""event"",""trial"",""time""
""fullscreenenter"",""1"",""2805""
","
","","","","","","1369.5999999940395","images/goat3.png","","","memory_trial","4","definitely_new",""
"html-keyboard-response","136","415961","0.0-18.0-0.46","5932","approach_avoid_sv1","""event"",""trial"",""time""
""fullscreenenter"",""1"",""2805""
","
","
","""event"",""trial"",""time""
""fullscreenenter"",""1"",""2805""
","
","","","","","","null","<div style=""font-size:60px;"">+</div>","null","","fixation","","",""
"memory-trial","137","418033","0.0-18.0-1.46","5932","approach_avoid_sv1","""event"",""trial"",""time""
""fullscreenenter"",""1"",""2805""
","
","
","""event"",""trial"",""time""
""fullscreenenter"",""1"",""2805""
","
","","","","","","1065.2000000029802","images/cow2.png","","","memory_trial","1","definitely_old",""
"html-keyboard-response","138","418537","0.0-18.0-0.47","5932","approach_avoid_sv1","""event"",""trial"",""time""
""fullscreenenter"",""1"",""2805""
","
","
","""event"",""trial"",""time""
""fullscreenenter"",""1"",""2805""
","
","","","","","","null","<div style=""font-size:60px;"">+</div>","null","","fixation","","",""
"memory-trial","139","420961","0.0-18.0-1.47","5932","approach_avoid_sv1","""event"",""trial"",""time""
""fullscreenenter"",""1"",""2805""
","
","
","""event"",""trial"",""time""
""fullscreenenter"",""1"",""2805""
","
","","","","","","1417.2000000029802","images/plane1.png","","","memory_trial","3","maybe_new",""
"html-keyboard-response","140","421465","0.0-18.0-0.48","5932","approach_avoid_sv1","""event"",""trial"",""time""
""fullscreenenter"",""1"",""2805""
","
","
","""event"",""trial"",""time""
""fullscreenenter"",""1"",""2805""
","
","","","","","","null","<div style=""font-size:60px;"">+</div>","null","","fixation","","",""
"memory-trial","141","423650","0.0-18.0-1.48","5932","approach_avoid_sv1","""event"",""trial"",""time""
""fullscreenenter"",""1"",""2805""
","
","
","""event"",""trial"",""time""
""fullscreenenter"",""1"",""2805""
","
","","","","","","1177.0999999940395","images/sofa1.png","","","memory_trial","1","definitely_old",""
"html-keyboard-response","142","424154","0.0-18.0-0.49","5932","approach_avoid_sv1","""event"",""trial"",""time""
""fullscreenenter"",""1"",""2805""
","
","
","""event"",""trial"",""time""
""fullscreenenter"",""1"",""2805""
","
","","","","","","null","<div style=""font-size:60px;"">+</div>","null","","fixation","","",""
"memory-trial","143","426706","0.0-18.0-1.49","5932","approach_avoid_sv1","""event"",""trial"",""time""
""fullscreenenter"",""1"",""2805""
","
","
","""event"",""trial"",""time""
""fullscreenenter"",""1"",""2805""
","
","","","","","","1543.5","images/boat8.png","","","memory_trial","4","definitely_new",""
"html-keyboard-response","144","427210","0.0-18.0-0.50","5932","approach_avoid_sv1","""event"",""trial"",""time""
""fullscreenenter"",""1"",""2805""
","
","
","""event"",""trial"",""time""
""fullscreenenter"",""1"",""2805""
","
","","","","","","null","<div style=""font-size:60px;"">+</div>","null","","fixation","","",""
"memory-trial","145","429090","0.0-18.0-1.50","5932","approach_avoid_sv1","""event"",""trial"",""time""
""fullscreenenter"",""1"",""2805""
","
","
","""event"",""trial"",""time""
""fullscreenenter"",""1"",""2805""
","
","","","","","","873.2000000029802","images/bush3.png","","","memory_trial","1","definitely_old",""
"html-keyboard-response","146","429593","0.0-18.0-0.51","5932","approach_avoid_sv1","""event"",""trial"",""time""
""fullscreenenter"",""1"",""2805""
","
","
","""event"",""trial"",""time""
""fullscreenenter"",""1"",""2805""
","
","","","","","","null","<div style=""font-size:60px;"">+</div>","null","","fixation","","",""
"memory-trial","147","431266","0.0-18.0-1.51","5932","approach_avoid_sv1","""event"",""trial"",""time""
""fullscreenenter"",""1"",""2805""
","
","
","""event"",""trial"",""time""
""fullscreenenter"",""1"",""2805""
","
","","","","","","665.5","images/bush4.png","","","memory_trial","1","definitely_old",""
"html-keyboard-response","148","431773","0.0-18.0-0.52","5932","approach_avoid_sv1","""event"",""trial"",""time""
""fullscreenenter"",""1"",""2805""
","
","
","""event"",""trial"",""time""
""fullscreenenter"",""1"",""2805""
","
","","","","","","null","<div style=""font-size:60px;"">+</div>","null","","fixation","","",""
"memory-trial","149","433861","0.0-18.0-1.52","5932","approach_avoid_sv1","""event"",""trial"",""time""
""fullscreenenter"",""1"",""2805""
","
","
","""event"",""trial"",""time""
""fullscreenenter"",""1"",""2805""
","
","","","","","","1080.7000000029802","images/apple7.png","","","memory_trial","4","definitely_new",""
"html-keyboard-response","150","434365","0.0-18.0-0.53","5932","approach_avoid_sv1","""event"",""trial"",""time""
""fullscreenenter"",""1"",""2805""
","
","
","""event"",""trial"",""time""
""fullscreenenter"",""1"",""2805""
","
","","","","","","null","<div style=""font-size:60px;"">+</div>","null","","fixation","","",""
"memory-trial","151","437237","0.0-18.0-1.53","5932","approach_avoid_sv1","""event"",""trial"",""time""
""fullscreenenter"",""1"",""2805""
","
","
","""event"",""trial"",""time""
""fullscreenenter"",""1"",""2805""
","
","","","","","","1863.5","images/plane4.png","","","memory_trial","2","maybe_old",""
"html-keyboard-response","152","437740","0.0-18.0-0.54","5932","approach_avoid_sv1","""event"",""trial"",""time""
""fullscreenenter"",""1"",""2805""
","
","
","""event"",""trial"",""time""
""fullscreenenter"",""1"",""2805""
","
","","","","","","null","<div style=""font-size:60px;"">+</div>","null","","fixation","","",""
"memory-trial","153","440053","0.0-18.0-1.54","5932","approach_avoid_sv1","""event"",""trial"",""time""
""fullscreenenter"",""1"",""2805""
","
","
","""event"",""trial"",""time""
""fullscreenenter"",""1"",""2805""
","
","","","","","","1305.0999999940395","images/chair2.png","","","memory_trial","1","definitely_old",""
"html-keyboard-response","154","440557","0.0-18.0-0.55","5932","approach_avoid_sv1","""event"",""trial"",""time""
""fullscreenenter"",""1"",""2805""
","
","
","""event"",""trial"",""time""
""fullscreenenter"",""1"",""2805""
","
","","","","","","null","<div style=""font-size:60px;"">+</div>","null","","fixation","","",""
"memory-trial","155","442342","0.0-18.0-1.55","5932","approach_avoid_sv1","""event"",""trial"",""time""
""fullscreenenter"",""1"",""2805""
","
","
","""event"",""trial"",""time""
""fullscreenenter"",""1"",""2805""
","
","","","","","","774.7000000029802","images/apple2.png","","","memory_trial","1","definitely_old",""
"html-keyboard-response","156","442845","0.0-18.0-0.56","5932","approach_avoid_sv1","""event"",""trial"",""time""
""fullscreenenter"",""1"",""2805""
","
","
","""event"",""trial"",""time""
""fullscreenenter"",""1"",""2805""
","
","","","","","","null","<div style=""font-size:60px;"">+</div>","null","","fixation","","",""
"memory-trial","157","444597","0.0-18.0-1.56","5932","approach_avoid_sv1","""event"",""trial"",""time""
""fullscreenenter"",""1"",""2805""
","
","
","""event"",""trial"",""time""
""fullscreenenter"",""1"",""2805""
","
","","","","","","743.3999999910593","images/rabbit4.png","","","memory_trial","1","definitely_old",""
"html-keyboard-response","158","445101","0.0-18.0-0.57","5932","approach_avoid_sv1","""event"",""trial"",""time""
""fullscreenenter"",""1"",""2805""
","
","
","""event"",""trial"",""time""
""fullscreenenter"",""1"",""2805""
","
","","","","","","null","<div style=""font-size:60px;"">+</div>","null","","fixation","","",""
"memory-trial","159","447237","0.0-18.0-1.57","5932","approach_avoid_sv1","""event"",""trial"",""time""
""fullscreenenter"",""1"",""2805""
","
","
","""event"",""trial"",""time""
""fullscreenenter"",""1"",""2805""
","
","","","","","","1127.2999999970198","images/goat5.png","","","memory_trial","4","definitely_new",""
"html-keyboard-response","160","447741","0.0-18.0-0.58","5932","approach_avoid_sv1","""event"",""trial"",""time""
""fullscreenenter"",""1"",""2805""
","
","
","""event"",""trial"",""time""
""fullscreenenter"",""1"",""2805""
","
","","","","","","null","<div style=""font-size:60px;"">+</div>","null","","fixation","","",""
"memory-trial","161","449701","0.0-18.0-1.58","5932","approach_avoid_sv1","""event"",""trial"",""time""
""fullscreenenter"",""1"",""2805""
","
","
","""event"",""trial"",""time""
""fullscreenenter"",""1"",""2805""
","
","","","","","","951.8999999910593","images/table3.png","","","memory_trial","1","definitely_old",""
"html-keyboard-response","162","450205","0.0-18.0-0.59","5932","approach_avoid_sv1","""event"",""trial"",""time""
""fullscreenenter"",""1"",""2805""
","
","
","""event"",""trial"",""time""
""fullscreenenter"",""1"",""2805""
","
","","","","","","null","<div style=""font-size:60px;"">+</div>","null","","fixation","","",""
"memory-trial","163","452181","0.0-18.0-1.59","5932","approach_avoid_sv1","""event"",""trial"",""time""
""fullscreenenter"",""1"",""2805""
","
","
","""event"",""trial"",""time""
""fullscreenenter"",""1"",""2805""
","
","","","","","","967.2000000029802","images/banana7.png","","","memory_trial","1","definitely_old",""
"html-keyboard-response","164","452685","0.0-18.0-0.60","5932","approach_avoid_sv1","""event"",""trial"",""time""
""fullscreenenter"",""1"",""2805""
","
","
","""event"",""trial"",""time""
""fullscreenenter"",""1"",""2805""
","
","","","","","","null","<div style=""font-size:60px;"">+</div>","null","","fixation","","",""
"memory-trial","165","454869","0.0-18.0-1.60","5932","approach_avoid_sv1","""event"",""trial"",""time""
""fullscreenenter"",""1"",""2805""
","
","
","""event"",""trial"",""time""
""fullscreenenter"",""1"",""2805""
","
","","","","","","1175.2999999970198","images/train2.png","","","memory_trial","1","definitely_old",""
"html-keyboard-response","166","455373","0.0-18.0-0.61","5932","approach_avoid_sv1","""event"",""trial"",""time""
""fullscreenenter"",""1"",""2805""
","
","
","""event"",""trial"",""time""
""fullscreenenter"",""1"",""2805""
","
","","","","","","null","<div style=""font-size:60px;"">+</div>","null","","fixation","","",""
"memory-trial","167","457398","0.0-18.0-1.61","5932","approach_avoid_sv1","""event"",""trial"",""time""
""fullscreenenter"",""1"",""2805""
","
","
","""event"",""trial"",""time""
""fullscreenenter"",""1"",""2805""
","
","","","","","","1015.6000000089407","images/horse3.png","","","memory_trial","4","definitely_new",""
"html-keyboard-response","168","457901","0.0-18.0-0.62","5932","approach_avoid_sv1","""event"",""trial"",""time""
""fullscreenenter"",""1"",""2805""
","
","
","""event"",""trial"",""time""
""fullscreenenter"",""1"",""2805""
","
","","","","","","null","<div style=""font-size:60px;"">+</div>","null","","fixation","","",""
"memory-trial","169","460245","0.0-18.0-1.62","5932","approach_avoid_sv1","""event"",""trial"",""time""
""fullscreenenter"",""1"",""2805""
","
","
","""event"",""trial"",""time""
""fullscreenenter"",""1"",""2805""
","
","","","","","","1334","images/chair3.png","","","memory_trial","2","maybe_old",""
"html-keyboard-response","170","460749","0.0-18.0-0.63","5932","approach_avoid_sv1","""event"",""trial"",""time""
""fullscreenenter"",""1"",""2805""
","
","
","""event"",""trial"",""time""
""fullscreenenter"",""1"",""2805""
","
","","","","","","null","<div style=""font-size:60px;"">+</div>","null","","fixation","","",""
"memory-trial","171","463173","0.0-18.0-1.63","5932","approach_avoid_sv1","""event"",""trial"",""time""
""fullscreenenter"",""1"",""2805""
","
","
","""event"",""trial"",""time""
""fullscreenenter"",""1"",""2805""
","
","","","","","","1413.9000000059605","images/rodent8.png","","","memory_trial","1","definitely_old",""
"html-keyboard-response","172","463677","0.0-18.0-0.64","5932","approach_avoid_sv1","""event"",""trial"",""time""
""fullscreenenter"",""1"",""2805""
","
","
","""event"",""trial"",""time""
""fullscreenenter"",""1"",""2805""
","
","","","","","","null","<div style=""font-size:60px;"">+</div>","null","","fixation","","",""
"memory-trial","173","465989","0.0-18.0-1.64","5932","approach_avoid_sv1","""event"",""trial"",""time""
""fullscreenenter"",""1"",""2805""
","
","
","""event"",""trial"",""time""
""fullscreenenter"",""1"",""2805""
","
","","","","","","1303","images/sofa8.png","","","memory_trial","4","definitely_new",""
"html-keyboard-response","174","466493","0.0-18.0-0.65","5932","approach_avoid_sv1","""event"",""trial"",""time""
""fullscreenenter"",""1"",""2805""
","
","
","""event"",""trial"",""time""
""fullscreenenter"",""1"",""2805""
","
","","","","","","null","<div style=""font-size:60px;"">+</div>","null","","fixation","","",""
"memory-trial","175","468725","0.0-18.0-1.65","5932","approach_avoid_sv1","""event"",""trial"",""time""
""fullscreenenter"",""1"",""2805""
","
","
","""event"",""trial"",""time""
""fullscreenenter"",""1"",""2805""
","
","","","","","","1221.8999999910593","images/bush6.png","","","memory_trial","4","definitely_new",""
"html-keyboard-response","176","469228","0.0-18.0-0.66","5932","approach_avoid_sv1","""event"",""trial"",""time""
""fullscreenenter"",""1"",""2805""
","
","
","""event"",""trial"",""time""
""fullscreenenter"",""1"",""2805""
","
","","","","","","null","<div style=""font-size:60px;"">+</div>","null","","fixation","","",""
"memory-trial","177","471636","0.0-18.0-1.66","5932","approach_avoid_sv1","""event"",""trial"",""time""
""fullscreenenter"",""1"",""2805""
","
","
","""event"",""trial"",""time""
""fullscreenenter"",""1"",""2805""
","
","","","","","","1398.800000011921","images/plane2.png","","","memory_trial","1","definitely_old",""
"html-keyboard-response","178","472140","0.0-18.0-0.67","5932","approach_avoid_sv1","""event"",""trial"",""time""
""fullscreenenter"",""1"",""2805""
","
","
","""event"",""trial"",""time""
""fullscreenenter"",""1"",""2805""
","
","","","","","","null","<div style=""font-size:60px;"">+</div>","null","","fixation","","",""
"memory-trial","179","475397","0.0-18.0-1.67","5932","approach_avoid_sv1","""event"",""trial"",""time""
""fullscreenenter"",""1"",""2805""
","
","
","""event"",""trial"",""time""
""fullscreenenter"",""1"",""2805""
","
","","","","","","2246.4000000059605","images/dog5.png","","","memory_trial","4","definitely_new",""
"html-keyboard-response","180","475901","0.0-18.0-0.68","5932","approach_avoid_sv1","""event"",""trial"",""time""
""fullscreenenter"",""1"",""2805""
","
","
","""event"",""trial"",""time""
""fullscreenenter"",""1"",""2805""
","
","","","","","","null","<div style=""font-size:60px;"">+</div>","null","","fixation","","",""
"memory-trial","181","478709","0.0-18.0-1.68","5932","approach_avoid_sv1","""event"",""trial"",""time""
""fullscreenenter"",""1"",""2805""
","
","
","""event"",""trial"",""time""
""fullscreenenter"",""1"",""2805""
","
","","","","","","1797.2000000029802","images/apple1.png","","","memory_trial","4","definitely_new",""
"html-keyboard-response","182","479213","0.0-18.0-0.69","5932","approach_avoid_sv1","""event"",""trial"",""time""
""fullscreenenter"",""1"",""2805""
","
","
","""event"",""trial"",""time""
""fullscreenenter"",""1"",""2805""
","
","","","","","","null","<div style=""font-size:60px;"">+</div>","null","","fixation","","",""
"memory-trial","183","482757","0.0-18.0-1.69","5932","approach_avoid_sv1","""event"",""trial"",""time""
""fullscreenenter"",""1"",""2805""
","
","
","""event"",""trial"",""time""
""fullscreenenter"",""1"",""2805""
","
","","","","","","2532.9000000059605","images/sheep4.png","","","memory_trial","2","maybe_old",""
"html-keyboard-response","184","483261","0.0-18.0-0.70","5932","approach_avoid_sv1","""event"",""trial"",""time""
""fullscreenenter"",""1"",""2805""
","
","
","""event"",""trial"",""time""
""fullscreenenter"",""1"",""2805""
","
","","","","","","null","<div style=""font-size:60px;"">+</div>","null","","fixation","","",""
"memory-trial","185","485461","0.0-18.0-1.70","5932","approach_avoid_sv1","""event"",""trial"",""time""
""fullscreenenter"",""1"",""2805""
","
","
","""event"",""trial"",""time""
""fullscreenenter"",""1"",""2805""
","
","","","","","","1189.699999988079","images/truck8.png","","","memory_trial","2","maybe_old",""
"html-keyboard-response","186","485964","0.0-18.0-0.71","5932","approach_avoid_sv1","""event"",""trial"",""time""
""fullscreenenter"",""1"",""2805""
","
","
","""event"",""trial"",""time""
""fullscreenenter"",""1"",""2805""
","
","","","","","","null","<div style=""font-size:60px;"">+</div>","null","","fixation","","",""
"memory-trial","187","488900","0.0-18.0-1.71","5932","approach_avoid_sv1","""event"",""trial"",""time""
""fullscreenenter"",""1"",""2805""
","
","
","""event"",""trial"",""time""
""fullscreenenter"",""1"",""2805""
","
","","","","","","1925.800000011921","images/truck6.png","","","memory_trial","3","maybe_new",""
"html-keyboard-response","188","489404","0.0-18.0-0.72","5932","approach_avoid_sv1","""event"",""trial"",""time""
""fullscreenenter"",""1"",""2805""
","
","
","""event"",""trial"",""time""
""fullscreenenter"",""1"",""2805""
","
","","","","","","null","<div style=""font-size:60px;"">+</div>","null","","fixation","","",""
"memory-trial","189","492105","0.0-18.0-1.72","5932","approach_avoid_sv1","""event"",""trial"",""time""
""fullscreenenter"",""1"",""2805""
","
","
","""event"",""trial"",""time""
""fullscreenenter"",""1"",""2805""
","
","","","","","","1684.7000000029802","images/rodent4.png","","","memory_trial","1","definitely_old",""
"html-keyboard-response","190","492607","0.0-18.0-0.73","5932","approach_avoid_sv1","""event"",""trial"",""time""
""fullscreenenter"",""1"",""2805""
","
","
","""event"",""trial"",""time""
""fullscreenenter"",""1"",""2805""
","
","","","","","","null","<div style=""font-size:60px;"">+</div>","null","","fixation","","",""
"memory-trial","191","494888","0.0-18.0-1.73","5932","approach_avoid_sv1","""event"",""trial"",""time""
""fullscreenenter"",""1"",""2805""
","
","
","""event"",""trial"",""time""
""fullscreenenter"",""1"",""2805""
","
","","","","","","1271.2999999970198","images/straw1.png","","","memory_trial","1","definitely_old",""
"html-keyboard-response","192","495392","0.0-18.0-0.74","5932","approach_avoid_sv1","""event"",""trial"",""time""
""fullscreenenter"",""1"",""2805""
","
","
","""event"",""trial"",""time""
""fullscreenenter"",""1"",""2805""
","
","","","","","","null","<div style=""font-size:60px;"">+</div>","null","","fixation","","",""
"memory-trial","193","497096","0.0-18.0-1.74","5932","approach_avoid_sv1","""event"",""trial"",""time""
""fullscreenenter"",""1"",""2805""
","
","
","""event"",""trial"",""time""
""fullscreenenter"",""1"",""2805""
","
","","","","","","694","images/flower5.png","","","memory_trial","2","maybe_old",""
"html-keyboard-response","194","497600","0.0-18.0-0.75","5932","approach_avoid_sv1","""event"",""trial"",""time""
""fullscreenenter"",""1"",""2805""
","
","
","""event"",""trial"",""time""
""fullscreenenter"",""1"",""2805""
","
","","","","","","null","<div style=""font-size:60px;"">+</div>","null","","fixation","","",""
"memory-trial","195","501432","0.0-18.0-1.75","5932","approach_avoid_sv1","""event"",""trial"",""time""
""fullscreenenter"",""1"",""2805""
","
","
","""event"",""trial"",""time""
""fullscreenenter"",""1"",""2805""
","
","","","","","","2821.0999999940395","images/rodent7.png","","","memory_trial","4","definitely_new",""
"html-keyboard-response","196","501936","0.0-18.0-0.76","5932","approach_avoid_sv1","""event"",""trial"",""time""
""fullscreenenter"",""1"",""2805""
","
","
","""event"",""trial"",""time""
""fullscreenenter"",""1"",""2805""
","
","","","","","","null","<div style=""font-size:60px;"">+</div>","null","","fixation","","",""
"memory-trial","197","503912","0.0-18.0-1.76","5932","approach_avoid_sv1","""event"",""trial"",""time""
""fullscreenenter"",""1"",""2805""
","
","
","""event"",""trial"",""time""
""fullscreenenter"",""1"",""2805""
","
","","","","","","963.6999999880791","images/cow7.png","","","memory_trial","1","definitely_old",""
"html-keyboard-response","198","504416","0.0-18.0-0.77","5932","approach_avoid_sv1","""event"",""trial"",""time""
""fullscreenenter"",""1"",""2805""
","
","
","""event"",""trial"",""time""
""fullscreenenter"",""1"",""2805""
","
","","","","","","null","<div style=""font-size:60px;"">+</div>","null","","fixation","","",""
"memory-trial","199","506376","0.0-18.0-1.77","5932","approach_avoid_sv1","""event"",""trial"",""time""
""fullscreenenter"",""1"",""2805""
","
","
","""event"",""trial"",""time""
""fullscreenenter"",""1"",""2805""
","
","","","","","","947.8000000119209","images/straw2.png","","","memory_trial","1","definitely_old",""
"html-keyboard-response","200","506880","0.0-18.0-0.78","5932","approach_avoid_sv1","""event"",""trial"",""time""
""fullscreenenter"",""1"",""2805""
","
","
","""event"",""trial"",""time""
""fullscreenenter"",""1"",""2805""
","
","","","","","","null","<div style=""font-size:60px;"">+</div>","null","","fixation","","",""
"memory-trial","201","508601","0.0-18.0-1.78","5932","approach_avoid_sv1","""event"",""trial"",""time""
""fullscreenenter"",""1"",""2805""
","
","
","""event"",""trial"",""time""
""fullscreenenter"",""1"",""2805""
","
","","","","","","709.8999999910593","images/straw7.png","","","memory_trial","1","definitely_old",""
"html-keyboard-response","202","509105","0.0-18.0-0.79","5932","approach_avoid_sv1","""event"",""trial"",""time""
""fullscreenenter"",""1"",""2805""
","
","
","""event"",""trial"",""time""
""fullscreenenter"",""1"",""2805""
","
","","","","","","null","<div style=""font-size:60px;"">+</div>","null","","fixation","","",""
"memory-trial","203","511415","0.0-18.0-1.79","5932","approach_avoid_sv1","""event"",""trial"",""time""
""fullscreenenter"",""1"",""2805""
","
","
","""event"",""trial"",""time""
""fullscreenenter"",""1"",""2805""
","
","","","","","","1299.7999999970198","images/chair7.png","","","memory_trial","4","definitely_new",""
"html-keyboard-response","204","511920","0.0-18.0-0.80","5932","approach_avoid_sv1","""event"",""trial"",""time""
""fullscreenenter"",""1"",""2805""
","
","
","""event"",""trial"",""time""
""fullscreenenter"",""1"",""2805""
","
","","","","","","null","<div style=""font-size:60px;"">+</div>","null","","fixation","","",""
"memory-trial","205","513912","0.0-18.0-1.80","5932","approach_avoid_sv1","""event"",""trial"",""time""
""fullscreenenter"",""1"",""2805""
","
","
","""event"",""trial"",""time""
""fullscreenenter"",""1"",""2805""
","
","","","","","","979.7999999970198","images/goat2.png","","","memory_trial","4","definitely_new",""
"html-keyboard-response","206","514416","0.0-18.0-0.81","5932","approach_avoid_sv1","""event"",""trial"",""time""
""fullscreenenter"",""1"",""2805""
","
","
","""event"",""trial"",""time""
""fullscreenenter"",""1"",""2805""
","
","","","","","","null","<div style=""font-size:60px;"">+</div>","null","","fixation","","",""
"memory-trial","207","516432","0.0-18.0-1.81","5932","approach_avoid_sv1","""event"",""trial"",""time""
""fullscreenenter"",""1"",""2805""
","
","
","""event"",""trial"",""time""
""fullscreenenter"",""1"",""2805""
","
","","","","","","1010.8999999910593","images/boat4.png","","","memory_trial","4","definitely_new",""
"html-keyboard-response","208","516936","0.0-18.0-0.82","5932","approach_avoid_sv1","""event"",""trial"",""time""
""fullscreenenter"",""1"",""2805""
","
","
","""event"",""trial"",""time""
""fullscreenenter"",""1"",""2805""
","
","","","","","","null","<div style=""font-size:60px;"">+</div>","null","","fixation","","",""
"memory-trial","209","518632","0.0-18.0-1.82","5932","approach_avoid_sv1","""event"",""trial"",""time""
""fullscreenenter"",""1"",""2805""
","
","
","""event"",""trial"",""time""
""fullscreenenter"",""1"",""2805""
","
","","","","","","685","images/plane3.png","","","memory_trial","4","definitely_new",""
"html-keyboard-response","210","519136","0.0-18.0-0.83","5932","approach_avoid_sv1","""event"",""trial"",""time""
""fullscreenenter"",""1"",""2805""
","
","
","""event"",""trial"",""time""
""fullscreenenter"",""1"",""2805""
","
","","","","","","null","<div style=""font-size:60px;"">+</div>","null","","fixation","","",""
"memory-trial","211","521232","0.0-18.0-1.83","5932","approach_avoid_sv1","""event"",""trial"",""time""
""fullscreenenter"",""1"",""2805""
","
","
","""event"",""trial"",""time""
""fullscreenenter"",""1"",""2805""
","
","","","","","","1091.9000000059605","images/table4.png","","","memory_trial","1","definitely_old",""
"html-keyboard-response","212","521736","0.0-18.0-0.84","5932","approach_avoid_sv1","""event"",""trial"",""time""
""fullscreenenter"",""1"",""2805""
","
","
","""event"",""trial"",""time""
""fullscreenenter"",""1"",""2805""
","
","","","","","","null","<div style=""font-size:60px;"">+</div>","null","","fixation","","",""
"memory-trial","213","523456","0.0-18.0-1.84","5932","approach_avoid_sv1","""event"",""trial"",""time""
""fullscreenenter"",""1"",""2805""
","
","
","""event"",""trial"",""time""
""fullscreenenter"",""1"",""2805""
","
","","","","","","715.8000000119209","images/plane6.png","","","memory_trial","1","definitely_old",""
"html-keyboard-response","214","523961","0.0-18.0-0.85","5932","approach_avoid_sv1","""event"",""trial"",""time""
""fullscreenenter"",""1"",""2805""
","
","
","""event"",""trial"",""time""
""fullscreenenter"",""1"",""2805""
","
","","","","","","null","<div style=""font-size:60px;"">+</div>","null","","fixation","","",""
"memory-trial","215","526593","0.0-18.0-1.85","5932","approach_avoid_sv1","""event"",""trial"",""time""
""fullscreenenter"",""1"",""2805""
","
","
","""event"",""trial"",""time""
""fullscreenenter"",""1"",""2805""
","
","","","","","","1627.9000000059605","images/table2.png","","","memory_trial","2","maybe_old",""
"html-keyboard-response","216","527096","0.0-18.0-0.86","5932","approach_avoid_sv1","""event"",""trial"",""time""
""fullscreenenter"",""1"",""2805""
","
","
","""event"",""trial"",""time""
""fullscreenenter"",""1"",""2805""
","
","","","","","","null","<div style=""font-size:60px;"">+</div>","null","","fixation","","",""
"memory-trial","217","529584","0.0-18.0-1.86","5932","approach_avoid_sv1","""event"",""trial"",""time""
""fullscreenenter"",""1"",""2805""
","
","
","""event"",""trial"",""time""
""fullscreenenter"",""1"",""2805""
","
","","","","","","1481.800000011921","images/sofa4.png","","","memory_trial","4","definitely_new",""
"html-keyboard-response","218","530088","0.0-18.0-0.87","5932","approach_avoid_sv1","""event"",""trial"",""time""
""fullscreenenter"",""1"",""2805""
","
","
","""event"",""trial"",""time""
""fullscreenenter"",""1"",""2805""
","
","","","","","","null","<div style=""font-size:60px;"">+</div>","null","","fixation","","",""
"memory-trial","219","533136","0.0-18.0-1.87","5932","approach_avoid_sv1","""event"",""trial"",""time""
""fullscreenenter"",""1"",""2805""
","
","
","""event"",""trial"",""time""
""fullscreenenter"",""1"",""2805""
","
","","","","","","2042.8999999910593","images/chair1.png","","","memory_trial","2","maybe_old",""
"html-keyboard-response","220","533640","0.0-18.0-0.88","5932","approach_avoid_sv1","""event"",""trial"",""time""
""fullscreenenter"",""1"",""2805""
","
","
","""event"",""trial"",""time""
""fullscreenenter"",""1"",""2805""
","
","","","","","","null","<div style=""font-size:60px;"">+</div>","null","","fixation","","",""
"memory-trial","221","535888","0.0-18.0-1.88","5932","approach_avoid_sv1","""event"",""trial"",""time""
""fullscreenenter"",""1"",""2805""
","
","
","""event"",""trial"",""time""
""fullscreenenter"",""1"",""2805""
","
","","","","","","1241.5","images/cactus8.png","","","memory_trial","1","definitely_old",""
"html-keyboard-response","222","536392","0.0-18.0-0.89","5932","approach_avoid_sv1","""event"",""trial"",""time""
""fullscreenenter"",""1"",""2805""
","
","
","""event"",""trial"",""time""
""fullscreenenter"",""1"",""2805""
","
","","","","","","null","<div style=""font-size:60px;"">+</div>","null","","fixation","","",""
"memory-trial","223","538768","0.0-18.0-1.89","5932","approach_avoid_sv1","""event"",""trial"",""time""
""fullscreenenter"",""1"",""2805""
","
","
","""event"",""trial"",""time""
""fullscreenenter"",""1"",""2805""
","
","","","","","","1369.7999999970198","images/cat8.png","","","memory_trial","4","definitely_new",""
"html-keyboard-response","224","539272","0.0-18.0-0.90","5932","approach_avoid_sv1","""event"",""trial"",""time""
""fullscreenenter"",""1"",""2805""
","
","
","""event"",""trial"",""time""
""fullscreenenter"",""1"",""2805""
","
","","","","","","null","<div style=""font-size:60px;"">+</div>","null","","fixation","","",""
"memory-trial","225","541601","0.0-18.0-1.90","5932","approach_avoid_sv1","""event"",""trial"",""time""
""fullscreenenter"",""1"",""2805""
","
","
","""event"",""trial"",""time""
""fullscreenenter"",""1"",""2805""
","
","","","","","","1323.7999999970198","images/sheep6.png","","","memory_trial","2","maybe_old",""
"html-keyboard-response","226","542105","0.0-18.0-0.91","5932","approach_avoid_sv1","""event"",""trial"",""time""
""fullscreenenter"",""1"",""2805""
","
","
","""event"",""trial"",""time""
""fullscreenenter"",""1"",""2805""
","
","","","","","","null","<div style=""font-size:60px;"">+</div>","null","","fixation","","",""
"memory-trial","227","543921","0.0-18.0-1.91","5932","approach_avoid_sv1","""event"",""trial"",""time""
""fullscreenenter"",""1"",""2805""
","
","
","""event"",""trial"",""time""
""fullscreenenter"",""1"",""2805""
","
","","","","","","810","images/banana1.png","","","memory_trial","1","definitely_old",""
"html-button-response","228","546789","0.0-18.0-2.91-0.91","5932","approach_avoid_sv1","""event"",""trial"",""time""
""fullscreenenter"",""1"",""2805""
","
","
","""event"",""trial"",""time""
""fullscreenenter"",""1"",""2805""
","
","","","","","","2867","<p> Take a break! </p><p> Click the button to continue. </p>","0","","break","","",""
"html-keyboard-response","229","547296","0.0-18.0-0.92","5932","approach_avoid_sv1","""event"",""trial"",""time""
""fullscreenenter"",""1"",""2805""
","
","
","""event"",""trial"",""time""
""fullscreenenter"",""1"",""2805""
","
","","","","","","null","<div style=""font-size:60px;"">+</div>","null","","fixation","","",""
"memory-trial","230","549024","0.0-18.0-1.92","5932","approach_avoid_sv1","""event"",""trial"",""time""
""fullscreenenter"",""1"",""2805""
","
","
","""event"",""trial"",""time""
""fullscreenenter"",""1"",""2805""
","
","","","","","","721.0999999940395","images/cat4.png","","","memory_trial","1","definitely_old",""
"html-keyboard-response","231","549528","0.0-18.0-0.93","5932","approach_avoid_sv1","""event"",""trial"",""time""
""fullscreenenter"",""1"",""2805""
","
","
","""event"",""trial"",""time""
""fullscreenenter"",""1"",""2805""
","
","","","","","","null","<div style=""font-size:60px;"">+</div>","null","","fixation","","",""
"memory-trial","232","551376","0.0-18.0-1.93","5932","approach_avoid_sv1","""event"",""trial"",""time""
""fullscreenenter"",""1"",""2805""
","
","
","""event"",""trial"",""time""
""fullscreenenter"",""1"",""2805""
","
","","","","","","841.8999999910593","images/cat3.png","","","memory_trial","1","definitely_old",""
"html-keyboard-response","233","551880","0.0-18.0-0.94","5932","approach_avoid_sv1","""event"",""trial"",""time""
""fullscreenenter"",""1"",""2805""
","
","
","""event"",""trial"",""time""
""fullscreenenter"",""1"",""2805""
","
","","","","","","null","<div style=""font-size:60px;"">+</div>","null","","fixation","","",""
"memory-trial","234","553876","0.0-18.0-1.94","5932","approach_avoid_sv1","""event"",""trial"",""time""
""fullscreenenter"",""1"",""2805""
","
","
","""event"",""trial"",""time""
""fullscreenenter"",""1"",""2805""
","
","","","","","","986.7000000029802","images/apple4.png","","","memory_trial","1","definitely_old",""
"html-keyboard-response","235","554380","0.0-18.0-0.95","5932","approach_avoid_sv1","""event"",""trial"",""time""
""fullscreenenter"",""1"",""2805""
","
","
","""event"",""trial"",""time""
""fullscreenenter"",""1"",""2805""
","
","","","","","","null","<div style=""font-size:60px;"">+</div>","null","","fixation","","",""
"memory-trial","236","556148","0.0-18.0-1.95","5932","approach_avoid_sv1","""event"",""trial"",""time""
""fullscreenenter"",""1"",""2805""
","
","
","""event"",""trial"",""time""
""fullscreenenter"",""1"",""2805""
","
","","","","","","760.6000000089407","images/banana5.png","","","memory_trial","1","definitely_old",""
"html-keyboard-response","237","556651","0.0-18.0-0.96","5932","approach_avoid_sv1","""event"",""trial"",""time""
""fullscreenenter"",""1"",""2805""
","
","
","""event"",""trial"",""time""
""fullscreenenter"",""1"",""2805""
","
","","","","","","null","<div style=""font-size:60px;"">+</div>","null","","fixation","","",""
"memory-trial","238","559012","0.0-18.0-1.96","5932","approach_avoid_sv1","""event"",""trial"",""time""
""fullscreenenter"",""1"",""2805""
","
","
","""event"",""trial"",""time""
""fullscreenenter"",""1"",""2805""
","
","","","","","","1353.7000000029802","images/table1.png","","","memory_trial","3","maybe_new",""
"html-keyboard-response","239","559516","0.0-18.0-0.97","5932","approach_avoid_sv1","""event"",""trial"",""time""
""fullscreenenter"",""1"",""2805""
","
","
","""event"",""trial"",""time""
""fullscreenenter"",""1"",""2805""
","
","","","","","","null","<div style=""font-size:60px;"">+</div>","null","","fixation","","",""
"memory-trial","240","561620","0.0-18.0-1.97","5932","approach_avoid_sv1","""event"",""trial"",""time""
""fullscreenenter"",""1"",""2805""
","
","
","""event"",""trial"",""time""
""fullscreenenter"",""1"",""2805""
","
","","","","","","1096.9000000059605","images/chair6.png","","","memory_trial","4","definitely_new",""
"html-keyboard-response","241","562124","0.0-18.0-0.98","5932","approach_avoid_sv1","""event"",""trial"",""time""
""fullscreenenter"",""1"",""2805""
","
","
","""event"",""trial"",""time""
""fullscreenenter"",""1"",""2805""
","
","","","","","","null","<div style=""font-size:60px;"">+</div>","null","","fixation","","",""
"memory-trial","242","564134","0.0-18.0-1.98","5932","approach_avoid_sv1","""event"",""trial"",""time""
""fullscreenenter"",""1"",""2805""
","
","
","""event"",""trial"",""time""
""fullscreenenter"",""1"",""2805""
","
","","","","","","1002","images/boat3.png","","","memory_trial","4","definitely_new",""
"html-keyboard-response","243","564636","0.0-18.0-0.99","5932","approach_avoid_sv1","""event"",""trial"",""time""
""fullscreenenter"",""1"",""2805""
","
","
","""event"",""trial"",""time""
""fullscreenenter"",""1"",""2805""
","
","","","","","","null","<div style=""font-size:60px;"">+</div>","null","","fixation","","",""
"memory-trial","244","566484","0.0-18.0-1.99","5932","approach_avoid_sv1","""event"",""trial"",""time""
""fullscreenenter"",""1"",""2805""
","
","
","""event"",""trial"",""time""
""fullscreenenter"",""1"",""2805""
","
","","","","","","839.7000000029802","images/tree7.png","","","memory_trial","1","definitely_old",""
"html-keyboard-response","245","566988","0.0-18.0-0.100","5932","approach_avoid_sv1","""event"",""trial"",""time""
""fullscreenenter"",""1"",""2805""
","
","
","""event"",""trial"",""time""
""fullscreenenter"",""1"",""2805""
","
","","","","","","null","<div style=""font-size:60px;"">+</div>","null","","fixation","","",""
"memory-trial","246","568964","0.0-18.0-1.100","5932","approach_avoid_sv1","""event"",""trial"",""time""
""fullscreenenter"",""1"",""2805""
","
","
","""event"",""trial"",""time""
""fullscreenenter"",""1"",""2805""
","
","","","","","","968.9000000059605","images/boat6.png","","","memory_trial","1","definitely_old",""
"html-keyboard-response","247","569468","0.0-18.0-0.101","5932","approach_avoid_sv1","""event"",""trial"",""time""
""fullscreenenter"",""1"",""2805""
","
","
","""event"",""trial"",""time""
""fullscreenenter"",""1"",""2805""
","
","","","","","","null","<div style=""font-size:60px;"">+</div>","null","","fixation","","",""
"memory-trial","248","571316","0.0-18.0-1.101","5932","approach_avoid_sv1","""event"",""trial"",""time""
""fullscreenenter"",""1"",""2805""
","
","
","""event"",""trial"",""time""
""fullscreenenter"",""1"",""2805""
","
","","","","","","840.5999999940395","images/dog4.png","","","memory_trial","3","maybe_new",""
"html-keyboard-response","249","571820","0.0-18.0-0.102","5932","approach_avoid_sv1","""event"",""trial"",""time""
""fullscreenenter"",""1"",""2805""
","
","
","""event"",""trial"",""time""
""fullscreenenter"",""1"",""2805""
","
","","","","","","null","<div style=""font-size:60px;"">+</div>","null","","fixation","","",""
"memory-trial","250","574085","0.0-18.0-1.102","5932","approach_avoid_sv1","""event"",""trial"",""time""
""fullscreenenter"",""1"",""2805""
","
","
","""event"",""trial"",""time""
""fullscreenenter"",""1"",""2805""
","
","","","","","","1257.2000000029802","images/bed4.png","","","memory_trial","1","definitely_old",""
"html-keyboard-response","251","574587","0.0-18.0-0.103","5932","approach_avoid_sv1","""event"",""trial"",""time""
""fullscreenenter"",""1"",""2805""
","
","
","""event"",""trial"",""time""
""fullscreenenter"",""1"",""2805""
","
","","","","","","null","<div style=""font-size:60px;"">+</div>","null","","fixation","","",""
"memory-trial","252","576628","0.0-18.0-1.103","5932","approach_avoid_sv1","""event"",""trial"",""time""
""fullscreenenter"",""1"",""2805""
","
","
","""event"",""trial"",""time""
""fullscreenenter"",""1"",""2805""
","
","","","","","","1032.7000000029802","images/flower1.png","","","memory_trial","1","definitely_old",""
"html-keyboard-response","253","577132","0.0-18.0-0.104","5932","approach_avoid_sv1","""event"",""trial"",""time""
""fullscreenenter"",""1"",""2805""
","
","
","""event"",""trial"",""time""
""fullscreenenter"",""1"",""2805""
","
","","","","","","null","<div style=""font-size:60px;"">+</div>","null","","fixation","","",""
"memory-trial","254","579284","0.0-18.0-1.104","5932","approach_avoid_sv1","""event"",""trial"",""time""
""fullscreenenter"",""1"",""2805""
","
","
","""event"",""trial"",""time""
""fullscreenenter"",""1"",""2805""
","
","","","","","","1143.5","images/orange5.png","","","memory_trial","2","maybe_old",""
"html-keyboard-response","255","579788","0.0-18.0-0.105","5932","approach_avoid_sv1","""event"",""trial"",""time""
""fullscreenenter"",""1"",""2805""
","
","
","""event"",""trial"",""time""
""fullscreenenter"",""1"",""2805""
","
","","","","","","null","<div style=""font-size:60px;"">+</div>","null","","fixation","","",""
"memory-trial","256","582516","0.0-18.0-1.105","5932","approach_avoid_sv1","""event"",""trial"",""time""
""fullscreenenter"",""1"",""2805""
","
","
","""event"",""trial"",""time""
""fullscreenenter"",""1"",""2805""
","
","","","","","","1719.9000000059605","images/bush8.png","","","memory_trial","1","definitely_old",""
"html-keyboard-response","257","583020","0.0-18.0-0.106","5932","approach_avoid_sv1","""event"",""trial"",""time""
""fullscreenenter"",""1"",""2805""
","
","
","""event"",""trial"",""time""
""fullscreenenter"",""1"",""2805""
","
","","","","","","null","<div style=""font-size:60px;"">+</div>","null","","fixation","","",""
"memory-trial","258","585700","0.0-18.0-1.106","5932","approach_avoid_sv1","""event"",""trial"",""time""
""fullscreenenter"",""1"",""2805""
","
","
","""event"",""trial"",""time""
""fullscreenenter"",""1"",""2805""
","
","","","","","","1670.2999999970198","images/dog6.png","","","memory_trial","4","definitely_new",""
"html-keyboard-response","259","586204","0.0-18.0-0.107","5932","approach_avoid_sv1","""event"",""trial"",""time""
""fullscreenenter"",""1"",""2805""
","
","
","""event"",""trial"",""time""
""fullscreenenter"",""1"",""2805""
","
","","","","","","null","<div style=""font-size:60px;"">+</div>","null","","fixation","","",""
"memory-trial","260","588180","0.0-18.0-1.107","5932","approach_avoid_sv1","""event"",""trial"",""time""
""fullscreenenter"",""1"",""2805""
","
","
","""event"",""trial"",""time""
""fullscreenenter"",""1"",""2805""
","
","","","","","","969.3999999910593","images/cactus1.png","","","memory_trial","1","definitely_old",""
"html-keyboard-response","261","588684","0.0-18.0-0.108","5932","approach_avoid_sv1","""event"",""trial"",""time""
""fullscreenenter"",""1"",""2805""
","
","
","""event"",""trial"",""time""
""fullscreenenter"",""1"",""2805""
","
","","","","","","null","<div style=""font-size:60px;"">+</div>","null","","fixation","","",""
"memory-trial","262","590629","0.0-18.0-1.108","5932","approach_avoid_sv1","""event"",""trial"",""time""
""fullscreenenter"",""1"",""2805""
","
","
","""event"",""trial"",""time""
""fullscreenenter"",""1"",""2805""
","
","","","","","","935.2999999970198","images/boat5.png","","","memory_trial","4","definitely_new",""
"html-keyboard-response","263","591133","0.0-18.0-0.109","5932","approach_avoid_sv1","""event"",""trial"",""time""
""fullscreenenter"",""1"",""2805""
","
","
","""event"",""trial"",""time""
""fullscreenenter"",""1"",""2805""
","
","","","","","","null","<div style=""font-size:60px;"">+</div>","null","","fixation","","",""
"memory-trial","264","593637","0.0-18.0-1.109","5932","approach_avoid_sv1","""event"",""trial"",""time""
""fullscreenenter"",""1"",""2805""
","
","
","""event"",""trial"",""time""
""fullscreenenter"",""1"",""2805""
","
","","","","","","1494.5999999940395","images/cow8.png","","","memory_trial","1","definitely_old",""
"html-keyboard-response","265","594141","0.0-18.0-0.110","5932","approach_avoid_sv1","""event"",""trial"",""time""
""fullscreenenter"",""1"",""2805""
","
","
","""event"",""trial"",""time""
""fullscreenenter"",""1"",""2805""
","
","","","","","","null","<div style=""font-size:60px;"">+</div>","null","","fixation","","",""
"memory-trial","266","596036","0.0-18.0-1.110","5932","approach_avoid_sv1","""event"",""trial"",""time""
""fullscreenenter"",""1"",""2805""
","
","
","""event"",""trial"",""time""
""fullscreenenter"",""1"",""2805""
","
","","","","","","885.7999999970198","images/orange3.png","","","memory_trial","1","definitely_old",""
"html-keyboard-response","267","596540","0.0-18.0-0.111","5932","approach_avoid_sv1","""event"",""trial"",""time""
""fullscreenenter"",""1"",""2805""
","
","
","""event"",""trial"",""time""
""fullscreenenter"",""1"",""2805""
","
","","","","","","null","<div style=""font-size:60px;"">+</div>","null","","fixation","","",""
"memory-trial","268","598693","0.0-18.0-1.111","5932","approach_avoid_sv1","""event"",""trial"",""time""
""fullscreenenter"",""1"",""2805""
","
","
","""event"",""trial"",""time""
""fullscreenenter"",""1"",""2805""
","
","","","","","","1143.0999999940395","images/bed7.png","","","memory_trial","1","definitely_old",""
"html-keyboard-response","269","599196","0.0-18.0-0.112","5932","approach_avoid_sv1","""event"",""trial"",""time""
""fullscreenenter"",""1"",""2805""
","
","
","""event"",""trial"",""time""
""fullscreenenter"",""1"",""2805""
","
","","","","","","null","<div style=""font-size:60px;"">+</div>","null","","fixation","","",""
"memory-trial","270","601268","0.0-18.0-1.112","5932","approach_avoid_sv1","""event"",""trial"",""time""
""fullscreenenter"",""1"",""2805""
","
","
","""event"",""trial"",""time""
""fullscreenenter"",""1"",""2805""
","
","","","","","","1062.9000000059605","images/cat7.png","","","memory_trial","4","definitely_new",""
"html-keyboard-response","271","601772","0.0-18.0-0.113","5932","approach_avoid_sv1","""event"",""trial"",""time""
""fullscreenenter"",""1"",""2805""
","
","
","""event"",""trial"",""time""
""fullscreenenter"",""1"",""2805""
","
","","","","","","null","<div style=""font-size:60px;"">+</div>","null","","fixation","","",""
"memory-trial","272","604068","0.0-18.0-1.113","5932","approach_avoid_sv1","""event"",""trial"",""time""
""fullscreenenter"",""1"",""2805""
","
","
","""event"",""trial"",""time""
""fullscreenenter"",""1"",""2805""
","
","","","","","","1286.7999999970198","images/train1.png","","","memory_trial","4","definitely_new",""
"html-keyboard-response","273","604572","0.0-18.0-0.114","5932","approach_avoid_sv1","""event"",""trial"",""time""
""fullscreenenter"",""1"",""2805""
","
","
","""event"",""trial"",""time""
""fullscreenenter"",""1"",""2805""
","
","","","","","","null","<div style=""font-size:60px;"">+</div>","null","","fixation","","",""
"memory-trial","274","606852","0.0-18.0-1.114","5932","approach_avoid_sv1","""event"",""trial"",""time""
""fullscreenenter"",""1"",""2805""
","
","
","""event"",""trial"",""time""
""fullscreenenter"",""1"",""2805""
","
","","","","","","1270","images/banana8.png","","","memory_trial","4","definitely_new",""
"html-keyboard-response","275","607355","0.0-18.0-0.115","5932","approach_avoid_sv1","""event"",""trial"",""time""
""fullscreenenter"",""1"",""2805""
","
","
","""event"",""trial"",""time""
""fullscreenenter"",""1"",""2805""
","
","","","","","","null","<div style=""font-size:60px;"">+</div>","null","","fixation","","",""
"memory-trial","276","609749","0.0-18.0-1.115","5932","approach_avoid_sv1","""event"",""trial"",""time""
""fullscreenenter"",""1"",""2805""
","
","
","""event"",""trial"",""time""
""fullscreenenter"",""1"",""2805""
","
","","","","","","1385.2999999970198","images/flower8.png","","","memory_trial","1","definitely_old",""
"html-keyboard-response","277","610252","0.0-18.0-0.116","5932","approach_avoid_sv1","""event"",""trial"",""time""
""fullscreenenter"",""1"",""2805""
","
","
","""event"",""trial"",""time""
""fullscreenenter"",""1"",""2805""
","
","","","","","","null","<div style=""font-size:60px;"">+</div>","null","","fixation","","",""
"memory-trial","278","614472","0.0-18.0-1.116","5932","approach_avoid_sv1","""event"",""trial"",""time""
""fullscreenenter"",""1"",""2805""
","
","
","""event"",""trial"",""time""
""fullscreenenter"",""1"",""2805""
","
","","","","","","3205.5","images/sheep5.png","","","memory_trial","4","definitely_new",""
"html-keyboard-response","279","614976","0.0-18.0-0.117","5932","approach_avoid_sv1","""event"",""trial"",""time""
""fullscreenenter"",""1"",""2805""
","
","
","""event"",""trial"",""time""
""fullscreenenter"",""1"",""2805""
","
","","","","","","null","<div style=""font-size:60px;"">+</div>","null","","fixation","","",""
"memory-trial","280","617752","0.0-18.0-1.117","5932","approach_avoid_sv1","""event"",""trial"",""time""
""fullscreenenter"",""1"",""2805""
","
","
","""event"",""trial"",""time""
""fullscreenenter"",""1"",""2805""
","
","","","","","","1764","images/rabbit2.png","","","memory_trial","1","definitely_old",""
"html-keyboard-response","281","618256","0.0-18.0-0.118","5932","approach_avoid_sv1","""event"",""trial"",""time""
""fullscreenenter"",""1"",""2805""
","
","
","""event"",""trial"",""time""
""fullscreenenter"",""1"",""2805""
","
","","","","","","null","<div style=""font-size:60px;"">+</div>","null","","fixation","","",""
"memory-trial","282","620728","0.0-18.0-1.118","5932","approach_avoid_sv1","""event"",""trial"",""time""
""fullscreenenter"",""1"",""2805""
","
","
","""event"",""trial"",""time""
""fullscreenenter"",""1"",""2805""
","
","","","","","","1462.7999999970198","images/rodent1.png","","","memory_trial","1","definitely_old",""
"html-keyboard-response","283","621232","0.0-18.0-0.119","5932","approach_avoid_sv1","""event"",""trial"",""time""
""fullscreenenter"",""1"",""2805""
","
","
","""event"",""trial"",""time""
""fullscreenenter"",""1"",""2805""
","
","","","","","","null","<div style=""font-size:60px;"">+</div>","null","","fixation","","",""
"memory-trial","284","623639","0.0-18.0-1.119","5932","approach_avoid_sv1","""event"",""trial"",""time""
""fullscreenenter"",""1"",""2805""
","
","
","""event"",""trial"",""time""
""fullscreenenter"",""1"",""2805""
","
","","","","","","1395.9000000059605","images/banana6.png","","","memory_trial","4","definitely_new",""
"html-keyboard-response","285","624143","0.0-18.0-0.120","5932","approach_avoid_sv1","""event"",""trial"",""time""
""fullscreenenter"",""1"",""2805""
","
","
","""event"",""trial"",""time""
""fullscreenenter"",""1"",""2805""
","
","","","","","","null","<div style=""font-size:60px;"">+</div>","null","","fixation","","",""
"memory-trial","286","626408","0.0-18.0-1.120","5932","approach_avoid_sv1","""event"",""trial"",""time""
""fullscreenenter"",""1"",""2805""
","
","
","""event"",""trial"",""time""
""fullscreenenter"",""1"",""2805""
","
","","","","","","1253.5","images/orange1.png","","","memory_trial","1","definitely_old",""
"html-keyboard-response","287","626912","0.0-18.0-0.121","5932","approach_avoid_sv1","""event"",""trial"",""time""
""fullscreenenter"",""1"",""2805""
","
","
","""event"",""trial"",""time""
""fullscreenenter"",""1"",""2805""
","
","","","","","","null","<div style=""font-size:60px;"">+</div>","null","","fixation","","",""
"memory-trial","288","629240","0.0-18.0-1.121","5932","approach_avoid_sv1","""event"",""trial"",""time""
""fullscreenenter"",""1"",""2805""
","
","
","""event"",""trial"",""time""
""fullscreenenter"",""1"",""2805""
","
","","","","","","1317.2999999970198","images/rodent6.png","","","memory_trial","1","definitely_old",""
"html-keyboard-response","289","629744","0.0-18.0-0.122","5932","approach_avoid_sv1","""event"",""trial"",""time""
""fullscreenenter"",""1"",""2805""
","
","
","""event"",""trial"",""time""
""fullscreenenter"",""1"",""2805""
","
","","","","","","null","<div style=""font-size:60px;"">+</div>","null","","fixation","","",""
"memory-trial","290","631912","0.0-18.0-1.122","5932","approach_avoid_sv1","""event"",""trial"",""time""
""fullscreenenter"",""1"",""2805""
","
","
","""event"",""trial"",""time""
""fullscreenenter"",""1"",""2805""
","
","","","","","","1157.6000000089407","images/straw3.png","","","memory_trial","1","definitely_old",""
"html-keyboard-response","291","632416","0.0-18.0-0.123","5932","approach_avoid_sv1","""event"",""trial"",""time""
""fullscreenenter"",""1"",""2805""
","
","
","""event"",""trial"",""time""
""fullscreenenter"",""1"",""2805""
","
","","","","","","null","<div style=""font-size:60px;"">+</div>","null","","fixation","","",""
"memory-trial","292","634976","0.0-18.0-1.123","5932","approach_avoid_sv1","""event"",""trial"",""time""
""fullscreenenter"",""1"",""2805""
","
","
","""event"",""trial"",""time""
""fullscreenenter"",""1"",""2805""
","
","","","","","","1556.5","images/sofa3.png","","","memory_trial","4","definitely_new",""
"html-keyboard-response","293","635480","0.0-18.0-0.124","5932","approach_avoid_sv1","""event"",""trial"",""time""
""fullscreenenter"",""1"",""2805""
","
","
","""event"",""trial"",""time""
""fullscreenenter"",""1"",""2805""
","
","","","","","","null","<div style=""font-size:60px;"">+</div>","null","","fixation","","",""
"memory-trial","294","638232","0.0-18.0-1.124","5932","approach_avoid_sv1","""event"",""trial"",""time""
""fullscreenenter"",""1"",""2805""
","
","
","""event"",""trial"",""time""
""fullscreenenter"",""1"",""2805""
","
","","","","","","1739.3999999910593","images/goat4.png","","","memory_trial","3","maybe_new",""
"html-keyboard-response","295","638735","0.0-18.0-0.125","5932","approach_avoid_sv1","""event"",""trial"",""time""
""fullscreenenter"",""1"",""2805""
","
","
","""event"",""trial"",""time""
""fullscreenenter"",""1"",""2805""
","
","","","","","","null","<div style=""font-size:60px;"">+</div>","null","","fixation","","",""
"memory-trial","296","641048","0.0-18.0-1.125","5932","approach_avoid_sv1","""event"",""trial"",""time""
""fullscreenenter"",""1"",""2805""
","
","
","""event"",""trial"",""time""
""fullscreenenter"",""1"",""2805""
","
","","","","","","1301.5","images/orange2.png","","","memory_trial","1","definitely_old",""
