"trial_type","trial_index","time_elapsed","internal_node_id","subject_id","task_version","interactions","blur_events","focus_events","fullscreenenter_events","fullscreenexit_events","success","timeout","failed_images","failed_audio","failed_video","rt","stimulus","response","button_pressed","task_part","key_press","answer","correct"
"pavlovia","0","3","0.0-0.0","4662","approach_avoid_sv1","""event"",""trial"",""time""
""fullscreenenter"",""1"",""1823""
","
","
","""event"",""trial"",""time""
""fullscreenenter"",""1"",""1823""
","
","","","","","","","","","","","","",""
"fullscreen","1","2807","0.0-1.0","4662","approach_avoid_sv1","""event"",""trial"",""time""
""fullscreenenter"",""1"",""1823""
","
","
","""event"",""trial"",""time""
""fullscreenenter"",""1"",""1823""
","
","true","","","","","","","","","","","",""
"preload","2","9856","0.0-2.0","4662","approach_avoid_sv1","""event"",""trial"",""time""
""fullscreenenter"",""1"",""1823""
","
","
","""event"",""trial"",""time""
""fullscreenenter"",""1"",""1823""
","
","true","false","[]","[]","[]","","","","","","","",""
"preload","3","14808","0.0-3.0","4662","approach_avoid_sv1","""event"",""trial"",""time""
""fullscreenenter"",""1"",""1823""
","
","
","""event"",""trial"",""time""
""fullscreenenter"",""1"",""1823""
","
","true","false","[]","[]","[]","","","","","","","",""
"preload","4","15124","0.0-4.0","4662","approach_avoid_sv1","""event"",""trial"",""time""
""fullscreenenter"",""1"",""1823""
","
","
","""event"",""trial"",""time""
""fullscreenenter"",""1"",""1823""
","
","true","false","[]","[]","[]","","","","","","","",""
"audio-keyboard-response","5","20605","0.0-5.0","4662","approach_avoid_sv1","""event"",""trial"",""time""
""fullscreenenter"",""1"",""1823""
","
","
","""event"",""trial"",""time""
""fullscreenenter"",""1"",""1823""
","
","","","","","","5469.333333333333","audio/beep_loop.wav"," ","","","","",""
"audio-button-response","6","24537","0.0-6.0","4662","approach_avoid_sv1","""event"",""trial"",""time""
""fullscreenenter"",""1"",""1823""
","
","
","""event"",""trial"",""time""
""fullscreenenter"",""1"",""1823""
","
","","","","","","3931","audio/turtle.wav","3","","","","",""
"audio-button-response","7","27739","0.0-7.0","4662","approach_avoid_sv1","""event"",""trial"",""time""
""fullscreenenter"",""1"",""1823""
","
","
","""event"",""trial"",""time""
""fullscreenenter"",""1"",""1823""
","
","","","","","","2181","audio/shark.wav","2","","","","",""
"preload","8","33970","0.0-8.0","4662","approach_avoid_sv1","""event"",""trial"",""time""
""fullscreenenter"",""1"",""1823""
","
","
","""event"",""trial"",""time""
""fullscreenenter"",""1"",""1823""
","
","true","false","[]","[]","[]","","","","","","","",""
"learning-instructions","9","40092","0.0-9.0-0.0","4662","approach_avoid_sv1","""event"",""trial"",""time""
""fullscreenenter"",""1"",""1823""
","
","
","""event"",""trial"",""time""
""fullscreenenter"",""1"",""1823""
","
","","","","","","1646.9000000953674","<p> Welcome back! </p><p> Last week, you had to make choices about lots of different items.  </p>","","0","instructions","","",""
"learning-instructions","10","44749","0.0-9.0-0.1","4662","approach_avoid_sv1","""event"",""trial"",""time""
""fullscreenenter"",""1"",""1823""
","
","
","""event"",""trial"",""time""
""fullscreenenter"",""1"",""1823""
","
","","","","","","544.4000000953674","<p> Today, we are going to ask you to try to remember all the items. </p>","","0","instructions","","",""
"learning-instructions","11","55347","0.0-9.0-0.2","4662","approach_avoid_sv1","""event"",""trial"",""time""
""fullscreenenter"",""1"",""1823""
","
","
","""event"",""trial"",""time""
""fullscreenenter"",""1"",""1823""
","
","","","","","","452","<p> On every trial, you will see an image. </p><p> The image may be an OLD image you saw during the games last week or it may be a NEW image that was not presented. </p>","","0","instructions","","",""
"learning-instructions","12","64677","0.0-9.0-0.3","4662","approach_avoid_sv1","""event"",""trial"",""time""
""fullscreenenter"",""1"",""1823""
","
","
","""event"",""trial"",""time""
""fullscreenenter"",""1"",""1823""
","
","","","","","","831.1000000238419","<p> You need to select whether the image is:  </p><p>  'Definitely old', 'Maybe old', 'Maybe new', or 'Definitely new.'  </p><div class=""mem-choice-instructions-grid""><div class=""choice-option"" id=""choice-option-1"" ><img src=""images/definitely_old_1.png"" id=""choice-option-img-1"" class=""choice-option-img"" stage=""1""></div><div class=""choice-option"" id=""choice-option-2"" ><img src=""images/maybe_old_1.png"" id=""choice-option-img-2"" class=""choice-option-img"" stage=""1""></div><div class=""choice-option"" id=""choice-option-3"" ><img src=""images/maybe_new_1.png"" id=""choice-option-img-3"" class=""choice-option-img"" stage=""1""></div><div class=""choice-option"" id=""choice-option-4"" > <img src=""images/definitely_new_1.png"" id=""choice-option-img-4"" class=""choice-option-img"" stage=""1""></div></div>","","0","instructions","","",""
"learning-instructions","13","71592","0.0-9.0-0.4","4662","approach_avoid_sv1","""event"",""trial"",""time""
""fullscreenenter"",""1"",""1823""
","
","
","""event"",""trial"",""time""
""fullscreenenter"",""1"",""1823""
","
","","","","","","406.7000000476837","<p> You should use the 1, 2, 3, and 4 keys to make your responses.  </p><div class=""mem-choice-instructions-grid""><div class=""choice-option"" id=""choice-option-1"" ><img src=""images/definitely_old.png"" id=""choice-option-img-1"" class=""choice-option-img"" stage=""1""></div><div class=""choice-option"" id=""choice-option-2"" ><img src=""images/maybe_old.png"" id=""choice-option-img-2"" class=""choice-option-img"" stage=""1""></div><div class=""choice-option"" id=""choice-option-3"" ><img src=""images/maybe_new.png"" id=""choice-option-img-3"" class=""choice-option-img"" stage=""1""></div><div class=""choice-option"" id=""choice-option-4"" > <img src=""images/definitely_new.png"" id=""choice-option-img-4"" class=""choice-option-img"" stage=""1""></div></div>","","0","instructions","","",""
"learning-instructions","14","78808","0.0-9.0-0.5","4662","approach_avoid_sv1","""event"",""trial"",""time""
""fullscreenenter"",""1"",""1823""
","
","
","""event"",""trial"",""time""
""fullscreenenter"",""1"",""1823""
","
","","","","","","882.2999999523163","<p> You will have 10 seconds to make each response.  </p><p>  Make sure to respond before time runs out! </p>","","0","instructions","","",""
"learning-instructions","15","86818","0.0-9.0-0.6","4662","approach_avoid_sv1","""event"",""trial"",""time""
""fullscreenenter"",""1"",""1823""
""fullscreenexit"",""16"",""96481""
","
","
","""event"",""trial"",""time""
""fullscreenenter"",""1"",""1823""
","""event"",""trial"",""time""
""fullscreenexit"",""16"",""96481""
","","","","","","922.3999999761581","<p> Today, you will see each image ONCE only.  </p><p>  That means none of the images will repeat. </p>","","0","instructions","","",""
"learning-instructions","16","100153","0.0-9.0-0.7","4662","approach_avoid_sv1","""event"",""trial"",""time""
""fullscreenenter"",""1"",""1823""
""fullscreenexit"",""16"",""96481""
","
","
","""event"",""trial"",""time""
""fullscreenenter"",""1"",""1823""
","""event"",""trial"",""time""
""fullscreenexit"",""16"",""96481""
","","","","","","657.5","<p> Before you play the real game, it is time to practice. </p><p>  Just like in the real game, some of the images in the practice will be ones you have seen before. </p><p>  Others will be entirely new. </p>","","0","instructions","","",""
"html-button-response","17","101534","0.0-10.0","4662","approach_avoid_sv1","""event"",""trial"",""time""
""fullscreenenter"",""1"",""1823""
""fullscreenexit"",""16"",""96481""
","
","
","""event"",""trial"",""time""
""fullscreenenter"",""1"",""1823""
","""event"",""trial"",""time""
""fullscreenexit"",""16"",""96481""
","","","","","","1272","<p> Ready to practice? </p><p> Remember, use the 1, 2, 3, and 4 keys to make your responses. </p>","0","","instructions","","",""
"html-keyboard-response","18","102140","0.0-11.0-0.0","4662","approach_avoid_sv1","""event"",""trial"",""time""
""fullscreenenter"",""1"",""1823""
""fullscreenexit"",""16"",""96481""
","
","
","""event"",""trial"",""time""
""fullscreenenter"",""1"",""1823""
","""event"",""trial"",""time""
""fullscreenexit"",""16"",""96481""
","","","","","","null","<div style=""font-size:60px;"">+</div>","null","","fixation","","",""
"memory-trial","19","108036","0.0-11.0-1.0","4662","approach_avoid_sv1","""event"",""trial"",""time""
""fullscreenenter"",""1"",""1823""
""fullscreenexit"",""16"",""96481""
","
","
","""event"",""trial"",""time""
""fullscreenenter"",""1"",""1823""
","""event"",""trial"",""time""
""fullscreenexit"",""16"",""96481""
","","","","","","4892.5","images/ball2.png","","","practice","1","definitely_old",""
"html-keyboard-response","20","108554","0.0-11.0-0.1","4662","approach_avoid_sv1","""event"",""trial"",""time""
""fullscreenenter"",""1"",""1823""
""fullscreenexit"",""16"",""96481""
","
","
","""event"",""trial"",""time""
""fullscreenenter"",""1"",""1823""
","""event"",""trial"",""time""
""fullscreenexit"",""16"",""96481""
","","","","","","null","<div style=""font-size:60px;"">+</div>","null","","fixation","","",""
"memory-trial","21","111033","0.0-11.0-1.1","4662","approach_avoid_sv1","""event"",""trial"",""time""
""fullscreenenter"",""1"",""1823""
""fullscreenexit"",""16"",""96481""
","
","
","""event"",""trial"",""time""
""fullscreenenter"",""1"",""1823""
","""event"",""trial"",""time""
""fullscreenexit"",""16"",""96481""
","","","","","","1461.3999999761581","images/racket1.png","","","practice","1","definitely_old",""
"html-keyboard-response","22","111554","0.0-11.0-0.2","4662","approach_avoid_sv1","""event"",""trial"",""time""
""fullscreenenter"",""1"",""1823""
""fullscreenexit"",""16"",""96481""
","
","
","""event"",""trial"",""time""
""fullscreenenter"",""1"",""1823""
","""event"",""trial"",""time""
""fullscreenexit"",""16"",""96481""
","","","","","","null","<div style=""font-size:60px;"">+</div>","null","","fixation","","",""
"memory-trial","23","113904","0.0-11.0-1.2","4662","approach_avoid_sv1","""event"",""trial"",""time""
""fullscreenenter"",""1"",""1823""
""fullscreenexit"",""16"",""96481""
","
","
","""event"",""trial"",""time""
""fullscreenenter"",""1"",""1823""
","""event"",""trial"",""time""
""fullscreenexit"",""16"",""96481""
","","","","","","1333.6000000238419","images/racket3.png","","","practice","1","definitely_old",""
"html-keyboard-response","24","114424","0.0-11.0-0.3","4662","approach_avoid_sv1","""event"",""trial"",""time""
""fullscreenenter"",""1"",""1823""
""fullscreenexit"",""16"",""96481""
","
","
","""event"",""trial"",""time""
""fullscreenenter"",""1"",""1823""
","""event"",""trial"",""time""
""fullscreenexit"",""16"",""96481""
","","","","","","null","<div style=""font-size:60px;"">+</div>","null","","fixation","","",""
"memory-trial","25","116724","0.0-11.0-1.3","4662","approach_avoid_sv1","""event"",""trial"",""time""
""fullscreenenter"",""1"",""1823""
""fullscreenexit"",""16"",""96481""
","
","
","""event"",""trial"",""time""
""fullscreenenter"",""1"",""1823""
","""event"",""trial"",""time""
""fullscreenexit"",""16"",""96481""
","","","","","","1274.5","images/ball3.png","","","practice","1","definitely_old",""
"html-keyboard-response","26","117243","0.0-11.0-0.4","4662","approach_avoid_sv1","""event"",""trial"",""time""
""fullscreenenter"",""1"",""1823""
""fullscreenexit"",""16"",""96481""
","
","
","""event"",""trial"",""time""
""fullscreenenter"",""1"",""1823""
","""event"",""trial"",""time""
""fullscreenexit"",""16"",""96481""
","","","","","","null","<div style=""font-size:60px;"">+</div>","null","","fixation","","",""
"memory-trial","27","120194","0.0-11.0-1.4","4662","approach_avoid_sv1","""event"",""trial"",""time""
""fullscreenenter"",""1"",""1823""
""fullscreenexit"",""16"",""96481""
","
","
","""event"",""trial"",""time""
""fullscreenenter"",""1"",""1823""
","""event"",""trial"",""time""
""fullscreenexit"",""16"",""96481""
","","","","","","1927.8999999761581","images/racket5.png","","","practice","2","maybe_old",""
"html-keyboard-response","28","120704","0.0-11.0-0.5","4662","approach_avoid_sv1","""event"",""trial"",""time""
""fullscreenenter"",""1"",""1823""
""fullscreenexit"",""16"",""96481""
","
","
","""event"",""trial"",""time""
""fullscreenenter"",""1"",""1823""
","""event"",""trial"",""time""
""fullscreenexit"",""16"",""96481""
","","","","","","null","<div style=""font-size:60px;"">+</div>","null","","fixation","","",""
"memory-trial","29","122674","0.0-11.0-1.5","4662","approach_avoid_sv1","""event"",""trial"",""time""
""fullscreenenter"",""1"",""1823""
""fullscreenexit"",""16"",""96481""
","
","
","""event"",""trial"",""time""
""fullscreenenter"",""1"",""1823""
","""event"",""trial"",""time""
""fullscreenexit"",""16"",""96481""
","","","","","","950.7999999523163","images/ball1.png","","","practice","1","definitely_old",""
"html-keyboard-response","30","123193","0.0-11.0-0.6","4662","approach_avoid_sv1","""event"",""trial"",""time""
""fullscreenenter"",""1"",""1823""
""fullscreenexit"",""16"",""96481""
","
","
","""event"",""trial"",""time""
""fullscreenenter"",""1"",""1823""
","""event"",""trial"",""time""
""fullscreenexit"",""16"",""96481""
","","","","","","null","<div style=""font-size:60px;"">+</div>","null","","fixation","","",""
"memory-trial","31","125144","0.0-11.0-1.6","4662","approach_avoid_sv1","""event"",""trial"",""time""
""fullscreenenter"",""1"",""1823""
""fullscreenexit"",""16"",""96481""
","
","
","""event"",""trial"",""time""
""fullscreenenter"",""1"",""1823""
","""event"",""trial"",""time""
""fullscreenexit"",""16"",""96481""
","","","","","","942","images/ball5.png","","","practice","1","definitely_old",""
"html-keyboard-response","32","125664","0.0-11.0-0.7","4662","approach_avoid_sv1","""event"",""trial"",""time""
""fullscreenenter"",""1"",""1823""
""fullscreenexit"",""16"",""96481""
","
","
","""event"",""trial"",""time""
""fullscreenenter"",""1"",""1823""
","""event"",""trial"",""time""
""fullscreenexit"",""16"",""96481""
","","","","","","null","<div style=""font-size:60px;"">+</div>","null","","fixation","","",""
"memory-trial","33","130852","0.0-11.0-1.7","4662","approach_avoid_sv1","""event"",""trial"",""time""
""fullscreenenter"",""1"",""1823""
""fullscreenexit"",""16"",""96481""
","
","
","""event"",""trial"",""time""
""fullscreenenter"",""1"",""1823""
","""event"",""trial"",""time""
""fullscreenexit"",""16"",""96481""
","","","","","","4178","images/racket2.png","","","practice","4","definitely_new",""
"learning-instructions","34","139199","0.0-12.0-0.0","4662","approach_avoid_sv1","""event"",""trial"",""time""
""fullscreenenter"",""1"",""1823""
""fullscreenexit"",""16"",""96481""
","
","
","""event"",""trial"",""time""
""fullscreenenter"",""1"",""1823""
","""event"",""trial"",""time""
""fullscreenexit"",""16"",""96481""
","","","","","","1048.6000000238419","<p> Great! You have completed the practice. </p><p> Before you start, we're going to ask you a few questions about how the game works.  </p>","","0","instructions","","",""
"preload","35","144135","0.0-13.0","4662","approach_avoid_sv1","""event"",""trial"",""time""
""fullscreenenter"",""1"",""1823""
""fullscreenexit"",""16"",""96481""
","
","
","""event"",""trial"",""time""
""fullscreenenter"",""1"",""1823""
","""event"",""trial"",""time""
""fullscreenexit"",""16"",""96481""
","true","false","[]","[]","[]","","","","","","","",""
"comp-q","36","153315","0.0-14.0-0.0","4662","approach_avoid_sv1","""event"",""trial"",""time""
""fullscreenenter"",""1"",""1823""
""fullscreenexit"",""16"",""96481""
","
","
","""event"",""trial"",""time""
""fullscreenenter"",""1"",""1823""
","""event"",""trial"",""time""
""fullscreenexit"",""16"",""96481""
","","","","","","3353.3000000715256","<p> <b> True or False? </b> </p><p> In this game, you will only see each image once. </p>","","0","comp_question","","","true"
"comp-q","37","160274","0.0-14.0-1.0","4662","approach_avoid_sv1","""event"",""trial"",""time""
""fullscreenenter"",""1"",""1823""
""fullscreenexit"",""16"",""96481""
","
","
","""event"",""trial"",""time""
""fullscreenenter"",""1"",""1823""
","""event"",""trial"",""time""
""fullscreenexit"",""16"",""96481""
","","","","","","623.1999999284744","<p> <b> That's right! </b> You will see many different images <i> one time each </i> in this game. </p>","","0","comp_answer","","",""
"comp-q","38","165974","0.0-15.0-0.0","4662","approach_avoid_sv1","""event"",""trial"",""time""
""fullscreenenter"",""1"",""1823""
""fullscreenexit"",""16"",""96481""
","
","
","""event"",""trial"",""time""
""fullscreenenter"",""1"",""1823""
","""event"",""trial"",""time""
""fullscreenexit"",""16"",""96481""
","","","","","","683.1000000238419","<p> <b> True or False? </b> </p><p> You should use the mouse and click to make your response. </p>","","1","comp_question","","","true"
"comp-q","39","173497","0.0-15.0-1.0","4662","approach_avoid_sv1","""event"",""trial"",""time""
""fullscreenenter"",""1"",""1823""
""fullscreenexit"",""16"",""96481""
","
","
","""event"",""trial"",""time""
""fullscreenenter"",""1"",""1823""
","""event"",""trial"",""time""
""fullscreenexit"",""16"",""96481""
","","","","","","1026.2000000476837","<p><b> That's right! </b> You should use the '1', '2', '3', and '4' keys to make your response. </p>","","0","comp_answer","","",""
"comp-q","40","179760","0.0-16.0-0.0","4662","approach_avoid_sv1","""event"",""trial"",""time""
""fullscreenenter"",""1"",""1823""
""fullscreenexit"",""16"",""96481""
","
","
","""event"",""trial"",""time""
""fullscreenenter"",""1"",""1823""
","""event"",""trial"",""time""
""fullscreenexit"",""16"",""96481""
","","","","","","569.4000000953674","<p> <b> True or False? </b> </p><p> You will have as much time as you want to make each choice. </p>","","1","comp_question","","","true"
"comp-q","41","189421","0.0-16.0-1.0","4662","approach_avoid_sv1","""event"",""trial"",""time""
""fullscreenenter"",""1"",""1823""
""fullscreenexit"",""16"",""96481""
","
","
","""event"",""trial"",""time""
""fullscreenenter"",""1"",""1823""
","""event"",""trial"",""time""
""fullscreenexit"",""16"",""96481""
","","","","","","4969.700000047684","<p> <b> That's right! </b> You will only have 10 seconds to make each choice. </p>","","0","comp_answer","","",""
"learning-instructions","42","199411","0.0-17.0","4662","approach_avoid_sv1","""event"",""trial"",""time""
""fullscreenenter"",""1"",""1823""
""fullscreenexit"",""16"",""96481""
","
","
","""event"",""trial"",""time""
""fullscreenenter"",""1"",""1823""
","""event"",""trial"",""time""
""fullscreenexit"",""16"",""96481""
","","","","","","1319.3999999761581","<p> Great! You are now ready to begin the game. </p><p> Remember, use the 1, 2, 3, and 4 keys to make your responses. </p>","","0","instructions","","",""
"html-keyboard-response","43","200030","0.0-18.0-0.0","4662","approach_avoid_sv1","""event"",""trial"",""time""
""fullscreenenter"",""1"",""1823""
""fullscreenexit"",""16"",""96481""
","
","
","""event"",""trial"",""time""
""fullscreenenter"",""1"",""1823""
","""event"",""trial"",""time""
""fullscreenexit"",""16"",""96481""
","","","","","","null","<div style=""font-size:60px;"">+</div>","null","","fixation","","",""
"memory-trial","44","203157","0.0-18.0-1.0","4662","approach_avoid_sv1","""event"",""trial"",""time""
""fullscreenenter"",""1"",""1823""
""fullscreenexit"",""16"",""96481""
","
","
","""event"",""trial"",""time""
""fullscreenenter"",""1"",""1823""
","""event"",""trial"",""time""
""fullscreenexit"",""16"",""96481""
","","","","","","2108.899999976158","images/bed5.png","","","memory_trial","1","definitely_old",""
"html-keyboard-response","45","203679","0.0-18.0-0.1","4662","approach_avoid_sv1","""event"",""trial"",""time""
""fullscreenenter"",""1"",""1823""
""fullscreenexit"",""16"",""96481""
","
","
","""event"",""trial"",""time""
""fullscreenenter"",""1"",""1823""
","""event"",""trial"",""time""
""fullscreenexit"",""16"",""96481""
","","","","","","null","<div style=""font-size:60px;"">+</div>","null","","fixation","","",""
"memory-trial","46","206669","0.0-18.0-1.1","4662","approach_avoid_sv1","""event"",""trial"",""time""
""fullscreenenter"",""1"",""1823""
""fullscreenexit"",""16"",""96481""
","
","
","""event"",""trial"",""time""
""fullscreenenter"",""1"",""1823""
","""event"",""trial"",""time""
""fullscreenexit"",""16"",""96481""
","","","","","","1984.7000000476837","images/cow1.png","","","memory_trial","1","definitely_old",""
"html-keyboard-response","47","207179","0.0-18.0-0.2","4662","approach_avoid_sv1","""event"",""trial"",""time""
""fullscreenenter"",""1"",""1823""
""fullscreenexit"",""16"",""96481""
","
","
","""event"",""trial"",""time""
""fullscreenenter"",""1"",""1823""
","""event"",""trial"",""time""
""fullscreenexit"",""16"",""96481""
","","","","","","null","<div style=""font-size:60px;"">+</div>","null","","fixation","","",""
"memory-trial","48","209799","0.0-18.0-1.2","4662","approach_avoid_sv1","""event"",""trial"",""time""
""fullscreenenter"",""1"",""1823""
""fullscreenexit"",""16"",""96481""
","
","
","""event"",""trial"",""time""
""fullscreenenter"",""1"",""1823""
","""event"",""trial"",""time""
""fullscreenexit"",""16"",""96481""
","","","","","","1603.7000000476837","images/rodent3.png","","","memory_trial","2","maybe_old",""
"html-keyboard-response","49","210309","0.0-18.0-0.3","4662","approach_avoid_sv1","""event"",""trial"",""time""
""fullscreenenter"",""1"",""1823""
""fullscreenexit"",""16"",""96481""
","
","
","""event"",""trial"",""time""
""fullscreenenter"",""1"",""1823""
","""event"",""trial"",""time""
""fullscreenexit"",""16"",""96481""
","","","","","","null","<div style=""font-size:60px;"">+</div>","null","","fixation","","",""
"memory-trial","50","213241","0.0-18.0-1.3","4662","approach_avoid_sv1","""event"",""trial"",""time""
""fullscreenenter"",""1"",""1823""
""fullscreenexit"",""16"",""96481""
","
","
","""event"",""trial"",""time""
""fullscreenenter"",""1"",""1823""
","""event"",""trial"",""time""
""fullscreenexit"",""16"",""96481""
","","","","","","1918.5","images/plane1.png","","","memory_trial","4","definitely_new",""
"html-keyboard-response","51","213749","0.0-18.0-0.4","4662","approach_avoid_sv1","""event"",""trial"",""time""
""fullscreenenter"",""1"",""1823""
""fullscreenexit"",""16"",""96481""
","
","
","""event"",""trial"",""time""
""fullscreenenter"",""1"",""1823""
","""event"",""trial"",""time""
""fullscreenexit"",""16"",""96481""
","","","","","","null","<div style=""font-size:60px;"">+</div>","null","","fixation","","",""
"memory-trial","52","217909","0.0-18.0-1.4","4662","approach_avoid_sv1","""event"",""trial"",""time""
""fullscreenenter"",""1"",""1823""
""fullscreenexit"",""16"",""96481""
","
","
","""event"",""trial"",""time""
""fullscreenenter"",""1"",""1823""
","""event"",""trial"",""time""
""fullscreenexit"",""16"",""96481""
","","","","","","3139.7999999523163","images/rabbit7.png","","","memory_trial","2","maybe_old",""
"html-keyboard-response","53","218419","0.0-18.0-0.5","4662","approach_avoid_sv1","""event"",""trial"",""time""
""fullscreenenter"",""1"",""1823""
""fullscreenexit"",""16"",""96481""
","
","
","""event"",""trial"",""time""
""fullscreenenter"",""1"",""1823""
","""event"",""trial"",""time""
""fullscreenexit"",""16"",""96481""
","","","","","","null","<div style=""font-size:60px;"">+</div>","null","","fixation","","",""
"memory-trial","54","220949","0.0-18.0-1.5","4662","approach_avoid_sv1","""event"",""trial"",""time""
""fullscreenenter"",""1"",""1823""
""fullscreenexit"",""16"",""96481""
","
","
","""event"",""trial"",""time""
""fullscreenenter"",""1"",""1823""
","""event"",""trial"",""time""
""fullscreenexit"",""16"",""96481""
","","","","","","1508.1999999284744","images/truck3.png","","","memory_trial","1","definitely_old",""
"html-keyboard-response","55","221459","0.0-18.0-0.6","4662","approach_avoid_sv1","""event"",""trial"",""time""
""fullscreenenter"",""1"",""1823""
""fullscreenexit"",""16"",""96481""
","
","
","""event"",""trial"",""time""
""fullscreenenter"",""1"",""1823""
","""event"",""trial"",""time""
""fullscreenexit"",""16"",""96481""
","","","","","","null","<div style=""font-size:60px;"">+</div>","null","","fixation","","",""
"memory-trial","56","224476","0.0-18.0-1.6","4662","approach_avoid_sv1","""event"",""trial"",""time""
""fullscreenenter"",""1"",""1823""
""fullscreenexit"",""16"",""96481""
","
","
","""event"",""trial"",""time""
""fullscreenenter"",""1"",""1823""
","""event"",""trial"",""time""
""fullscreenexit"",""16"",""96481""
","","","","","","2005.2999999523163","images/goat8.png","","","memory_trial","1","definitely_old",""
"html-keyboard-response","57","224999","0.0-18.0-0.7","4662","approach_avoid_sv1","""event"",""trial"",""time""
""fullscreenenter"",""1"",""1823""
""fullscreenexit"",""16"",""96481""
","
","
","""event"",""trial"",""time""
""fullscreenenter"",""1"",""1823""
","""event"",""trial"",""time""
""fullscreenexit"",""16"",""96481""
","","","","","","null","<div style=""font-size:60px;"">+</div>","null","","fixation","","",""
"memory-trial","58","228274","0.0-18.0-1.7","4662","approach_avoid_sv1","""event"",""trial"",""time""
""fullscreenenter"",""1"",""1823""
""fullscreenexit"",""16"",""96481""
","
","
","""event"",""trial"",""time""
""fullscreenenter"",""1"",""1823""
","""event"",""trial"",""time""
""fullscreenexit"",""16"",""96481""
","","","","","","2259.600000023842","images/truck2.png","","","memory_trial","2","maybe_old",""
"html-keyboard-response","59","228780","0.0-18.0-0.8","4662","approach_avoid_sv1","""event"",""trial"",""time""
""fullscreenenter"",""1"",""1823""
""fullscreenexit"",""16"",""96481""
","
","
","""event"",""trial"",""time""
""fullscreenenter"",""1"",""1823""
","""event"",""trial"",""time""
""fullscreenexit"",""16"",""96481""
","","","","","","null","<div style=""font-size:60px;"">+</div>","null","","fixation","","",""
"memory-trial","60","231299","0.0-18.0-1.8","4662","approach_avoid_sv1","""event"",""trial"",""time""
""fullscreenenter"",""1"",""1823""
""fullscreenexit"",""16"",""96481""
","
","
","""event"",""trial"",""time""
""fullscreenenter"",""1"",""1823""
","""event"",""trial"",""time""
""fullscreenexit"",""16"",""96481""
","","","","","","1514.5","images/dog5.png","","","memory_trial","1","definitely_old",""
"html-keyboard-response","61","231804","0.0-18.0-0.9","4662","approach_avoid_sv1","""event"",""trial"",""time""
""fullscreenenter"",""1"",""1823""
""fullscreenexit"",""16"",""96481""
","
","
","""event"",""trial"",""time""
""fullscreenenter"",""1"",""1823""
","""event"",""trial"",""time""
""fullscreenexit"",""16"",""96481""
","","","","","","null","<div style=""font-size:60px;"">+</div>","null","","fixation","","",""
"memory-trial","62","234777","0.0-18.0-1.9","4662","approach_avoid_sv1","""event"",""trial"",""time""
""fullscreenenter"",""1"",""1823""
""fullscreenexit"",""16"",""96481""
","
","
","""event"",""trial"",""time""
""fullscreenenter"",""1"",""1823""
","""event"",""trial"",""time""
""fullscreenexit"",""16"",""96481""
","","","","","","1960.2999999523163","images/apple5.png","","","memory_trial","3","maybe_new",""
"html-keyboard-response","63","235284","0.0-18.0-0.10","4662","approach_avoid_sv1","""event"",""trial"",""time""
""fullscreenenter"",""1"",""1823""
""fullscreenexit"",""16"",""96481""
","
","
","""event"",""trial"",""time""
""fullscreenenter"",""1"",""1823""
","""event"",""trial"",""time""
""fullscreenexit"",""16"",""96481""
","","","","","","null","<div style=""font-size:60px;"">+</div>","null","","fixation","","",""
"memory-trial","64","237869","0.0-18.0-1.10","4662","approach_avoid_sv1","""event"",""trial"",""time""
""fullscreenenter"",""1"",""1823""
""fullscreenexit"",""16"",""96481""
","
","
","""event"",""trial"",""time""
""fullscreenenter"",""1"",""1823""
","""event"",""trial"",""time""
""fullscreenexit"",""16"",""96481""
","","","","","","1572.3999999761581","images/sheep7.png","","","memory_trial","4","definitely_new",""
"html-keyboard-response","65","238372","0.0-18.0-0.11","4662","approach_avoid_sv1","""event"",""trial"",""time""
""fullscreenenter"",""1"",""1823""
""fullscreenexit"",""16"",""96481""
","
","
","""event"",""trial"",""time""
""fullscreenenter"",""1"",""1823""
","""event"",""trial"",""time""
""fullscreenexit"",""16"",""96481""
","","","","","","null","<div style=""font-size:60px;"">+</div>","null","","fixation","","",""
"memory-trial","66","240492","0.0-18.0-1.11","4662","approach_avoid_sv1","""event"",""trial"",""time""
""fullscreenenter"",""1"",""1823""
""fullscreenexit"",""16"",""96481""
","
","
","""event"",""trial"",""time""
""fullscreenenter"",""1"",""1823""
","""event"",""trial"",""time""
""fullscreenexit"",""16"",""96481""
","","","","","","1108.2000000476837","images/boat4.png","","","memory_trial","4","definitely_new",""
"html-keyboard-response","67","240995","0.0-18.0-0.12","4662","approach_avoid_sv1","""event"",""trial"",""time""
""fullscreenenter"",""1"",""1823""
""fullscreenexit"",""16"",""96481""
","
","
","""event"",""trial"",""time""
""fullscreenenter"",""1"",""1823""
","""event"",""trial"",""time""
""fullscreenexit"",""16"",""96481""
","","","","","","null","<div style=""font-size:60px;"">+</div>","null","","fixation","","",""
"memory-trial","68","243324","0.0-18.0-1.12","4662","approach_avoid_sv1","""event"",""trial"",""time""
""fullscreenenter"",""1"",""1823""
""fullscreenexit"",""16"",""96481""
","
","
","""event"",""trial"",""time""
""fullscreenenter"",""1"",""1823""
","""event"",""trial"",""time""
""fullscreenexit"",""16"",""96481""
","","","","","","1318.2000000476837","images/cat6.png","","","memory_trial","4","definitely_new",""
"html-keyboard-response","69","243829","0.0-18.0-0.13","4662","approach_avoid_sv1","""event"",""trial"",""time""
""fullscreenenter"",""1"",""1823""
""fullscreenexit"",""16"",""96481""
","
","
","""event"",""trial"",""time""
""fullscreenenter"",""1"",""1823""
","""event"",""trial"",""time""
""fullscreenexit"",""16"",""96481""
","","","","","","null","<div style=""font-size:60px;"">+</div>","null","","fixation","","",""
"memory-trial","70","245659","0.0-18.0-1.13","4662","approach_avoid_sv1","""event"",""trial"",""time""
""fullscreenenter"",""1"",""1823""
""fullscreenexit"",""16"",""96481""
","
","
","""event"",""trial"",""time""
""fullscreenenter"",""1"",""1823""
","""event"",""trial"",""time""
""fullscreenexit"",""16"",""96481""
","","","","","","824.8999999761581","images/table7.png","","","memory_trial","4","definitely_new",""
"html-keyboard-response","71","246163","0.0-18.0-0.14","4662","approach_avoid_sv1","""event"",""trial"",""time""
""fullscreenenter"",""1"",""1823""
""fullscreenexit"",""16"",""96481""
","
","
","""event"",""trial"",""time""
""fullscreenenter"",""1"",""1823""
","""event"",""trial"",""time""
""fullscreenexit"",""16"",""96481""
","","","","","","null","<div style=""font-size:60px;"">+</div>","null","","fixation","","",""
"memory-trial","72","248123","0.0-18.0-1.14","4662","approach_avoid_sv1","""event"",""trial"",""time""
""fullscreenenter"",""1"",""1823""
""fullscreenexit"",""16"",""96481""
","
","
","""event"",""trial"",""time""
""fullscreenenter"",""1"",""1823""
","""event"",""trial"",""time""
""fullscreenexit"",""16"",""96481""
","","","","","","950","images/flower7.png","","","memory_trial","4","definitely_new",""
"html-keyboard-response","73","248629","0.0-18.0-0.15","4662","approach_avoid_sv1","""event"",""trial"",""time""
""fullscreenenter"",""1"",""1823""
""fullscreenexit"",""16"",""96481""
","
","
","""event"",""trial"",""time""
""fullscreenenter"",""1"",""1823""
","""event"",""trial"",""time""
""fullscreenexit"",""16"",""96481""
","","","","","","null","<div style=""font-size:60px;"">+</div>","null","","fixation","","",""
"memory-trial","74","251869","0.0-18.0-1.15","4662","approach_avoid_sv1","""event"",""trial"",""time""
""fullscreenenter"",""1"",""1823""
""fullscreenexit"",""16"",""96481""
","
","
","""event"",""trial"",""time""
""fullscreenenter"",""1"",""1823""
","""event"",""trial"",""time""
""fullscreenexit"",""16"",""96481""
","","","","","","2231.899999976158","images/tree6.png","","","memory_trial","2","maybe_old",""
"html-keyboard-response","75","252372","0.0-18.0-0.16","4662","approach_avoid_sv1","""event"",""trial"",""time""
""fullscreenenter"",""1"",""1823""
""fullscreenexit"",""16"",""96481""
","
","
","""event"",""trial"",""time""
""fullscreenenter"",""1"",""1823""
","""event"",""trial"",""time""
""fullscreenexit"",""16"",""96481""
","","","","","","null","<div style=""font-size:60px;"">+</div>","null","","fixation","","",""
"memory-trial","76","254459","0.0-18.0-1.16","4662","approach_avoid_sv1","""event"",""trial"",""time""
""fullscreenenter"",""1"",""1823""
""fullscreenexit"",""16"",""96481""
","
","
","""event"",""trial"",""time""
""fullscreenenter"",""1"",""1823""
","""event"",""trial"",""time""
""fullscreenexit"",""16"",""96481""
","","","","","","1078.1999999284744","images/sheep8.png","","","memory_trial","2","maybe_old",""
"html-keyboard-response","77","254964","0.0-18.0-0.17","4662","approach_avoid_sv1","""event"",""trial"",""time""
""fullscreenenter"",""1"",""1823""
""fullscreenexit"",""16"",""96481""
","
","
","""event"",""trial"",""time""
""fullscreenenter"",""1"",""1823""
","""event"",""trial"",""time""
""fullscreenexit"",""16"",""96481""
","","","","","","null","<div style=""font-size:60px;"">+</div>","null","","fixation","","",""
"memory-trial","78","258333","0.0-18.0-1.17","4662","approach_avoid_sv1","""event"",""trial"",""time""
""fullscreenenter"",""1"",""1823""
""fullscreenexit"",""16"",""96481""
","
","
","""event"",""trial"",""time""
""fullscreenenter"",""1"",""1823""
","""event"",""trial"",""time""
""fullscreenexit"",""16"",""96481""
","","","","","","2360.6999999284744","images/plane6.png","","","memory_trial","2","maybe_old",""
"html-keyboard-response","79","258850","0.0-18.0-0.18","4662","approach_avoid_sv1","""event"",""trial"",""time""
""fullscreenenter"",""1"",""1823""
""fullscreenexit"",""16"",""96481""
","
","
","""event"",""trial"",""time""
""fullscreenenter"",""1"",""1823""
","""event"",""trial"",""time""
""fullscreenexit"",""16"",""96481""
","","","","","","null","<div style=""font-size:60px;"">+</div>","null","","fixation","","",""
"memory-trial","80","262157","0.0-18.0-1.18","4662","approach_avoid_sv1","""event"",""trial"",""time""
""fullscreenenter"",""1"",""1823""
""fullscreenexit"",""16"",""96481""
","
","
","""event"",""trial"",""time""
""fullscreenenter"",""1"",""1823""
","""event"",""trial"",""time""
""fullscreenexit"",""16"",""96481""
","","","","","","2294.5","images/sofa5.png","","","memory_trial","3","maybe_new",""
"html-keyboard-response","81","262659","0.0-18.0-0.19","4662","approach_avoid_sv1","""event"",""trial"",""time""
""fullscreenenter"",""1"",""1823""
""fullscreenexit"",""16"",""96481""
","
","
","""event"",""trial"",""time""
""fullscreenenter"",""1"",""1823""
","""event"",""trial"",""time""
""fullscreenexit"",""16"",""96481""
","","","","","","null","<div style=""font-size:60px;"">+</div>","null","","fixation","","",""
"memory-trial","82","266043","0.0-18.0-1.19","4662","approach_avoid_sv1","""event"",""trial"",""time""
""fullscreenenter"",""1"",""1823""
""fullscreenexit"",""16"",""96481""
","
","
","""event"",""trial"",""time""
""fullscreenenter"",""1"",""1823""
","""event"",""trial"",""time""
""fullscreenexit"",""16"",""96481""
","","","","","","2376.7000000476837","images/cow6.png","","","memory_trial","4","definitely_new",""
"html-keyboard-response","83","266549","0.0-18.0-0.20","4662","approach_avoid_sv1","""event"",""trial"",""time""
""fullscreenenter"",""1"",""1823""
""fullscreenexit"",""16"",""96481""
","
","
","""event"",""trial"",""time""
""fullscreenenter"",""1"",""1823""
","""event"",""trial"",""time""
""fullscreenexit"",""16"",""96481""
","","","","","","null","<div style=""font-size:60px;"">+</div>","null","","fixation","","",""
"memory-trial","84","268677","0.0-18.0-1.20","4662","approach_avoid_sv1","""event"",""trial"",""time""
""fullscreenenter"",""1"",""1823""
""fullscreenexit"",""16"",""96481""
","
","
","""event"",""trial"",""time""
""fullscreenenter"",""1"",""1823""
","""event"",""trial"",""time""
""fullscreenexit"",""16"",""96481""
","","","","","","1119.7999999523163","images/rabbit3.png","","","memory_trial","4","definitely_new",""
"html-keyboard-response","85","269179","0.0-18.0-0.21","4662","approach_avoid_sv1","""event"",""trial"",""time""
""fullscreenenter"",""1"",""1823""
""fullscreenexit"",""16"",""96481""
","
","
","""event"",""trial"",""time""
""fullscreenenter"",""1"",""1823""
","""event"",""trial"",""time""
""fullscreenexit"",""16"",""96481""
","","","","","","null","<div style=""font-size:60px;"">+</div>","null","","fixation","","",""
"memory-trial","86","271220","0.0-18.0-1.21","4662","approach_avoid_sv1","""event"",""trial"",""time""
""fullscreenenter"",""1"",""1823""
""fullscreenexit"",""16"",""96481""
","
","
","""event"",""trial"",""time""
""fullscreenenter"",""1"",""1823""
","""event"",""trial"",""time""
""fullscreenexit"",""16"",""96481""
","","","","","","1034.1000000238419","images/apple4.png","","","memory_trial","1","definitely_old",""
"html-keyboard-response","87","271725","0.0-18.0-0.22","4662","approach_avoid_sv1","""event"",""trial"",""time""
""fullscreenenter"",""1"",""1823""
""fullscreenexit"",""16"",""96481""
","
","
","""event"",""trial"",""time""
""fullscreenenter"",""1"",""1823""
","""event"",""trial"",""time""
""fullscreenexit"",""16"",""96481""
","","","","","","null","<div style=""font-size:60px;"">+</div>","null","","fixation","","",""
"memory-trial","88","275085","0.0-18.0-1.22","4662","approach_avoid_sv1","""event"",""trial"",""time""
""fullscreenenter"",""1"",""1823""
""fullscreenexit"",""16"",""96481""
","
","
","""event"",""trial"",""time""
""fullscreenenter"",""1"",""1823""
","""event"",""trial"",""time""
""fullscreenexit"",""16"",""96481""
","","","","","","2351.8000000715256","images/bed7.png","","","memory_trial","3","maybe_new",""
"html-keyboard-response","89","275589","0.0-18.0-0.23","4662","approach_avoid_sv1","""event"",""trial"",""time""
""fullscreenenter"",""1"",""1823""
""fullscreenexit"",""16"",""96481""
","
","
","""event"",""trial"",""time""
""fullscreenenter"",""1"",""1823""
","""event"",""trial"",""time""
""fullscreenexit"",""16"",""96481""
","","","","","","null","<div style=""font-size:60px;"">+</div>","null","","fixation","","",""
"memory-trial","90","277619","0.0-18.0-1.23","4662","approach_avoid_sv1","""event"",""trial"",""time""
""fullscreenenter"",""1"",""1823""
""fullscreenexit"",""16"",""96481""
","
","
","""event"",""trial"",""time""
""fullscreenenter"",""1"",""1823""
","""event"",""trial"",""time""
""fullscreenexit"",""16"",""96481""
","","","","","","1022.8999999761581","images/sofa2.png","","","memory_trial","3","maybe_new",""
"html-keyboard-response","91","278124","0.0-18.0-0.24","4662","approach_avoid_sv1","""event"",""trial"",""time""
""fullscreenenter"",""1"",""1823""
""fullscreenexit"",""16"",""96481""
","
","
","""event"",""trial"",""time""
""fullscreenenter"",""1"",""1823""
","""event"",""trial"",""time""
""fullscreenexit"",""16"",""96481""
","","","","","","null","<div style=""font-size:60px;"">+</div>","null","","fixation","","",""
"memory-trial","92","280084","0.0-18.0-1.24","4662","approach_avoid_sv1","""event"",""trial"",""time""
""fullscreenenter"",""1"",""1823""
""fullscreenexit"",""16"",""96481""
","
","
","""event"",""trial"",""time""
""fullscreenenter"",""1"",""1823""
","""event"",""trial"",""time""
""fullscreenexit"",""16"",""96481""
","","","","","","949.6000000238419","images/orange3.png","","","memory_trial","1","definitely_old",""
"html-keyboard-response","93","280589","0.0-18.0-0.25","4662","approach_avoid_sv1","""event"",""trial"",""time""
""fullscreenenter"",""1"",""1823""
""fullscreenexit"",""16"",""96481""
","
","
","""event"",""trial"",""time""
""fullscreenenter"",""1"",""1823""
","""event"",""trial"",""time""
""fullscreenexit"",""16"",""96481""
","","","","","","null","<div style=""font-size:60px;"">+</div>","null","","fixation","","",""
"memory-trial","94","283013","0.0-18.0-1.25","4662","approach_avoid_sv1","""event"",""trial"",""time""
""fullscreenenter"",""1"",""1823""
""fullscreenexit"",""16"",""96481""
","
","
","""event"",""trial"",""time""
""fullscreenenter"",""1"",""1823""
","""event"",""trial"",""time""
""fullscreenexit"",""16"",""96481""
","","","","","","1411.5","images/rodent7.png","","","memory_trial","4","definitely_new",""
"html-keyboard-response","95","283517","0.0-18.0-0.26","4662","approach_avoid_sv1","""event"",""trial"",""time""
""fullscreenenter"",""1"",""1823""
""fullscreenexit"",""16"",""96481""
","
","
","""event"",""trial"",""time""
""fullscreenenter"",""1"",""1823""
","""event"",""trial"",""time""
""fullscreenexit"",""16"",""96481""
","","","","","","null","<div style=""font-size:60px;"">+</div>","null","","fixation","","",""
"memory-trial","96","285708","0.0-18.0-1.26","4662","approach_avoid_sv1","""event"",""trial"",""time""
""fullscreenenter"",""1"",""1823""
""fullscreenexit"",""16"",""96481""
","
","
","""event"",""trial"",""time""
""fullscreenenter"",""1"",""1823""
","""event"",""trial"",""time""
""fullscreenexit"",""16"",""96481""
","","","","","","1180.7000000476837","images/train2.png","","","memory_trial","1","definitely_old",""
"html-keyboard-response","97","286211","0.0-18.0-0.27","4662","approach_avoid_sv1","""event"",""trial"",""time""
""fullscreenenter"",""1"",""1823""
""fullscreenexit"",""16"",""96481""
","
","
","""event"",""trial"",""time""
""fullscreenenter"",""1"",""1823""
","""event"",""trial"",""time""
""fullscreenexit"",""16"",""96481""
","","","","","","null","<div style=""font-size:60px;"">+</div>","null","","fixation","","",""
"memory-trial","98","288884","0.0-18.0-1.27","4662","approach_avoid_sv1","""event"",""trial"",""time""
""fullscreenenter"",""1"",""1823""
""fullscreenexit"",""16"",""96481""
","
","
","""event"",""trial"",""time""
""fullscreenenter"",""1"",""1823""
","""event"",""trial"",""time""
""fullscreenexit"",""16"",""96481""
","","","","","","1656.2999999523163","images/rabbit5.png","","","memory_trial","3","maybe_new",""
"html-keyboard-response","99","289388","0.0-18.0-0.28","4662","approach_avoid_sv1","""event"",""trial"",""time""
""fullscreenenter"",""1"",""1823""
""fullscreenexit"",""16"",""96481""
","
","
","""event"",""trial"",""time""
""fullscreenenter"",""1"",""1823""
","""event"",""trial"",""time""
""fullscreenexit"",""16"",""96481""
","","","","","","null","<div style=""font-size:60px;"">+</div>","null","","fixation","","",""
"memory-trial","100","292140","0.0-18.0-1.28","4662","approach_avoid_sv1","""event"",""trial"",""time""
""fullscreenenter"",""1"",""1823""
""fullscreenexit"",""16"",""96481""
","
","
","""event"",""trial"",""time""
""fullscreenenter"",""1"",""1823""
","""event"",""trial"",""time""
""fullscreenexit"",""16"",""96481""
","","","","","","1744.2999999523163","images/horse4.png","","","memory_trial","1","definitely_old",""
"html-keyboard-response","101","292645","0.0-18.0-0.29","4662","approach_avoid_sv1","""event"",""trial"",""time""
""fullscreenenter"",""1"",""1823""
""fullscreenexit"",""16"",""96481""
","
","
","""event"",""trial"",""time""
""fullscreenenter"",""1"",""1823""
","""event"",""trial"",""time""
""fullscreenexit"",""16"",""96481""
","","","","","","null","<div style=""font-size:60px;"">+</div>","null","","fixation","","",""
"memory-trial","102","294598","0.0-18.0-1.29","4662","approach_avoid_sv1","""event"",""trial"",""time""
""fullscreenenter"",""1"",""1823""
""fullscreenexit"",""16"",""96481""
","
","
","""event"",""trial"",""time""
""fullscreenenter"",""1"",""1823""
","""event"",""trial"",""time""
""fullscreenexit"",""16"",""96481""
","","","","","","935.6000000238419","images/chair5.png","","","memory_trial","1","definitely_old",""
"html-keyboard-response","103","295108","0.0-18.0-0.30","4662","approach_avoid_sv1","""event"",""trial"",""time""
""fullscreenenter"",""1"",""1823""
""fullscreenexit"",""16"",""96481""
","
","
","""event"",""trial"",""time""
""fullscreenenter"",""1"",""1823""
","""event"",""trial"",""time""
""fullscreenexit"",""16"",""96481""
","","","","","","null","<div style=""font-size:60px;"">+</div>","null","","fixation","","",""
"memory-trial","104","297420","0.0-18.0-1.30","4662","approach_avoid_sv1","""event"",""trial"",""time""
""fullscreenenter"",""1"",""1823""
""fullscreenexit"",""16"",""96481""
","
","
","""event"",""trial"",""time""
""fullscreenenter"",""1"",""1823""
","""event"",""trial"",""time""
""fullscreenexit"",""16"",""96481""
","","","","","","1301.2999999523163","images/goat1.png","","","memory_trial","4","definitely_new",""
"html-keyboard-response","105","297931","0.0-18.0-0.31","4662","approach_avoid_sv1","""event"",""trial"",""time""
""fullscreenenter"",""1"",""1823""
""fullscreenexit"",""16"",""96481""
","
","
","""event"",""trial"",""time""
""fullscreenenter"",""1"",""1823""
","""event"",""trial"",""time""
""fullscreenexit"",""16"",""96481""
","","","","","","null","<div style=""font-size:60px;"">+</div>","null","","fixation","","",""
"memory-trial","106","299859","0.0-18.0-1.31","4662","approach_avoid_sv1","""event"",""trial"",""time""
""fullscreenenter"",""1"",""1823""
""fullscreenexit"",""16"",""96481""
","
","
","""event"",""trial"",""time""
""fullscreenenter"",""1"",""1823""
","""event"",""trial"",""time""
""fullscreenexit"",""16"",""96481""
","","","","","","924.2000000476837","images/cat3.png","","","memory_trial","4","definitely_new",""
"html-keyboard-response","107","300364","0.0-18.0-0.32","4662","approach_avoid_sv1","""event"",""trial"",""time""
""fullscreenenter"",""1"",""1823""
""fullscreenexit"",""16"",""96481""
","
","
","""event"",""trial"",""time""
""fullscreenenter"",""1"",""1823""
","""event"",""trial"",""time""
""fullscreenexit"",""16"",""96481""
","","","","","","null","<div style=""font-size:60px;"">+</div>","null","","fixation","","",""
"memory-trial","108","302507","0.0-18.0-1.32","4662","approach_avoid_sv1","""event"",""trial"",""time""
""fullscreenenter"",""1"",""1823""
""fullscreenexit"",""16"",""96481""
","
","
","""event"",""trial"",""time""
""fullscreenenter"",""1"",""1823""
","""event"",""trial"",""time""
""fullscreenexit"",""16"",""96481""
","","","","","","1138.9000000953674","images/sheep1.png","","","memory_trial","4","definitely_new",""
"html-keyboard-response","109","303012","0.0-18.0-0.33","4662","approach_avoid_sv1","""event"",""trial"",""time""
""fullscreenenter"",""1"",""1823""
""fullscreenexit"",""16"",""96481""
","
","
","""event"",""trial"",""time""
""fullscreenenter"",""1"",""1823""
","""event"",""trial"",""time""
""fullscreenexit"",""16"",""96481""
","","","","","","null","<div style=""font-size:60px;"">+</div>","null","","fixation","","",""
"memory-trial","110","304931","0.0-18.0-1.33","4662","approach_avoid_sv1","""event"",""trial"",""time""
""fullscreenenter"",""1"",""1823""
""fullscreenexit"",""16"",""96481""
","
","
","""event"",""trial"",""time""
""fullscreenenter"",""1"",""1823""
","""event"",""trial"",""time""
""fullscreenexit"",""16"",""96481""
","","","","","","912.6000000238419","images/banana8.png","","","memory_trial","1","definitely_old",""
"html-keyboard-response","111","305436","0.0-18.0-0.34","4662","approach_avoid_sv1","""event"",""trial"",""time""
""fullscreenenter"",""1"",""1823""
""fullscreenexit"",""16"",""96481""
","
","
","""event"",""trial"",""time""
""fullscreenenter"",""1"",""1823""
","""event"",""trial"",""time""
""fullscreenexit"",""16"",""96481""
","","","","","","null","<div style=""font-size:60px;"">+</div>","null","","fixation","","",""
"memory-trial","112","307420","0.0-18.0-1.34","4662","approach_avoid_sv1","""event"",""trial"",""time""
""fullscreenenter"",""1"",""1823""
""fullscreenexit"",""16"",""96481""
","
","
","""event"",""trial"",""time""
""fullscreenenter"",""1"",""1823""
","""event"",""trial"",""time""
""fullscreenexit"",""16"",""96481""
","","","","","","977.6000000238419","images/train1.png","","","memory_trial","1","definitely_old",""
"html-keyboard-response","113","307923","0.0-18.0-0.35","4662","approach_avoid_sv1","""event"",""trial"",""time""
""fullscreenenter"",""1"",""1823""
""fullscreenexit"",""16"",""96481""
","
","
","""event"",""trial"",""time""
""fullscreenenter"",""1"",""1823""
","""event"",""trial"",""time""
""fullscreenexit"",""16"",""96481""
","","","","","","null","<div style=""font-size:60px;"">+</div>","null","","fixation","","",""
"memory-trial","114","310171","0.0-18.0-1.35","4662","approach_avoid_sv1","""event"",""trial"",""time""
""fullscreenenter"",""1"",""1823""
""fullscreenexit"",""16"",""96481""
","
","
","""event"",""trial"",""time""
""fullscreenenter"",""1"",""1823""
","""event"",""trial"",""time""
""fullscreenexit"",""16"",""96481""
","","","","","","1241.7000000476837","images/bed4.png","","","memory_trial","3","maybe_new",""
"html-keyboard-response","115","310675","0.0-18.0-0.36","4662","approach_avoid_sv1","""event"",""trial"",""time""
""fullscreenenter"",""1"",""1823""
""fullscreenexit"",""16"",""96481""
","
","
","""event"",""trial"",""time""
""fullscreenenter"",""1"",""1823""
","""event"",""trial"",""time""
""fullscreenexit"",""16"",""96481""
","","","","","","null","<div style=""font-size:60px;"">+</div>","null","","fixation","","",""
"memory-trial","116","312948","0.0-18.0-1.36","4662","approach_avoid_sv1","""event"",""trial"",""time""
""fullscreenenter"",""1"",""1823""
""fullscreenexit"",""16"",""96481""
","
","
","""event"",""trial"",""time""
""fullscreenenter"",""1"",""1823""
","""event"",""trial"",""time""
""fullscreenexit"",""16"",""96481""
","","","","","","1266.1999999284744","images/sofa1.png","","","memory_trial","4","definitely_new",""
"html-keyboard-response","117","313451","0.0-18.0-0.37","4662","approach_avoid_sv1","""event"",""trial"",""time""
""fullscreenenter"",""1"",""1823""
""fullscreenexit"",""16"",""96481""
","
","
","""event"",""trial"",""time""
""fullscreenenter"",""1"",""1823""
","""event"",""trial"",""time""
""fullscreenexit"",""16"",""96481""
","","","","","","null","<div style=""font-size:60px;"">+</div>","null","","fixation","","",""
"memory-trial","118","315411","0.0-18.0-1.37","4662","approach_avoid_sv1","""event"",""trial"",""time""
""fullscreenenter"",""1"",""1823""
""fullscreenexit"",""16"",""96481""
","
","
","""event"",""trial"",""time""
""fullscreenenter"",""1"",""1823""
","""event"",""trial"",""time""
""fullscreenexit"",""16"",""96481""
","","","","","","949.8999999761581","images/apple7.png","","","memory_trial","1","definitely_old",""
"html-keyboard-response","119","315916","0.0-18.0-0.38","4662","approach_avoid_sv1","""event"",""trial"",""time""
""fullscreenenter"",""1"",""1823""
""fullscreenexit"",""16"",""96481""
","
","
","""event"",""trial"",""time""
""fullscreenenter"",""1"",""1823""
","""event"",""trial"",""time""
""fullscreenexit"",""16"",""96481""
","","","","","","null","<div style=""font-size:60px;"">+</div>","null","","fixation","","",""
"memory-trial","120","317915","0.0-18.0-1.38","4662","approach_avoid_sv1","""event"",""trial"",""time""
""fullscreenenter"",""1"",""1823""
""fullscreenexit"",""16"",""96481""
","
","
","""event"",""trial"",""time""
""fullscreenenter"",""1"",""1823""
","""event"",""trial"",""time""
""fullscreenexit"",""16"",""96481""
","","","","","","994.5","images/flower1.png","","","memory_trial","4","definitely_new",""
"html-keyboard-response","121","318419","0.0-18.0-0.39","4662","approach_avoid_sv1","""event"",""trial"",""time""
""fullscreenenter"",""1"",""1823""
""fullscreenexit"",""16"",""96481""
","
","
","""event"",""trial"",""time""
""fullscreenenter"",""1"",""1823""
","""event"",""trial"",""time""
""fullscreenexit"",""16"",""96481""
","","","","","","null","<div style=""font-size:60px;"">+</div>","null","","fixation","","",""
"memory-trial","122","320837","0.0-18.0-1.39","4662","approach_avoid_sv1","""event"",""trial"",""time""
""fullscreenenter"",""1"",""1823""
""fullscreenexit"",""16"",""96481""
","
","
","""event"",""trial"",""time""
""fullscreenenter"",""1"",""1823""
","""event"",""trial"",""time""
""fullscreenexit"",""16"",""96481""
","","","","","","1406.8999999761581","images/train5.png","","","memory_trial","4","definitely_new",""
"html-keyboard-response","123","321339","0.0-18.0-0.40","4662","approach_avoid_sv1","""event"",""trial"",""time""
""fullscreenenter"",""1"",""1823""
""fullscreenexit"",""16"",""96481""
","
","
","""event"",""trial"",""time""
""fullscreenenter"",""1"",""1823""
","""event"",""trial"",""time""
""fullscreenexit"",""16"",""96481""
","","","","","","null","<div style=""font-size:60px;"">+</div>","null","","fixation","","",""
"memory-trial","124","323124","0.0-18.0-1.40","4662","approach_avoid_sv1","""event"",""trial"",""time""
""fullscreenenter"",""1"",""1823""
""fullscreenexit"",""16"",""96481""
","
","
","""event"",""trial"",""time""
""fullscreenenter"",""1"",""1823""
","""event"",""trial"",""time""
""fullscreenexit"",""16"",""96481""
","","","","","","774.1000000238419","images/horse3.png","","","memory_trial","4","definitely_new",""
"html-keyboard-response","125","323631","0.0-18.0-0.41","4662","approach_avoid_sv1","""event"",""trial"",""time""
""fullscreenenter"",""1"",""1823""
""fullscreenexit"",""16"",""96481""
","
","
","""event"",""trial"",""time""
""fullscreenenter"",""1"",""1823""
","""event"",""trial"",""time""
""fullscreenexit"",""16"",""96481""
","","","","","","null","<div style=""font-size:60px;"">+</div>","null","","fixation","","",""
"memory-trial","126","325515","0.0-18.0-1.41","4662","approach_avoid_sv1","""event"",""trial"",""time""
""fullscreenenter"",""1"",""1823""
""fullscreenexit"",""16"",""96481""
","
","
","""event"",""trial"",""time""
""fullscreenenter"",""1"",""1823""
","""event"",""trial"",""time""
""fullscreenexit"",""16"",""96481""
","","","","","","878.8000000715256","images/horse8.png","","","memory_trial","4","definitely_new",""
"html-button-response","127","345491","0.0-18.0-2.41-0.41","4662","approach_avoid_sv1","""event"",""trial"",""time""
""fullscreenenter"",""1"",""1823""
""fullscreenexit"",""16"",""96481""
","
","
","""event"",""trial"",""time""
""fullscreenenter"",""1"",""1823""
","""event"",""trial"",""time""
""fullscreenexit"",""16"",""96481""
","","","","","","19975.200000047684","<p> Take a break! </p><p> Click the button to continue. </p>","0","","break","","",""
"html-keyboard-response","128","345996","0.0-18.0-0.42","4662","approach_avoid_sv1","""event"",""trial"",""time""
""fullscreenenter"",""1"",""1823""
""fullscreenexit"",""16"",""96481""
","
","
","""event"",""trial"",""time""
""fullscreenenter"",""1"",""1823""
","""event"",""trial"",""time""
""fullscreenexit"",""16"",""96481""
","","","","","","null","<div style=""font-size:60px;"">+</div>","null","","fixation","","",""
"memory-trial","129","348411","0.0-18.0-1.42","4662","approach_avoid_sv1","""event"",""trial"",""time""
""fullscreenenter"",""1"",""1823""
""fullscreenexit"",""16"",""96481""
","
","
","""event"",""trial"",""time""
""fullscreenenter"",""1"",""1823""
","""event"",""trial"",""time""
""fullscreenexit"",""16"",""96481""
","","","","","","1404.8000000715256","images/banana1.png","","","memory_trial","1","definitely_old",""
"html-keyboard-response","130","348916","0.0-18.0-0.43","4662","approach_avoid_sv1","""event"",""trial"",""time""
""fullscreenenter"",""1"",""1823""
""fullscreenexit"",""16"",""96481""
","
","
","""event"",""trial"",""time""
""fullscreenenter"",""1"",""1823""
","""event"",""trial"",""time""
""fullscreenexit"",""16"",""96481""
","","","","","","null","<div style=""font-size:60px;"">+</div>","null","","fixation","","",""
"memory-trial","131","350988","0.0-18.0-1.43","4662","approach_avoid_sv1","""event"",""trial"",""time""
""fullscreenenter"",""1"",""1823""
""fullscreenexit"",""16"",""96481""
","
","
","""event"",""trial"",""time""
""fullscreenenter"",""1"",""1823""
","""event"",""trial"",""time""
""fullscreenexit"",""16"",""96481""
","","","","","","1062.6000000238419","images/bed1.png","","","memory_trial","1","definitely_old",""
"html-keyboard-response","132","351491","0.0-18.0-0.44","4662","approach_avoid_sv1","""event"",""trial"",""time""
""fullscreenenter"",""1"",""1823""
""fullscreenexit"",""16"",""96481""
","
","
","""event"",""trial"",""time""
""fullscreenenter"",""1"",""1823""
","""event"",""trial"",""time""
""fullscreenexit"",""16"",""96481""
","","","","","","null","<div style=""font-size:60px;"">+</div>","null","","fixation","","",""
"memory-trial","133","353955","0.0-18.0-1.44","4662","approach_avoid_sv1","""event"",""trial"",""time""
""fullscreenenter"",""1"",""1823""
""fullscreenexit"",""16"",""96481""
","
","
","""event"",""trial"",""time""
""fullscreenenter"",""1"",""1823""
","""event"",""trial"",""time""
""fullscreenexit"",""16"",""96481""
","","","","","","1458.9000000953674","images/cat2.png","","","memory_trial","3","maybe_new",""
"html-keyboard-response","134","354460","0.0-18.0-0.45","4662","approach_avoid_sv1","""event"",""trial"",""time""
""fullscreenenter"",""1"",""1823""
""fullscreenexit"",""16"",""96481""
","
","
","""event"",""trial"",""time""
""fullscreenenter"",""1"",""1823""
","""event"",""trial"",""time""
""fullscreenexit"",""16"",""96481""
","","","","","","null","<div style=""font-size:60px;"">+</div>","null","","fixation","","",""
"memory-trial","135","356564","0.0-18.0-1.45","4662","approach_avoid_sv1","""event"",""trial"",""time""
""fullscreenenter"",""1"",""1823""
""fullscreenexit"",""16"",""96481""
","
","
","""event"",""trial"",""time""
""fullscreenenter"",""1"",""1823""
","""event"",""trial"",""time""
""fullscreenexit"",""16"",""96481""
","","","","","","1096.6999999284744","images/dog7.png","","","memory_trial","3","maybe_new",""
"html-keyboard-response","136","357067","0.0-18.0-0.46","4662","approach_avoid_sv1","""event"",""trial"",""time""
""fullscreenenter"",""1"",""1823""
""fullscreenexit"",""16"",""96481""
","
","
","""event"",""trial"",""time""
""fullscreenenter"",""1"",""1823""
","""event"",""trial"",""time""
""fullscreenexit"",""16"",""96481""
","","","","","","null","<div style=""font-size:60px;"">+</div>","null","","fixation","","",""
"memory-trial","137","358958","0.0-18.0-1.46","4662","approach_avoid_sv1","""event"",""trial"",""time""
""fullscreenenter"",""1"",""1823""
""fullscreenexit"",""16"",""96481""
","
","
","""event"",""trial"",""time""
""fullscreenenter"",""1"",""1823""
","""event"",""trial"",""time""
""fullscreenexit"",""16"",""96481""
","","","","","","870.8000000715256","images/sheep3.png","","","memory_trial","4","definitely_new",""
"html-keyboard-response","138","359467","0.0-18.0-0.47","4662","approach_avoid_sv1","""event"",""trial"",""time""
""fullscreenenter"",""1"",""1823""
""fullscreenexit"",""16"",""96481""
","
","
","""event"",""trial"",""time""
""fullscreenenter"",""1"",""1823""
","""event"",""trial"",""time""
""fullscreenexit"",""16"",""96481""
","","","","","","null","<div style=""font-size:60px;"">+</div>","null","","fixation","","",""
"memory-trial","139","361340","0.0-18.0-1.47","4662","approach_avoid_sv1","""event"",""trial"",""time""
""fullscreenenter"",""1"",""1823""
""fullscreenexit"",""16"",""96481""
","
","
","""event"",""trial"",""time""
""fullscreenenter"",""1"",""1823""
","""event"",""trial"",""time""
""fullscreenexit"",""16"",""96481""
","","","","","","867","images/cat1.png","","","memory_trial","4","definitely_new",""
"html-keyboard-response","140","361845","0.0-18.0-0.48","4662","approach_avoid_sv1","""event"",""trial"",""time""
""fullscreenenter"",""1"",""1823""
""fullscreenexit"",""16"",""96481""
","
","
","""event"",""trial"",""time""
""fullscreenenter"",""1"",""1823""
","""event"",""trial"",""time""
""fullscreenexit"",""16"",""96481""
","","","","","","null","<div style=""font-size:60px;"">+</div>","null","","fixation","","",""
"memory-trial","141","363909","0.0-18.0-1.48","4662","approach_avoid_sv1","""event"",""trial"",""time""
""fullscreenenter"",""1"",""1823""
""fullscreenexit"",""16"",""96481""
","
","
","""event"",""trial"",""time""
""fullscreenenter"",""1"",""1823""
","""event"",""trial"",""time""
""fullscreenexit"",""16"",""96481""
","","","","","","1056.1000000238419","images/bush3.png","","","memory_trial","1","definitely_old",""
"html-keyboard-response","142","364413","0.0-18.0-0.49","4662","approach_avoid_sv1","""event"",""trial"",""time""
""fullscreenenter"",""1"",""1823""
""fullscreenexit"",""16"",""96481""
","
","
","""event"",""trial"",""time""
""fullscreenenter"",""1"",""1823""
","""event"",""trial"",""time""
""fullscreenexit"",""16"",""96481""
","","","","","","null","<div style=""font-size:60px;"">+</div>","null","","fixation","","",""
"memory-trial","143","366645","0.0-18.0-1.49","4662","approach_avoid_sv1","""event"",""trial"",""time""
""fullscreenenter"",""1"",""1823""
""fullscreenexit"",""16"",""96481""
","
","
","""event"",""trial"",""time""
""fullscreenenter"",""1"",""1823""
","""event"",""trial"",""time""
""fullscreenexit"",""16"",""96481""
","","","","","","1224.7999999523163","images/cat7.png","","","memory_trial","4","definitely_new",""
"html-keyboard-response","144","367159","0.0-18.0-0.50","4662","approach_avoid_sv1","""event"",""trial"",""time""
""fullscreenenter"",""1"",""1823""
""fullscreenexit"",""16"",""96481""
","
","
","""event"",""trial"",""time""
""fullscreenenter"",""1"",""1823""
","""event"",""trial"",""time""
""fullscreenexit"",""16"",""96481""
","","","","","","null","<div style=""font-size:60px;"">+</div>","null","","fixation","","",""
"memory-trial","145","369060","0.0-18.0-1.50","4662","approach_avoid_sv1","""event"",""trial"",""time""
""fullscreenenter"",""1"",""1823""
""fullscreenexit"",""16"",""96481""
","
","
","""event"",""trial"",""time""
""fullscreenenter"",""1"",""1823""
","""event"",""trial"",""time""
""fullscreenexit"",""16"",""96481""
","","","","","","891.4000000953674","images/apple1.png","","","memory_trial","4","definitely_new",""
"html-keyboard-response","146","369564","0.0-18.0-0.51","4662","approach_avoid_sv1","""event"",""trial"",""time""
""fullscreenenter"",""1"",""1823""
""fullscreenexit"",""16"",""96481""
","
","
","""event"",""trial"",""time""
""fullscreenenter"",""1"",""1823""
","""event"",""trial"",""time""
""fullscreenexit"",""16"",""96481""
","","","","","","null","<div style=""font-size:60px;"">+</div>","null","","fixation","","",""
"memory-trial","147","371355","0.0-18.0-1.51","4662","approach_avoid_sv1","""event"",""trial"",""time""
""fullscreenenter"",""1"",""1823""
""fullscreenexit"",""16"",""96481""
","
","
","""event"",""trial"",""time""
""fullscreenenter"",""1"",""1823""
","""event"",""trial"",""time""
""fullscreenexit"",""16"",""96481""
","","","","","","786","images/cow5.png","","","memory_trial","4","definitely_new",""
"html-keyboard-response","148","371859","0.0-18.0-0.52","4662","approach_avoid_sv1","""event"",""trial"",""time""
""fullscreenenter"",""1"",""1823""
""fullscreenexit"",""16"",""96481""
","
","
","""event"",""trial"",""time""
""fullscreenenter"",""1"",""1823""
","""event"",""trial"",""time""
""fullscreenexit"",""16"",""96481""
","","","","","","null","<div style=""font-size:60px;"">+</div>","null","","fixation","","",""
"memory-trial","149","373515","0.0-18.0-1.52","4662","approach_avoid_sv1","""event"",""trial"",""time""
""fullscreenenter"",""1"",""1823""
""fullscreenexit"",""16"",""96481""
","
","
","""event"",""trial"",""time""
""fullscreenenter"",""1"",""1823""
","""event"",""trial"",""time""
""fullscreenexit"",""16"",""96481""
","","","","","","646.7000000476837","images/cow2.png","","","memory_trial","4","definitely_new",""
"html-keyboard-response","150","374020","0.0-18.0-0.53","4662","approach_avoid_sv1","""event"",""trial"",""time""
""fullscreenenter"",""1"",""1823""
""fullscreenexit"",""16"",""96481""
","
","
","""event"",""trial"",""time""
""fullscreenenter"",""1"",""1823""
","""event"",""trial"",""time""
""fullscreenexit"",""16"",""96481""
","","","","","","null","<div style=""font-size:60px;"">+</div>","null","","fixation","","",""
"memory-trial","151","377124","0.0-18.0-1.53","4662","approach_avoid_sv1","""event"",""trial"",""time""
""fullscreenenter"",""1"",""1823""
""fullscreenexit"",""16"",""96481""
","
","
","""event"",""trial"",""time""
""fullscreenenter"",""1"",""1823""
","""event"",""trial"",""time""
""fullscreenexit"",""16"",""96481""
","","","","","","2094.5","images/banana7.png","","","memory_trial","3","maybe_new",""
"html-keyboard-response","152","377628","0.0-18.0-0.54","4662","approach_avoid_sv1","""event"",""trial"",""time""
""fullscreenenter"",""1"",""1823""
""fullscreenexit"",""16"",""96481""
","
","
","""event"",""trial"",""time""
""fullscreenenter"",""1"",""1823""
","""event"",""trial"",""time""
""fullscreenexit"",""16"",""96481""
","","","","","","null","<div style=""font-size:60px;"">+</div>","null","","fixation","","",""
"memory-trial","153","379955","0.0-18.0-1.54","4662","approach_avoid_sv1","""event"",""trial"",""time""
""fullscreenenter"",""1"",""1823""
""fullscreenexit"",""16"",""96481""
","
","
","""event"",""trial"",""time""
""fullscreenenter"",""1"",""1823""
","""event"",""trial"",""time""
""fullscreenexit"",""16"",""96481""
","","","","","","1300.8999999761581","images/bush1.png","","","memory_trial","2","maybe_old",""
"html-keyboard-response","154","380460","0.0-18.0-0.55","4662","approach_avoid_sv1","""event"",""trial"",""time""
""fullscreenenter"",""1"",""1823""
""fullscreenexit"",""16"",""96481""
","
","
","""event"",""trial"",""time""
""fullscreenenter"",""1"",""1823""
","""event"",""trial"",""time""
""fullscreenexit"",""16"",""96481""
","","","","","","null","<div style=""font-size:60px;"">+</div>","null","","fixation","","",""
"memory-trial","155","382573","0.0-18.0-1.55","4662","approach_avoid_sv1","""event"",""trial"",""time""
""fullscreenenter"",""1"",""1823""
""fullscreenexit"",""16"",""96481""
","
","
","""event"",""trial"",""time""
""fullscreenenter"",""1"",""1823""
","""event"",""trial"",""time""
""fullscreenexit"",""16"",""96481""
","","","","","","1101.3000000715256","images/horse7.png","","","memory_trial","4","definitely_new",""
"html-keyboard-response","156","383075","0.0-18.0-0.56","4662","approach_avoid_sv1","""event"",""trial"",""time""
""fullscreenenter"",""1"",""1823""
""fullscreenexit"",""16"",""96481""
","
","
","""event"",""trial"",""time""
""fullscreenenter"",""1"",""1823""
","""event"",""trial"",""time""
""fullscreenexit"",""16"",""96481""
","","","","","","null","<div style=""font-size:60px;"">+</div>","null","","fixation","","",""
"memory-trial","157","385107","0.0-18.0-1.56","4662","approach_avoid_sv1","""event"",""trial"",""time""
""fullscreenenter"",""1"",""1823""
""fullscreenexit"",""16"",""96481""
","
","
","""event"",""trial"",""time""
""fullscreenenter"",""1"",""1823""
","""event"",""trial"",""time""
""fullscreenexit"",""16"",""96481""
","","","","","","1022.8000000715256","images/cow4.png","","","memory_trial","4","definitely_new",""
"html-keyboard-response","158","385613","0.0-18.0-0.57","4662","approach_avoid_sv1","""event"",""trial"",""time""
""fullscreenenter"",""1"",""1823""
""fullscreenexit"",""16"",""96481""
","
","
","""event"",""trial"",""time""
""fullscreenenter"",""1"",""1823""
","""event"",""trial"",""time""
""fullscreenexit"",""16"",""96481""
","","","","","","null","<div style=""font-size:60px;"">+</div>","null","","fixation","","",""
"memory-trial","159","387779","0.0-18.0-1.57","4662","approach_avoid_sv1","""event"",""trial"",""time""
""fullscreenenter"",""1"",""1823""
""fullscreenexit"",""16"",""96481""
","
","
","""event"",""trial"",""time""
""fullscreenenter"",""1"",""1823""
","""event"",""trial"",""time""
""fullscreenexit"",""16"",""96481""
","","","","","","1161.6000000238419","images/truck6.png","","","memory_trial","1","definitely_old",""
"html-keyboard-response","160","388283","0.0-18.0-0.58","4662","approach_avoid_sv1","""event"",""trial"",""time""
""fullscreenenter"",""1"",""1823""
""fullscreenexit"",""16"",""96481""
","
","
","""event"",""trial"",""time""
""fullscreenenter"",""1"",""1823""
","""event"",""trial"",""time""
""fullscreenexit"",""16"",""96481""
","","","","","","null","<div style=""font-size:60px;"">+</div>","null","","fixation","","",""
"memory-trial","161","390083","0.0-18.0-1.58","4662","approach_avoid_sv1","""event"",""trial"",""time""
""fullscreenenter"",""1"",""1823""
""fullscreenexit"",""16"",""96481""
","
","
","""event"",""trial"",""time""
""fullscreenenter"",""1"",""1823""
","""event"",""trial"",""time""
""fullscreenexit"",""16"",""96481""
","","","","","","794.2999999523163","images/flower4.png","","","memory_trial","4","definitely_new",""
"html-keyboard-response","162","390588","0.0-18.0-0.59","4662","approach_avoid_sv1","""event"",""trial"",""time""
""fullscreenenter"",""1"",""1823""
""fullscreenexit"",""16"",""96481""
","
","
","""event"",""trial"",""time""
""fullscreenenter"",""1"",""1823""
","""event"",""trial"",""time""
""fullscreenexit"",""16"",""96481""
","","","","","","null","<div style=""font-size:60px;"">+</div>","null","","fixation","","",""
"memory-trial","163","392860","0.0-18.0-1.59","4662","approach_avoid_sv1","""event"",""trial"",""time""
""fullscreenenter"",""1"",""1823""
""fullscreenexit"",""16"",""96481""
","
","
","""event"",""trial"",""time""
""fullscreenenter"",""1"",""1823""
","""event"",""trial"",""time""
""fullscreenexit"",""16"",""96481""
","","","","","","1265.8000000715256","images/chair3.png","","","memory_trial","3","maybe_new",""
"html-keyboard-response","164","393374","0.0-18.0-0.60","4662","approach_avoid_sv1","""event"",""trial"",""time""
""fullscreenenter"",""1"",""1823""
""fullscreenexit"",""16"",""96481""
","
","
","""event"",""trial"",""time""
""fullscreenenter"",""1"",""1823""
","""event"",""trial"",""time""
""fullscreenexit"",""16"",""96481""
","","","","","","null","<div style=""font-size:60px;"">+</div>","null","","fixation","","",""
"memory-trial","165","395445","0.0-18.0-1.60","4662","approach_avoid_sv1","""event"",""trial"",""time""
""fullscreenenter"",""1"",""1823""
""fullscreenexit"",""16"",""96481""
","
","
","""event"",""trial"",""time""
""fullscreenenter"",""1"",""1823""
","""event"",""trial"",""time""
""fullscreenexit"",""16"",""96481""
","","","","","","1063.7000000476837","images/banana5.png","","","memory_trial","2","maybe_old",""
"html-keyboard-response","166","395947","0.0-18.0-0.61","4662","approach_avoid_sv1","""event"",""trial"",""time""
""fullscreenenter"",""1"",""1823""
""fullscreenexit"",""16"",""96481""
","
","
","""event"",""trial"",""time""
""fullscreenenter"",""1"",""1823""
","""event"",""trial"",""time""
""fullscreenexit"",""16"",""96481""
","","","","","","null","<div style=""font-size:60px;"">+</div>","null","","fixation","","",""
"memory-trial","167","397836","0.0-18.0-1.61","4662","approach_avoid_sv1","""event"",""trial"",""time""
""fullscreenenter"",""1"",""1823""
""fullscreenexit"",""16"",""96481""
","
","
","""event"",""trial"",""time""
""fullscreenenter"",""1"",""1823""
","""event"",""trial"",""time""
""fullscreenexit"",""16"",""96481""
","","","","","","882.8999999761581","images/bush7.png","","","memory_trial","1","definitely_old",""
"html-keyboard-response","168","398344","0.0-18.0-0.62","4662","approach_avoid_sv1","""event"",""trial"",""time""
""fullscreenenter"",""1"",""1823""
""fullscreenexit"",""16"",""96481""
","
","
","""event"",""trial"",""time""
""fullscreenenter"",""1"",""1823""
","""event"",""trial"",""time""
""fullscreenexit"",""16"",""96481""
","","","","","","null","<div style=""font-size:60px;"">+</div>","null","","fixation","","",""
"memory-trial","169","401203","0.0-18.0-1.62","4662","approach_avoid_sv1","""event"",""trial"",""time""
""fullscreenenter"",""1"",""1823""
""fullscreenexit"",""16"",""96481""
","
","
","""event"",""trial"",""time""
""fullscreenenter"",""1"",""1823""
","""event"",""trial"",""time""
""fullscreenexit"",""16"",""96481""
","","","","","","1852.7999999523163","images/sheep4.png","","","memory_trial","3","maybe_new",""
"html-keyboard-response","170","401709","0.0-18.0-0.63","4662","approach_avoid_sv1","""event"",""trial"",""time""
""fullscreenenter"",""1"",""1823""
""fullscreenexit"",""16"",""96481""
","
","
","""event"",""trial"",""time""
""fullscreenenter"",""1"",""1823""
","""event"",""trial"",""time""
""fullscreenexit"",""16"",""96481""
","","","","","","null","<div style=""font-size:60px;"">+</div>","null","","fixation","","",""
"memory-trial","171","403580","0.0-18.0-1.63","4662","approach_avoid_sv1","""event"",""trial"",""time""
""fullscreenenter"",""1"",""1823""
""fullscreenexit"",""16"",""96481""
","
","
","""event"",""trial"",""time""
""fullscreenenter"",""1"",""1823""
","""event"",""trial"",""time""
""fullscreenexit"",""16"",""96481""
","","","","","","865.3000000715256","images/dog6.png","","","memory_trial","1","definitely_old",""
"html-keyboard-response","172","404084","0.0-18.0-0.64","4662","approach_avoid_sv1","""event"",""trial"",""time""
""fullscreenenter"",""1"",""1823""
""fullscreenexit"",""16"",""96481""
","
","
","""event"",""trial"",""time""
""fullscreenenter"",""1"",""1823""
","""event"",""trial"",""time""
""fullscreenexit"",""16"",""96481""
","","","","","","null","<div style=""font-size:60px;"">+</div>","null","","fixation","","",""
"memory-trial","173","406020","0.0-18.0-1.64","4662","approach_avoid_sv1","""event"",""trial"",""time""
""fullscreenenter"",""1"",""1823""
""fullscreenexit"",""16"",""96481""
","
","
","""event"",""trial"",""time""
""fullscreenenter"",""1"",""1823""
","""event"",""trial"",""time""
""fullscreenexit"",""16"",""96481""
","","","","","","930.3999999761581","images/cactus4.png","","","memory_trial","1","definitely_old",""
"html-keyboard-response","174","406523","0.0-18.0-0.65","4662","approach_avoid_sv1","""event"",""trial"",""time""
""fullscreenenter"",""1"",""1823""
""fullscreenexit"",""16"",""96481""
","
","
","""event"",""trial"",""time""
""fullscreenenter"",""1"",""1823""
","""event"",""trial"",""time""
""fullscreenexit"",""16"",""96481""
","","","","","","null","<div style=""font-size:60px;"">+</div>","null","","fixation","","",""
"memory-trial","175","408802","0.0-18.0-1.65","4662","approach_avoid_sv1","""event"",""trial"",""time""
""fullscreenenter"",""1"",""1823""
""fullscreenexit"",""16"",""96481""
","
","
","""event"",""trial"",""time""
""fullscreenenter"",""1"",""1823""
","""event"",""trial"",""time""
""fullscreenexit"",""16"",""96481""
","","","","","","1263.1000000238419","images/chair4.png","","","memory_trial","4","definitely_new",""
"html-keyboard-response","176","409308","0.0-18.0-0.66","4662","approach_avoid_sv1","""event"",""trial"",""time""
""fullscreenenter"",""1"",""1823""
""fullscreenexit"",""16"",""96481""
","
","
","""event"",""trial"",""time""
""fullscreenenter"",""1"",""1823""
","""event"",""trial"",""time""
""fullscreenexit"",""16"",""96481""
","","","","","","null","<div style=""font-size:60px;"">+</div>","null","","fixation","","",""
"memory-trial","177","411637","0.0-18.0-1.66","4662","approach_avoid_sv1","""event"",""trial"",""time""
""fullscreenenter"",""1"",""1823""
""fullscreenexit"",""16"",""96481""
","
","
","""event"",""trial"",""time""
""fullscreenenter"",""1"",""1823""
","""event"",""trial"",""time""
""fullscreenexit"",""16"",""96481""
","","","","","","1318.1000000238419","images/bed6.png","","","memory_trial","3","maybe_new",""
"html-keyboard-response","178","412140","0.0-18.0-0.67","4662","approach_avoid_sv1","""event"",""trial"",""time""
""fullscreenenter"",""1"",""1823""
""fullscreenexit"",""16"",""96481""
","
","
","""event"",""trial"",""time""
""fullscreenenter"",""1"",""1823""
","""event"",""trial"",""time""
""fullscreenexit"",""16"",""96481""
","","","","","","null","<div style=""font-size:60px;"">+</div>","null","","fixation","","",""
"memory-trial","179","414380","0.0-18.0-1.67","4662","approach_avoid_sv1","""event"",""trial"",""time""
""fullscreenenter"",""1"",""1823""
""fullscreenexit"",""16"",""96481""
","
","
","""event"",""trial"",""time""
""fullscreenenter"",""1"",""1823""
","""event"",""trial"",""time""
""fullscreenexit"",""16"",""96481""
","","","","","","1234.1000000238419","images/cactus3.png","","","memory_trial","3","maybe_new",""
"html-keyboard-response","180","414884","0.0-18.0-0.68","4662","approach_avoid_sv1","""event"",""trial"",""time""
""fullscreenenter"",""1"",""1823""
""fullscreenexit"",""16"",""96481""
","
","
","""event"",""trial"",""time""
""fullscreenenter"",""1"",""1823""
","""event"",""trial"",""time""
""fullscreenexit"",""16"",""96481""
","","","","","","null","<div style=""font-size:60px;"">+</div>","null","","fixation","","",""
"memory-trial","181","416676","0.0-18.0-1.68","4662","approach_avoid_sv1","""event"",""trial"",""time""
""fullscreenenter"",""1"",""1823""
""fullscreenexit"",""16"",""96481""
","
","
","""event"",""trial"",""time""
""fullscreenenter"",""1"",""1823""
","""event"",""trial"",""time""
""fullscreenexit"",""16"",""96481""
","","","","","","785","images/table8.png","","","memory_trial","3","maybe_new",""
"html-keyboard-response","182","417179","0.0-18.0-0.69","4662","approach_avoid_sv1","""event"",""trial"",""time""
""fullscreenenter"",""1"",""1823""
""fullscreenexit"",""16"",""96481""
","
","
","""event"",""trial"",""time""
""fullscreenenter"",""1"",""1823""
","""event"",""trial"",""time""
""fullscreenexit"",""16"",""96481""
","","","","","","null","<div style=""font-size:60px;"">+</div>","null","","fixation","","",""
"memory-trial","183","418933","0.0-18.0-1.69","4662","approach_avoid_sv1","""event"",""trial"",""time""
""fullscreenenter"",""1"",""1823""
""fullscreenexit"",""16"",""96481""
","
","
","""event"",""trial"",""time""
""fullscreenenter"",""1"",""1823""
","""event"",""trial"",""time""
""fullscreenexit"",""16"",""96481""
","","","","","","747.1999999284744","images/cow8.png","","","memory_trial","3","maybe_new",""
"html-keyboard-response","184","419436","0.0-18.0-0.70","4662","approach_avoid_sv1","""event"",""trial"",""time""
""fullscreenenter"",""1"",""1823""
""fullscreenexit"",""16"",""96481""
","
","
","""event"",""trial"",""time""
""fullscreenenter"",""1"",""1823""
","""event"",""trial"",""time""
""fullscreenexit"",""16"",""96481""
","","","","","","null","<div style=""font-size:60px;"">+</div>","null","","fixation","","",""
"memory-trial","185","421399","0.0-18.0-1.70","4662","approach_avoid_sv1","""event"",""trial"",""time""
""fullscreenenter"",""1"",""1823""
""fullscreenexit"",""16"",""96481""
","
","
","""event"",""trial"",""time""
""fullscreenenter"",""1"",""1823""
","""event"",""trial"",""time""
""fullscreenexit"",""16"",""96481""
","","","","","","945.5","images/banana3.png","","","memory_trial","3","maybe_new",""
"html-keyboard-response","186","421909","0.0-18.0-0.71","4662","approach_avoid_sv1","""event"",""trial"",""time""
""fullscreenenter"",""1"",""1823""
""fullscreenexit"",""16"",""96481""
","
","
","""event"",""trial"",""time""
""fullscreenenter"",""1"",""1823""
","""event"",""trial"",""time""
""fullscreenexit"",""16"",""96481""
","","","","","","null","<div style=""font-size:60px;"">+</div>","null","","fixation","","",""
"memory-trial","187","423811","0.0-18.0-1.71","4662","approach_avoid_sv1","""event"",""trial"",""time""
""fullscreenenter"",""1"",""1823""
""fullscreenexit"",""16"",""96481""
","
","
","""event"",""trial"",""time""
""fullscreenenter"",""1"",""1823""
","""event"",""trial"",""time""
""fullscreenexit"",""16"",""96481""
","","","","","","897.3000000715256","images/straw2.png","","","memory_trial","1","definitely_old",""
"html-keyboard-response","188","424315","0.0-18.0-0.72","4662","approach_avoid_sv1","""event"",""trial"",""time""
""fullscreenenter"",""1"",""1823""
""fullscreenexit"",""16"",""96481""
","
","
","""event"",""trial"",""time""
""fullscreenenter"",""1"",""1823""
","""event"",""trial"",""time""
""fullscreenexit"",""16"",""96481""
","","","","","","null","<div style=""font-size:60px;"">+</div>","null","","fixation","","",""
"memory-trial","189","426227","0.0-18.0-1.72","4662","approach_avoid_sv1","""event"",""trial"",""time""
""fullscreenenter"",""1"",""1823""
""fullscreenexit"",""16"",""96481""
","
","
","""event"",""trial"",""time""
""fullscreenenter"",""1"",""1823""
","""event"",""trial"",""time""
""fullscreenexit"",""16"",""96481""
","","","","","","906.3999999761581","images/straw6.png","","","memory_trial","4","definitely_new",""
"html-keyboard-response","190","426733","0.0-18.0-0.73","4662","approach_avoid_sv1","""event"",""trial"",""time""
""fullscreenenter"",""1"",""1823""
""fullscreenexit"",""16"",""96481""
","
","
","""event"",""trial"",""time""
""fullscreenenter"",""1"",""1823""
","""event"",""trial"",""time""
""fullscreenexit"",""16"",""96481""
","","","","","","null","<div style=""font-size:60px;"">+</div>","null","","fixation","","",""
"memory-trial","191","429371","0.0-18.0-1.73","4662","approach_avoid_sv1","""event"",""trial"",""time""
""fullscreenenter"",""1"",""1823""
""fullscreenexit"",""16"",""96481""
","
","
","""event"",""trial"",""time""
""fullscreenenter"",""1"",""1823""
","""event"",""trial"",""time""
""fullscreenexit"",""16"",""96481""
","","","","","","1633.7000000476837","images/dog1.png","","","memory_trial","2","maybe_old",""
"html-keyboard-response","192","429876","0.0-18.0-0.74","4662","approach_avoid_sv1","""event"",""trial"",""time""
""fullscreenenter"",""1"",""1823""
""fullscreenexit"",""16"",""96481""
","
","
","""event"",""trial"",""time""
""fullscreenenter"",""1"",""1823""
","""event"",""trial"",""time""
""fullscreenexit"",""16"",""96481""
","","","","","","null","<div style=""font-size:60px;"">+</div>","null","","fixation","","",""
"memory-trial","193","432462","0.0-18.0-1.74","4662","approach_avoid_sv1","""event"",""trial"",""time""
""fullscreenenter"",""1"",""1823""
""fullscreenexit"",""16"",""96481""
","
","
","""event"",""trial"",""time""
""fullscreenenter"",""1"",""1823""
","""event"",""trial"",""time""
""fullscreenexit"",""16"",""96481""
","","","","","","1570.4000000953674","images/plane7.png","","","memory_trial","2","maybe_old",""
"html-keyboard-response","194","432973","0.0-18.0-0.75","4662","approach_avoid_sv1","""event"",""trial"",""time""
""fullscreenenter"",""1"",""1823""
""fullscreenexit"",""16"",""96481""
","
","
","""event"",""trial"",""time""
""fullscreenenter"",""1"",""1823""
","""event"",""trial"",""time""
""fullscreenexit"",""16"",""96481""
","","","","","","null","<div style=""font-size:60px;"">+</div>","null","","fixation","","",""
"memory-trial","195","436531","0.0-18.0-1.75","4662","approach_avoid_sv1","""event"",""trial"",""time""
""fullscreenenter"",""1"",""1823""
""fullscreenexit"",""16"",""96481""
","
","
","""event"",""trial"",""time""
""fullscreenenter"",""1"",""1823""
","""event"",""trial"",""time""
""fullscreenexit"",""16"",""96481""
","","","","","","2553","images/rabbit1.png","","","memory_trial","3","maybe_new",""
"html-keyboard-response","196","437036","0.0-18.0-0.76","4662","approach_avoid_sv1","""event"",""trial"",""time""
""fullscreenenter"",""1"",""1823""
""fullscreenexit"",""16"",""96481""
","
","
","""event"",""trial"",""time""
""fullscreenenter"",""1"",""1823""
","""event"",""trial"",""time""
""fullscreenexit"",""16"",""96481""
","","","","","","null","<div style=""font-size:60px;"">+</div>","null","","fixation","","",""
"memory-trial","197","439261","0.0-18.0-1.76","4662","approach_avoid_sv1","""event"",""trial"",""time""
""fullscreenenter"",""1"",""1823""
""fullscreenexit"",""16"",""96481""
","
","
","""event"",""trial"",""time""
""fullscreenenter"",""1"",""1823""
","""event"",""trial"",""time""
""fullscreenexit"",""16"",""96481""
","","","","","","1213.5","images/goat4.png","","","memory_trial","4","definitely_new",""
"html-keyboard-response","198","439764","0.0-18.0-0.77","4662","approach_avoid_sv1","""event"",""trial"",""time""
""fullscreenenter"",""1"",""1823""
""fullscreenexit"",""16"",""96481""
","
","
","""event"",""trial"",""time""
""fullscreenenter"",""1"",""1823""
","""event"",""trial"",""time""
""fullscreenexit"",""16"",""96481""
","","","","","","null","<div style=""font-size:60px;"">+</div>","null","","fixation","","",""
"memory-trial","199","442124","0.0-18.0-1.77","4662","approach_avoid_sv1","""event"",""trial"",""time""
""fullscreenenter"",""1"",""1823""
""fullscreenexit"",""16"",""96481""
","
","
","""event"",""trial"",""time""
""fullscreenenter"",""1"",""1823""
","""event"",""trial"",""time""
""fullscreenexit"",""16"",""96481""
","","","","","","1351.3999999761581","images/sofa4.png","","","memory_trial","3","maybe_new",""
"html-keyboard-response","200","442627","0.0-18.0-0.78","4662","approach_avoid_sv1","""event"",""trial"",""time""
""fullscreenenter"",""1"",""1823""
""fullscreenexit"",""16"",""96481""
","
","
","""event"",""trial"",""time""
""fullscreenenter"",""1"",""1823""
","""event"",""trial"",""time""
""fullscreenexit"",""16"",""96481""
","","","","","","null","<div style=""font-size:60px;"">+</div>","null","","fixation","","",""
"memory-trial","201","444708","0.0-18.0-1.78","4662","approach_avoid_sv1","""event"",""trial"",""time""
""fullscreenenter"",""1"",""1823""
""fullscreenexit"",""16"",""96481""
","
","
","""event"",""trial"",""time""
""fullscreenenter"",""1"",""1823""
","""event"",""trial"",""time""
""fullscreenexit"",""16"",""96481""
","","","","","","1071.2000000476837","images/bed2.png","","","memory_trial","3","maybe_new",""
"html-keyboard-response","202","445213","0.0-18.0-0.79","4662","approach_avoid_sv1","""event"",""trial"",""time""
""fullscreenenter"",""1"",""1823""
""fullscreenexit"",""16"",""96481""
","
","
","""event"",""trial"",""time""
""fullscreenenter"",""1"",""1823""
","""event"",""trial"",""time""
""fullscreenexit"",""16"",""96481""
","","","","","","null","<div style=""font-size:60px;"">+</div>","null","","fixation","","",""
"memory-trial","203","447227","0.0-18.0-1.79","4662","approach_avoid_sv1","""event"",""trial"",""time""
""fullscreenenter"",""1"",""1823""
""fullscreenexit"",""16"",""96481""
","
","
","""event"",""trial"",""time""
""fullscreenenter"",""1"",""1823""
","""event"",""trial"",""time""
""fullscreenexit"",""16"",""96481""
","","","","","","1006.3999999761581","images/train8.png","","","memory_trial","1","definitely_old",""
"html-keyboard-response","204","447733","0.0-18.0-0.80","4662","approach_avoid_sv1","""event"",""trial"",""time""
""fullscreenenter"",""1"",""1823""
""fullscreenexit"",""16"",""96481""
","
","
","""event"",""trial"",""time""
""fullscreenenter"",""1"",""1823""
","""event"",""trial"",""time""
""fullscreenexit"",""16"",""96481""
","","","","","","null","<div style=""font-size:60px;"">+</div>","null","","fixation","","",""
"memory-trial","205","449643","0.0-18.0-1.80","4662","approach_avoid_sv1","""event"",""trial"",""time""
""fullscreenenter"",""1"",""1823""
""fullscreenexit"",""16"",""96481""
","
","
","""event"",""trial"",""time""
""fullscreenenter"",""1"",""1823""
","""event"",""trial"",""time""
""fullscreenexit"",""16"",""96481""
","","","","","","902.3999999761581","images/chair2.png","","","memory_trial","3","maybe_new",""
"html-keyboard-response","206","450148","0.0-18.0-0.81","4662","approach_avoid_sv1","""event"",""trial"",""time""
""fullscreenenter"",""1"",""1823""
""fullscreenexit"",""16"",""96481""
","
","
","""event"",""trial"",""time""
""fullscreenenter"",""1"",""1823""
","""event"",""trial"",""time""
""fullscreenexit"",""16"",""96481""
","","","","","","null","<div style=""font-size:60px;"">+</div>","null","","fixation","","",""
"memory-trial","207","452659","0.0-18.0-1.81","4662","approach_avoid_sv1","""event"",""trial"",""time""
""fullscreenenter"",""1"",""1823""
""fullscreenexit"",""16"",""96481""
","
","
","""event"",""trial"",""time""
""fullscreenenter"",""1"",""1823""
","""event"",""trial"",""time""
""fullscreenexit"",""16"",""96481""
","","","","","","1490.8999999761581","images/banana6.png","","","memory_trial","2","maybe_old",""
"html-keyboard-response","208","453164","0.0-18.0-0.82","4662","approach_avoid_sv1","""event"",""trial"",""time""
""fullscreenenter"",""1"",""1823""
""fullscreenexit"",""16"",""96481""
","
","
","""event"",""trial"",""time""
""fullscreenenter"",""1"",""1823""
","""event"",""trial"",""time""
""fullscreenexit"",""16"",""96481""
","","","","","","null","<div style=""font-size:60px;"">+</div>","null","","fixation","","",""
"memory-trial","209","455722","0.0-18.0-1.82","4662","approach_avoid_sv1","""event"",""trial"",""time""
""fullscreenenter"",""1"",""1823""
""fullscreenexit"",""16"",""96481""
","
","
","""event"",""trial"",""time""
""fullscreenenter"",""1"",""1823""
","""event"",""trial"",""time""
""fullscreenexit"",""16"",""96481""
","","","","","","1538.3000000715256","images/horse6.png","","","memory_trial","2","maybe_old",""
"html-keyboard-response","210","456228","0.0-18.0-0.83","4662","approach_avoid_sv1","""event"",""trial"",""time""
""fullscreenenter"",""1"",""1823""
""fullscreenexit"",""16"",""96481""
","
","
","""event"",""trial"",""time""
""fullscreenenter"",""1"",""1823""
","""event"",""trial"",""time""
""fullscreenexit"",""16"",""96481""
","","","","","","null","<div style=""font-size:60px;"">+</div>","null","","fixation","","",""
"memory-trial","211","458076","0.0-18.0-1.83","4662","approach_avoid_sv1","""event"",""trial"",""time""
""fullscreenenter"",""1"",""1823""
""fullscreenexit"",""16"",""96481""
","
","
","""event"",""trial"",""time""
""fullscreenenter"",""1"",""1823""
","""event"",""trial"",""time""
""fullscreenexit"",""16"",""96481""
","","","","","","839.5999999046326","images/flower2.png","","","memory_trial","4","definitely_new",""
"html-keyboard-response","212","458580","0.0-18.0-0.84","4662","approach_avoid_sv1","""event"",""trial"",""time""
""fullscreenenter"",""1"",""1823""
""fullscreenexit"",""16"",""96481""
","
","
","""event"",""trial"",""time""
""fullscreenenter"",""1"",""1823""
","""event"",""trial"",""time""
""fullscreenexit"",""16"",""96481""
","","","","","","null","<div style=""font-size:60px;"">+</div>","null","","fixation","","",""
"memory-trial","213","461283","0.0-18.0-1.84","4662","approach_avoid_sv1","""event"",""trial"",""time""
""fullscreenenter"",""1"",""1823""
""fullscreenexit"",""16"",""96481""
","
","
","""event"",""trial"",""time""
""fullscreenenter"",""1"",""1823""
","""event"",""trial"",""time""
""fullscreenexit"",""16"",""96481""
","","","","","","1697.1000000238419","images/rodent4.png","","","memory_trial","3","maybe_new",""
"html-keyboard-response","214","461794","0.0-18.0-0.85","4662","approach_avoid_sv1","""event"",""trial"",""time""
""fullscreenenter"",""1"",""1823""
""fullscreenexit"",""16"",""96481""
","
","
","""event"",""trial"",""time""
""fullscreenenter"",""1"",""1823""
","""event"",""trial"",""time""
""fullscreenexit"",""16"",""96481""
","","","","","","null","<div style=""font-size:60px;"">+</div>","null","","fixation","","",""
"memory-trial","215","463733","0.0-18.0-1.85","4662","approach_avoid_sv1","""event"",""trial"",""time""
""fullscreenenter"",""1"",""1823""
""fullscreenexit"",""16"",""96481""
","
","
","""event"",""trial"",""time""
""fullscreenenter"",""1"",""1823""
","""event"",""trial"",""time""
""fullscreenexit"",""16"",""96481""
","","","","","","933","images/rabbit8.png","","","memory_trial","3","maybe_new",""
"html-keyboard-response","216","464235","0.0-18.0-0.86","4662","approach_avoid_sv1","""event"",""trial"",""time""
""fullscreenenter"",""1"",""1823""
""fullscreenexit"",""16"",""96481""
","
","
","""event"",""trial"",""time""
""fullscreenenter"",""1"",""1823""
","""event"",""trial"",""time""
""fullscreenexit"",""16"",""96481""
","","","","","","null","<div style=""font-size:60px;"">+</div>","null","","fixation","","",""
"memory-trial","217","466147","0.0-18.0-1.86","4662","approach_avoid_sv1","""event"",""trial"",""time""
""fullscreenenter"",""1"",""1823""
""fullscreenexit"",""16"",""96481""
","
","
","""event"",""trial"",""time""
""fullscreenenter"",""1"",""1823""
","""event"",""trial"",""time""
""fullscreenexit"",""16"",""96481""
","","","","","","903.7000000476837","images/table6.png","","","memory_trial","4","definitely_new",""
"html-keyboard-response","218","466653","0.0-18.0-0.87","4662","approach_avoid_sv1","""event"",""trial"",""time""
""fullscreenenter"",""1"",""1823""
""fullscreenexit"",""16"",""96481""
","
","
","""event"",""trial"",""time""
""fullscreenenter"",""1"",""1823""
","""event"",""trial"",""time""
""fullscreenexit"",""16"",""96481""
","","","","","","null","<div style=""font-size:60px;"">+</div>","null","","fixation","","",""
"memory-trial","219","469043","0.0-18.0-1.87","4662","approach_avoid_sv1","""event"",""trial"",""time""
""fullscreenenter"",""1"",""1823""
""fullscreenexit"",""16"",""96481""
","
","
","""event"",""trial"",""time""
""fullscreenenter"",""1"",""1823""
","""event"",""trial"",""time""
""fullscreenexit"",""16"",""96481""
","","","","","","1385.2000000476837","images/train6.png","","","memory_trial","2","maybe_old",""
"html-keyboard-response","220","469548","0.0-18.0-0.88","4662","approach_avoid_sv1","""event"",""trial"",""time""
""fullscreenenter"",""1"",""1823""
""fullscreenexit"",""16"",""96481""
","
","
","""event"",""trial"",""time""
""fullscreenenter"",""1"",""1823""
","""event"",""trial"",""time""
""fullscreenexit"",""16"",""96481""
","","","","","","null","<div style=""font-size:60px;"">+</div>","null","","fixation","","",""
"memory-trial","221","472052","0.0-18.0-1.88","4662","approach_avoid_sv1","""event"",""trial"",""time""
""fullscreenenter"",""1"",""1823""
""fullscreenexit"",""16"",""96481""
","
","
","""event"",""trial"",""time""
""fullscreenenter"",""1"",""1823""
","""event"",""trial"",""time""
""fullscreenexit"",""16"",""96481""
","","","","","","1498.3000000715256","images/goat5.png","","","memory_trial","2","maybe_old",""
"html-keyboard-response","222","472555","0.0-18.0-0.89","4662","approach_avoid_sv1","""event"",""trial"",""time""
""fullscreenenter"",""1"",""1823""
""fullscreenexit"",""16"",""96481""
","
","
","""event"",""trial"",""time""
""fullscreenenter"",""1"",""1823""
","""event"",""trial"",""time""
""fullscreenexit"",""16"",""96481""
","","","","","","null","<div style=""font-size:60px;"">+</div>","null","","fixation","","",""
"memory-trial","223","474676","0.0-18.0-1.89","4662","approach_avoid_sv1","""event"",""trial"",""time""
""fullscreenenter"",""1"",""1823""
""fullscreenexit"",""16"",""96481""
","
","
","""event"",""trial"",""time""
""fullscreenenter"",""1"",""1823""
","""event"",""trial"",""time""
""fullscreenexit"",""16"",""96481""
","","","","","","1115.2000000476837","images/orange4.png","","","memory_trial","2","maybe_old",""
"html-keyboard-response","224","475179","0.0-18.0-0.90","4662","approach_avoid_sv1","""event"",""trial"",""time""
""fullscreenenter"",""1"",""1823""
""fullscreenexit"",""16"",""96481""
","
","
","""event"",""trial"",""time""
""fullscreenenter"",""1"",""1823""
","""event"",""trial"",""time""
""fullscreenexit"",""16"",""96481""
","","","","","","null","<div style=""font-size:60px;"">+</div>","null","","fixation","","",""
"memory-trial","225","477677","0.0-18.0-1.90","4662","approach_avoid_sv1","""event"",""trial"",""time""
""fullscreenenter"",""1"",""1823""
""fullscreenexit"",""16"",""96481""
","
","
","""event"",""trial"",""time""
""fullscreenenter"",""1"",""1823""
","""event"",""trial"",""time""
""fullscreenexit"",""16"",""96481""
","","","","","","1492.6000000238419","images/straw3.png","","","memory_trial","4","definitely_new",""
"html-keyboard-response","226","478180","0.0-18.0-0.91","4662","approach_avoid_sv1","""event"",""trial"",""time""
""fullscreenenter"",""1"",""1823""
""fullscreenexit"",""16"",""96481""
","
","
","""event"",""trial"",""time""
""fullscreenenter"",""1"",""1823""
","""event"",""trial"",""time""
""fullscreenexit"",""16"",""96481""
","","","","","","null","<div style=""font-size:60px;"">+</div>","null","","fixation","","",""
"memory-trial","227","479827","0.0-18.0-1.91","4662","approach_avoid_sv1","""event"",""trial"",""time""
""fullscreenenter"",""1"",""1823""
""fullscreenexit"",""16"",""96481""
","
","
","""event"",""trial"",""time""
""fullscreenenter"",""1"",""1823""
","""event"",""trial"",""time""
""fullscreenexit"",""16"",""96481""
","","","","","","640.3000000715256","images/flower3.png","","","memory_trial","4","definitely_new",""
"html-button-response","228","482919","0.0-18.0-2.91-0.91","4662","approach_avoid_sv1","""event"",""trial"",""time""
""fullscreenenter"",""1"",""1823""
""fullscreenexit"",""16"",""96481""
","
","
","""event"",""trial"",""time""
""fullscreenenter"",""1"",""1823""
","""event"",""trial"",""time""
""fullscreenexit"",""16"",""96481""
","","","","","","3090.5","<p> Take a break! </p><p> Click the button to continue. </p>","0","","break","","",""
"html-keyboard-response","229","483428","0.0-18.0-0.92","4662","approach_avoid_sv1","""event"",""trial"",""time""
""fullscreenenter"",""1"",""1823""
""fullscreenexit"",""16"",""96481""
","
","
","""event"",""trial"",""time""
""fullscreenenter"",""1"",""1823""
","""event"",""trial"",""time""
""fullscreenexit"",""16"",""96481""
","","","","","","null","<div style=""font-size:60px;"">+</div>","null","","fixation","","",""
"memory-trial","230","485492","0.0-18.0-1.92","4662","approach_avoid_sv1","""event"",""trial"",""time""
""fullscreenenter"",""1"",""1823""
""fullscreenexit"",""16"",""96481""
","
","
","""event"",""trial"",""time""
""fullscreenenter"",""1"",""1823""
