"trial_type","trial_index","time_elapsed","internal_node_id","subject_id","task_version","interactions","blur_events","focus_events","fullscreenenter_events","fullscreenexit_events","success","timeout","failed_images","failed_audio","failed_video","rt","stimulus","response","button_pressed","task_part","key_press","answer","correct"
"pavlovia","0","3","0.0-0.0","5882","approach_avoid_sv1","""event"",""trial"",""time""
""fullscreenenter"",""1"",""4388""
","
","
","""event"",""trial"",""time""
""fullscreenenter"",""1"",""4388""
","
","","","","","","","","","","","","",""
"fullscreen","1","4914","0.0-1.0","5882","approach_avoid_sv1","""event"",""trial"",""time""
""fullscreenenter"",""1"",""4388""
","
","
","""event"",""trial"",""time""
""fullscreenenter"",""1"",""4388""
","
","true","","","","","","","","","","","",""
"preload","2","6275","0.0-2.0","5882","approach_avoid_sv1","""event"",""trial"",""time""
""fullscreenenter"",""1"",""4388""
","
","
","""event"",""trial"",""time""
""fullscreenenter"",""1"",""4388""
","
","true","false","[]","[]","[]","","","","","","","",""
"preload","3","7038","0.0-3.0","5882","approach_avoid_sv1","""event"",""trial"",""time""
""fullscreenenter"",""1"",""4388""
","
","
","""event"",""trial"",""time""
""fullscreenenter"",""1"",""4388""
","
","true","false","[]","[]","[]","","","","","","","",""
"preload","4","7607","0.0-4.0","5882","approach_avoid_sv1","""event"",""trial"",""time""
""fullscreenenter"",""1"",""4388""
","
","
","""event"",""trial"",""time""
""fullscreenenter"",""1"",""4388""
","
","true","false","[]","[]","[]","","","","","","","",""
"audio-keyboard-response","5","23402","0.0-5.0","5882","approach_avoid_sv1","""event"",""trial"",""time""
""fullscreenenter"",""1"",""4388""
","
","
","""event"",""trial"",""time""
""fullscreenenter"",""1"",""4388""
","
","","","","","","15642.666666666666","audio/beep_loop.wav"," ","","","","",""
"audio-button-response","6","25110","0.0-6.0","5882","approach_avoid_sv1","""event"",""trial"",""time""
""fullscreenenter"",""1"",""4388""
","
","
","""event"",""trial"",""time""
""fullscreenenter"",""1"",""4388""
","
","","","","","","1696","audio/turtle.wav","3","","","","",""
"audio-button-response","7","27704","0.0-7.0","5882","approach_avoid_sv1","""event"",""trial"",""time""
""fullscreenenter"",""1"",""4388""
","
","
","""event"",""trial"",""time""
""fullscreenenter"",""1"",""4388""
","
","","","","","","1589","audio/shark.wav","2","","","","",""
"preload","8","30110","0.0-8.0","5882","approach_avoid_sv1","""event"",""trial"",""time""
""fullscreenenter"",""1"",""4388""
""blur"",""9"",""154671""
""focus"",""9"",""206528""
","""event"",""trial"",""time""
""blur"",""9"",""154671""
","""event"",""trial"",""time""
""focus"",""9"",""206528""
","""event"",""trial"",""time""
""fullscreenenter"",""1"",""4388""
","
","true","false","[]","[]","[]","","","","","","","",""
"learning-instructions","9","213623","0.0-9.0-0.0","5882","approach_avoid_sv1","""event"",""trial"",""time""
""fullscreenenter"",""1"",""4388""
""blur"",""9"",""154671""
""focus"",""9"",""206528""
","""event"",""trial"",""time""
""blur"",""9"",""154671""
","""event"",""trial"",""time""
""focus"",""9"",""206528""
","""event"",""trial"",""time""
""fullscreenenter"",""1"",""4388""
","
","","","","","","179033.1000000015","<p> Welcome back! </p><p> Last week, you had to make choices about lots of different items.  </p>","","0","instructions","","",""
"learning-instructions","10","219225","0.0-9.0-0.1","5882","approach_avoid_sv1","""event"",""trial"",""time""
""fullscreenenter"",""1"",""4388""
""blur"",""9"",""154671""
""focus"",""9"",""206528""
","""event"",""trial"",""time""
""blur"",""9"",""154671""
","""event"",""trial"",""time""
""focus"",""9"",""206528""
","""event"",""trial"",""time""
""fullscreenenter"",""1"",""4388""
","
","","","","","","1275","<p> Today, we are going to ask you to try to remember all the items. </p>","","0","instructions","","",""
"learning-instructions","11","232208","0.0-9.0-0.2","5882","approach_avoid_sv1","""event"",""trial"",""time""
""fullscreenenter"",""1"",""4388""
""blur"",""9"",""154671""
""focus"",""9"",""206528""
","""event"",""trial"",""time""
""blur"",""9"",""154671""
","""event"",""trial"",""time""
""focus"",""9"",""206528""
","""event"",""trial"",""time""
""fullscreenenter"",""1"",""4388""
","
","","","","","","2834.0999999940395","<p> On every trial, you will see an image. </p><p> The image may be an OLD image you saw during the games last week or it may be a NEW image that was not presented. </p>","","0","instructions","","",""
"learning-instructions","12","281779","0.0-9.0-0.3","5882","approach_avoid_sv1","""event"",""trial"",""time""
""fullscreenenter"",""1"",""4388""
""blur"",""9"",""154671""
""focus"",""9"",""206528""
","""event"",""trial"",""time""
""blur"",""9"",""154671""
","""event"",""trial"",""time""
""focus"",""9"",""206528""
","""event"",""trial"",""time""
""fullscreenenter"",""1"",""4388""
","
","","","","","","41065.69999999553","<p> You need to select whether the image is:  </p><p>  'Definitely old', 'Maybe old', 'Maybe new', or 'Definitely new.'  </p><div class=""mem-choice-instructions-grid""><div class=""choice-option"" id=""choice-option-1"" ><img src=""images/definitely_old_1.png"" id=""choice-option-img-1"" class=""choice-option-img"" stage=""1""></div><div class=""choice-option"" id=""choice-option-2"" ><img src=""images/maybe_old_1.png"" id=""choice-option-img-2"" class=""choice-option-img"" stage=""1""></div><div class=""choice-option"" id=""choice-option-3"" ><img src=""images/maybe_new_1.png"" id=""choice-option-img-3"" class=""choice-option-img"" stage=""1""></div><div class=""choice-option"" id=""choice-option-4"" > <img src=""images/definitely_new_1.png"" id=""choice-option-img-4"" class=""choice-option-img"" stage=""1""></div></div>","","0","instructions","","",""
"learning-instructions","13","299512","0.0-9.0-0.4","5882","approach_avoid_sv1","""event"",""trial"",""time""
""fullscreenenter"",""1"",""4388""
""blur"",""9"",""154671""
""focus"",""9"",""206528""
","""event"",""trial"",""time""
""blur"",""9"",""154671""
","""event"",""trial"",""time""
""focus"",""9"",""206528""
","""event"",""trial"",""time""
""fullscreenenter"",""1"",""4388""
","
","","","","","","10580.20000000298","<p> You should use the 1, 2, 3, and 4 keys to make your responses.  </p><div class=""mem-choice-instructions-grid""><div class=""choice-option"" id=""choice-option-1"" ><img src=""images/definitely_old.png"" id=""choice-option-img-1"" class=""choice-option-img"" stage=""1""></div><div class=""choice-option"" id=""choice-option-2"" ><img src=""images/maybe_old.png"" id=""choice-option-img-2"" class=""choice-option-img"" stage=""1""></div><div class=""choice-option"" id=""choice-option-3"" ><img src=""images/maybe_new.png"" id=""choice-option-img-3"" class=""choice-option-img"" stage=""1""></div><div class=""choice-option"" id=""choice-option-4"" > <img src=""images/definitely_new.png"" id=""choice-option-img-4"" class=""choice-option-img"" stage=""1""></div></div>","","0","instructions","","",""
"learning-instructions","14","315357","0.0-9.0-0.5","5882","approach_avoid_sv1","""event"",""trial"",""time""
""fullscreenenter"",""1"",""4388""
""blur"",""9"",""154671""
""focus"",""9"",""206528""
","""event"",""trial"",""time""
""blur"",""9"",""154671""
","""event"",""trial"",""time""
""focus"",""9"",""206528""
","""event"",""trial"",""time""
""fullscreenenter"",""1"",""4388""
","
","","","","","","9503.59999999404","<p> You will have 10 seconds to make each response.  </p><p>  Make sure to respond before time runs out! </p>","","0","instructions","","",""
"learning-instructions","15","322889","0.0-9.0-0.6","5882","approach_avoid_sv1","""event"",""trial"",""time""
""fullscreenenter"",""1"",""4388""
""blur"",""9"",""154671""
""focus"",""9"",""206528""
","""event"",""trial"",""time""
""blur"",""9"",""154671""
","""event"",""trial"",""time""
""focus"",""9"",""206528""
","""event"",""trial"",""time""
""fullscreenenter"",""1"",""4388""
","
","","","","","","453.69999999552965","<p> Today, you will see each image ONCE only.  </p><p>  That means none of the images will repeat. </p>","","0","instructions","","",""
"learning-instructions","16","336124","0.0-9.0-0.7","5882","approach_avoid_sv1","""event"",""trial"",""time""
""fullscreenenter"",""1"",""4388""
""blur"",""9"",""154671""
""focus"",""9"",""206528""
","""event"",""trial"",""time""
""blur"",""9"",""154671""
","""event"",""trial"",""time""
""focus"",""9"",""206528""
","""event"",""trial"",""time""
""fullscreenenter"",""1"",""4388""
","
","","","","","","557.8999999985099","<p> Before you play the real game, it is time to practice. </p><p>  Just like in the real game, some of the images in the practice will be ones you have seen before. </p><p>  Others will be entirely new. </p>","","0","instructions","","",""
"html-button-response","17","338060","0.0-10.0","5882","approach_avoid_sv1","""event"",""trial"",""time""
""fullscreenenter"",""1"",""4388""
""blur"",""9"",""154671""
""focus"",""9"",""206528""
","""event"",""trial"",""time""
""blur"",""9"",""154671""
","""event"",""trial"",""time""
""focus"",""9"",""206528""
","""event"",""trial"",""time""
""fullscreenenter"",""1"",""4388""
","
","","","","","","1829.6999999955297","<p> Ready to practice? </p><p> Remember, use the 1, 2, 3, and 4 keys to make your responses. </p>","0","","instructions","","",""
"html-keyboard-response","18","338673","0.0-11.0-0.0","5882","approach_avoid_sv1","""event"",""trial"",""time""
""fullscreenenter"",""1"",""4388""
""blur"",""9"",""154671""
""focus"",""9"",""206528""
","""event"",""trial"",""time""
""blur"",""9"",""154671""
","""event"",""trial"",""time""
""focus"",""9"",""206528""
","""event"",""trial"",""time""
""fullscreenenter"",""1"",""4388""
","
","","","","","","null","<div style=""font-size:60px;"">+</div>","null","","fixation","","",""
"memory-trial","19","345170","0.0-11.0-1.0","5882","approach_avoid_sv1","""event"",""trial"",""time""
""fullscreenenter"",""1"",""4388""
""blur"",""9"",""154671""
""focus"",""9"",""206528""
","""event"",""trial"",""time""
""blur"",""9"",""154671""
","""event"",""trial"",""time""
""focus"",""9"",""206528""
","""event"",""trial"",""time""
""fullscreenenter"",""1"",""4388""
","
","","","","","","5491.70000000298","images/racket1.png","","","practice","4","definitely_new",""
"html-keyboard-response","20","345673","0.0-11.0-0.1","5882","approach_avoid_sv1","""event"",""trial"",""time""
""fullscreenenter"",""1"",""4388""
""blur"",""9"",""154671""
""focus"",""9"",""206528""
","""event"",""trial"",""time""
""blur"",""9"",""154671""
","""event"",""trial"",""time""
""focus"",""9"",""206528""
","""event"",""trial"",""time""
""fullscreenenter"",""1"",""4388""
","
","","","","","","null","<div style=""font-size:60px;"">+</div>","null","","fixation","","",""
"memory-trial","21","348554","0.0-11.0-1.1","5882","approach_avoid_sv1","""event"",""trial"",""time""
""fullscreenenter"",""1"",""4388""
""blur"",""9"",""154671""
""focus"",""9"",""206528""
","""event"",""trial"",""time""
""blur"",""9"",""154671""
","""event"",""trial"",""time""
""focus"",""9"",""206528""
","""event"",""trial"",""time""
""fullscreenenter"",""1"",""4388""
","
","","","","","","1877.2999999970198","images/racket3.png","","","practice","4","definitely_new",""
"html-keyboard-response","22","349057","0.0-11.0-0.2","5882","approach_avoid_sv1","""event"",""trial"",""time""
""fullscreenenter"",""1"",""4388""
""blur"",""9"",""154671""
""focus"",""9"",""206528""
","""event"",""trial"",""time""
""blur"",""9"",""154671""
","""event"",""trial"",""time""
""focus"",""9"",""206528""
","""event"",""trial"",""time""
""fullscreenenter"",""1"",""4388""
","
","","","","","","null","<div style=""font-size:60px;"">+</div>","null","","fixation","","",""
"memory-trial","23","350945","0.0-11.0-1.2","5882","approach_avoid_sv1","""event"",""trial"",""time""
""fullscreenenter"",""1"",""4388""
""blur"",""9"",""154671""
""focus"",""9"",""206528""
","""event"",""trial"",""time""
""blur"",""9"",""154671""
","""event"",""trial"",""time""
""focus"",""9"",""206528""
","""event"",""trial"",""time""
""fullscreenenter"",""1"",""4388""
","
","","","","","","885","images/racket2.png","","","practice","4","definitely_new",""
"html-keyboard-response","24","351449","0.0-11.0-0.3","5882","approach_avoid_sv1","""event"",""trial"",""time""
""fullscreenenter"",""1"",""4388""
""blur"",""9"",""154671""
""focus"",""9"",""206528""
","""event"",""trial"",""time""
""blur"",""9"",""154671""
","""event"",""trial"",""time""
""focus"",""9"",""206528""
","""event"",""trial"",""time""
""fullscreenenter"",""1"",""4388""
","
","","","","","","null","<div style=""font-size:60px;"">+</div>","null","","fixation","","",""
"memory-trial","25","353805","0.0-11.0-1.3","5882","approach_avoid_sv1","""event"",""trial"",""time""
""fullscreenenter"",""1"",""4388""
""blur"",""9"",""154671""
""focus"",""9"",""206528""
","""event"",""trial"",""time""
""blur"",""9"",""154671""
","""event"",""trial"",""time""
""focus"",""9"",""206528""
","""event"",""trial"",""time""
""fullscreenenter"",""1"",""4388""
","
","","","","","","1350.6999999955297","images/racket5.png","","","practice","4","definitely_new",""
"html-keyboard-response","26","354313","0.0-11.0-0.4","5882","approach_avoid_sv1","""event"",""trial"",""time""
""fullscreenenter"",""1"",""4388""
""blur"",""9"",""154671""
""focus"",""9"",""206528""
","""event"",""trial"",""time""
""blur"",""9"",""154671""
","""event"",""trial"",""time""
""focus"",""9"",""206528""
","""event"",""trial"",""time""
""fullscreenenter"",""1"",""4388""
","
","","","","","","null","<div style=""font-size:60px;"">+</div>","null","","fixation","","",""
"memory-trial","27","358553","0.0-11.0-1.4","5882","approach_avoid_sv1","""event"",""trial"",""time""
""fullscreenenter"",""1"",""4388""
""blur"",""9"",""154671""
""focus"",""9"",""206528""
","""event"",""trial"",""time""
""blur"",""9"",""154671""
","""event"",""trial"",""time""
""focus"",""9"",""206528""
","""event"",""trial"",""time""
""fullscreenenter"",""1"",""4388""
","
","","","","","","3233.0999999940395","images/ball2.png","","","practice","2","maybe_old",""
"html-keyboard-response","28","359057","0.0-11.0-0.5","5882","approach_avoid_sv1","""event"",""trial"",""time""
""fullscreenenter"",""1"",""4388""
""blur"",""9"",""154671""
""focus"",""9"",""206528""
","""event"",""trial"",""time""
""blur"",""9"",""154671""
","""event"",""trial"",""time""
""focus"",""9"",""206528""
","""event"",""trial"",""time""
""fullscreenenter"",""1"",""4388""
","
","","","","","","null","<div style=""font-size:60px;"">+</div>","null","","fixation","","",""
"memory-trial","29","362913","0.0-11.0-1.5","5882","approach_avoid_sv1","""event"",""trial"",""time""
""fullscreenenter"",""1"",""4388""
""blur"",""9"",""154671""
""focus"",""9"",""206528""
","""event"",""trial"",""time""
""blur"",""9"",""154671""
","""event"",""trial"",""time""
""focus"",""9"",""206528""
","""event"",""trial"",""time""
""fullscreenenter"",""1"",""4388""
","
","","","","","","2850.10000000149","images/ball3.png","","","practice","4","definitely_new",""
"html-keyboard-response","30","363420","0.0-11.0-0.6","5882","approach_avoid_sv1","""event"",""trial"",""time""
""fullscreenenter"",""1"",""4388""
""blur"",""9"",""154671""
""focus"",""9"",""206528""
","""event"",""trial"",""time""
""blur"",""9"",""154671""
","""event"",""trial"",""time""
""focus"",""9"",""206528""
","""event"",""trial"",""time""
""fullscreenenter"",""1"",""4388""
","
","","","","","","null","<div style=""font-size:60px;"">+</div>","null","","fixation","","",""
"memory-trial","31","365571","0.0-11.0-1.6","5882","approach_avoid_sv1","""event"",""trial"",""time""
""fullscreenenter"",""1"",""4388""
""blur"",""9"",""154671""
""focus"",""9"",""206528""
","""event"",""trial"",""time""
""blur"",""9"",""154671""
","""event"",""trial"",""time""
""focus"",""9"",""206528""
","""event"",""trial"",""time""
""fullscreenenter"",""1"",""4388""
","
","","","","","","1143.5","images/ball5.png","","","practice","2","maybe_old",""
"html-keyboard-response","32","366073","0.0-11.0-0.7","5882","approach_avoid_sv1","""event"",""trial"",""time""
""fullscreenenter"",""1"",""4388""
""blur"",""9"",""154671""
""focus"",""9"",""206528""
","""event"",""trial"",""time""
""blur"",""9"",""154671""
","""event"",""trial"",""time""
""focus"",""9"",""206528""
","""event"",""trial"",""time""
""fullscreenenter"",""1"",""4388""
","
","","","","","","null","<div style=""font-size:60px;"">+</div>","null","","fixation","","",""
"memory-trial","33","368196","0.0-11.0-1.7","5882","approach_avoid_sv1","""event"",""trial"",""time""
""fullscreenenter"",""1"",""4388""
""blur"",""9"",""154671""
""focus"",""9"",""206528""
","""event"",""trial"",""time""
""blur"",""9"",""154671""
","""event"",""trial"",""time""
""focus"",""9"",""206528""
","""event"",""trial"",""time""
""fullscreenenter"",""1"",""4388""
","
","","","","","","1114.7999999970198","images/ball1.png","","","practice","3","maybe_new",""
"learning-instructions","34","376574","0.0-12.0-0.0","5882","approach_avoid_sv1","""event"",""trial"",""time""
""fullscreenenter"",""1"",""4388""
""blur"",""9"",""154671""
""focus"",""9"",""206528""
","""event"",""trial"",""time""
""blur"",""9"",""154671""
","""event"",""trial"",""time""
""focus"",""9"",""206528""
","""event"",""trial"",""time""
""fullscreenenter"",""1"",""4388""
","
","","","","","","861.6999999955297","<p> Great! You have completed the practice. </p><p> Before you start, we're going to ask you a few questions about how the game works.  </p>","","0","instructions","","",""
"preload","35","378414","0.0-13.0","5882","approach_avoid_sv1","""event"",""trial"",""time""
""fullscreenenter"",""1"",""4388""
""blur"",""9"",""154671""
""focus"",""9"",""206528""
","""event"",""trial"",""time""
""blur"",""9"",""154671""
","""event"",""trial"",""time""
""focus"",""9"",""206528""
","""event"",""trial"",""time""
""fullscreenenter"",""1"",""4388""
","
","true","false","[]","[]","[]","","","","","","","",""
"comp-q","36","385697","0.0-14.0-0.0","5882","approach_avoid_sv1","""event"",""trial"",""time""
""fullscreenenter"",""1"",""4388""
""blur"",""9"",""154671""
""focus"",""9"",""206528""
","""event"",""trial"",""time""
""blur"",""9"",""154671""
","""event"",""trial"",""time""
""focus"",""9"",""206528""
","""event"",""trial"",""time""
""fullscreenenter"",""1"",""4388""
","
","","","","","","1456.2999999970198","<p> <b> True or False? </b> </p><p> In this game, you will only see each image once. </p>","","0","comp_question","","","true"
"comp-q","37","392792","0.0-14.0-1.0","5882","approach_avoid_sv1","""event"",""trial"",""time""
""fullscreenenter"",""1"",""4388""
""blur"",""9"",""154671""
""focus"",""9"",""206528""
","""event"",""trial"",""time""
""blur"",""9"",""154671""
","""event"",""trial"",""time""
""focus"",""9"",""206528""
","""event"",""trial"",""time""
""fullscreenenter"",""1"",""4388""
","
","","","","","","759.1999999955297","<p> <b> That's right! </b> You will see many different images <i> one time each </i> in this game. </p>","","0","comp_answer","","",""
"comp-q","38","399357","0.0-15.0-0.0","5882","approach_avoid_sv1","""event"",""trial"",""time""
""fullscreenenter"",""1"",""4388""
""blur"",""9"",""154671""
""focus"",""9"",""206528""
","""event"",""trial"",""time""
""blur"",""9"",""154671""
","""event"",""trial"",""time""
""focus"",""9"",""206528""
","""event"",""trial"",""time""
""fullscreenenter"",""1"",""4388""
","
","","","","","","1559.6000000014901","<p> <b> True or False? </b> </p><p> You should use the mouse and click to make your response. </p>","","1","comp_question","","","true"
"comp-q","39","406763","0.0-15.0-1.0","5882","approach_avoid_sv1","""event"",""trial"",""time""
""fullscreenenter"",""1"",""4388""
""blur"",""9"",""154671""
""focus"",""9"",""206528""
","""event"",""trial"",""time""
""blur"",""9"",""154671""
","""event"",""trial"",""time""
""focus"",""9"",""206528""
","""event"",""trial"",""time""
""fullscreenenter"",""1"",""4388""
","
","","","","","","885.3000000044703","<p><b> That's right! </b> You should use the '1', '2', '3', and '4' keys to make your response. </p>","","0","comp_answer","","",""
"comp-q","40","413286","0.0-16.0-0.0","5882","approach_avoid_sv1","""event"",""trial"",""time""
""fullscreenenter"",""1"",""4388""
""blur"",""9"",""154671""
""focus"",""9"",""206528""
","""event"",""trial"",""time""
""blur"",""9"",""154671""
","""event"",""trial"",""time""
""focus"",""9"",""206528""
","""event"",""trial"",""time""
""fullscreenenter"",""1"",""4388""
","
","","","","","","848.3000000044703","<p> <b> True or False? </b> </p><p> You will have as much time as you want to make each choice. </p>","","1","comp_question","","","true"
"comp-q","41","418855","0.0-16.0-1.0","5882","approach_avoid_sv1","""event"",""trial"",""time""
""fullscreenenter"",""1"",""4388""
""blur"",""9"",""154671""
""focus"",""9"",""206528""
","""event"",""trial"",""time""
""blur"",""9"",""154671""
","""event"",""trial"",""time""
""focus"",""9"",""206528""
","""event"",""trial"",""time""
""fullscreenenter"",""1"",""4388""
","
","","","","","","865.3999999985099","<p> <b> That's right! </b> You will only have 10 seconds to make each choice. </p>","","0","comp_answer","","",""
"learning-instructions","42","429257","0.0-17.0","5882","approach_avoid_sv1","""event"",""trial"",""time""
""fullscreenenter"",""1"",""4388""
""blur"",""9"",""154671""
""focus"",""9"",""206528""
","""event"",""trial"",""time""
""blur"",""9"",""154671""
","""event"",""trial"",""time""
""focus"",""9"",""206528""
","""event"",""trial"",""time""
""fullscreenenter"",""1"",""4388""
","
","","","","","","1720.3000000044703","<p> Great! You are now ready to begin the game. </p><p> Remember, use the 1, 2, 3, and 4 keys to make your responses. </p>","","0","instructions","","",""
"html-keyboard-response","43","429873","0.0-18.0-0.0","5882","approach_avoid_sv1","""event"",""trial"",""time""
""fullscreenenter"",""1"",""4388""
""blur"",""9"",""154671""
""focus"",""9"",""206528""
","""event"",""trial"",""time""
""blur"",""9"",""154671""
","""event"",""trial"",""time""
""focus"",""9"",""206528""
","""event"",""trial"",""time""
""fullscreenenter"",""1"",""4388""
","
","","","","","","null","<div style=""font-size:60px;"">+</div>","null","","fixation","","",""
"memory-trial","44","433339","0.0-18.0-1.0","5882","approach_avoid_sv1","""event"",""trial"",""time""
""fullscreenenter"",""1"",""4388""
""blur"",""9"",""154671""
""focus"",""9"",""206528""
","""event"",""trial"",""time""
""blur"",""9"",""154671""
","""event"",""trial"",""time""
""focus"",""9"",""206528""
","""event"",""trial"",""time""
""fullscreenenter"",""1"",""4388""
","
","","","","","","2457","images/bush4.png","","","memory_trial","2","maybe_old",""
"html-keyboard-response","45","433842","0.0-18.0-0.1","5882","approach_avoid_sv1","""event"",""trial"",""time""
""fullscreenenter"",""1"",""4388""
""blur"",""9"",""154671""
""focus"",""9"",""206528""
","""event"",""trial"",""time""
""blur"",""9"",""154671""
","""event"",""trial"",""time""
""focus"",""9"",""206528""
","""event"",""trial"",""time""
""fullscreenenter"",""1"",""4388""
","
","","","","","","null","<div style=""font-size:60px;"">+</div>","null","","fixation","","",""
"memory-trial","46","437228","0.0-18.0-1.1","5882","approach_avoid_sv1","""event"",""trial"",""time""
""fullscreenenter"",""1"",""4388""
""blur"",""9"",""154671""
""focus"",""9"",""206528""
","""event"",""trial"",""time""
""blur"",""9"",""154671""
","""event"",""trial"",""time""
""focus"",""9"",""206528""
","""event"",""trial"",""time""
""fullscreenenter"",""1"",""4388""
","
","","","","","","2381","images/chair6.png","","","memory_trial","3","maybe_new",""
"html-keyboard-response","47","437733","0.0-18.0-0.2","5882","approach_avoid_sv1","""event"",""trial"",""time""
""fullscreenenter"",""1"",""4388""
""blur"",""9"",""154671""
""focus"",""9"",""206528""
","""event"",""trial"",""time""
""blur"",""9"",""154671""
","""event"",""trial"",""time""
""focus"",""9"",""206528""
","""event"",""trial"",""time""
""fullscreenenter"",""1"",""4388""
","
","","","","","","null","<div style=""font-size:60px;"">+</div>","null","","fixation","","",""
"memory-trial","48","440645","0.0-18.0-1.2","5882","approach_avoid_sv1","""event"",""trial"",""time""
""fullscreenenter"",""1"",""4388""
""blur"",""9"",""154671""
""focus"",""9"",""206528""
","""event"",""trial"",""time""
""blur"",""9"",""154671""
","""event"",""trial"",""time""
""focus"",""9"",""206528""
","""event"",""trial"",""time""
""fullscreenenter"",""1"",""4388""
","
","","","","","","1903","images/banana3.png","","","memory_trial","2","maybe_old",""
"html-keyboard-response","49","441157","0.0-18.0-0.3","5882","approach_avoid_sv1","""event"",""trial"",""time""
""fullscreenenter"",""1"",""4388""
""blur"",""9"",""154671""
""focus"",""9"",""206528""
","""event"",""trial"",""time""
""blur"",""9"",""154671""
","""event"",""trial"",""time""
""focus"",""9"",""206528""
","""event"",""trial"",""time""
""fullscreenenter"",""1"",""4388""
","
","","","","","","null","<div style=""font-size:60px;"">+</div>","null","","fixation","","",""
"memory-trial","50","443782","0.0-18.0-1.3","5882","approach_avoid_sv1","""event"",""trial"",""time""
""fullscreenenter"",""1"",""4388""
""blur"",""9"",""154671""
""focus"",""9"",""206528""
","""event"",""trial"",""time""
""blur"",""9"",""154671""
","""event"",""trial"",""time""
""focus"",""9"",""206528""
","""event"",""trial"",""time""
""fullscreenenter"",""1"",""4388""
","
","","","","","","1611","images/cat7.png","","","memory_trial","1","definitely_old",""
"html-keyboard-response","51","444293","0.0-18.0-0.4","5882","approach_avoid_sv1","""event"",""trial"",""time""
""fullscreenenter"",""1"",""4388""
""blur"",""9"",""154671""
""focus"",""9"",""206528""
","""event"",""trial"",""time""
""blur"",""9"",""154671""
","""event"",""trial"",""time""
""focus"",""9"",""206528""
","""event"",""trial"",""time""
""fullscreenenter"",""1"",""4388""
","
","","","","","","null","<div style=""font-size:60px;"">+</div>","null","","fixation","","",""
"memory-trial","52","447993","0.0-18.0-1.4","5882","approach_avoid_sv1","""event"",""trial"",""time""
""fullscreenenter"",""1"",""4388""
""blur"",""9"",""154671""
""focus"",""9"",""206528""
","""event"",""trial"",""time""
""blur"",""9"",""154671""
","""event"",""trial"",""time""
""focus"",""9"",""206528""
","""event"",""trial"",""time""
""fullscreenenter"",""1"",""4388""
","
","","","","","","2696.6999999955297","images/orange2.png","","","memory_trial","3","maybe_new",""
"html-keyboard-response","53","448501","0.0-18.0-0.5","5882","approach_avoid_sv1","""event"",""trial"",""time""
""fullscreenenter"",""1"",""4388""
""blur"",""9"",""154671""
""focus"",""9"",""206528""
","""event"",""trial"",""time""
""blur"",""9"",""154671""
","""event"",""trial"",""time""
""focus"",""9"",""206528""
","""event"",""trial"",""time""
""fullscreenenter"",""1"",""4388""
","
","","","","","","null","<div style=""font-size:60px;"">+</div>","null","","fixation","","",""
"memory-trial","54","450778","0.0-18.0-1.5","5882","approach_avoid_sv1","""event"",""trial"",""time""
""fullscreenenter"",""1"",""4388""
""blur"",""9"",""154671""
""focus"",""9"",""206528""
","""event"",""trial"",""time""
""blur"",""9"",""154671""
","""event"",""trial"",""time""
""focus"",""9"",""206528""
","""event"",""trial"",""time""
""fullscreenenter"",""1"",""4388""
","
","","","","","","1271.1999999955297","images/dog5.png","","","memory_trial","1","definitely_old",""
"html-keyboard-response","55","451285","0.0-18.0-0.6","5882","approach_avoid_sv1","""event"",""trial"",""time""
""fullscreenenter"",""1"",""4388""
""blur"",""9"",""154671""
""focus"",""9"",""206528""
","""event"",""trial"",""time""
""blur"",""9"",""154671""
","""event"",""trial"",""time""
""focus"",""9"",""206528""
","""event"",""trial"",""time""
""fullscreenenter"",""1"",""4388""
","
","","","","","","null","<div style=""font-size:60px;"">+</div>","null","","fixation","","",""
"memory-trial","56","453083","0.0-18.0-1.6","5882","approach_avoid_sv1","""event"",""trial"",""time""
""fullscreenenter"",""1"",""4388""
""blur"",""9"",""154671""
""focus"",""9"",""206528""
","""event"",""trial"",""time""
""blur"",""9"",""154671""
","""event"",""trial"",""time""
""focus"",""9"",""206528""
","""event"",""trial"",""time""
""fullscreenenter"",""1"",""4388""
","
","","","","","","789.5","images/sheep4.png","","","memory_trial","1","definitely_old",""
"html-keyboard-response","57","453588","0.0-18.0-0.7","5882","approach_avoid_sv1","""event"",""trial"",""time""
""fullscreenenter"",""1"",""4388""
""blur"",""9"",""154671""
""focus"",""9"",""206528""
","""event"",""trial"",""time""
""blur"",""9"",""154671""
","""event"",""trial"",""time""
""focus"",""9"",""206528""
","""event"",""trial"",""time""
""fullscreenenter"",""1"",""4388""
","
","","","","","","null","<div style=""font-size:60px;"">+</div>","null","","fixation","","",""
"memory-trial","58","456325","0.0-18.0-1.7","5882","approach_avoid_sv1","""event"",""trial"",""time""
""fullscreenenter"",""1"",""4388""
""blur"",""9"",""154671""
""focus"",""9"",""206528""
","""event"",""trial"",""time""
""blur"",""9"",""154671""
","""event"",""trial"",""time""
""focus"",""9"",""206528""
","""event"",""trial"",""time""
""fullscreenenter"",""1"",""4388""
","
","","","","","","1728.8000000044703","images/apple3.png","","","memory_trial","4","definitely_new",""
"html-keyboard-response","59","456834","0.0-18.0-0.8","5882","approach_avoid_sv1","""event"",""trial"",""time""
""fullscreenenter"",""1"",""4388""
""blur"",""9"",""154671""
""focus"",""9"",""206528""
","""event"",""trial"",""time""
""blur"",""9"",""154671""
","""event"",""trial"",""time""
""focus"",""9"",""206528""
","""event"",""trial"",""time""
""fullscreenenter"",""1"",""4388""
","
","","","","","","null","<div style=""font-size:60px;"">+</div>","null","","fixation","","",""
"memory-trial","60","459858","0.0-18.0-1.8","5882","approach_avoid_sv1","""event"",""trial"",""time""
""fullscreenenter"",""1"",""4388""
""blur"",""9"",""154671""
""focus"",""9"",""206528""
","""event"",""trial"",""time""
""blur"",""9"",""154671""
","""event"",""trial"",""time""
""focus"",""9"",""206528""
","""event"",""trial"",""time""
""fullscreenenter"",""1"",""4388""
","
","","","","","","2016.6000000014901","images/orange4.png","","","memory_trial","2","maybe_old",""
"html-keyboard-response","61","460364","0.0-18.0-0.9","5882","approach_avoid_sv1","""event"",""trial"",""time""
""fullscreenenter"",""1"",""4388""
""blur"",""9"",""154671""
""focus"",""9"",""206528""
","""event"",""trial"",""time""
""blur"",""9"",""154671""
","""event"",""trial"",""time""
""focus"",""9"",""206528""
","""event"",""trial"",""time""
""fullscreenenter"",""1"",""4388""
","
","","","","","","null","<div style=""font-size:60px;"">+</div>","null","","fixation","","",""
"memory-trial","62","462385","0.0-18.0-1.9","5882","approach_avoid_sv1","""event"",""trial"",""time""
""fullscreenenter"",""1"",""4388""
""blur"",""9"",""154671""
""focus"",""9"",""206528""
","""event"",""trial"",""time""
""blur"",""9"",""154671""
","""event"",""trial"",""time""
""focus"",""9"",""206528""
","""event"",""trial"",""time""
""fullscreenenter"",""1"",""4388""
","
","","","","","","1013.8999999985099","images/bush8.png","","","memory_trial","1","definitely_old",""
"html-keyboard-response","63","462892","0.0-18.0-0.10","5882","approach_avoid_sv1","""event"",""trial"",""time""
""fullscreenenter"",""1"",""4388""
""blur"",""9"",""154671""
""focus"",""9"",""206528""
","""event"",""trial"",""time""
""blur"",""9"",""154671""
","""event"",""trial"",""time""
""focus"",""9"",""206528""
","""event"",""trial"",""time""
""fullscreenenter"",""1"",""4388""
","
","","","","","","null","<div style=""font-size:60px;"">+</div>","null","","fixation","","",""
"memory-trial","64","465580","0.0-18.0-1.10","5882","approach_avoid_sv1","""event"",""trial"",""time""
""fullscreenenter"",""1"",""4388""
""blur"",""9"",""154671""
""focus"",""9"",""206528""
","""event"",""trial"",""time""
""blur"",""9"",""154671""
","""event"",""trial"",""time""
""focus"",""9"",""206528""
","""event"",""trial"",""time""
""fullscreenenter"",""1"",""4388""
","
","","","","","","1679.3999999985099","images/goat2.png","","","memory_trial","2","maybe_old",""
"html-keyboard-response","65","466092","0.0-18.0-0.11","5882","approach_avoid_sv1","""event"",""trial"",""time""
""fullscreenenter"",""1"",""4388""
""blur"",""9"",""154671""
""focus"",""9"",""206528""
","""event"",""trial"",""time""
""blur"",""9"",""154671""
","""event"",""trial"",""time""
""focus"",""9"",""206528""
","""event"",""trial"",""time""
""fullscreenenter"",""1"",""4388""
","
","","","","","","null","<div style=""font-size:60px;"">+</div>","null","","fixation","","",""
"memory-trial","66","468193","0.0-18.0-1.11","5882","approach_avoid_sv1","""event"",""trial"",""time""
""fullscreenenter"",""1"",""4388""
""blur"",""9"",""154671""
""focus"",""9"",""206528""
","""event"",""trial"",""time""
""blur"",""9"",""154671""
","""event"",""trial"",""time""
""focus"",""9"",""206528""
","""event"",""trial"",""time""
""fullscreenenter"",""1"",""4388""
","
","","","","","","1097","images/train8.png","","","memory_trial","1","definitely_old",""
"html-keyboard-response","67","468700","0.0-18.0-0.12","5882","approach_avoid_sv1","""event"",""trial"",""time""
""fullscreenenter"",""1"",""4388""
""blur"",""9"",""154671""
""focus"",""9"",""206528""
","""event"",""trial"",""time""
""blur"",""9"",""154671""
","""event"",""trial"",""time""
""focus"",""9"",""206528""
","""event"",""trial"",""time""
""fullscreenenter"",""1"",""4388""
","
","","","","","","null","<div style=""font-size:60px;"">+</div>","null","","fixation","","",""
"memory-trial","68","470828","0.0-18.0-1.12","5882","approach_avoid_sv1","""event"",""trial"",""time""
""fullscreenenter"",""1"",""4388""
""blur"",""9"",""154671""
""focus"",""9"",""206528""
","""event"",""trial"",""time""
""blur"",""9"",""154671""
","""event"",""trial"",""time""
""focus"",""9"",""206528""
","""event"",""trial"",""time""
""fullscreenenter"",""1"",""4388""
","
","","","","","","1117.5","images/boat6.png","","","memory_trial","2","maybe_old",""
"html-keyboard-response","69","471340","0.0-18.0-0.13","5882","approach_avoid_sv1","""event"",""trial"",""time""
""fullscreenenter"",""1"",""4388""
""blur"",""9"",""154671""
""focus"",""9"",""206528""
","""event"",""trial"",""time""
""blur"",""9"",""154671""
","""event"",""trial"",""time""
""focus"",""9"",""206528""
","""event"",""trial"",""time""
""fullscreenenter"",""1"",""4388""
","
","","","","","","null","<div style=""font-size:60px;"">+</div>","null","","fixation","","",""
"memory-trial","70","473106","0.0-18.0-1.13","5882","approach_avoid_sv1","""event"",""trial"",""time""
""fullscreenenter"",""1"",""4388""
""blur"",""9"",""154671""
""focus"",""9"",""206528""
","""event"",""trial"",""time""
""blur"",""9"",""154671""
","""event"",""trial"",""time""
""focus"",""9"",""206528""
","""event"",""trial"",""time""
""fullscreenenter"",""1"",""4388""
","
","","","","","","759.5","images/sheep1.png","","","memory_trial","1","definitely_old",""
"html-keyboard-response","71","473612","0.0-18.0-0.14","5882","approach_avoid_sv1","""event"",""trial"",""time""
""fullscreenenter"",""1"",""4388""
""blur"",""9"",""154671""
""focus"",""9"",""206528""
","""event"",""trial"",""time""
""blur"",""9"",""154671""
","""event"",""trial"",""time""
""focus"",""9"",""206528""
","""event"",""trial"",""time""
""fullscreenenter"",""1"",""4388""
","
","","","","","","null","<div style=""font-size:60px;"">+</div>","null","","fixation","","",""
"memory-trial","72","475601","0.0-18.0-1.14","5882","approach_avoid_sv1","""event"",""trial"",""time""
""fullscreenenter"",""1"",""4388""
""blur"",""9"",""154671""
""focus"",""9"",""206528""
","""event"",""trial"",""time""
""blur"",""9"",""154671""
","""event"",""trial"",""time""
""focus"",""9"",""206528""
","""event"",""trial"",""time""
""fullscreenenter"",""1"",""4388""
","
","","","","","","979.6999999955297","images/cactus8.png","","","memory_trial","1","definitely_old",""
"html-keyboard-response","73","476108","0.0-18.0-0.15","5882","approach_avoid_sv1","""event"",""trial"",""time""
""fullscreenenter"",""1"",""4388""
""blur"",""9"",""154671""
""focus"",""9"",""206528""
","""event"",""trial"",""time""
""blur"",""9"",""154671""
","""event"",""trial"",""time""
""focus"",""9"",""206528""
","""event"",""trial"",""time""
""fullscreenenter"",""1"",""4388""
","
","","","","","","null","<div style=""font-size:60px;"">+</div>","null","","fixation","","",""
"memory-trial","74","477964","0.0-18.0-1.15","5882","approach_avoid_sv1","""event"",""trial"",""time""
""fullscreenenter"",""1"",""4388""
""blur"",""9"",""154671""
""focus"",""9"",""206528""
","""event"",""trial"",""time""
""blur"",""9"",""154671""
","""event"",""trial"",""time""
""focus"",""9"",""206528""
","""event"",""trial"",""time""
""fullscreenenter"",""1"",""4388""
","
","","","","","","844.7000000029802","images/plane5.png","","","memory_trial","1","definitely_old",""
"html-keyboard-response","75","478476","0.0-18.0-0.16","5882","approach_avoid_sv1","""event"",""trial"",""time""
""fullscreenenter"",""1"",""4388""
""blur"",""9"",""154671""
""focus"",""9"",""206528""
","""event"",""trial"",""time""
""blur"",""9"",""154671""
","""event"",""trial"",""time""
""focus"",""9"",""206528""
","""event"",""trial"",""time""
""fullscreenenter"",""1"",""4388""
","
","","","","","","null","<div style=""font-size:60px;"">+</div>","null","","fixation","","",""
"memory-trial","76","480289","0.0-18.0-1.16","5882","approach_avoid_sv1","""event"",""trial"",""time""
""fullscreenenter"",""1"",""4388""
""blur"",""9"",""154671""
""focus"",""9"",""206528""
","""event"",""trial"",""time""
""blur"",""9"",""154671""
","""event"",""trial"",""time""
""focus"",""9"",""206528""
","""event"",""trial"",""time""
""fullscreenenter"",""1"",""4388""
","
","","","","","","807.1000000014901","images/horse3.png","","","memory_trial","1","definitely_old",""
"html-keyboard-response","77","480796","0.0-18.0-0.17","5882","approach_avoid_sv1","""event"",""trial"",""time""
""fullscreenenter"",""1"",""4388""
""blur"",""9"",""154671""
""focus"",""9"",""206528""
","""event"",""trial"",""time""
""blur"",""9"",""154671""
","""event"",""trial"",""time""
""focus"",""9"",""206528""
","""event"",""trial"",""time""
""fullscreenenter"",""1"",""4388""
","
","","","","","","null","<div style=""font-size:60px;"">+</div>","null","","fixation","","",""
"memory-trial","78","482428","0.0-18.0-1.17","5882","approach_avoid_sv1","""event"",""trial"",""time""
""fullscreenenter"",""1"",""4388""
""blur"",""9"",""154671""
""focus"",""9"",""206528""
","""event"",""trial"",""time""
""blur"",""9"",""154671""
","""event"",""trial"",""time""
""focus"",""9"",""206528""
","""event"",""trial"",""time""
""fullscreenenter"",""1"",""4388""
","
","","","","","","619.6000000014901","images/dog7.png","","","memory_trial","1","definitely_old",""
"html-keyboard-response","79","482940","0.0-18.0-0.18","5882","approach_avoid_sv1","""event"",""trial"",""time""
""fullscreenenter"",""1"",""4388""
""blur"",""9"",""154671""
""focus"",""9"",""206528""
","""event"",""trial"",""time""
""blur"",""9"",""154671""
","""event"",""trial"",""time""
""focus"",""9"",""206528""
","""event"",""trial"",""time""
""fullscreenenter"",""1"",""4388""
","
","","","","","","null","<div style=""font-size:60px;"">+</div>","null","","fixation","","",""
"memory-trial","80","484977","0.0-18.0-1.18","5882","approach_avoid_sv1","""event"",""trial"",""time""
""fullscreenenter"",""1"",""4388""
""blur"",""9"",""154671""
""focus"",""9"",""206528""
","""event"",""trial"",""time""
""blur"",""9"",""154671""
","""event"",""trial"",""time""
""focus"",""9"",""206528""
","""event"",""trial"",""time""
""fullscreenenter"",""1"",""4388""
","
","","","","","","1032","images/cactus3.png","","","memory_trial","1","definitely_old",""
"html-keyboard-response","81","485484","0.0-18.0-0.19","5882","approach_avoid_sv1","""event"",""trial"",""time""
""fullscreenenter"",""1"",""4388""
""blur"",""9"",""154671""
""focus"",""9"",""206528""
","""event"",""trial"",""time""
""blur"",""9"",""154671""
","""event"",""trial"",""time""
""focus"",""9"",""206528""
","""event"",""trial"",""time""
""fullscreenenter"",""1"",""4388""
","
","","","","","","null","<div style=""font-size:60px;"">+</div>","null","","fixation","","",""
"memory-trial","82","487548","0.0-18.0-1.19","5882","approach_avoid_sv1","""event"",""trial"",""time""
""fullscreenenter"",""1"",""4388""
""blur"",""9"",""154671""
""focus"",""9"",""206528""
","""event"",""trial"",""time""
""blur"",""9"",""154671""
","""event"",""trial"",""time""
""focus"",""9"",""206528""
","""event"",""trial"",""time""
""fullscreenenter"",""1"",""4388""
","
","","","","","","1055.7999999970198","images/sofa6.png","","","memory_trial","1","definitely_old",""
"html-keyboard-response","83","488060","0.0-18.0-0.20","5882","approach_avoid_sv1","""event"",""trial"",""time""
""fullscreenenter"",""1"",""4388""
""blur"",""9"",""154671""
""focus"",""9"",""206528""
","""event"",""trial"",""time""
""blur"",""9"",""154671""
","""event"",""trial"",""time""
""focus"",""9"",""206528""
","""event"",""trial"",""time""
""fullscreenenter"",""1"",""4388""
","
","","","","","","null","<div style=""font-size:60px;"">+</div>","null","","fixation","","",""
"memory-trial","84","489676","0.0-18.0-1.20","5882","approach_avoid_sv1","""event"",""trial"",""time""
""fullscreenenter"",""1"",""4388""
""blur"",""9"",""154671""
""focus"",""9"",""206528""
","""event"",""trial"",""time""
""blur"",""9"",""154671""
","""event"",""trial"",""time""
""focus"",""9"",""206528""
","""event"",""trial"",""time""
""fullscreenenter"",""1"",""4388""
","
","","","","","","608.2000000029802","images/bush3.png","","","memory_trial","1","definitely_old",""
"html-keyboard-response","85","490188","0.0-18.0-0.21","5882","approach_avoid_sv1","""event"",""trial"",""time""
""fullscreenenter"",""1"",""4388""
""blur"",""9"",""154671""
""focus"",""9"",""206528""
","""event"",""trial"",""time""
""blur"",""9"",""154671""
","""event"",""trial"",""time""
""focus"",""9"",""206528""
","""event"",""trial"",""time""
""fullscreenenter"",""1"",""4388""
","
","","","","","","null","<div style=""font-size:60px;"">+</div>","null","","fixation","","",""
"memory-trial","86","492380","0.0-18.0-1.21","5882","approach_avoid_sv1","""event"",""trial"",""time""
""fullscreenenter"",""1"",""4388""
""blur"",""9"",""154671""
""focus"",""9"",""206528""
","""event"",""trial"",""time""
""blur"",""9"",""154671""
","""event"",""trial"",""time""
""focus"",""9"",""206528""
","""event"",""trial"",""time""
""fullscreenenter"",""1"",""4388""
","
","","","","","","1184.2999999970198","images/truck7.png","","","memory_trial","1","definitely_old",""
"html-keyboard-response","87","492892","0.0-18.0-0.22","5882","approach_avoid_sv1","""event"",""trial"",""time""
""fullscreenenter"",""1"",""4388""
""blur"",""9"",""154671""
""focus"",""9"",""206528""
","""event"",""trial"",""time""
""blur"",""9"",""154671""
","""event"",""trial"",""time""
""focus"",""9"",""206528""
","""event"",""trial"",""time""
""fullscreenenter"",""1"",""4388""
","
","","","","","","null","<div style=""font-size:60px;"">+</div>","null","","fixation","","",""
"memory-trial","88","494962","0.0-18.0-1.22","5882","approach_avoid_sv1","""event"",""trial"",""time""
""fullscreenenter"",""1"",""4388""
""blur"",""9"",""154671""
""focus"",""9"",""206528""
","""event"",""trial"",""time""
""blur"",""9"",""154671""
","""event"",""trial"",""time""
""focus"",""9"",""206528""
","""event"",""trial"",""time""
""fullscreenenter"",""1"",""4388""
","
","","","","","","1060.8999999985099","images/dog2.png","","","memory_trial","2","maybe_old",""
"html-keyboard-response","89","495468","0.0-18.0-0.23","5882","approach_avoid_sv1","""event"",""trial"",""time""
""fullscreenenter"",""1"",""4388""
""blur"",""9"",""154671""
""focus"",""9"",""206528""
","""event"",""trial"",""time""
""blur"",""9"",""154671""
","""event"",""trial"",""time""
""focus"",""9"",""206528""
","""event"",""trial"",""time""
""fullscreenenter"",""1"",""4388""
","
","","","","","","null","<div style=""font-size:60px;"">+</div>","null","","fixation","","",""
"memory-trial","90","497308","0.0-18.0-1.23","5882","approach_avoid_sv1","""event"",""trial"",""time""
""fullscreenenter"",""1"",""4388""
""blur"",""9"",""154671""
""focus"",""9"",""206528""
","""event"",""trial"",""time""
""blur"",""9"",""154671""
","""event"",""trial"",""time""
""focus"",""9"",""206528""
","""event"",""trial"",""time""
""fullscreenenter"",""1"",""4388""
","
","","","","","","827.2999999970198","images/chair1.png","","","memory_trial","2","maybe_old",""
"html-keyboard-response","91","497820","0.0-18.0-0.24","5882","approach_avoid_sv1","""event"",""trial"",""time""
""fullscreenenter"",""1"",""4388""
""blur"",""9"",""154671""
""focus"",""9"",""206528""
","""event"",""trial"",""time""
""blur"",""9"",""154671""
","""event"",""trial"",""time""
""focus"",""9"",""206528""
","""event"",""trial"",""time""
""fullscreenenter"",""1"",""4388""
","
","","","","","","null","<div style=""font-size:60px;"">+</div>","null","","fixation","","",""
"memory-trial","92","499617","0.0-18.0-1.24","5882","approach_avoid_sv1","""event"",""trial"",""time""
""fullscreenenter"",""1"",""4388""
""blur"",""9"",""154671""
""focus"",""9"",""206528""
","""event"",""trial"",""time""
""blur"",""9"",""154671""
","""event"",""trial"",""time""
""focus"",""9"",""206528""
","""event"",""trial"",""time""
""fullscreenenter"",""1"",""4388""
","
","","","","","","787.1999999955297","images/plane8.png","","","memory_trial","1","definitely_old",""
"html-keyboard-response","93","500122","0.0-18.0-0.25","5882","approach_avoid_sv1","""event"",""trial"",""time""
""fullscreenenter"",""1"",""4388""
""blur"",""9"",""154671""
""focus"",""9"",""206528""
","""event"",""trial"",""time""
""blur"",""9"",""154671""
","""event"",""trial"",""time""
""focus"",""9"",""206528""
","""event"",""trial"",""time""
""fullscreenenter"",""1"",""4388""
","
","","","","","","null","<div style=""font-size:60px;"">+</div>","null","","fixation","","",""
"memory-trial","94","502770","0.0-18.0-1.25","5882","approach_avoid_sv1","""event"",""trial"",""time""
""fullscreenenter"",""1"",""4388""
""blur"",""9"",""154671""
""focus"",""9"",""206528""
","""event"",""trial"",""time""
""blur"",""9"",""154671""
","""event"",""trial"",""time""
""focus"",""9"",""206528""
","""event"",""trial"",""time""
""fullscreenenter"",""1"",""4388""
","
","","","","","","1643","images/straw5.png","","","memory_trial","4","definitely_new",""
"html-keyboard-response","95","503276","0.0-18.0-0.26","5882","approach_avoid_sv1","""event"",""trial"",""time""
""fullscreenenter"",""1"",""4388""
""blur"",""9"",""154671""
""focus"",""9"",""206528""
","""event"",""trial"",""time""
""blur"",""9"",""154671""
","""event"",""trial"",""time""
""focus"",""9"",""206528""
","""event"",""trial"",""time""
""fullscreenenter"",""1"",""4388""
","
","","","","","","null","<div style=""font-size:60px;"">+</div>","null","","fixation","","",""
"memory-trial","96","506529","0.0-18.0-1.26","5882","approach_avoid_sv1","""event"",""trial"",""time""
""fullscreenenter"",""1"",""4388""
""blur"",""9"",""154671""
""focus"",""9"",""206528""
","""event"",""trial"",""time""
""blur"",""9"",""154671""
","""event"",""trial"",""time""
""focus"",""9"",""206528""
","""event"",""trial"",""time""
""fullscreenenter"",""1"",""4388""
","
","","","","","","2244.8000000044703","images/sofa2.png","","","memory_trial","2","maybe_old",""
"html-keyboard-response","97","507037","0.0-18.0-0.27","5882","approach_avoid_sv1","""event"",""trial"",""time""
""fullscreenenter"",""1"",""4388""
""blur"",""9"",""154671""
""focus"",""9"",""206528""
","""event"",""trial"",""time""
""blur"",""9"",""154671""
","""event"",""trial"",""time""
""focus"",""9"",""206528""
","""event"",""trial"",""time""
""fullscreenenter"",""1"",""4388""
","
","","","","","","null","<div style=""font-size:60px;"">+</div>","null","","fixation","","",""
"memory-trial","98","508812","0.0-18.0-1.27","5882","approach_avoid_sv1","""event"",""trial"",""time""
""fullscreenenter"",""1"",""4388""
""blur"",""9"",""154671""
""focus"",""9"",""206528""
","""event"",""trial"",""time""
""blur"",""9"",""154671""
","""event"",""trial"",""time""
""focus"",""9"",""206528""
","""event"",""trial"",""time""
""fullscreenenter"",""1"",""4388""
","
","","","","","","768.5","images/tree6.png","","","memory_trial","1","definitely_old",""
"html-keyboard-response","99","509324","0.0-18.0-0.28","5882","approach_avoid_sv1","""event"",""trial"",""time""
""fullscreenenter"",""1"",""4388""
""blur"",""9"",""154671""
""focus"",""9"",""206528""
","""event"",""trial"",""time""
""blur"",""9"",""154671""
","""event"",""trial"",""time""
""focus"",""9"",""206528""
","""event"",""trial"",""time""
""fullscreenenter"",""1"",""4388""
","
","","","","","","null","<div style=""font-size:60px;"">+</div>","null","","fixation","","",""
"memory-trial","100","511153","0.0-18.0-1.28","5882","approach_avoid_sv1","""event"",""trial"",""time""
""fullscreenenter"",""1"",""4388""
""blur"",""9"",""154671""
""focus"",""9"",""206528""
","""event"",""trial"",""time""
""blur"",""9"",""154671""
","""event"",""trial"",""time""
""focus"",""9"",""206528""
","""event"",""trial"",""time""
""fullscreenenter"",""1"",""4388""
","
","","","","","","826.8999999985099","images/chair4.png","","","memory_trial","1","definitely_old",""
"html-keyboard-response","101","511660","0.0-18.0-0.29","5882","approach_avoid_sv1","""event"",""trial"",""time""
""fullscreenenter"",""1"",""4388""
""blur"",""9"",""154671""
""focus"",""9"",""206528""
","""event"",""trial"",""time""
""blur"",""9"",""154671""
","""event"",""trial"",""time""
""focus"",""9"",""206528""
","""event"",""trial"",""time""
""fullscreenenter"",""1"",""4388""
","
","","","","","","null","<div style=""font-size:60px;"">+</div>","null","","fixation","","",""
"memory-trial","102","513404","0.0-18.0-1.29","5882","approach_avoid_sv1","""event"",""trial"",""time""
""fullscreenenter"",""1"",""4388""
""blur"",""9"",""154671""
""focus"",""9"",""206528""
","""event"",""trial"",""time""
""blur"",""9"",""154671""
","""event"",""trial"",""time""
""focus"",""9"",""206528""
","""event"",""trial"",""time""
""fullscreenenter"",""1"",""4388""
","
","","","","","","737.1000000014901","images/tree4.png","","","memory_trial","1","definitely_old",""
"html-keyboard-response","103","513916","0.0-18.0-0.30","5882","approach_avoid_sv1","""event"",""trial"",""time""
""fullscreenenter"",""1"",""4388""
""blur"",""9"",""154671""
""focus"",""9"",""206528""
","""event"",""trial"",""time""
""blur"",""9"",""154671""
","""event"",""trial"",""time""
""focus"",""9"",""206528""
","""event"",""trial"",""time""
""fullscreenenter"",""1"",""4388""
","
","","","","","","null","<div style=""font-size:60px;"">+</div>","null","","fixation","","",""
"memory-trial","104","516187","0.0-18.0-1.30","5882","approach_avoid_sv1","""event"",""trial"",""time""
""fullscreenenter"",""1"",""4388""
""blur"",""9"",""154671""
""focus"",""9"",""206528""
","""event"",""trial"",""time""
""blur"",""9"",""154671""
","""event"",""trial"",""time""
""focus"",""9"",""206528""
","""event"",""trial"",""time""
""fullscreenenter"",""1"",""4388""
","
","","","","","","1266.2000000029802","images/banana4.png","","","memory_trial","1","definitely_old",""
"html-keyboard-response","105","516689","0.0-18.0-0.31","5882","approach_avoid_sv1","""event"",""trial"",""time""
""fullscreenenter"",""1"",""4388""
""blur"",""9"",""154671""
""focus"",""9"",""206528""
","""event"",""trial"",""time""
""blur"",""9"",""154671""
","""event"",""trial"",""time""
""focus"",""9"",""206528""
","""event"",""trial"",""time""
""fullscreenenter"",""1"",""4388""
","
","","","","","","null","<div style=""font-size:60px;"">+</div>","null","","fixation","","",""
"memory-trial","106","518898","0.0-18.0-1.31","5882","approach_avoid_sv1","""event"",""trial"",""time""
""fullscreenenter"",""1"",""4388""
""blur"",""9"",""154671""
""focus"",""9"",""206528""
","""event"",""trial"",""time""
""blur"",""9"",""154671""
","""event"",""trial"",""time""
""focus"",""9"",""206528""
","""event"",""trial"",""time""
""fullscreenenter"",""1"",""4388""
","
","","","","","","1203.0999999940395","images/bed8.png","","","memory_trial","1","definitely_old",""
"html-keyboard-response","107","519404","0.0-18.0-0.32","5882","approach_avoid_sv1","""event"",""trial"",""time""
""fullscreenenter"",""1"",""4388""
""blur"",""9"",""154671""
""focus"",""9"",""206528""
","""event"",""trial"",""time""
""blur"",""9"",""154671""
","""event"",""trial"",""time""
""focus"",""9"",""206528""
","""event"",""trial"",""time""
""fullscreenenter"",""1"",""4388""
","
","","","","","","null","<div style=""font-size:60px;"">+</div>","null","","fixation","","",""
"memory-trial","108","521377","0.0-18.0-1.32","5882","approach_avoid_sv1","""event"",""trial"",""time""
""fullscreenenter"",""1"",""4388""
""blur"",""9"",""154671""
""focus"",""9"",""206528""
","""event"",""trial"",""time""
""blur"",""9"",""154671""
","""event"",""trial"",""time""
""focus"",""9"",""206528""
","""event"",""trial"",""time""
""fullscreenenter"",""1"",""4388""
","
","","","","","","964.2000000029802","images/straw6.png","","","memory_trial","1","definitely_old",""
"html-keyboard-response","109","521884","0.0-18.0-0.33","5882","approach_avoid_sv1","""event"",""trial"",""time""
""fullscreenenter"",""1"",""4388""
""blur"",""9"",""154671""
""focus"",""9"",""206528""
","""event"",""trial"",""time""
""blur"",""9"",""154671""
","""event"",""trial"",""time""
""focus"",""9"",""206528""
","""event"",""trial"",""time""
""fullscreenenter"",""1"",""4388""
","
","","","","","","null","<div style=""font-size:60px;"">+</div>","null","","fixation","","",""
"memory-trial","110","524177","0.0-18.0-1.33","5882","approach_avoid_sv1","""event"",""trial"",""time""
""fullscreenenter"",""1"",""4388""
""blur"",""9"",""154671""
""focus"",""9"",""206528""
","""event"",""trial"",""time""
""blur"",""9"",""154671""
","""event"",""trial"",""time""
""focus"",""9"",""206528""
","""event"",""trial"",""time""
""fullscreenenter"",""1"",""4388""
","
","","","","","","1289.8999999985099","images/boat2.png","","","memory_trial","2","maybe_old",""
"html-keyboard-response","111","524681","0.0-18.0-0.34","5882","approach_avoid_sv1","""event"",""trial"",""time""
""fullscreenenter"",""1"",""4388""
""blur"",""9"",""154671""
""focus"",""9"",""206528""
","""event"",""trial"",""time""
""blur"",""9"",""154671""
","""event"",""trial"",""time""
""focus"",""9"",""206528""
","""event"",""trial"",""time""
""fullscreenenter"",""1"",""4388""
","
","","","","","","null","<div style=""font-size:60px;"">+</div>","null","","fixation","","",""
"memory-trial","112","526866","0.0-18.0-1.34","5882","approach_avoid_sv1","""event"",""trial"",""time""
""fullscreenenter"",""1"",""4388""
""blur"",""9"",""154671""
""focus"",""9"",""206528""
","""event"",""trial"",""time""
""blur"",""9"",""154671""
","""event"",""trial"",""time""
""focus"",""9"",""206528""
","""event"",""trial"",""time""
""fullscreenenter"",""1"",""4388""
","
","","","","","","1177.8999999985099","images/banana1.png","","","memory_trial","2","maybe_old",""
"html-keyboard-response","113","527372","0.0-18.0-0.35","5882","approach_avoid_sv1","""event"",""trial"",""time""
""fullscreenenter"",""1"",""4388""
""blur"",""9"",""154671""
""focus"",""9"",""206528""
","""event"",""trial"",""time""
""blur"",""9"",""154671""
","""event"",""trial"",""time""
""focus"",""9"",""206528""
","""event"",""trial"",""time""
""fullscreenenter"",""1"",""4388""
","
","","","","","","null","<div style=""font-size:60px;"">+</div>","null","","fixation","","",""
"memory-trial","114","530188","0.0-18.0-1.35","5882","approach_avoid_sv1","""event"",""trial"",""time""
""fullscreenenter"",""1"",""4388""
""blur"",""9"",""154671""
""focus"",""9"",""206528""
","""event"",""trial"",""time""
""blur"",""9"",""154671""
","""event"",""trial"",""time""
""focus"",""9"",""206528""
","""event"",""trial"",""time""
""fullscreenenter"",""1"",""4388""
","
","","","","","","1803.8999999985099","images/flower7.png","","","memory_trial","3","maybe_new",""
"html-keyboard-response","115","530700","0.0-18.0-0.36","5882","approach_avoid_sv1","""event"",""trial"",""time""
""fullscreenenter"",""1"",""4388""
""blur"",""9"",""154671""
""focus"",""9"",""206528""
","""event"",""trial"",""time""
""blur"",""9"",""154671""
","""event"",""trial"",""time""
""focus"",""9"",""206528""
","""event"",""trial"",""time""
""fullscreenenter"",""1"",""4388""
","
","","","","","","null","<div style=""font-size:60px;"">+</div>","null","","fixation","","",""
"memory-trial","116","533468","0.0-18.0-1.36","5882","approach_avoid_sv1","""event"",""trial"",""time""
""fullscreenenter"",""1"",""4388""
""blur"",""9"",""154671""
""focus"",""9"",""206528""
","""event"",""trial"",""time""
""blur"",""9"",""154671""
","""event"",""trial"",""time""
""focus"",""9"",""206528""
","""event"",""trial"",""time""
""fullscreenenter"",""1"",""4388""
","
","","","","","","1760.2999999970198","images/boat1.png","","","memory_trial","2","maybe_old",""
"html-keyboard-response","117","533980","0.0-18.0-0.37","5882","approach_avoid_sv1","""event"",""trial"",""time""
""fullscreenenter"",""1"",""4388""
""blur"",""9"",""154671""
""focus"",""9"",""206528""
","""event"",""trial"",""time""
""blur"",""9"",""154671""
","""event"",""trial"",""time""
""focus"",""9"",""206528""
","""event"",""trial"",""time""
""fullscreenenter"",""1"",""4388""
","
","","","","","","null","<div style=""font-size:60px;"">+</div>","null","","fixation","","",""
"memory-trial","118","535826","0.0-18.0-1.37","5882","approach_avoid_sv1","""event"",""trial"",""time""
""fullscreenenter"",""1"",""4388""
""blur"",""9"",""154671""
""focus"",""9"",""206528""
","""event"",""trial"",""time""
""blur"",""9"",""154671""
","""event"",""trial"",""time""
""focus"",""9"",""206528""
","""event"",""trial"",""time""
""fullscreenenter"",""1"",""4388""
","
","","","","","","838.2999999970198","images/tree8.png","","","memory_trial","1","definitely_old",""
"html-keyboard-response","119","536332","0.0-18.0-0.38","5882","approach_avoid_sv1","""event"",""trial"",""time""
""fullscreenenter"",""1"",""4388""
""blur"",""9"",""154671""
""focus"",""9"",""206528""
","""event"",""trial"",""time""
""blur"",""9"",""154671""
","""event"",""trial"",""time""
""focus"",""9"",""206528""
","""event"",""trial"",""time""
""fullscreenenter"",""1"",""4388""
","
","","","","","","null","<div style=""font-size:60px;"">+</div>","null","","fixation","","",""
"memory-trial","120","538316","0.0-18.0-1.38","5882","approach_avoid_sv1","""event"",""trial"",""time""
""fullscreenenter"",""1"",""4388""
""blur"",""9"",""154671""
""focus"",""9"",""206528""
","""event"",""trial"",""time""
""blur"",""9"",""154671""
","""event"",""trial"",""time""
""focus"",""9"",""206528""
","""event"",""trial"",""time""
""fullscreenenter"",""1"",""4388""
","
","","","","","","975.7999999970198","images/orange1.png","","","memory_trial","1","definitely_old",""
"html-keyboard-response","121","538828","0.0-18.0-0.39","5882","approach_avoid_sv1","""event"",""trial"",""time""
""fullscreenenter"",""1"",""4388""
""blur"",""9"",""154671""
""focus"",""9"",""206528""
","""event"",""trial"",""time""
""blur"",""9"",""154671""
","""event"",""trial"",""time""
""focus"",""9"",""206528""
","""event"",""trial"",""time""
""fullscreenenter"",""1"",""4388""
","
","","","","","","null","<div style=""font-size:60px;"">+</div>","null","","fixation","","",""
"memory-trial","122","541810","0.0-18.0-1.39","5882","approach_avoid_sv1","""event"",""trial"",""time""
""fullscreenenter"",""1"",""4388""
""blur"",""9"",""154671""
""focus"",""9"",""206528""
","""event"",""trial"",""time""
""blur"",""9"",""154671""
","""event"",""trial"",""time""
""focus"",""9"",""206528""
","""event"",""trial"",""time""
""fullscreenenter"",""1"",""4388""
","
","","","","","","1978.6000000014901","images/goat6.png","","","memory_trial","3","maybe_new",""
"html-keyboard-response","123","542316","0.0-18.0-0.40","5882","approach_avoid_sv1","""event"",""trial"",""time""
""fullscreenenter"",""1"",""4388""
""blur"",""9"",""154671""
""focus"",""9"",""206528""
","""event"",""trial"",""time""
""blur"",""9"",""154671""
","""event"",""trial"",""time""
""focus"",""9"",""206528""
","""event"",""trial"",""time""
""fullscreenenter"",""1"",""4388""
","
","","","","","","null","<div style=""font-size:60px;"">+</div>","null","","fixation","","",""
"memory-trial","124","544796","0.0-18.0-1.40","5882","approach_avoid_sv1","""event"",""trial"",""time""
""fullscreenenter"",""1"",""4388""
""blur"",""9"",""154671""
""focus"",""9"",""206528""
","""event"",""trial"",""time""
""blur"",""9"",""154671""
","""event"",""trial"",""time""
""focus"",""9"",""206528""
","""event"",""trial"",""time""
""fullscreenenter"",""1"",""4388""
","
","","","","","","1471.8000000044703","images/flower4.png","","","memory_trial","3","maybe_new",""
"html-keyboard-response","125","545308","0.0-18.0-0.41","5882","approach_avoid_sv1","""event"",""trial"",""time""
""fullscreenenter"",""1"",""4388""
""blur"",""9"",""154671""
""focus"",""9"",""206528""
","""event"",""trial"",""time""
""blur"",""9"",""154671""
","""event"",""trial"",""time""
""focus"",""9"",""206528""
","""event"",""trial"",""time""
""fullscreenenter"",""1"",""4388""
","
","","","","","","null","<div style=""font-size:60px;"">+</div>","null","","fixation","","",""
"memory-trial","126","547436","0.0-18.0-1.41","5882","approach_avoid_sv1","""event"",""trial"",""time""
""fullscreenenter"",""1"",""4388""
""blur"",""9"",""154671""
""focus"",""9"",""206528""
","""event"",""trial"",""time""
""blur"",""9"",""154671""
","""event"",""trial"",""time""
""focus"",""9"",""206528""
","""event"",""trial"",""time""
""fullscreenenter"",""1"",""4388""
","
","","","","","","1122.5","images/rabbit8.png","","","memory_trial","3","maybe_new",""
"html-button-response","127","550302","0.0-18.0-2.41-0.41","5882","approach_avoid_sv1","""event"",""trial"",""time""
""fullscreenenter"",""1"",""4388""
""blur"",""9"",""154671""
""focus"",""9"",""206528""
","""event"",""trial"",""time""
""blur"",""9"",""154671""
","""event"",""trial"",""time""
""focus"",""9"",""206528""
","""event"",""trial"",""time""
""fullscreenenter"",""1"",""4388""
","
","","","","","","2863.89999999851","<p> Take a break! </p><p> Click the button to continue. </p>","0","","break","","",""
"html-keyboard-response","128","550812","0.0-18.0-0.42","5882","approach_avoid_sv1","""event"",""trial"",""time""
""fullscreenenter"",""1"",""4388""
""blur"",""9"",""154671""
""focus"",""9"",""206528""
","""event"",""trial"",""time""
""blur"",""9"",""154671""
","""event"",""trial"",""time""
""focus"",""9"",""206528""
","""event"",""trial"",""time""
""fullscreenenter"",""1"",""4388""
","
","","","","","","null","<div style=""font-size:60px;"">+</div>","null","","fixation","","",""
"memory-trial","129","552753","0.0-18.0-1.42","5882","approach_avoid_sv1","""event"",""trial"",""time""
""fullscreenenter"",""1"",""4388""
""blur"",""9"",""154671""
""focus"",""9"",""206528""
","""event"",""trial"",""time""
""blur"",""9"",""154671""
","""event"",""trial"",""time""
""focus"",""9"",""206528""
","""event"",""trial"",""time""
""fullscreenenter"",""1"",""4388""
","
","","","","","","931.1999999955297","images/cactus5.png","","","memory_trial","2","maybe_old",""
"html-keyboard-response","130","553260","0.0-18.0-0.43","5882","approach_avoid_sv1","""event"",""trial"",""time""
""fullscreenenter"",""1"",""4388""
""blur"",""9"",""154671""
""focus"",""9"",""206528""
","""event"",""trial"",""time""
""blur"",""9"",""154671""
","""event"",""trial"",""time""
""focus"",""9"",""206528""
","""event"",""trial"",""time""
""fullscreenenter"",""1"",""4388""
","
","","","","","","null","<div style=""font-size:60px;"">+</div>","null","","fixation","","",""
"memory-trial","131","555425","0.0-18.0-1.43","5882","approach_avoid_sv1","""event"",""trial"",""time""
""fullscreenenter"",""1"",""4388""
""blur"",""9"",""154671""
""focus"",""9"",""206528""
","""event"",""trial"",""time""
""blur"",""9"",""154671""
","""event"",""trial"",""time""
""focus"",""9"",""206528""
","""event"",""trial"",""time""
""fullscreenenter"",""1"",""4388""
","
","","","","","","1158.2999999970198","images/banana6.png","","","memory_trial","2","maybe_old",""
"html-keyboard-response","132","555932","0.0-18.0-0.44","5882","approach_avoid_sv1","""event"",""trial"",""time""
""fullscreenenter"",""1"",""4388""
""blur"",""9"",""154671""
""focus"",""9"",""206528""
","""event"",""trial"",""time""
""blur"",""9"",""154671""
","""event"",""trial"",""time""
""focus"",""9"",""206528""
","""event"",""trial"",""time""
""fullscreenenter"",""1"",""4388""
","
","","","","","","null","<div style=""font-size:60px;"">+</div>","null","","fixation","","",""
"memory-trial","133","559052","0.0-18.0-1.44","5882","approach_avoid_sv1","""event"",""trial"",""time""
""fullscreenenter"",""1"",""4388""
""blur"",""9"",""154671""
""focus"",""9"",""206528""
","""event"",""trial"",""time""
""blur"",""9"",""154671""
","""event"",""trial"",""time""
""focus"",""9"",""206528""
","""event"",""trial"",""time""
""fullscreenenter"",""1"",""4388""
","
","","","","","","2113.39999999851","images/banana8.png","","","memory_trial","3","maybe_new",""
"html-keyboard-response","134","559564","0.0-18.0-0.45","5882","approach_avoid_sv1","""event"",""trial"",""time""
""fullscreenenter"",""1"",""4388""
""blur"",""9"",""154671""
""focus"",""9"",""206528""
","""event"",""trial"",""time""
""blur"",""9"",""154671""
","""event"",""trial"",""time""
""focus"",""9"",""206528""
","""event"",""trial"",""time""
""fullscreenenter"",""1"",""4388""
","
","","","","","","null","<div style=""font-size:60px;"">+</div>","null","","fixation","","",""
"memory-trial","135","562433","0.0-18.0-1.45","5882","approach_avoid_sv1","""event"",""trial"",""time""
""fullscreenenter"",""1"",""4388""
""blur"",""9"",""154671""
""focus"",""9"",""206528""
","""event"",""trial"",""time""
""blur"",""9"",""154671""
","""event"",""trial"",""time""
""focus"",""9"",""206528""
","""event"",""trial"",""time""
""fullscreenenter"",""1"",""4388""
","
","","","","","","1859.6000000014901","images/rodent2.png","","","memory_trial","3","maybe_new",""
"html-keyboard-response","136","562940","0.0-18.0-0.46","5882","approach_avoid_sv1","""event"",""trial"",""time""
""fullscreenenter"",""1"",""4388""
""blur"",""9"",""154671""
""focus"",""9"",""206528""
","""event"",""trial"",""time""
""blur"",""9"",""154671""
","""event"",""trial"",""time""
""focus"",""9"",""206528""
","""event"",""trial"",""time""
""fullscreenenter"",""1"",""4388""
","
","","","","","","null","<div style=""font-size:60px;"">+</div>","null","","fixation","","",""
"memory-trial","137","564780","0.0-18.0-1.46","5882","approach_avoid_sv1","""event"",""trial"",""time""
""fullscreenenter"",""1"",""4388""
""blur"",""9"",""154671""
""focus"",""9"",""206528""
","""event"",""trial"",""time""
""blur"",""9"",""154671""
","""event"",""trial"",""time""
""focus"",""9"",""206528""
","""event"",""trial"",""time""
""fullscreenenter"",""1"",""4388""
","
","","","","","","831.6000000014901","images/sheep3.png","","","memory_trial","1","definitely_old",""
"html-keyboard-response","138","565292","0.0-18.0-0.47","5882","approach_avoid_sv1","""event"",""trial"",""time""
""fullscreenenter"",""1"",""4388""
""blur"",""9"",""154671""
""focus"",""9"",""206528""
","""event"",""trial"",""time""
""blur"",""9"",""154671""
","""event"",""trial"",""time""
""focus"",""9"",""206528""
","""event"",""trial"",""time""
""fullscreenenter"",""1"",""4388""
","
","","","","","","null","<div style=""font-size:60px;"">+</div>","null","","fixation","","",""
"memory-trial","139","567516","0.0-18.0-1.47","5882","approach_avoid_sv1","""event"",""trial"",""time""
""fullscreenenter"",""1"",""4388""
""blur"",""9"",""154671""
""focus"",""9"",""206528""
","""event"",""trial"",""time""
""blur"",""9"",""154671""
","""event"",""trial"",""time""
""focus"",""9"",""206528""
","""event"",""trial"",""time""
""fullscreenenter"",""1"",""4388""
","
","","","","","","1217.7999999970198","images/rabbit2.png","","","memory_trial","2","maybe_old",""
"html-keyboard-response","140","568028","0.0-18.0-0.48","5882","approach_avoid_sv1","""event"",""trial"",""time""
""fullscreenenter"",""1"",""4388""
""blur"",""9"",""154671""
""focus"",""9"",""206528""
","""event"",""trial"",""time""
""blur"",""9"",""154671""
","""event"",""trial"",""time""
""focus"",""9"",""206528""
","""event"",""trial"",""time""
""fullscreenenter"",""1"",""4388""
","
","","","","","","null","<div style=""font-size:60px;"">+</div>","null","","fixation","","",""
"memory-trial","141","570193","0.0-18.0-1.48","5882","approach_avoid_sv1","""event"",""trial"",""time""
""fullscreenenter"",""1"",""4388""
""blur"",""9"",""154671""
""focus"",""9"",""206528""
","""event"",""trial"",""time""
""blur"",""9"",""154671""
","""event"",""trial"",""time""
""focus"",""9"",""206528""
","""event"",""trial"",""time""
""fullscreenenter"",""1"",""4388""
","
","","","","","","1158.6000000014901","images/chair7.png","","","memory_trial","3","maybe_new",""
"html-keyboard-response","142","570700","0.0-18.0-0.49","5882","approach_avoid_sv1","""event"",""trial"",""time""
""fullscreenenter"",""1"",""4388""
""blur"",""9"",""154671""
""focus"",""9"",""206528""
","""event"",""trial"",""time""
""blur"",""9"",""154671""
","""event"",""trial"",""time""
""focus"",""9"",""206528""
","""event"",""trial"",""time""
""fullscreenenter"",""1"",""4388""
","
","","","","","","null","<div style=""font-size:60px;"">+</div>","null","","fixation","","",""
"memory-trial","143","573084","0.0-18.0-1.49","5882","approach_avoid_sv1","""event"",""trial"",""time""
""fullscreenenter"",""1"",""4388""
""blur"",""9"",""154671""
""focus"",""9"",""206528""
","""event"",""trial"",""time""
""blur"",""9"",""154671""
","""event"",""trial"",""time""
""focus"",""9"",""206528""
","""event"",""trial"",""time""
""fullscreenenter"",""1"",""4388""
","
","","","","","","1377","images/sofa4.png","","","memory_trial","3","maybe_new",""
"html-keyboard-response","144","573593","0.0-18.0-0.50","5882","approach_avoid_sv1","""event"",""trial"",""time""
""fullscreenenter"",""1"",""4388""
""blur"",""9"",""154671""
""focus"",""9"",""206528""
","""event"",""trial"",""time""
""blur"",""9"",""154671""
","""event"",""trial"",""time""
""focus"",""9"",""206528""
","""event"",""trial"",""time""
""fullscreenenter"",""1"",""4388""
","
","","","","","","null","<div style=""font-size:60px;"">+</div>","null","","fixation","","",""
"memory-trial","145","575345","0.0-18.0-1.50","5882","approach_avoid_sv1","""event"",""trial"",""time""
""fullscreenenter"",""1"",""4388""
""blur"",""9"",""154671""
""focus"",""9"",""206528""
","""event"",""trial"",""time""
""blur"",""9"",""154671""
","""event"",""trial"",""time""
""focus"",""9"",""206528""
","""event"",""trial"",""time""
""fullscreenenter"",""1"",""4388""
","
","","","","","","749.5","images/cat5.png","","","memory_trial","1","definitely_old",""
"html-keyboard-response","146","575852","0.0-18.0-0.51","5882","approach_avoid_sv1","""event"",""trial"",""time""
""fullscreenenter"",""1"",""4388""
""blur"",""9"",""154671""
""focus"",""9"",""206528""
","""event"",""trial"",""time""
""blur"",""9"",""154671""
","""event"",""trial"",""time""
""focus"",""9"",""206528""
","""event"",""trial"",""time""
""fullscreenenter"",""1"",""4388""
","
","","","","","","null","<div style=""font-size:60px;"">+</div>","null","","fixation","","",""
"memory-trial","147","577906","0.0-18.0-1.51","5882","approach_avoid_sv1","""event"",""trial"",""time""
""fullscreenenter"",""1"",""4388""
""blur"",""9"",""154671""
""focus"",""9"",""206528""
","""event"",""trial"",""time""
""blur"",""9"",""154671""
","""event"",""trial"",""time""
""focus"",""9"",""206528""
","""event"",""trial"",""time""
""fullscreenenter"",""1"",""4388""
","
","","","","","","1047.3999999985099","images/rodent8.png","","","memory_trial","1","definitely_old",""
"html-keyboard-response","148","578412","0.0-18.0-0.52","5882","approach_avoid_sv1","""event"",""trial"",""time""
""fullscreenenter"",""1"",""4388""
""blur"",""9"",""154671""
""focus"",""9"",""206528""
","""event"",""trial"",""time""
""blur"",""9"",""154671""
","""event"",""trial"",""time""
""focus"",""9"",""206528""
","""event"",""trial"",""time""
""fullscreenenter"",""1"",""4388""
","
","","","","","","null","<div style=""font-size:60px;"">+</div>","null","","fixation","","",""
"memory-trial","149","580609","0.0-18.0-1.52","5882","approach_avoid_sv1","""event"",""trial"",""time""
""fullscreenenter"",""1"",""4388""
""blur"",""9"",""154671""
""focus"",""9"",""206528""
","""event"",""trial"",""time""
""blur"",""9"",""154671""
","""event"",""trial"",""time""
""focus"",""9"",""206528""
","""event"",""trial"",""time""
""fullscreenenter"",""1"",""4388""
","
","","","","","","1194","images/sofa5.png","","","memory_trial","2","maybe_old",""
"html-keyboard-response","150","581116","0.0-18.0-0.53","5882","approach_avoid_sv1","""event"",""trial"",""time""
""fullscreenenter"",""1"",""4388""
""blur"",""9"",""154671""
""focus"",""9"",""206528""
","""event"",""trial"",""time""
""blur"",""9"",""154671""
","""event"",""trial"",""time""
""focus"",""9"",""206528""
","""event"",""trial"",""time""
""fullscreenenter"",""1"",""4388""
","
","","","","","","null","<div style=""font-size:60px;"">+</div>","null","","fixation","","",""
"memory-trial","151","583772","0.0-18.0-1.53","5882","approach_avoid_sv1","""event"",""trial"",""time""
""fullscreenenter"",""1"",""4388""
""blur"",""9"",""154671""
""focus"",""9"",""206528""
","""event"",""trial"",""time""
""blur"",""9"",""154671""
","""event"",""trial"",""time""
""focus"",""9"",""206528""
","""event"",""trial"",""time""
""fullscreenenter"",""1"",""4388""
","
","","","","","","1646.2999999970198","images/sofa3.png","","","memory_trial","3","maybe_new",""
"html-keyboard-response","152","584394","0.0-18.0-0.54","5882","approach_avoid_sv1","""event"",""trial"",""time""
""fullscreenenter"",""1"",""4388""
""blur"",""9"",""154671""
""focus"",""9"",""206528""
","""event"",""trial"",""time""
""blur"",""9"",""154671""
","""event"",""trial"",""time""
""focus"",""9"",""206528""
","""event"",""trial"",""time""
""fullscreenenter"",""1"",""4388""
","
","","","","","","null","<div style=""font-size:60px;"">+</div>","null","","fixation","","",""
"memory-trial","153","586505","0.0-18.0-1.54","5882","approach_avoid_sv1","""event"",""trial"",""time""
""fullscreenenter"",""1"",""4388""
""blur"",""9"",""154671""
""focus"",""9"",""206528""
","""event"",""trial"",""time""
""blur"",""9"",""154671""
","""event"",""trial"",""time""
""focus"",""9"",""206528""
","""event"",""trial"",""time""
""fullscreenenter"",""1"",""4388""
","
","","","","","","1108.6000000014901","images/flower1.png","","","memory_trial","3","maybe_new",""
"html-keyboard-response","154","587009","0.0-18.0-0.55","5882","approach_avoid_sv1","""event"",""trial"",""time""
""fullscreenenter"",""1"",""4388""
""blur"",""9"",""154671""
""focus"",""9"",""206528""
","""event"",""trial"",""time""
""blur"",""9"",""154671""
","""event"",""trial"",""time""
""focus"",""9"",""206528""
","""event"",""trial"",""time""
""fullscreenenter"",""1"",""4388""
","
","","","","","","null","<div style=""font-size:60px;"">+</div>","null","","fixation","","",""
"memory-trial","155","589979","0.0-18.0-1.55","5882","approach_avoid_sv1","""event"",""trial"",""time""
""fullscreenenter"",""1"",""4388""
""blur"",""9"",""154671""
""focus"",""9"",""206528""
","""event"",""trial"",""time""
""blur"",""9"",""154671""
","""event"",""trial"",""time""
""focus"",""9"",""206528""
","""event"",""trial"",""time""
""fullscreenenter"",""1"",""4388""
","
","","","","","","1964.6000000014901","images/table4.png","","","memory_trial","2","maybe_old",""
"html-keyboard-response","156","590492","0.0-18.0-0.56","5882","approach_avoid_sv1","""event"",""trial"",""time""
""fullscreenenter"",""1"",""4388""
""blur"",""9"",""154671""
""focus"",""9"",""206528""
","""event"",""trial"",""time""
""blur"",""9"",""154671""
","""event"",""trial"",""time""
""focus"",""9"",""206528""
","""event"",""trial"",""time""
""fullscreenenter"",""1"",""4388""
","
","","","","","","null","<div style=""font-size:60px;"">+</div>","null","","fixation","","",""
"memory-trial","157","592460","0.0-18.0-1.56","5882","approach_avoid_sv1","""event"",""trial"",""time""
""fullscreenenter"",""1"",""4388""
""blur"",""9"",""154671""
""focus"",""9"",""206528""
","""event"",""trial"",""time""
""blur"",""9"",""154671""
","""event"",""trial"",""time""
""focus"",""9"",""206528""
","""event"",""trial"",""time""
""fullscreenenter"",""1"",""4388""
","
","","","","","","961.1000000014901","images/bed3.png","","","memory_trial","1","definitely_old",""
"html-keyboard-response","158","592972","0.0-18.0-0.57","5882","approach_avoid_sv1","""event"",""trial"",""time""
""fullscreenenter"",""1"",""4388""
""blur"",""9"",""154671""
""focus"",""9"",""206528""
","""event"",""trial"",""time""
""blur"",""9"",""154671""
","""event"",""trial"",""time""
""focus"",""9"",""206528""
","""event"",""trial"",""time""
""fullscreenenter"",""1"",""4388""
","
","","","","","","null","<div style=""font-size:60px;"">+</div>","null","","fixation","","",""
"memory-trial","159","594898","0.0-18.0-1.57","5882","approach_avoid_sv1","""event"",""trial"",""time""
""fullscreenenter"",""1"",""4388""
""blur"",""9"",""154671""
""focus"",""9"",""206528""
","""event"",""trial"",""time""
""blur"",""9"",""154671""
","""event"",""trial"",""time""
""focus"",""9"",""206528""
","""event"",""trial"",""time""
""fullscreenenter"",""1"",""4388""
","
","","","","","","917.5","images/cow4.png","","","memory_trial","1","definitely_old",""
"html-keyboard-response","160","595404","0.0-18.0-0.58","5882","approach_avoid_sv1","""event"",""trial"",""time""
""fullscreenenter"",""1"",""4388""
""blur"",""9"",""154671""
""focus"",""9"",""206528""
","""event"",""trial"",""time""
""blur"",""9"",""154671""
","""event"",""trial"",""time""
""focus"",""9"",""206528""
","""event"",""trial"",""time""
""fullscreenenter"",""1"",""4388""
","
","","","","","","null","<div style=""font-size:60px;"">+</div>","null","","fixation","","",""
"memory-trial","161","597324","0.0-18.0-1.58","5882","approach_avoid_sv1","""event"",""trial"",""time""
""fullscreenenter"",""1"",""4388""
""blur"",""9"",""154671""
""focus"",""9"",""206528""
","""event"",""trial"",""time""
""blur"",""9"",""154671""
","""event"",""trial"",""time""
""focus"",""9"",""206528""
","""event"",""trial"",""time""
""fullscreenenter"",""1"",""4388""
","
","","","","","","914","images/goat5.png","","","memory_trial","2","maybe_old",""
"html-keyboard-response","162","597825","0.0-18.0-0.59","5882","approach_avoid_sv1","""event"",""trial"",""time""
""fullscreenenter"",""1"",""4388""
""blur"",""9"",""154671""
""focus"",""9"",""206528""
","""event"",""trial"",""time""
""blur"",""9"",""154671""
","""event"",""trial"",""time""
""focus"",""9"",""206528""
","""event"",""trial"",""time""
""fullscreenenter"",""1"",""4388""
","
","","","","","","null","<div style=""font-size:60px;"">+</div>","null","","fixation","","",""
"memory-trial","163","600129","0.0-18.0-1.59","5882","approach_avoid_sv1","""event"",""trial"",""time""
""fullscreenenter"",""1"",""4388""
""blur"",""9"",""154671""
""focus"",""9"",""206528""
","""event"",""trial"",""time""
""blur"",""9"",""154671""
","""event"",""trial"",""time""
""focus"",""9"",""206528""
","""event"",""trial"",""time""
""fullscreenenter"",""1"",""4388""
","
","","","","","","1301.1000000014901","images/apple5.png","","","memory_trial","4","definitely_new",""
"html-keyboard-response","164","600636","0.0-18.0-0.60","5882","approach_avoid_sv1","""event"",""trial"",""time""
""fullscreenenter"",""1"",""4388""
""blur"",""9"",""154671""
""focus"",""9"",""206528""
","""event"",""trial"",""time""
""blur"",""9"",""154671""
","""event"",""trial"",""time""
""focus"",""9"",""206528""
","""event"",""trial"",""time""
""fullscreenenter"",""1"",""4388""
","
","","","","","","null","<div style=""font-size:60px;"">+</div>","null","","fixation","","",""
"memory-trial","165","602972","0.0-18.0-1.60","5882","approach_avoid_sv1","""event"",""trial"",""time""
""fullscreenenter"",""1"",""4388""
""blur"",""9"",""154671""
""focus"",""9"",""206528""
","""event"",""trial"",""time""
""blur"",""9"",""154671""
","""event"",""trial"",""time""
""focus"",""9"",""206528""
","""event"",""trial"",""time""
""fullscreenenter"",""1"",""4388""
","
","","","","","","1325.8999999985099","images/cow5.png","","","memory_trial","2","maybe_old",""
"html-keyboard-response","166","603474","0.0-18.0-0.61","5882","approach_avoid_sv1","""event"",""trial"",""time""
""fullscreenenter"",""1"",""4388""
""blur"",""9"",""154671""
""focus"",""9"",""206528""
","""event"",""trial"",""time""
""blur"",""9"",""154671""
","""event"",""trial"",""time""
""focus"",""9"",""206528""
","""event"",""trial"",""time""
""fullscreenenter"",""1"",""4388""
","
","","","","","","null","<div style=""font-size:60px;"">+</div>","null","","fixation","","",""
"memory-trial","167","605676","0.0-18.0-1.61","5882","approach_avoid_sv1","""event"",""trial"",""time""
""fullscreenenter"",""1"",""4388""
""blur"",""9"",""154671""
""focus"",""9"",""206528""
","""event"",""trial"",""time""
""blur"",""9"",""154671""
","""event"",""trial"",""time""
""focus"",""9"",""206528""
","""event"",""trial"",""time""
""fullscreenenter"",""1"",""4388""
","
","","","","","","1195","images/straw2.png","","","memory_trial","2","maybe_old",""
"html-keyboard-response","168","606188","0.0-18.0-0.62","5882","approach_avoid_sv1","""event"",""trial"",""time""
""fullscreenenter"",""1"",""4388""
""blur"",""9"",""154671""
""focus"",""9"",""206528""
","""event"",""trial"",""time""
""blur"",""9"",""154671""
","""event"",""trial"",""time""
""focus"",""9"",""206528""
","""event"",""trial"",""time""
""fullscreenenter"",""1"",""4388""
","
","","","","","","null","<div style=""font-size:60px;"">+</div>","null","","fixation","","",""
"memory-trial","169","608461","0.0-18.0-1.62","5882","approach_avoid_sv1","""event"",""trial"",""time""
""fullscreenenter"",""1"",""4388""
""blur"",""9"",""154671""
""focus"",""9"",""206528""
","""event"",""trial"",""time""
""blur"",""9"",""154671""
","""event"",""trial"",""time""
""focus"",""9"",""206528""
","""event"",""trial"",""time""
""fullscreenenter"",""1"",""4388""
","
","","","","","","1263.9000000059605","images/apple7.png","","","memory_trial","2","maybe_old",""
"html-keyboard-response","170","608972","0.0-18.0-0.63","5882","approach_avoid_sv1","""event"",""trial"",""time""
""fullscreenenter"",""1"",""4388""
""blur"",""9"",""154671""
""focus"",""9"",""206528""
","""event"",""trial"",""time""
""blur"",""9"",""154671""
","""event"",""trial"",""time""
""focus"",""9"",""206528""
","""event"",""trial"",""time""
""fullscreenenter"",""1"",""4388""
","
","","","","","","null","<div style=""font-size:60px;"">+</div>","null","","fixation","","",""
"memory-trial","171","610716","0.0-18.0-1.63","5882","approach_avoid_sv1","""event"",""trial"",""time""
""fullscreenenter"",""1"",""4388""
""blur"",""9"",""154671""
""focus"",""9"",""206528""
","""event"",""trial"",""time""
""blur"",""9"",""154671""
","""event"",""trial"",""time""
""focus"",""9"",""206528""
","""event"",""trial"",""time""
""fullscreenenter"",""1"",""4388""
","
","","","","","","731.1999999955297","images/horse6.png","","","memory_trial","1","definitely_old",""
"html-keyboard-response","172","611227","0.0-18.0-0.64","5882","approach_avoid_sv1","""event"",""trial"",""time""
""fullscreenenter"",""1"",""4388""
""blur"",""9"",""154671""
""focus"",""9"",""206528""
","""event"",""trial"",""time""
""blur"",""9"",""154671""
","""event"",""trial"",""time""
""focus"",""9"",""206528""
","""event"",""trial"",""time""
""fullscreenenter"",""1"",""4388""
","
","","","","","","null","<div style=""font-size:60px;"">+</div>","null","","fixation","","",""
"memory-trial","173","612988","0.0-18.0-1.64","5882","approach_avoid_sv1","""event"",""trial"",""time""
""fullscreenenter"",""1"",""4388""
""blur"",""9"",""154671""
""focus"",""9"",""206528""
","""event"",""trial"",""time""
""blur"",""9"",""154671""
","""event"",""trial"",""time""
""focus"",""9"",""206528""
","""event"",""trial"",""time""
""fullscreenenter"",""1"",""4388""
","
","","","","","","750.1999999955297","images/cat6.png","","","memory_trial","1","definitely_old",""
"html-keyboard-response","174","613500","0.0-18.0-0.65","5882","approach_avoid_sv1","""event"",""trial"",""time""
""fullscreenenter"",""1"",""4388""
""blur"",""9"",""154671""
""focus"",""9"",""206528""
","""event"",""trial"",""time""
""blur"",""9"",""154671""
","""event"",""trial"",""time""
""focus"",""9"",""206528""
","""event"",""trial"",""time""
""fullscreenenter"",""1"",""4388""
","
","","","","","","null","<div style=""font-size:60px;"">+</div>","null","","fixation","","",""
"memory-trial","175","615868","0.0-18.0-1.65","5882","approach_avoid_sv1","""event"",""trial"",""time""
""fullscreenenter"",""1"",""4388""
""blur"",""9"",""154671""
""focus"",""9"",""206528""
","""event"",""trial"",""time""
""blur"",""9"",""154671""
","""event"",""trial"",""time""
""focus"",""9"",""206528""
","""event"",""trial"",""time""
""fullscreenenter"",""1"",""4388""
","
","","","","","","1358.5","images/straw1.png","","","memory_trial","2","maybe_old",""
"html-keyboard-response","176","616380","0.0-18.0-0.66","5882","approach_avoid_sv1","""event"",""trial"",""time""
""fullscreenenter"",""1"",""4388""
""blur"",""9"",""154671""
""focus"",""9"",""206528""
","""event"",""trial"",""time""
""blur"",""9"",""154671""
","""event"",""trial"",""time""
""focus"",""9"",""206528""
","""event"",""trial"",""time""
""fullscreenenter"",""1"",""4388""
","
","","","","","","null","<div style=""font-size:60px;"">+</div>","null","","fixation","","",""
"memory-trial","177","618236","0.0-18.0-1.66","5882","approach_avoid_sv1","""event"",""trial"",""time""
""fullscreenenter"",""1"",""4388""
""blur"",""9"",""154671""
""focus"",""9"",""206528""
","""event"",""trial"",""time""
""blur"",""9"",""154671""
","""event"",""trial"",""time""
""focus"",""9"",""206528""
","""event"",""trial"",""time""
""fullscreenenter"",""1"",""4388""
","
","","","","","","845.6999999955297","images/chair2.png","","","memory_trial","2","maybe_old",""
"html-keyboard-response","178","618747","0.0-18.0-0.67","5882","approach_avoid_sv1","""event"",""trial"",""time""
""fullscreenenter"",""1"",""4388""
""blur"",""9"",""154671""
""focus"",""9"",""206528""
","""event"",""trial"",""time""
""blur"",""9"",""154671""
","""event"",""trial"",""time""
""focus"",""9"",""206528""
","""event"",""trial"",""time""
""fullscreenenter"",""1"",""4388""
","
","","","","","","null","<div style=""font-size:60px;"">+</div>","null","","fixation","","",""
"memory-trial","179","620572","0.0-18.0-1.67","5882","approach_avoid_sv1","""event"",""trial"",""time""
""fullscreenenter"",""1"",""4388""
""blur"",""9"",""154671""
""focus"",""9"",""206528""
","""event"",""trial"",""time""
""blur"",""9"",""154671""
","""event"",""trial"",""time""
""focus"",""9"",""206528""
","""event"",""trial"",""time""
""fullscreenenter"",""1"",""4388""
","
","","","","","","817.0999999940395","images/sheep8.png","","","memory_trial","1","definitely_old",""
"html-keyboard-response","180","621084","0.0-18.0-0.68","5882","approach_avoid_sv1","""event"",""trial"",""time""
""fullscreenenter"",""1"",""4388""
""blur"",""9"",""154671""
""focus"",""9"",""206528""
","""event"",""trial"",""time""
""blur"",""9"",""154671""
","""event"",""trial"",""time""
""focus"",""9"",""206528""
","""event"",""trial"",""time""
""fullscreenenter"",""1"",""4388""
","
","","","","","","null","<div style=""font-size:60px;"">+</div>","null","","fixation","","",""
"memory-trial","181","622812","0.0-18.0-1.68","5882","approach_avoid_sv1","""event"",""trial"",""time""
""fullscreenenter"",""1"",""4388""
""blur"",""9"",""154671""
""focus"",""9"",""206528""
","""event"",""trial"",""time""
""blur"",""9"",""154671""
","""event"",""trial"",""time""
""focus"",""9"",""206528""
","""event"",""trial"",""time""
""fullscreenenter"",""1"",""4388""
","
","","","","","","722","images/horse7.png","","","memory_trial","1","definitely_old",""
"html-keyboard-response","182","623324","0.0-18.0-0.69","5882","approach_avoid_sv1","""event"",""trial"",""time""
""fullscreenenter"",""1"",""4388""
""blur"",""9"",""154671""
""focus"",""9"",""206528""
","""event"",""trial"",""time""
""blur"",""9"",""154671""
","""event"",""trial"",""time""
""focus"",""9"",""206528""
","""event"",""trial"",""time""
""fullscreenenter"",""1"",""4388""
","
","","","","","","null","<div style=""font-size:60px;"">+</div>","null","","fixation","","",""
"memory-trial","183","626209","0.0-18.0-1.69","5882","approach_avoid_sv1","""event"",""trial"",""time""
""fullscreenenter"",""1"",""4388""
""blur"",""9"",""154671""
""focus"",""9"",""206528""
","""event"",""trial"",""time""
""blur"",""9"",""154671""
","""event"",""trial"",""time""
""focus"",""9"",""206528""
","""event"",""trial"",""time""
""fullscreenenter"",""1"",""4388""
","
","","","","","","1882","images/sofa1.png","","","memory_trial","3","maybe_new",""
"html-keyboard-response","184","626716","0.0-18.0-0.70","5882","approach_avoid_sv1","""event"",""trial"",""time""
""fullscreenenter"",""1"",""4388""
""blur"",""9"",""154671""
""focus"",""9"",""206528""
","""event"",""trial"",""time""
""blur"",""9"",""154671""
","""event"",""trial"",""time""
""focus"",""9"",""206528""
","""event"",""trial"",""time""
""fullscreenenter"",""1"",""4388""
","
","","","","","","null","<div style=""font-size:60px;"">+</div>","null","","fixation","","",""
"memory-trial","185","628673","0.0-18.0-1.70","5882","approach_avoid_sv1","""event"",""trial"",""time""
""fullscreenenter"",""1"",""4388""
""blur"",""9"",""154671""
""focus"",""9"",""206528""
","""event"",""trial"",""time""
""blur"",""9"",""154671""
","""event"",""trial"",""time""
""focus"",""9"",""206528""
","""event"",""trial"",""time""
""fullscreenenter"",""1"",""4388""
","
","","","","","","947.2999999970198","images/horse1.png","","","memory_trial","3","maybe_new",""
"html-keyboard-response","186","629180","0.0-18.0-0.71","5882","approach_avoid_sv1","""event"",""trial"",""time""
""fullscreenenter"",""1"",""4388""
""blur"",""9"",""154671""
""focus"",""9"",""206528""
","""event"",""trial"",""time""
""blur"",""9"",""154671""
","""event"",""trial"",""time""
""focus"",""9"",""206528""
","""event"",""trial"",""time""
""fullscreenenter"",""1"",""4388""
","
","","","","","","null","<div style=""font-size:60px;"">+</div>","null","","fixation","","",""
"memory-trial","187","631436","0.0-18.0-1.71","5882","approach_avoid_sv1","""event"",""trial"",""time""
""fullscreenenter"",""1"",""4388""
""blur"",""9"",""154671""
""focus"",""9"",""206528""
","""event"",""trial"",""time""
""blur"",""9"",""154671""
","""event"",""trial"",""time""
""focus"",""9"",""206528""
","""event"",""trial"",""time""
""fullscreenenter"",""1"",""4388""
","
","","","","","","1247","images/cactus2.png","","","memory_trial","2","maybe_old",""
"html-keyboard-response","188","631948","0.0-18.0-0.72","5882","approach_avoid_sv1","""event"",""trial"",""time""
""fullscreenenter"",""1"",""4388""
""blur"",""9"",""154671""
""focus"",""9"",""206528""
","""event"",""trial"",""time""
""blur"",""9"",""154671""
","""event"",""trial"",""time""
""focus"",""9"",""206528""
","""event"",""trial"",""time""
""fullscreenenter"",""1"",""4388""
","
","","","","","","null","<div style=""font-size:60px;"">+</div>","null","","fixation","","",""
"memory-trial","189","634268","0.0-18.0-1.72","5882","approach_avoid_sv1","""event"",""trial"",""time""
""fullscreenenter"",""1"",""4388""
""blur"",""9"",""154671""
""focus"",""9"",""206528""
","""event"",""trial"",""time""
""blur"",""9"",""154671""
","""event"",""trial"",""time""
""focus"",""9"",""206528""
","""event"",""trial"",""time""
""fullscreenenter"",""1"",""4388""
","
","","","","","","1311.8000000044703","images/cow1.png","","","memory_trial","1","definitely_old",""
"html-keyboard-response","190","634780","0.0-18.0-0.73","5882","approach_avoid_sv1","""event"",""trial"",""time""
""fullscreenenter"",""1"",""4388""
""blur"",""9"",""154671""
""focus"",""9"",""206528""
","""event"",""trial"",""time""
""blur"",""9"",""154671""
","""event"",""trial"",""time""
""focus"",""9"",""206528""
","""event"",""trial"",""time""
""fullscreenenter"",""1"",""4388""
","
","","","","","","null","<div style=""font-size:60px;"">+</div>","null","","fixation","","",""
"memory-trial","191","636721","0.0-18.0-1.73","5882","approach_avoid_sv1","""event"",""trial"",""time""
""fullscreenenter"",""1"",""4388""
""blur"",""9"",""154671""
""focus"",""9"",""206528""
","""event"",""trial"",""time""
""blur"",""9"",""154671""
","""event"",""trial"",""time""
""focus"",""9"",""206528""
","""event"",""trial"",""time""
""fullscreenenter"",""1"",""4388""
","
","","","","","","936.4000000059605","images/rabbit4.png","","","memory_trial","2","maybe_old",""
"html-keyboard-response","192","637227","0.0-18.0-0.74","5882","approach_avoid_sv1","""event"",""trial"",""time""
""fullscreenenter"",""1"",""4388""
""blur"",""9"",""154671""
""focus"",""9"",""206528""
","""event"",""trial"",""time""
""blur"",""9"",""154671""
","""event"",""trial"",""time""
""focus"",""9"",""206528""
","""event"",""trial"",""time""
""fullscreenenter"",""1"",""4388""
","
","","","","","","null","<div style=""font-size:60px;"">+</div>","null","","fixation","","",""
"memory-trial","193","639345","0.0-18.0-1.74","5882","approach_avoid_sv1","""event"",""trial"",""time""
""fullscreenenter"",""1"",""4388""
""blur"",""9"",""154671""
""focus"",""9"",""206528""
","""event"",""trial"",""time""
""blur"",""9"",""154671""
","""event"",""trial"",""time""
""focus"",""9"",""206528""
","""event"",""trial"",""time""
""fullscreenenter"",""1"",""4388""
","
","","","","","","1113.8999999985099","images/rodent3.png","","","memory_trial","1","definitely_old",""
"html-keyboard-response","194","639852","0.0-18.0-0.75","5882","approach_avoid_sv1","""event"",""trial"",""time""
""fullscreenenter"",""1"",""4388""
""blur"",""9"",""154671""
""focus"",""9"",""206528""
","""event"",""trial"",""time""
""blur"",""9"",""154671""
","""event"",""trial"",""time""
""focus"",""9"",""206528""
","""event"",""trial"",""time""
""fullscreenenter"",""1"",""4388""
","
","","","","","","null","<div style=""font-size:60px;"">+</div>","null","","fixation","","",""
"memory-trial","195","642625","0.0-18.0-1.75","5882","approach_avoid_sv1","""event"",""trial"",""time""
""fullscreenenter"",""1"",""4388""
""blur"",""9"",""154671""
""focus"",""9"",""206528""
","""event"",""trial"",""time""
""blur"",""9"",""154671""
","""event"",""trial"",""time""
""focus"",""9"",""206528""
","""event"",""trial"",""time""
""fullscreenenter"",""1"",""4388""
","
","","","","","","1766.8999999985099","images/sofa8.png","","","memory_trial","3","maybe_new",""
"html-keyboard-response","196","643132","0.0-18.0-0.76","5882","approach_avoid_sv1","""event"",""trial"",""time""
""fullscreenenter"",""1"",""4388""
""blur"",""9"",""154671""
""focus"",""9"",""206528""
","""event"",""trial"",""time""
""blur"",""9"",""154671""
","""event"",""trial"",""time""
""focus"",""9"",""206528""
","""event"",""trial"",""time""
""fullscreenenter"",""1"",""4388""
","
","","","","","","null","<div style=""font-size:60px;"">+</div>","null","","fixation","","",""
"memory-trial","197","645458","0.0-18.0-1.76","5882","approach_avoid_sv1","""event"",""trial"",""time""
""fullscreenenter"",""1"",""4388""
""blur"",""9"",""154671""
""focus"",""9"",""206528""
","""event"",""trial"",""time""
""blur"",""9"",""154671""
","""event"",""trial"",""time""
""focus"",""9"",""206528""
","""event"",""trial"",""time""
""fullscreenenter"",""1"",""4388""
","
","","","","","","1316.6000000014901","images/cow8.png","","","memory_trial","1","definitely_old",""
"html-keyboard-response","198","645964","0.0-18.0-0.77","5882","approach_avoid_sv1","""event"",""trial"",""time""
""fullscreenenter"",""1"",""4388""
""blur"",""9"",""154671""
""focus"",""9"",""206528""
","""event"",""trial"",""time""
""blur"",""9"",""154671""
","""event"",""trial"",""time""
""focus"",""9"",""206528""
","""event"",""trial"",""time""
""fullscreenenter"",""1"",""4388""
","
","","","","","","null","<div style=""font-size:60px;"">+</div>","null","","fixation","","",""
"memory-trial","199","647580","0.0-18.0-1.77","5882","approach_avoid_sv1","""event"",""trial"",""time""
""fullscreenenter"",""1"",""4388""
""blur"",""9"",""154671""
""focus"",""9"",""206528""
","""event"",""trial"",""time""
""blur"",""9"",""154671""
","""event"",""trial"",""time""
""focus"",""9"",""206528""
","""event"",""trial"",""time""
""fullscreenenter"",""1"",""4388""
","
","","","","","","610","images/horse4.png","","","memory_trial","1","definitely_old",""
"html-keyboard-response","200","648092","0.0-18.0-0.78","5882","approach_avoid_sv1","""event"",""trial"",""time""
""fullscreenenter"",""1"",""4388""
""blur"",""9"",""154671""
""focus"",""9"",""206528""
","""event"",""trial"",""time""
""blur"",""9"",""154671""
","""event"",""trial"",""time""
