"trial_type","trial_index","time_elapsed","internal_node_id","subject_id","task_version","interactions","blur_events","focus_events","fullscreenenter_events","fullscreenexit_events","success","timeout","failed_images","failed_audio","failed_video","rt","stimulus","response","button_pressed","task_part","key_press","answer","correct"
"pavlovia","0","4","0.0-0.0","4660","approach_avoid_sv1","""event"",""trial"",""time""
""fullscreenenter"",""1"",""1243""
","
","
","""event"",""trial"",""time""
""fullscreenenter"",""1"",""1243""
","
","","","","","","","","","","","","",""
"fullscreen","1","2226","0.0-1.0","4660","approach_avoid_sv1","""event"",""trial"",""time""
""fullscreenenter"",""1"",""1243""
","
","
","""event"",""trial"",""time""
""fullscreenenter"",""1"",""1243""
","
","true","","","","","","","","","","","",""
"preload","2","12816","0.0-2.0","4660","approach_avoid_sv1","""event"",""trial"",""time""
""fullscreenenter"",""1"",""1243""
","
","
","""event"",""trial"",""time""
""fullscreenenter"",""1"",""1243""
","
","true","false","[]","[]","[]","","","","","","","",""
"preload","3","21605","0.0-3.0","4660","approach_avoid_sv1","""event"",""trial"",""time""
""fullscreenenter"",""1"",""1243""
","
","
","""event"",""trial"",""time""
""fullscreenenter"",""1"",""1243""
","
","true","false","[]","[]","[]","","","","","","","",""
"preload","4","22259","0.0-4.0","4660","approach_avoid_sv1","""event"",""trial"",""time""
""fullscreenenter"",""1"",""1243""
","
","
","""event"",""trial"",""time""
""fullscreenenter"",""1"",""1243""
","
","true","false","[]","[]","[]","","","","","","","",""
"audio-keyboard-response","5","26276","0.0-5.0","4660","approach_avoid_sv1","""event"",""trial"",""time""
""fullscreenenter"",""1"",""1243""
","
","
","""event"",""trial"",""time""
""fullscreenenter"",""1"",""1243""
","
","","","","","","4008","audio/beep_loop.wav"," ","","","","",""
"audio-button-response","6","27513","0.0-6.0","4660","approach_avoid_sv1","""event"",""trial"",""time""
""fullscreenenter"",""1"",""1243""
","
","
","""event"",""trial"",""time""
""fullscreenenter"",""1"",""1243""
","
","","","","","","1240","audio/turtle.wav","3","","","","",""
"audio-button-response","7","29469","0.0-7.0","4660","approach_avoid_sv1","""event"",""trial"",""time""
""fullscreenenter"",""1"",""1243""
","
","
","""event"",""trial"",""time""
""fullscreenenter"",""1"",""1243""
","
","","","","","","939","audio/shark.wav","2","","","","",""
"preload","8","46598","0.0-8.0","4660","approach_avoid_sv1","""event"",""trial"",""time""
""fullscreenenter"",""1"",""1243""
""blur"",""9"",""50240""
""focus"",""9"",""53449""
","""event"",""trial"",""time""
""blur"",""9"",""50240""
","""event"",""trial"",""time""
""focus"",""9"",""53449""
","""event"",""trial"",""time""
""fullscreenenter"",""1"",""1243""
","
","true","false","[]","[]","[]","","","","","","","",""
"learning-instructions","9","54158","0.0-9.0-0.0","4660","approach_avoid_sv1","""event"",""trial"",""time""
""fullscreenenter"",""1"",""1243""
""blur"",""9"",""50240""
""focus"",""9"",""53449""
","""event"",""trial"",""time""
""blur"",""9"",""50240""
","""event"",""trial"",""time""
""focus"",""9"",""53449""
","""event"",""trial"",""time""
""fullscreenenter"",""1"",""1243""
","
","","","","","","3079.2999999821186","<p> Welcome back! </p><p> Last week, you had to make choices about lots of different items.  </p>","","0","instructions","","",""
"learning-instructions","10","60048","0.0-9.0-0.1","4660","approach_avoid_sv1","""event"",""trial"",""time""
""fullscreenenter"",""1"",""1243""
""blur"",""9"",""50240""
""focus"",""9"",""53449""
","""event"",""trial"",""time""
""blur"",""9"",""50240""
","""event"",""trial"",""time""
""focus"",""9"",""53449""
","""event"",""trial"",""time""
""fullscreenenter"",""1"",""1243""
","
","","","","","","1769.300000011921","<p> Today, we are going to ask you to try to remember all the items. </p>","","0","instructions","","",""
"learning-instructions","11","71916","0.0-9.0-0.2","4660","approach_avoid_sv1","""event"",""trial"",""time""
""fullscreenenter"",""1"",""1243""
""blur"",""9"",""50240""
""focus"",""9"",""53449""
","""event"",""trial"",""time""
""blur"",""9"",""50240""
","""event"",""trial"",""time""
""focus"",""9"",""53449""
","""event"",""trial"",""time""
""fullscreenenter"",""1"",""1243""
","
","","","","","","1726.5999999940395","<p> On every trial, you will see an image. </p><p> The image may be an OLD image you saw during the games last week or it may be a NEW image that was not presented. </p>","","0","instructions","","",""
"learning-instructions","12","82145","0.0-9.0-0.3","4660","approach_avoid_sv1","""event"",""trial"",""time""
""fullscreenenter"",""1"",""1243""
""blur"",""9"",""50240""
""focus"",""9"",""53449""
","""event"",""trial"",""time""
""blur"",""9"",""50240""
","""event"",""trial"",""time""
""focus"",""9"",""53449""
","""event"",""trial"",""time""
""fullscreenenter"",""1"",""1243""
","
","","","","","","1725","<p> You need to select whether the image is:  </p><p>  'Definitely old', 'Maybe old', 'Maybe new', or 'Definitely new.'  </p><div class=""mem-choice-instructions-grid""><div class=""choice-option"" id=""choice-option-1"" ><img src=""images/definitely_old_1.png"" id=""choice-option-img-1"" class=""choice-option-img"" stage=""1""></div><div class=""choice-option"" id=""choice-option-2"" ><img src=""images/maybe_old_1.png"" id=""choice-option-img-2"" class=""choice-option-img"" stage=""1""></div><div class=""choice-option"" id=""choice-option-3"" ><img src=""images/maybe_new_1.png"" id=""choice-option-img-3"" class=""choice-option-img"" stage=""1""></div><div class=""choice-option"" id=""choice-option-4"" > <img src=""images/definitely_new_1.png"" id=""choice-option-img-4"" class=""choice-option-img"" stage=""1""></div></div>","","0","instructions","","",""
"learning-instructions","13","90626","0.0-9.0-0.4","4660","approach_avoid_sv1","""event"",""trial"",""time""
""fullscreenenter"",""1"",""1243""
""blur"",""9"",""50240""
""focus"",""9"",""53449""
","""event"",""trial"",""time""
""blur"",""9"",""50240""
","""event"",""trial"",""time""
""focus"",""9"",""53449""
","""event"",""trial"",""time""
""fullscreenenter"",""1"",""1243""
","
","","","","","","1957.199999988079","<p> You should use the 1, 2, 3, and 4 keys to make your responses.  </p><div class=""mem-choice-instructions-grid""><div class=""choice-option"" id=""choice-option-1"" ><img src=""images/definitely_old.png"" id=""choice-option-img-1"" class=""choice-option-img"" stage=""1""></div><div class=""choice-option"" id=""choice-option-2"" ><img src=""images/maybe_old.png"" id=""choice-option-img-2"" class=""choice-option-img"" stage=""1""></div><div class=""choice-option"" id=""choice-option-3"" ><img src=""images/maybe_new.png"" id=""choice-option-img-3"" class=""choice-option-img"" stage=""1""></div><div class=""choice-option"" id=""choice-option-4"" > <img src=""images/definitely_new.png"" id=""choice-option-img-4"" class=""choice-option-img"" stage=""1""></div></div>","","0","instructions","","",""
"learning-instructions","14","97804","0.0-9.0-0.5","4660","approach_avoid_sv1","""event"",""trial"",""time""
""fullscreenenter"",""1"",""1243""
""blur"",""9"",""50240""
""focus"",""9"",""53449""
","""event"",""trial"",""time""
""blur"",""9"",""50240""
","""event"",""trial"",""time""
""focus"",""9"",""53449""
","""event"",""trial"",""time""
""fullscreenenter"",""1"",""1243""
","
","","","","","","835.4000000059605","<p> You will have 10 seconds to make each response.  </p><p>  Make sure to respond before time runs out! </p>","","0","instructions","","",""
"learning-instructions","15","105685","0.0-9.0-0.6","4660","approach_avoid_sv1","""event"",""trial"",""time""
""fullscreenenter"",""1"",""1243""
""blur"",""9"",""50240""
""focus"",""9"",""53449""
","""event"",""trial"",""time""
""blur"",""9"",""50240""
","""event"",""trial"",""time""
""focus"",""9"",""53449""
","""event"",""trial"",""time""
""fullscreenenter"",""1"",""1243""
","
","","","","","","806.6000000238419","<p> Today, you will see each image ONCE only.  </p><p>  That means none of the images will repeat. </p>","","0","instructions","","",""
"learning-instructions","16","118675","0.0-9.0-0.7","4660","approach_avoid_sv1","""event"",""trial"",""time""
""fullscreenenter"",""1"",""1243""
""blur"",""9"",""50240""
""focus"",""9"",""53449""
","""event"",""trial"",""time""
""blur"",""9"",""50240""
","""event"",""trial"",""time""
""focus"",""9"",""53449""
","""event"",""trial"",""time""
""fullscreenenter"",""1"",""1243""
","
","","","","","","315.90000000596046","<p> Before you play the real game, it is time to practice. </p><p>  Just like in the real game, some of the images in the practice will be ones you have seen before. </p><p>  Others will be entirely new. </p>","","0","instructions","","",""
"html-button-response","17","120061","0.0-10.0","4660","approach_avoid_sv1","""event"",""trial"",""time""
""fullscreenenter"",""1"",""1243""
""blur"",""9"",""50240""
""focus"",""9"",""53449""
","""event"",""trial"",""time""
""blur"",""9"",""50240""
","""event"",""trial"",""time""
""focus"",""9"",""53449""
","""event"",""trial"",""time""
""fullscreenenter"",""1"",""1243""
","
","","","","","","1267.300000011921","<p> Ready to practice? </p><p> Remember, use the 1, 2, 3, and 4 keys to make your responses. </p>","0","","instructions","","",""
"html-keyboard-response","18","120685","0.0-11.0-0.0","4660","approach_avoid_sv1","""event"",""trial"",""time""
""fullscreenenter"",""1"",""1243""
""blur"",""9"",""50240""
""focus"",""9"",""53449""
","""event"",""trial"",""time""
""blur"",""9"",""50240""
","""event"",""trial"",""time""
""focus"",""9"",""53449""
","""event"",""trial"",""time""
""fullscreenenter"",""1"",""1243""
","
","","","","","","null","<div style=""font-size:60px;"">+</div>","null","","fixation","","",""
"memory-trial","19","124328","0.0-11.0-1.0","4660","approach_avoid_sv1","""event"",""trial"",""time""
""fullscreenenter"",""1"",""1243""
""blur"",""9"",""50240""
""focus"",""9"",""53449""
","""event"",""trial"",""time""
""blur"",""9"",""50240""
","""event"",""trial"",""time""
""focus"",""9"",""53449""
","""event"",""trial"",""time""
""fullscreenenter"",""1"",""1243""
","
","","","","","","2633.699999988079","images/racket3.png","","","practice","1","definitely_old",""
"html-keyboard-response","20","124844","0.0-11.0-0.1","4660","approach_avoid_sv1","""event"",""trial"",""time""
""fullscreenenter"",""1"",""1243""
""blur"",""9"",""50240""
""focus"",""9"",""53449""
","""event"",""trial"",""time""
""blur"",""9"",""50240""
","""event"",""trial"",""time""
""focus"",""9"",""53449""
","""event"",""trial"",""time""
""fullscreenenter"",""1"",""1243""
","
","","","","","","null","<div style=""font-size:60px;"">+</div>","null","","fixation","","",""
"memory-trial","21","126743","0.0-11.0-1.1","4660","approach_avoid_sv1","""event"",""trial"",""time""
""fullscreenenter"",""1"",""1243""
""blur"",""9"",""50240""
""focus"",""9"",""53449""
","""event"",""trial"",""time""
""blur"",""9"",""50240""
","""event"",""trial"",""time""
""focus"",""9"",""53449""
","""event"",""trial"",""time""
""fullscreenenter"",""1"",""1243""
","
","","","","","","885.5999999940395","images/racket2.png","","","practice","1","definitely_old",""
"html-keyboard-response","22","127247","0.0-11.0-0.2","4660","approach_avoid_sv1","""event"",""trial"",""time""
""fullscreenenter"",""1"",""1243""
""blur"",""9"",""50240""
""focus"",""9"",""53449""
","""event"",""trial"",""time""
""blur"",""9"",""50240""
","""event"",""trial"",""time""
""focus"",""9"",""53449""
","""event"",""trial"",""time""
""fullscreenenter"",""1"",""1243""
","
","","","","","","null","<div style=""font-size:60px;"">+</div>","null","","fixation","","",""
"memory-trial","23","130214","0.0-11.0-1.2","4660","approach_avoid_sv1","""event"",""trial"",""time""
""fullscreenenter"",""1"",""1243""
""blur"",""9"",""50240""
""focus"",""9"",""53449""
","""event"",""trial"",""time""
""blur"",""9"",""50240""
","""event"",""trial"",""time""
""focus"",""9"",""53449""
","""event"",""trial"",""time""
""fullscreenenter"",""1"",""1243""
","
","","","","","","1959","images/racket5.png","","","practice","4","definitely_new",""
"html-keyboard-response","24","130719","0.0-11.0-0.3","4660","approach_avoid_sv1","""event"",""trial"",""time""
""fullscreenenter"",""1"",""1243""
""blur"",""9"",""50240""
""focus"",""9"",""53449""
","""event"",""trial"",""time""
""blur"",""9"",""50240""
","""event"",""trial"",""time""
""focus"",""9"",""53449""
","""event"",""trial"",""time""
""fullscreenenter"",""1"",""1243""
","
","","","","","","null","<div style=""font-size:60px;"">+</div>","null","","fixation","","",""
"memory-trial","25","132513","0.0-11.0-1.3","4660","approach_avoid_sv1","""event"",""trial"",""time""
""fullscreenenter"",""1"",""1243""
""blur"",""9"",""50240""
""focus"",""9"",""53449""
","""event"",""trial"",""time""
""blur"",""9"",""50240""
","""event"",""trial"",""time""
""focus"",""9"",""53449""
","""event"",""trial"",""time""
""fullscreenenter"",""1"",""1243""
","
","","","","","","786.2999999821186","images/ball2.png","","","practice","1","definitely_old",""
"html-keyboard-response","26","133030","0.0-11.0-0.4","4660","approach_avoid_sv1","""event"",""trial"",""time""
""fullscreenenter"",""1"",""1243""
""blur"",""9"",""50240""
""focus"",""9"",""53449""
","""event"",""trial"",""time""
""blur"",""9"",""50240""
","""event"",""trial"",""time""
""focus"",""9"",""53449""
","""event"",""trial"",""time""
""fullscreenenter"",""1"",""1243""
","
","","","","","","null","<div style=""font-size:60px;"">+</div>","null","","fixation","","",""
"memory-trial","27","135439","0.0-11.0-1.4","4660","approach_avoid_sv1","""event"",""trial"",""time""
""fullscreenenter"",""1"",""1243""
""blur"",""9"",""50240""
""focus"",""9"",""53449""
","""event"",""trial"",""time""
""blur"",""9"",""50240""
","""event"",""trial"",""time""
""focus"",""9"",""53449""
","""event"",""trial"",""time""
""fullscreenenter"",""1"",""1243""
","
","","","","","","1398.6000000238419","images/ball1.png","","","practice","3","maybe_new",""
"html-keyboard-response","28","135940","0.0-11.0-0.5","4660","approach_avoid_sv1","""event"",""trial"",""time""
""fullscreenenter"",""1"",""1243""
""blur"",""9"",""50240""
""focus"",""9"",""53449""
","""event"",""trial"",""time""
""blur"",""9"",""50240""
","""event"",""trial"",""time""
""focus"",""9"",""53449""
","""event"",""trial"",""time""
""fullscreenenter"",""1"",""1243""
","
","","","","","","null","<div style=""font-size:60px;"">+</div>","null","","fixation","","",""
"memory-trial","29","137927","0.0-11.0-1.5","4660","approach_avoid_sv1","""event"",""trial"",""time""
""fullscreenenter"",""1"",""1243""
""blur"",""9"",""50240""
""focus"",""9"",""53449""
","""event"",""trial"",""time""
""blur"",""9"",""50240""
","""event"",""trial"",""time""
""focus"",""9"",""53449""
","""event"",""trial"",""time""
""fullscreenenter"",""1"",""1243""
","
","","","","","","978.4000000059605","images/ball5.png","","","practice","1","definitely_old",""
"html-keyboard-response","30","138446","0.0-11.0-0.6","4660","approach_avoid_sv1","""event"",""trial"",""time""
""fullscreenenter"",""1"",""1243""
""blur"",""9"",""50240""
""focus"",""9"",""53449""
","""event"",""trial"",""time""
""blur"",""9"",""50240""
","""event"",""trial"",""time""
""focus"",""9"",""53449""
","""event"",""trial"",""time""
""fullscreenenter"",""1"",""1243""
","
","","","","","","null","<div style=""font-size:60px;"">+</div>","null","","fixation","","",""
"memory-trial","31","140354","0.0-11.0-1.6","4660","approach_avoid_sv1","""event"",""trial"",""time""
""fullscreenenter"",""1"",""1243""
""blur"",""9"",""50240""
""focus"",""9"",""53449""
","""event"",""trial"",""time""
""blur"",""9"",""50240""
","""event"",""trial"",""time""
""focus"",""9"",""53449""
","""event"",""trial"",""time""
""fullscreenenter"",""1"",""1243""
","
","","","","","","893.4000000059605","images/ball3.png","","","practice","4","definitely_new",""
"html-keyboard-response","32","140867","0.0-11.0-0.7","4660","approach_avoid_sv1","""event"",""trial"",""time""
""fullscreenenter"",""1"",""1243""
""blur"",""9"",""50240""
""focus"",""9"",""53449""
","""event"",""trial"",""time""
""blur"",""9"",""50240""
","""event"",""trial"",""time""
""focus"",""9"",""53449""
","""event"",""trial"",""time""
""fullscreenenter"",""1"",""1243""
","
","","","","","","null","<div style=""font-size:60px;"">+</div>","null","","fixation","","",""
"memory-trial","33","142931","0.0-11.0-1.7","4660","approach_avoid_sv1","""event"",""trial"",""time""
""fullscreenenter"",""1"",""1243""
""blur"",""9"",""50240""
""focus"",""9"",""53449""
","""event"",""trial"",""time""
""blur"",""9"",""50240""
","""event"",""trial"",""time""
""focus"",""9"",""53449""
","""event"",""trial"",""time""
""fullscreenenter"",""1"",""1243""
","
","","","","","","1052.7000000178814","images/racket1.png","","","practice","3","maybe_new",""
"learning-instructions","34","153281","0.0-12.0-0.0","4660","approach_avoid_sv1","""event"",""trial"",""time""
""fullscreenenter"",""1"",""1243""
""blur"",""9"",""50240""
""focus"",""9"",""53449""
","""event"",""trial"",""time""
""blur"",""9"",""50240""
","""event"",""trial"",""time""
""focus"",""9"",""53449""
","""event"",""trial"",""time""
""fullscreenenter"",""1"",""1243""
","
","","","","","","3041.7000000178814","<p> Great! You have completed the practice. </p><p> Before you start, we're going to ask you a few questions about how the game works.  </p>","","0","instructions","","",""
"preload","35","166350","0.0-13.0","4660","approach_avoid_sv1","""event"",""trial"",""time""
""fullscreenenter"",""1"",""1243""
""blur"",""9"",""50240""
""focus"",""9"",""53449""
","""event"",""trial"",""time""
""blur"",""9"",""50240""
","""event"",""trial"",""time""
""focus"",""9"",""53449""
","""event"",""trial"",""time""
""fullscreenenter"",""1"",""1243""
","
","true","false","[]","[]","[]","","","","","","","",""
"comp-q","36","172731","0.0-14.0-0.0","4660","approach_avoid_sv1","""event"",""trial"",""time""
""fullscreenenter"",""1"",""1243""
""blur"",""9"",""50240""
""focus"",""9"",""53449""
","""event"",""trial"",""time""
""blur"",""9"",""50240""
","""event"",""trial"",""time""
""focus"",""9"",""53449""
","""event"",""trial"",""time""
""fullscreenenter"",""1"",""1243""
","
","","","","","","552.3000000119209","<p> <b> True or False? </b> </p><p> In this game, you will only see each image once. </p>","","0","comp_question","","","true"
"comp-q","37","180532","0.0-14.0-1.0","4660","approach_avoid_sv1","""event"",""trial"",""time""
""fullscreenenter"",""1"",""1243""
""blur"",""9"",""50240""
""focus"",""9"",""53449""
","""event"",""trial"",""time""
""blur"",""9"",""50240""
","""event"",""trial"",""time""
""focus"",""9"",""53449""
","""event"",""trial"",""time""
""fullscreenenter"",""1"",""1243""
","
","","","","","","1453.9000000059605","<p> <b> That's right! </b> You will see many different images <i> one time each </i> in this game. </p>","","0","comp_answer","","",""
"comp-q","38","186244","0.0-15.0-0.0","4660","approach_avoid_sv1","""event"",""trial"",""time""
""fullscreenenter"",""1"",""1243""
""blur"",""9"",""50240""
""focus"",""9"",""53449""
","""event"",""trial"",""time""
""blur"",""9"",""50240""
","""event"",""trial"",""time""
""focus"",""9"",""53449""
","""event"",""trial"",""time""
""fullscreenenter"",""1"",""1243""
","
","","","","","","715.4000000059605","<p> <b> True or False? </b> </p><p> You should use the mouse and click to make your response. </p>","","1","comp_question","","","true"
"comp-q","39","194496","0.0-15.0-1.0","4660","approach_avoid_sv1","""event"",""trial"",""time""
""fullscreenenter"",""1"",""1243""
""blur"",""9"",""50240""
""focus"",""9"",""53449""
","""event"",""trial"",""time""
""blur"",""9"",""50240""
","""event"",""trial"",""time""
""focus"",""9"",""53449""
","""event"",""trial"",""time""
""fullscreenenter"",""1"",""1243""
","
","","","","","","1748.7000000178814","<p><b> That's right! </b> You should use the '1', '2', '3', and '4' keys to make your response. </p>","","0","comp_answer","","",""
"comp-q","40","200773","0.0-16.0-0.0","4660","approach_avoid_sv1","""event"",""trial"",""time""
""fullscreenenter"",""1"",""1243""
""blur"",""9"",""50240""
""focus"",""9"",""53449""
","""event"",""trial"",""time""
""blur"",""9"",""50240""
","""event"",""trial"",""time""
""focus"",""9"",""53449""
","""event"",""trial"",""time""
""fullscreenenter"",""1"",""1243""
","
","","","","","","595.7999999821186","<p> <b> True or False? </b> </p><p> You will have as much time as you want to make each choice. </p>","","1","comp_question","","","true"
"comp-q","41","208586","0.0-16.0-1.0","4660","approach_avoid_sv1","""event"",""trial"",""time""
""fullscreenenter"",""1"",""1243""
""blur"",""9"",""50240""
""focus"",""9"",""53449""
","""event"",""trial"",""time""
""blur"",""9"",""50240""
","""event"",""trial"",""time""
""focus"",""9"",""53449""
","""event"",""trial"",""time""
""fullscreenenter"",""1"",""1243""
","
","","","","","","3097.2999999821186","<p> <b> That's right! </b> You will only have 10 seconds to make each choice. </p>","","0","comp_answer","","",""
"learning-instructions","42","219172","0.0-17.0","4660","approach_avoid_sv1","""event"",""trial"",""time""
""fullscreenenter"",""1"",""1243""
""blur"",""9"",""50240""
""focus"",""9"",""53449""
","""event"",""trial"",""time""
""blur"",""9"",""50240""
","""event"",""trial"",""time""
""focus"",""9"",""53449""
","""event"",""trial"",""time""
""fullscreenenter"",""1"",""1243""
","
","","","","","","1903.7999999821186","<p> Great! You are now ready to begin the game. </p><p> Remember, use the 1, 2, 3, and 4 keys to make your responses. </p>","","0","instructions","","",""
"html-keyboard-response","43","219794","0.0-18.0-0.0","4660","approach_avoid_sv1","""event"",""trial"",""time""
""fullscreenenter"",""1"",""1243""
""blur"",""9"",""50240""
""focus"",""9"",""53449""
","""event"",""trial"",""time""
""blur"",""9"",""50240""
","""event"",""trial"",""time""
""focus"",""9"",""53449""
","""event"",""trial"",""time""
""fullscreenenter"",""1"",""1243""
","
","","","","","","null","<div style=""font-size:60px;"">+</div>","null","","fixation","","",""
"memory-trial","44","222981","0.0-18.0-1.0","4660","approach_avoid_sv1","""event"",""trial"",""time""
""fullscreenenter"",""1"",""1243""
""blur"",""9"",""50240""
""focus"",""9"",""53449""
","""event"",""trial"",""time""
""blur"",""9"",""50240""
","""event"",""trial"",""time""
""focus"",""9"",""53449""
","""event"",""trial"",""time""
""fullscreenenter"",""1"",""1243""
","
","","","","","","2172","images/rodent1.png","","","memory_trial","1","definitely_old",""
"html-keyboard-response","45","223497","0.0-18.0-0.1","4660","approach_avoid_sv1","""event"",""trial"",""time""
""fullscreenenter"",""1"",""1243""
""blur"",""9"",""50240""
""focus"",""9"",""53449""
","""event"",""trial"",""time""
""blur"",""9"",""50240""
","""event"",""trial"",""time""
""focus"",""9"",""53449""
","""event"",""trial"",""time""
""fullscreenenter"",""1"",""1243""
","
","","","","","","null","<div style=""font-size:60px;"">+</div>","null","","fixation","","",""
"memory-trial","46","225183","0.0-18.0-1.1","4660","approach_avoid_sv1","""event"",""trial"",""time""
""fullscreenenter"",""1"",""1243""
""blur"",""9"",""50240""
""focus"",""9"",""53449""
","""event"",""trial"",""time""
""blur"",""9"",""50240""
","""event"",""trial"",""time""
""focus"",""9"",""53449""
","""event"",""trial"",""time""
""fullscreenenter"",""1"",""1243""
","
","","","","","","675.6999999880791","images/cactus7.png","","","memory_trial","1","definitely_old",""
"html-keyboard-response","47","225685","0.0-18.0-0.2","4660","approach_avoid_sv1","""event"",""trial"",""time""
""fullscreenenter"",""1"",""1243""
""blur"",""9"",""50240""
""focus"",""9"",""53449""
","""event"",""trial"",""time""
""blur"",""9"",""50240""
","""event"",""trial"",""time""
""focus"",""9"",""53449""
","""event"",""trial"",""time""
""fullscreenenter"",""1"",""1243""
","
","","","","","","null","<div style=""font-size:60px;"">+</div>","null","","fixation","","",""
"memory-trial","48","228255","0.0-18.0-1.2","4660","approach_avoid_sv1","""event"",""trial"",""time""
""fullscreenenter"",""1"",""1243""
""blur"",""9"",""50240""
""focus"",""9"",""53449""
","""event"",""trial"",""time""
""blur"",""9"",""50240""
","""event"",""trial"",""time""
""focus"",""9"",""53449""
","""event"",""trial"",""time""
""fullscreenenter"",""1"",""1243""
","
","","","","","","1565.7000000178814","images/sheep2.png","","","memory_trial","4","definitely_new",""
"html-keyboard-response","49","228768","0.0-18.0-0.3","4660","approach_avoid_sv1","""event"",""trial"",""time""
""fullscreenenter"",""1"",""1243""
""blur"",""9"",""50240""
""focus"",""9"",""53449""
","""event"",""trial"",""time""
""blur"",""9"",""50240""
","""event"",""trial"",""time""
""focus"",""9"",""53449""
","""event"",""trial"",""time""
""fullscreenenter"",""1"",""1243""
","
","","","","","","null","<div style=""font-size:60px;"">+</div>","null","","fixation","","",""
"memory-trial","50","231153","0.0-18.0-1.3","4660","approach_avoid_sv1","""event"",""trial"",""time""
""fullscreenenter"",""1"",""1243""
""blur"",""9"",""50240""
""focus"",""9"",""53449""
","""event"",""trial"",""time""
""blur"",""9"",""50240""
","""event"",""trial"",""time""
""focus"",""9"",""53449""
","""event"",""trial"",""time""
""fullscreenenter"",""1"",""1243""
","
","","","","","","1375.5999999940395","images/truck7.png","","","memory_trial","4","definitely_new",""
"html-keyboard-response","51","231666","0.0-18.0-0.4","4660","approach_avoid_sv1","""event"",""trial"",""time""
""fullscreenenter"",""1"",""1243""
""blur"",""9"",""50240""
""focus"",""9"",""53449""
","""event"",""trial"",""time""
""blur"",""9"",""50240""
","""event"",""trial"",""time""
""focus"",""9"",""53449""
","""event"",""trial"",""time""
""fullscreenenter"",""1"",""1243""
","
","","","","","","null","<div style=""font-size:60px;"">+</div>","null","","fixation","","",""
"memory-trial","52","233182","0.0-18.0-1.4","4660","approach_avoid_sv1","""event"",""trial"",""time""
""fullscreenenter"",""1"",""1243""
""blur"",""9"",""50240""
""focus"",""9"",""53449""
","""event"",""trial"",""time""
""blur"",""9"",""50240""
","""event"",""trial"",""time""
""focus"",""9"",""53449""
","""event"",""trial"",""time""
""fullscreenenter"",""1"",""1243""
","
","","","","","","500","images/orange1.png","","","memory_trial","1","definitely_old",""
"html-keyboard-response","53","233694","0.0-18.0-0.5","4660","approach_avoid_sv1","""event"",""trial"",""time""
""fullscreenenter"",""1"",""1243""
""blur"",""9"",""50240""
""focus"",""9"",""53449""
","""event"",""trial"",""time""
""blur"",""9"",""50240""
","""event"",""trial"",""time""
""focus"",""9"",""53449""
","""event"",""trial"",""time""
""fullscreenenter"",""1"",""1243""
","
","","","","","","null","<div style=""font-size:60px;"">+</div>","null","","fixation","","",""
"memory-trial","54","235735","0.0-18.0-1.5","4660","approach_avoid_sv1","""event"",""trial"",""time""
""fullscreenenter"",""1"",""1243""
""blur"",""9"",""50240""
""focus"",""9"",""53449""
","""event"",""trial"",""time""
""blur"",""9"",""50240""
","""event"",""trial"",""time""
""focus"",""9"",""53449""
","""event"",""trial"",""time""
""fullscreenenter"",""1"",""1243""
","
","","","","","","1025.9000000059605","images/truck1.png","","","memory_trial","1","definitely_old",""
"html-keyboard-response","55","236247","0.0-18.0-0.6","4660","approach_avoid_sv1","""event"",""trial"",""time""
""fullscreenenter"",""1"",""1243""
""blur"",""9"",""50240""
""focus"",""9"",""53449""
","""event"",""trial"",""time""
""blur"",""9"",""50240""
","""event"",""trial"",""time""
""focus"",""9"",""53449""
","""event"",""trial"",""time""
""fullscreenenter"",""1"",""1243""
","
","","","","","","null","<div style=""font-size:60px;"">+</div>","null","","fixation","","",""
"memory-trial","56","238140","0.0-18.0-1.6","4660","approach_avoid_sv1","""event"",""trial"",""time""
""fullscreenenter"",""1"",""1243""
""blur"",""9"",""50240""
""focus"",""9"",""53449""
","""event"",""trial"",""time""
""blur"",""9"",""50240""
","""event"",""trial"",""time""
""focus"",""9"",""53449""
","""event"",""trial"",""time""
""fullscreenenter"",""1"",""1243""
","
","","","","","","875.0999999940395","images/apple7.png","","","memory_trial","1","definitely_old",""
"html-keyboard-response","57","238654","0.0-18.0-0.7","4660","approach_avoid_sv1","""event"",""trial"",""time""
""fullscreenenter"",""1"",""1243""
""blur"",""9"",""50240""
""focus"",""9"",""53449""
","""event"",""trial"",""time""
""blur"",""9"",""50240""
","""event"",""trial"",""time""
""focus"",""9"",""53449""
","""event"",""trial"",""time""
""fullscreenenter"",""1"",""1243""
","
","","","","","","null","<div style=""font-size:60px;"">+</div>","null","","fixation","","",""
"memory-trial","58","240143","0.0-18.0-1.7","4660","approach_avoid_sv1","""event"",""trial"",""time""
""fullscreenenter"",""1"",""1243""
""blur"",""9"",""50240""
""focus"",""9"",""53449""
","""event"",""trial"",""time""
""blur"",""9"",""50240""
","""event"",""trial"",""time""
""focus"",""9"",""53449""
","""event"",""trial"",""time""
""fullscreenenter"",""1"",""1243""
","
","","","","","","475.7000000178814","images/sofa6.png","","","memory_trial","4","definitely_new",""
"html-keyboard-response","59","240655","0.0-18.0-0.8","4660","approach_avoid_sv1","""event"",""trial"",""time""
""fullscreenenter"",""1"",""1243""
""blur"",""9"",""50240""
""focus"",""9"",""53449""
","""event"",""trial"",""time""
""blur"",""9"",""50240""
","""event"",""trial"",""time""
""focus"",""9"",""53449""
","""event"",""trial"",""time""
""fullscreenenter"",""1"",""1243""
","
","","","","","","null","<div style=""font-size:60px;"">+</div>","null","","fixation","","",""
"memory-trial","60","242715","0.0-18.0-1.8","4660","approach_avoid_sv1","""event"",""trial"",""time""
""fullscreenenter"",""1"",""1243""
""blur"",""9"",""50240""
""focus"",""9"",""53449""
","""event"",""trial"",""time""
""blur"",""9"",""50240""
","""event"",""trial"",""time""
""focus"",""9"",""53449""
","""event"",""trial"",""time""
""fullscreenenter"",""1"",""1243""
","
","","","","","","1041.2999999821186","images/cow4.png","","","memory_trial","3","maybe_new",""
"html-keyboard-response","61","243229","0.0-18.0-0.9","4660","approach_avoid_sv1","""event"",""trial"",""time""
""fullscreenenter"",""1"",""1243""
""blur"",""9"",""50240""
""focus"",""9"",""53449""
","""event"",""trial"",""time""
""blur"",""9"",""50240""
","""event"",""trial"",""time""
""focus"",""9"",""53449""
","""event"",""trial"",""time""
""fullscreenenter"",""1"",""1243""
","
","","","","","","null","<div style=""font-size:60px;"">+</div>","null","","fixation","","",""
"memory-trial","62","247694","0.0-18.0-1.9","4660","approach_avoid_sv1","""event"",""trial"",""time""
""fullscreenenter"",""1"",""1243""
""blur"",""9"",""50240""
""focus"",""9"",""53449""
","""event"",""trial"",""time""
""blur"",""9"",""50240""
","""event"",""trial"",""time""
""focus"",""9"",""53449""
","""event"",""trial"",""time""
""fullscreenenter"",""1"",""1243""
","
","","","","","","3462.199999988079","images/sheep5.png","","","memory_trial","3","maybe_new",""
"html-keyboard-response","63","248197","0.0-18.0-0.10","4660","approach_avoid_sv1","""event"",""trial"",""time""
""fullscreenenter"",""1"",""1243""
""blur"",""9"",""50240""
""focus"",""9"",""53449""
","""event"",""trial"",""time""
""blur"",""9"",""50240""
","""event"",""trial"",""time""
""focus"",""9"",""53449""
","""event"",""trial"",""time""
""fullscreenenter"",""1"",""1243""
","
","","","","","","null","<div style=""font-size:60px;"">+</div>","null","","fixation","","",""
"memory-trial","64","249942","0.0-18.0-1.10","4660","approach_avoid_sv1","""event"",""trial"",""time""
""fullscreenenter"",""1"",""1243""
""blur"",""9"",""50240""
""focus"",""9"",""53449""
","""event"",""trial"",""time""
""blur"",""9"",""50240""
","""event"",""trial"",""time""
""focus"",""9"",""53449""
","""event"",""trial"",""time""
""fullscreenenter"",""1"",""1243""
","
","","","","","","742","images/straw5.png","","","memory_trial","3","maybe_new",""
"html-keyboard-response","65","250445","0.0-18.0-0.11","4660","approach_avoid_sv1","""event"",""trial"",""time""
""fullscreenenter"",""1"",""1243""
""blur"",""9"",""50240""
""focus"",""9"",""53449""
","""event"",""trial"",""time""
""blur"",""9"",""50240""
","""event"",""trial"",""time""
""focus"",""9"",""53449""
","""event"",""trial"",""time""
""fullscreenenter"",""1"",""1243""
","
","","","","","","null","<div style=""font-size:60px;"">+</div>","null","","fixation","","",""
"memory-trial","66","252927","0.0-18.0-1.11","4660","approach_avoid_sv1","""event"",""trial"",""time""
""fullscreenenter"",""1"",""1243""
""blur"",""9"",""50240""
""focus"",""9"",""53449""
","""event"",""trial"",""time""
""blur"",""9"",""50240""
","""event"",""trial"",""time""
""focus"",""9"",""53449""
","""event"",""trial"",""time""
""fullscreenenter"",""1"",""1243""
","
","","","","","","1475.199999988079","images/table3.png","","","memory_trial","1","definitely_old",""
"html-keyboard-response","67","253430","0.0-18.0-0.12","4660","approach_avoid_sv1","""event"",""trial"",""time""
""fullscreenenter"",""1"",""1243""
""blur"",""9"",""50240""
""focus"",""9"",""53449""
","""event"",""trial"",""time""
""blur"",""9"",""50240""
","""event"",""trial"",""time""
""focus"",""9"",""53449""
","""event"",""trial"",""time""
""fullscreenenter"",""1"",""1243""
","
","","","","","","null","<div style=""font-size:60px;"">+</div>","null","","fixation","","",""
"memory-trial","68","255367","0.0-18.0-1.12","4660","approach_avoid_sv1","""event"",""trial"",""time""
""fullscreenenter"",""1"",""1243""
""blur"",""9"",""50240""
""focus"",""9"",""53449""
","""event"",""trial"",""time""
""blur"",""9"",""50240""
","""event"",""trial"",""time""
""focus"",""9"",""53449""
","""event"",""trial"",""time""
""fullscreenenter"",""1"",""1243""
","
","","","","","","931.6999999880791","images/straw7.png","","","memory_trial","1","definitely_old",""
"html-keyboard-response","69","255871","0.0-18.0-0.13","4660","approach_avoid_sv1","""event"",""trial"",""time""
""fullscreenenter"",""1"",""1243""
""blur"",""9"",""50240""
""focus"",""9"",""53449""
","""event"",""trial"",""time""
""blur"",""9"",""50240""
","""event"",""trial"",""time""
""focus"",""9"",""53449""
","""event"",""trial"",""time""
""fullscreenenter"",""1"",""1243""
","
","","","","","","null","<div style=""font-size:60px;"">+</div>","null","","fixation","","",""
"memory-trial","70","257614","0.0-18.0-1.13","4660","approach_avoid_sv1","""event"",""trial"",""time""
""fullscreenenter"",""1"",""1243""
""blur"",""9"",""50240""
""focus"",""9"",""53449""
","""event"",""trial"",""time""
""blur"",""9"",""50240""
","""event"",""trial"",""time""
""focus"",""9"",""53449""
","""event"",""trial"",""time""
""fullscreenenter"",""1"",""1243""
","
","","","","","","734","images/cat5.png","","","memory_trial","1","definitely_old",""
"html-keyboard-response","71","258118","0.0-18.0-0.14","4660","approach_avoid_sv1","""event"",""trial"",""time""
""fullscreenenter"",""1"",""1243""
""blur"",""9"",""50240""
""focus"",""9"",""53449""
","""event"",""trial"",""time""
""blur"",""9"",""50240""
","""event"",""trial"",""time""
""focus"",""9"",""53449""
","""event"",""trial"",""time""
""fullscreenenter"",""1"",""1243""
","
","","","","","","null","<div style=""font-size:60px;"">+</div>","null","","fixation","","",""
"memory-trial","72","260143","0.0-18.0-1.14","4660","approach_avoid_sv1","""event"",""trial"",""time""
""fullscreenenter"",""1"",""1243""
""blur"",""9"",""50240""
""focus"",""9"",""53449""
","""event"",""trial"",""time""
""blur"",""9"",""50240""
","""event"",""trial"",""time""
""focus"",""9"",""53449""
","""event"",""trial"",""time""
""fullscreenenter"",""1"",""1243""
","
","","","","","","1019.3000000119209","images/rodent4.png","","","memory_trial","3","maybe_new",""
"html-keyboard-response","73","260658","0.0-18.0-0.15","4660","approach_avoid_sv1","""event"",""trial"",""time""
""fullscreenenter"",""1"",""1243""
""blur"",""9"",""50240""
""focus"",""9"",""53449""
","""event"",""trial"",""time""
""blur"",""9"",""50240""
","""event"",""trial"",""time""
""focus"",""9"",""53449""
","""event"",""trial"",""time""
""fullscreenenter"",""1"",""1243""
","
","","","","","","null","<div style=""font-size:60px;"">+</div>","null","","fixation","","",""
"memory-trial","74","262817","0.0-18.0-1.15","4660","approach_avoid_sv1","""event"",""trial"",""time""
""fullscreenenter"",""1"",""1243""
""blur"",""9"",""50240""
""focus"",""9"",""53449""
","""event"",""trial"",""time""
""blur"",""9"",""50240""
","""event"",""trial"",""time""
""focus"",""9"",""53449""
","""event"",""trial"",""time""
""fullscreenenter"",""1"",""1243""
","
","","","","","","1147.7000000178814","images/horse2.png","","","memory_trial","4","definitely_new",""
"html-keyboard-response","75","263318","0.0-18.0-0.16","4660","approach_avoid_sv1","""event"",""trial"",""time""
""fullscreenenter"",""1"",""1243""
""blur"",""9"",""50240""
""focus"",""9"",""53449""
","""event"",""trial"",""time""
""blur"",""9"",""50240""
","""event"",""trial"",""time""
""focus"",""9"",""53449""
","""event"",""trial"",""time""
""fullscreenenter"",""1"",""1243""
","
","","","","","","null","<div style=""font-size:60px;"">+</div>","null","","fixation","","",""
"memory-trial","76","265823","0.0-18.0-1.16","4660","approach_avoid_sv1","""event"",""trial"",""time""
""fullscreenenter"",""1"",""1243""
""blur"",""9"",""50240""
""focus"",""9"",""53449""
","""event"",""trial"",""time""
""blur"",""9"",""50240""
","""event"",""trial"",""time""
""focus"",""9"",""53449""
","""event"",""trial"",""time""
""fullscreenenter"",""1"",""1243""
","
","","","","","","1498.5","images/plane4.png","","","memory_trial","3","maybe_new",""
"html-keyboard-response","77","266327","0.0-18.0-0.17","4660","approach_avoid_sv1","""event"",""trial"",""time""
""fullscreenenter"",""1"",""1243""
""blur"",""9"",""50240""
""focus"",""9"",""53449""
","""event"",""trial"",""time""
""blur"",""9"",""50240""
","""event"",""trial"",""time""
""focus"",""9"",""53449""
","""event"",""trial"",""time""
""fullscreenenter"",""1"",""1243""
","
","","","","","","null","<div style=""font-size:60px;"">+</div>","null","","fixation","","",""
"memory-trial","78","269807","0.0-18.0-1.17","4660","approach_avoid_sv1","""event"",""trial"",""time""
""fullscreenenter"",""1"",""1243""
""blur"",""9"",""50240""
""focus"",""9"",""53449""
","""event"",""trial"",""time""
""blur"",""9"",""50240""
","""event"",""trial"",""time""
""focus"",""9"",""53449""
","""event"",""trial"",""time""
""fullscreenenter"",""1"",""1243""
","
","","","","","","2471.7999999821186","images/cow2.png","","","memory_trial","2","maybe_old",""
"html-keyboard-response","79","270311","0.0-18.0-0.18","4660","approach_avoid_sv1","""event"",""trial"",""time""
""fullscreenenter"",""1"",""1243""
""blur"",""9"",""50240""
""focus"",""9"",""53449""
","""event"",""trial"",""time""
""blur"",""9"",""50240""
","""event"",""trial"",""time""
""focus"",""9"",""53449""
","""event"",""trial"",""time""
""fullscreenenter"",""1"",""1243""
","
","","","","","","null","<div style=""font-size:60px;"">+</div>","null","","fixation","","",""
"memory-trial","80","272159","0.0-18.0-1.18","4660","approach_avoid_sv1","""event"",""trial"",""time""
""fullscreenenter"",""1"",""1243""
""blur"",""9"",""50240""
""focus"",""9"",""53449""
","""event"",""trial"",""time""
""blur"",""9"",""50240""
","""event"",""trial"",""time""
""focus"",""9"",""53449""
","""event"",""trial"",""time""
""fullscreenenter"",""1"",""1243""
","
","","","","","","842.5","images/cat2.png","","","memory_trial","3","maybe_new",""
"html-keyboard-response","81","272662","0.0-18.0-0.19","4660","approach_avoid_sv1","""event"",""trial"",""time""
""fullscreenenter"",""1"",""1243""
""blur"",""9"",""50240""
""focus"",""9"",""53449""
","""event"",""trial"",""time""
""blur"",""9"",""50240""
","""event"",""trial"",""time""
""focus"",""9"",""53449""
","""event"",""trial"",""time""
""fullscreenenter"",""1"",""1243""
","
","","","","","","null","<div style=""font-size:60px;"">+</div>","null","","fixation","","",""
"memory-trial","82","274808","0.0-18.0-1.19","4660","approach_avoid_sv1","""event"",""trial"",""time""
""fullscreenenter"",""1"",""1243""
""blur"",""9"",""50240""
""focus"",""9"",""53449""
","""event"",""trial"",""time""
""blur"",""9"",""50240""
","""event"",""trial"",""time""
""focus"",""9"",""53449""
","""event"",""trial"",""time""
""fullscreenenter"",""1"",""1243""
","
","","","","","","1141.1000000238419","images/flower8.png","","","memory_trial","3","maybe_new",""
"html-keyboard-response","83","275321","0.0-18.0-0.20","4660","approach_avoid_sv1","""event"",""trial"",""time""
""fullscreenenter"",""1"",""1243""
""blur"",""9"",""50240""
""focus"",""9"",""53449""
","""event"",""trial"",""time""
""blur"",""9"",""50240""
","""event"",""trial"",""time""
""focus"",""9"",""53449""
","""event"",""trial"",""time""
""fullscreenenter"",""1"",""1243""
","
","","","","","","null","<div style=""font-size:60px;"">+</div>","null","","fixation","","",""
"memory-trial","84","277135","0.0-18.0-1.20","4660","approach_avoid_sv1","""event"",""trial"",""time""
""fullscreenenter"",""1"",""1243""
""blur"",""9"",""50240""
""focus"",""9"",""53449""
","""event"",""trial"",""time""
""blur"",""9"",""50240""
","""event"",""trial"",""time""
""focus"",""9"",""53449""
","""event"",""trial"",""time""
""fullscreenenter"",""1"",""1243""
","
","","","","","","810.1999999880791","images/bed7.png","","","memory_trial","4","definitely_new",""
"html-keyboard-response","85","277639","0.0-18.0-0.21","4660","approach_avoid_sv1","""event"",""trial"",""time""
""fullscreenenter"",""1"",""1243""
""blur"",""9"",""50240""
""focus"",""9"",""53449""
","""event"",""trial"",""time""
""blur"",""9"",""50240""
","""event"",""trial"",""time""
""focus"",""9"",""53449""
","""event"",""trial"",""time""
""fullscreenenter"",""1"",""1243""
","
","","","","","","null","<div style=""font-size:60px;"">+</div>","null","","fixation","","",""
"memory-trial","86","280446","0.0-18.0-1.21","4660","approach_avoid_sv1","""event"",""trial"",""time""
""fullscreenenter"",""1"",""1243""
""blur"",""9"",""50240""
""focus"",""9"",""53449""
","""event"",""trial"",""time""
""blur"",""9"",""50240""
","""event"",""trial"",""time""
""focus"",""9"",""53449""
","""event"",""trial"",""time""
""fullscreenenter"",""1"",""1243""
","
","","","","","","1805.5","images/orange6.png","","","memory_trial","1","definitely_old",""
"html-keyboard-response","87","280951","0.0-18.0-0.22","4660","approach_avoid_sv1","""event"",""trial"",""time""
""fullscreenenter"",""1"",""1243""
""blur"",""9"",""50240""
""focus"",""9"",""53449""
","""event"",""trial"",""time""
""blur"",""9"",""50240""
","""event"",""trial"",""time""
""focus"",""9"",""53449""
","""event"",""trial"",""time""
""fullscreenenter"",""1"",""1243""
","
","","","","","","null","<div style=""font-size:60px;"">+</div>","null","","fixation","","",""
"memory-trial","88","283439","0.0-18.0-1.22","4660","approach_avoid_sv1","""event"",""trial"",""time""
""fullscreenenter"",""1"",""1243""
""blur"",""9"",""50240""
""focus"",""9"",""53449""
","""event"",""trial"",""time""
""blur"",""9"",""50240""
","""event"",""trial"",""time""
""focus"",""9"",""53449""
","""event"",""trial"",""time""
""fullscreenenter"",""1"",""1243""
","
","","","","","","1477.5999999940395","images/train2.png","","","memory_trial","2","maybe_old",""
"html-keyboard-response","89","283944","0.0-18.0-0.23","4660","approach_avoid_sv1","""event"",""trial"",""time""
""fullscreenenter"",""1"",""1243""
""blur"",""9"",""50240""
""focus"",""9"",""53449""
","""event"",""trial"",""time""
""blur"",""9"",""50240""
","""event"",""trial"",""time""
""focus"",""9"",""53449""
","""event"",""trial"",""time""
""fullscreenenter"",""1"",""1243""
","
","","","","","","null","<div style=""font-size:60px;"">+</div>","null","","fixation","","",""
"memory-trial","90","286135","0.0-18.0-1.23","4660","approach_avoid_sv1","""event"",""trial"",""time""
""fullscreenenter"",""1"",""1243""
""blur"",""9"",""50240""
""focus"",""9"",""53449""
","""event"",""trial"",""time""
""blur"",""9"",""50240""
","""event"",""trial"",""time""
""focus"",""9"",""53449""
","""event"",""trial"",""time""
""fullscreenenter"",""1"",""1243""
","
","","","","","","1183.300000011921","images/plane1.png","","","memory_trial","1","definitely_old",""
"html-keyboard-response","91","286639","0.0-18.0-0.24","4660","approach_avoid_sv1","""event"",""trial"",""time""
""fullscreenenter"",""1"",""1243""
""blur"",""9"",""50240""
""focus"",""9"",""53449""
","""event"",""trial"",""time""
""blur"",""9"",""50240""
","""event"",""trial"",""time""
""focus"",""9"",""53449""
","""event"",""trial"",""time""
""fullscreenenter"",""1"",""1243""
","
","","","","","","null","<div style=""font-size:60px;"">+</div>","null","","fixation","","",""
"memory-trial","92","288687","0.0-18.0-1.24","4660","approach_avoid_sv1","""event"",""trial"",""time""
""fullscreenenter"",""1"",""1243""
""blur"",""9"",""50240""
""focus"",""9"",""53449""
","""event"",""trial"",""time""
""blur"",""9"",""50240""
","""event"",""trial"",""time""
""focus"",""9"",""53449""
","""event"",""trial"",""time""
""fullscreenenter"",""1"",""1243""
","
","","","","","","1037.5","images/plane7.png","","","memory_trial","3","maybe_new",""
"html-keyboard-response","93","289190","0.0-18.0-0.25","4660","approach_avoid_sv1","""event"",""trial"",""time""
""fullscreenenter"",""1"",""1243""
""blur"",""9"",""50240""
""focus"",""9"",""53449""
","""event"",""trial"",""time""
""blur"",""9"",""50240""
","""event"",""trial"",""time""
""focus"",""9"",""53449""
","""event"",""trial"",""time""
""fullscreenenter"",""1"",""1243""
","
","","","","","","null","<div style=""font-size:60px;"">+</div>","null","","fixation","","",""
"memory-trial","94","291219","0.0-18.0-1.25","4660","approach_avoid_sv1","""event"",""trial"",""time""
""fullscreenenter"",""1"",""1243""
""blur"",""9"",""50240""
""focus"",""9"",""53449""
","""event"",""trial"",""time""
""blur"",""9"",""50240""
","""event"",""trial"",""time""
""focus"",""9"",""53449""
","""event"",""trial"",""time""
""fullscreenenter"",""1"",""1243""
","
","","","","","","1008.3999999761581","images/sofa5.png","","","memory_trial","3","maybe_new",""
"html-keyboard-response","95","291727","0.0-18.0-0.26","4660","approach_avoid_sv1","""event"",""trial"",""time""
""fullscreenenter"",""1"",""1243""
""blur"",""9"",""50240""
""focus"",""9"",""53449""
","""event"",""trial"",""time""
""blur"",""9"",""50240""
","""event"",""trial"",""time""
""focus"",""9"",""53449""
","""event"",""trial"",""time""
""fullscreenenter"",""1"",""1243""
","
","","","","","","null","<div style=""font-size:60px;"">+</div>","null","","fixation","","",""
"memory-trial","96","294320","0.0-18.0-1.26","4660","approach_avoid_sv1","""event"",""trial"",""time""
""fullscreenenter"",""1"",""1243""
""blur"",""9"",""50240""
""focus"",""9"",""53449""
","""event"",""trial"",""time""
""blur"",""9"",""50240""
","""event"",""trial"",""time""
""focus"",""9"",""53449""
","""event"",""trial"",""time""
""fullscreenenter"",""1"",""1243""
","
","","","","","","1583.699999988079","images/bed6.png","","","memory_trial","2","maybe_old",""
"html-keyboard-response","97","294823","0.0-18.0-0.27","4660","approach_avoid_sv1","""event"",""trial"",""time""
""fullscreenenter"",""1"",""1243""
""blur"",""9"",""50240""
""focus"",""9"",""53449""
","""event"",""trial"",""time""
""blur"",""9"",""50240""
","""event"",""trial"",""time""
""focus"",""9"",""53449""
","""event"",""trial"",""time""
""fullscreenenter"",""1"",""1243""
","
","","","","","","null","<div style=""font-size:60px;"">+</div>","null","","fixation","","",""
"memory-trial","98","296832","0.0-18.0-1.27","4660","approach_avoid_sv1","""event"",""trial"",""time""
""fullscreenenter"",""1"",""1243""
""blur"",""9"",""50240""
""focus"",""9"",""53449""
","""event"",""trial"",""time""
""blur"",""9"",""50240""
","""event"",""trial"",""time""
""focus"",""9"",""53449""
","""event"",""trial"",""time""
""fullscreenenter"",""1"",""1243""
","
","","","","","","997.4000000059605","images/plane2.png","","","memory_trial","4","definitely_new",""
"html-keyboard-response","99","297335","0.0-18.0-0.28","4660","approach_avoid_sv1","""event"",""trial"",""time""
""fullscreenenter"",""1"",""1243""
""blur"",""9"",""50240""
""focus"",""9"",""53449""
","""event"",""trial"",""time""
""blur"",""9"",""50240""
","""event"",""trial"",""time""
""focus"",""9"",""53449""
","""event"",""trial"",""time""
""fullscreenenter"",""1"",""1243""
","
","","","","","","null","<div style=""font-size:60px;"">+</div>","null","","fixation","","",""
"memory-trial","100","299543","0.0-18.0-1.28","4660","approach_avoid_sv1","""event"",""trial"",""time""
""fullscreenenter"",""1"",""1243""
""blur"",""9"",""50240""
""focus"",""9"",""53449""
","""event"",""trial"",""time""
""blur"",""9"",""50240""
","""event"",""trial"",""time""
""focus"",""9"",""53449""
","""event"",""trial"",""time""
""fullscreenenter"",""1"",""1243""
","
","","","","","","1200.199999988079","images/table8.png","","","memory_trial","1","definitely_old",""
"html-keyboard-response","101","300047","0.0-18.0-0.29","4660","approach_avoid_sv1","""event"",""trial"",""time""
""fullscreenenter"",""1"",""1243""
""blur"",""9"",""50240""
""focus"",""9"",""53449""
","""event"",""trial"",""time""
""blur"",""9"",""50240""
","""event"",""trial"",""time""
""focus"",""9"",""53449""
","""event"",""trial"",""time""
""fullscreenenter"",""1"",""1243""
","
","","","","","","null","<div style=""font-size:60px;"">+</div>","null","","fixation","","",""
"memory-trial","102","301798","0.0-18.0-1.29","4660","approach_avoid_sv1","""event"",""trial"",""time""
""fullscreenenter"",""1"",""1243""
""blur"",""9"",""50240""
""focus"",""9"",""53449""
","""event"",""trial"",""time""
""blur"",""9"",""50240""
","""event"",""trial"",""time""
""focus"",""9"",""53449""
","""event"",""trial"",""time""
""fullscreenenter"",""1"",""1243""
","
","","","","","","743.1999999880791","images/flower6.png","","","memory_trial","3","maybe_new",""
"html-keyboard-response","103","302302","0.0-18.0-0.30","4660","approach_avoid_sv1","""event"",""trial"",""time""
""fullscreenenter"",""1"",""1243""
""blur"",""9"",""50240""
""focus"",""9"",""53449""
","""event"",""trial"",""time""
""blur"",""9"",""50240""
","""event"",""trial"",""time""
""focus"",""9"",""53449""
","""event"",""trial"",""time""
""fullscreenenter"",""1"",""1243""
","
","","","","","","null","<div style=""font-size:60px;"">+</div>","null","","fixation","","",""
"memory-trial","104","304091","0.0-18.0-1.30","4660","approach_avoid_sv1","""event"",""trial"",""time""
""fullscreenenter"",""1"",""1243""
""blur"",""9"",""50240""
""focus"",""9"",""53449""
","""event"",""trial"",""time""
""blur"",""9"",""50240""
","""event"",""trial"",""time""
""focus"",""9"",""53449""
","""event"",""trial"",""time""
""fullscreenenter"",""1"",""1243""
","
","","","","","","771.0999999940395","images/bed3.png","","","memory_trial","4","definitely_new",""
"html-keyboard-response","105","304599","0.0-18.0-0.31","4660","approach_avoid_sv1","""event"",""trial"",""time""
""fullscreenenter"",""1"",""1243""
""blur"",""9"",""50240""
""focus"",""9"",""53449""
","""event"",""trial"",""time""
""blur"",""9"",""50240""
","""event"",""trial"",""time""
""focus"",""9"",""53449""
","""event"",""trial"",""time""
""fullscreenenter"",""1"",""1243""
","
","","","","","","null","<div style=""font-size:60px;"">+</div>","null","","fixation","","",""
"memory-trial","106","306308","0.0-18.0-1.31","4660","approach_avoid_sv1","""event"",""trial"",""time""
""fullscreenenter"",""1"",""1243""
""blur"",""9"",""50240""
""focus"",""9"",""53449""
","""event"",""trial"",""time""
""blur"",""9"",""50240""
","""event"",""trial"",""time""
""focus"",""9"",""53449""
","""event"",""trial"",""time""
""fullscreenenter"",""1"",""1243""
","
","","","","","","694","images/orange4.png","","","memory_trial","1","definitely_old",""
"html-keyboard-response","107","306815","0.0-18.0-0.32","4660","approach_avoid_sv1","""event"",""trial"",""time""
""fullscreenenter"",""1"",""1243""
""blur"",""9"",""50240""
""focus"",""9"",""53449""
","""event"",""trial"",""time""
""blur"",""9"",""50240""
","""event"",""trial"",""time""
""focus"",""9"",""53449""
","""event"",""trial"",""time""
""fullscreenenter"",""1"",""1243""
","
","","","","","","null","<div style=""font-size:60px;"">+</div>","null","","fixation","","",""
"memory-trial","108","308790","0.0-18.0-1.32","4660","approach_avoid_sv1","""event"",""trial"",""time""
""fullscreenenter"",""1"",""1243""
""blur"",""9"",""50240""
""focus"",""9"",""53449""
","""event"",""trial"",""time""
""blur"",""9"",""50240""
","""event"",""trial"",""time""
""focus"",""9"",""53449""
","""event"",""trial"",""time""
""fullscreenenter"",""1"",""1243""
","
","","","","","","972","images/chair5.png","","","memory_trial","4","definitely_new",""
"html-keyboard-response","109","309294","0.0-18.0-0.33","4660","approach_avoid_sv1","""event"",""trial"",""time""
""fullscreenenter"",""1"",""1243""
""blur"",""9"",""50240""
""focus"",""9"",""53449""
","""event"",""trial"",""time""
""blur"",""9"",""50240""
","""event"",""trial"",""time""
""focus"",""9"",""53449""
","""event"",""trial"",""time""
""fullscreenenter"",""1"",""1243""
","
","","","","","","null","<div style=""font-size:60px;"">+</div>","null","","fixation","","",""
"memory-trial","110","311349","0.0-18.0-1.33","4660","approach_avoid_sv1","""event"",""trial"",""time""
""fullscreenenter"",""1"",""1243""
""blur"",""9"",""50240""
""focus"",""9"",""53449""
","""event"",""trial"",""time""
""blur"",""9"",""50240""
","""event"",""trial"",""time""
""focus"",""9"",""53449""
","""event"",""trial"",""time""
""fullscreenenter"",""1"",""1243""
","
","","","","","","1031","images/straw2.png","","","memory_trial","1","definitely_old",""
"html-keyboard-response","111","311863","0.0-18.0-0.34","4660","approach_avoid_sv1","""event"",""trial"",""time""
""fullscreenenter"",""1"",""1243""
""blur"",""9"",""50240""
""focus"",""9"",""53449""
","""event"",""trial"",""time""
""blur"",""9"",""50240""
","""event"",""trial"",""time""
""focus"",""9"",""53449""
","""event"",""trial"",""time""
""fullscreenenter"",""1"",""1243""
","
","","","","","","null","<div style=""font-size:60px;"">+</div>","null","","fixation","","",""
"memory-trial","112","314662","0.0-18.0-1.34","4660","approach_avoid_sv1","""event"",""trial"",""time""
""fullscreenenter"",""1"",""1243""
""blur"",""9"",""50240""
""focus"",""9"",""53449""
","""event"",""trial"",""time""
""blur"",""9"",""50240""
","""event"",""trial"",""time""
""focus"",""9"",""53449""
","""event"",""trial"",""time""
""fullscreenenter"",""1"",""1243""
","
","","","","","","1793.5","images/rodent3.png","","","memory_trial","4","definitely_new",""
"html-keyboard-response","113","315172","0.0-18.0-0.35","4660","approach_avoid_sv1","""event"",""trial"",""time""
""fullscreenenter"",""1"",""1243""
""blur"",""9"",""50240""
""focus"",""9"",""53449""
","""event"",""trial"",""time""
""blur"",""9"",""50240""
","""event"",""trial"",""time""
""focus"",""9"",""53449""
","""event"",""trial"",""time""
""fullscreenenter"",""1"",""1243""
","
","","","","","","null","<div style=""font-size:60px;"">+</div>","null","","fixation","","",""
"memory-trial","114","316887","0.0-18.0-1.35","4660","approach_avoid_sv1","""event"",""trial"",""time""
""fullscreenenter"",""1"",""1243""
""blur"",""9"",""50240""
""focus"",""9"",""53449""
","""event"",""trial"",""time""
""blur"",""9"",""50240""
","""event"",""trial"",""time""
""focus"",""9"",""53449""
","""event"",""trial"",""time""
""fullscreenenter"",""1"",""1243""
","
","","","","","","711.7000000178814","images/dog7.png","","","memory_trial","4","definitely_new",""
"html-keyboard-response","115","317398","0.0-18.0-0.36","4660","approach_avoid_sv1","""event"",""trial"",""time""
""fullscreenenter"",""1"",""1243""
""blur"",""9"",""50240""
""focus"",""9"",""53449""
","""event"",""trial"",""time""
""blur"",""9"",""50240""
","""event"",""trial"",""time""
""focus"",""9"",""53449""
","""event"",""trial"",""time""
""fullscreenenter"",""1"",""1243""
","
","","","","","","null","<div style=""font-size:60px;"">+</div>","null","","fixation","","",""
"memory-trial","116","319097","0.0-18.0-1.36","4660","approach_avoid_sv1","""event"",""trial"",""time""
""fullscreenenter"",""1"",""1243""
""blur"",""9"",""50240""
""focus"",""9"",""53449""
","""event"",""trial"",""time""
""blur"",""9"",""50240""
","""event"",""trial"",""time""
""focus"",""9"",""53449""
","""event"",""trial"",""time""
""fullscreenenter"",""1"",""1243""
","
","","","","","","679.4000000059605","images/truck6.png","","","memory_trial","4","definitely_new",""
"html-keyboard-response","117","319606","0.0-18.0-0.37","4660","approach_avoid_sv1","""event"",""trial"",""time""
""fullscreenenter"",""1"",""1243""
""blur"",""9"",""50240""
""focus"",""9"",""53449""
","""event"",""trial"",""time""
""blur"",""9"",""50240""
","""event"",""trial"",""time""
""focus"",""9"",""53449""
","""event"",""trial"",""time""
""fullscreenenter"",""1"",""1243""
","
","","","","","","null","<div style=""font-size:60px;"">+</div>","null","","fixation","","",""
"memory-trial","118","322926","0.0-18.0-1.37","4660","approach_avoid_sv1","""event"",""trial"",""time""
""fullscreenenter"",""1"",""1243""
""blur"",""9"",""50240""
""focus"",""9"",""53449""
","""event"",""trial"",""time""
""blur"",""9"",""50240""
","""event"",""trial"",""time""
""focus"",""9"",""53449""
","""event"",""trial"",""time""
""fullscreenenter"",""1"",""1243""
","
","","","","","","2310.5999999940395","images/flower4.png","","","memory_trial","4","definitely_new",""
"html-keyboard-response","119","323434","0.0-18.0-0.38","4660","approach_avoid_sv1","""event"",""trial"",""time""
""fullscreenenter"",""1"",""1243""
""blur"",""9"",""50240""
""focus"",""9"",""53449""
","""event"",""trial"",""time""
""blur"",""9"",""50240""
","""event"",""trial"",""time""
""focus"",""9"",""53449""
","""event"",""trial"",""time""
""fullscreenenter"",""1"",""1243""
","
","","","","","","null","<div style=""font-size:60px;"">+</div>","null","","fixation","","",""
"memory-trial","120","325257","0.0-18.0-1.38","4660","approach_avoid_sv1","""event"",""trial"",""time""
""fullscreenenter"",""1"",""1243""
""blur"",""9"",""50240""
""focus"",""9"",""53449""
","""event"",""trial"",""time""
""blur"",""9"",""50240""
","""event"",""trial"",""time""
""focus"",""9"",""53449""
","""event"",""trial"",""time""
""fullscreenenter"",""1"",""1243""
","
","","","","","","808.1999999880791","images/sofa2.png","","","memory_trial","4","definitely_new",""
"html-keyboard-response","121","325766","0.0-18.0-0.39","4660","approach_avoid_sv1","""event"",""trial"",""time""
""fullscreenenter"",""1"",""1243""
""blur"",""9"",""50240""
""focus"",""9"",""53449""
","""event"",""trial"",""time""
""blur"",""9"",""50240""
","""event"",""trial"",""time""
""focus"",""9"",""53449""
","""event"",""trial"",""time""
""fullscreenenter"",""1"",""1243""
","
","","","","","","null","<div style=""font-size:60px;"">+</div>","null","","fixation","","",""
"memory-trial","122","327486","0.0-18.0-1.39","4660","approach_avoid_sv1","""event"",""trial"",""time""
""fullscreenenter"",""1"",""1243""
""blur"",""9"",""50240""
""focus"",""9"",""53449""
","""event"",""trial"",""time""
""blur"",""9"",""50240""
","""event"",""trial"",""time""
""focus"",""9"",""53449""
","""event"",""trial"",""time""
""fullscreenenter"",""1"",""1243""
","
","","","","","","711.6999999880791","images/cactus1.png","","","memory_trial","1","definitely_old",""
"html-keyboard-response","123","327990","0.0-18.0-0.40","4660","approach_avoid_sv1","""event"",""trial"",""time""
""fullscreenenter"",""1"",""1243""
""blur"",""9"",""50240""
""focus"",""9"",""53449""
","""event"",""trial"",""time""
""blur"",""9"",""50240""
","""event"",""trial"",""time""
""focus"",""9"",""53449""
","""event"",""trial"",""time""
""fullscreenenter"",""1"",""1243""
","
","","","","","","null","<div style=""font-size:60px;"">+</div>","null","","fixation","","",""
"memory-trial","124","330086","0.0-18.0-1.40","4660","approach_avoid_sv1","""event"",""trial"",""time""
""fullscreenenter"",""1"",""1243""
""blur"",""9"",""50240""
""focus"",""9"",""53449""
","""event"",""trial"",""time""
""blur"",""9"",""50240""
","""event"",""trial"",""time""
""focus"",""9"",""53449""
","""event"",""trial"",""time""
""fullscreenenter"",""1"",""1243""
","
","","","","","","1089.699999988079","images/cactus8.png","","","memory_trial","3","maybe_new",""
"html-keyboard-response","125","330590","0.0-18.0-0.41","4660","approach_avoid_sv1","""event"",""trial"",""time""
""fullscreenenter"",""1"",""1243""
""blur"",""9"",""50240""
""focus"",""9"",""53449""
","""event"",""trial"",""time""
""blur"",""9"",""50240""
","""event"",""trial"",""time""
""focus"",""9"",""53449""
","""event"",""trial"",""time""
""fullscreenenter"",""1"",""1243""
","
","","","","","","null","<div style=""font-size:60px;"">+</div>","null","","fixation","","",""
"memory-trial","126","332534","0.0-18.0-1.41","4660","approach_avoid_sv1","""event"",""trial"",""time""
""fullscreenenter"",""1"",""1243""
""blur"",""9"",""50240""
""focus"",""9"",""53449""
","""event"",""trial"",""time""
""blur"",""9"",""50240""
","""event"",""trial"",""time""
""focus"",""9"",""53449""
","""event"",""trial"",""time""
""fullscreenenter"",""1"",""1243""
","
","","","","","","936.5","images/orange3.png","","","memory_trial","3","maybe_new",""
"html-button-response","127","334883","0.0-18.0-2.41-0.41","4660","approach_avoid_sv1","""event"",""trial"",""time""
""fullscreenenter"",""1"",""1243""
""blur"",""9"",""50240""
""focus"",""9"",""53449""
","""event"",""trial"",""time""
""blur"",""9"",""50240""
","""event"",""trial"",""time""
""focus"",""9"",""53449""
","""event"",""trial"",""time""
""fullscreenenter"",""1"",""1243""
","
","","","","","","2347.300000011921","<p> Take a break! </p><p> Click the button to continue. </p>","0","","break","","",""
"html-keyboard-response","128","335385","0.0-18.0-0.42","4660","approach_avoid_sv1","""event"",""trial"",""time""
""fullscreenenter"",""1"",""1243""
""blur"",""9"",""50240""
""focus"",""9"",""53449""
","""event"",""trial"",""time""
""blur"",""9"",""50240""
","""event"",""trial"",""time""
""focus"",""9"",""53449""
","""event"",""trial"",""time""
""fullscreenenter"",""1"",""1243""
","
","","","","","","null","<div style=""font-size:60px;"">+</div>","null","","fixation","","",""
"memory-trial","129","340133","0.0-18.0-1.42","4660","approach_avoid_sv1","""event"",""trial"",""time""
""fullscreenenter"",""1"",""1243""
""blur"",""9"",""50240""
""focus"",""9"",""53449""
","""event"",""trial"",""time""
""blur"",""9"",""50240""
","""event"",""trial"",""time""
""focus"",""9"",""53449""
","""event"",""trial"",""time""
""fullscreenenter"",""1"",""1243""
","
","","","","","","3740.199999988079","images/bed2.png","","","memory_trial","2","maybe_old",""
"html-keyboard-response","130","340638","0.0-18.0-0.43","4660","approach_avoid_sv1","""event"",""trial"",""time""
""fullscreenenter"",""1"",""1243""
""blur"",""9"",""50240""
""focus"",""9"",""53449""
","""event"",""trial"",""time""
""blur"",""9"",""50240""
","""event"",""trial"",""time""
""focus"",""9"",""53449""
","""event"",""trial"",""time""
""fullscreenenter"",""1"",""1243""
","
","","","","","","null","<div style=""font-size:60px;"">+</div>","null","","fixation","","",""
"memory-trial","131","342590","0.0-18.0-1.43","4660","approach_avoid_sv1","""event"",""trial"",""time""
""fullscreenenter"",""1"",""1243""
""blur"",""9"",""50240""
""focus"",""9"",""53449""
","""event"",""trial"",""time""
""blur"",""9"",""50240""
","""event"",""trial"",""time""
""focus"",""9"",""53449""
","""event"",""trial"",""time""
""fullscreenenter"",""1"",""1243""
","
","","","","","","948.7999999821186","images/tree2.png","","","memory_trial","4","definitely_new",""
"html-keyboard-response","132","343093","0.0-18.0-0.44","4660","approach_avoid_sv1","""event"",""trial"",""time""
""fullscreenenter"",""1"",""1243""
""blur"",""9"",""50240""
""focus"",""9"",""53449""
","""event"",""trial"",""time""
""blur"",""9"",""50240""
","""event"",""trial"",""time""
""focus"",""9"",""53449""
","""event"",""trial"",""time""
""fullscreenenter"",""1"",""1243""
","
","","","","","","null","<div style=""font-size:60px;"">+</div>","null","","fixation","","",""
"memory-trial","133","344823","0.0-18.0-1.44","4660","approach_avoid_sv1","""event"",""trial"",""time""
""fullscreenenter"",""1"",""1243""
""blur"",""9"",""50240""
""focus"",""9"",""53449""
","""event"",""trial"",""time""
""blur"",""9"",""50240""
","""event"",""trial"",""time""
""focus"",""9"",""53449""
","""event"",""trial"",""time""
""fullscreenenter"",""1"",""1243""
","
","","","","","","720.5","images/plane3.png","","","memory_trial","4","definitely_new",""
"html-keyboard-response","134","345328","0.0-18.0-0.45","4660","approach_avoid_sv1","""event"",""trial"",""time""
""fullscreenenter"",""1"",""1243""
""blur"",""9"",""50240""
""focus"",""9"",""53449""
","""event"",""trial"",""time""
""blur"",""9"",""50240""
","""event"",""trial"",""time""
""focus"",""9"",""53449""
","""event"",""trial"",""time""
""fullscreenenter"",""1"",""1243""
","
","","","","","","null","<div style=""font-size:60px;"">+</div>","null","","fixation","","",""
"memory-trial","135","347534","0.0-18.0-1.45","4660","approach_avoid_sv1","""event"",""trial"",""time""
""fullscreenenter"",""1"",""1243""
""blur"",""9"",""50240""
""focus"",""9"",""53449""
","""event"",""trial"",""time""
""blur"",""9"",""50240""
","""event"",""trial"",""time""
""focus"",""9"",""53449""
","""event"",""trial"",""time""
""fullscreenenter"",""1"",""1243""
","
","","","","","","1198.9000000059605","images/banana1.png","","","memory_trial","4","definitely_new",""
"html-keyboard-response","136","348039","0.0-18.0-0.46","4660","approach_avoid_sv1","""event"",""trial"",""time""
""fullscreenenter"",""1"",""1243""
""blur"",""9"",""50240""
""focus"",""9"",""53449""
","""event"",""trial"",""time""
""blur"",""9"",""50240""
","""event"",""trial"",""time""
""focus"",""9"",""53449""
","""event"",""trial"",""time""
""fullscreenenter"",""1"",""1243""
","
","","","","","","null","<div style=""font-size:60px;"">+</div>","null","","fixation","","",""
"memory-trial","137","349667","0.0-18.0-1.46","4660","approach_avoid_sv1","""event"",""trial"",""time""
""fullscreenenter"",""1"",""1243""
""blur"",""9"",""50240""
""focus"",""9"",""53449""
","""event"",""trial"",""time""
""blur"",""9"",""50240""
","""event"",""trial"",""time""
""focus"",""9"",""53449""
","""event"",""trial"",""time""
""fullscreenenter"",""1"",""1243""
","
","","","","","","605.4000000059605","images/tree8.png","","","memory_trial","4","definitely_new",""
"html-keyboard-response","138","350175","0.0-18.0-0.47","4660","approach_avoid_sv1","""event"",""trial"",""time""
""fullscreenenter"",""1"",""1243""
""blur"",""9"",""50240""
""focus"",""9"",""53449""
","""event"",""trial"",""time""
""blur"",""9"",""50240""
","""event"",""trial"",""time""
""focus"",""9"",""53449""
","""event"",""trial"",""time""
""fullscreenenter"",""1"",""1243""
","
","","","","","","null","<div style=""font-size:60px;"">+</div>","null","","fixation","","",""
"memory-trial","139","351950","0.0-18.0-1.47","4660","approach_avoid_sv1","""event"",""trial"",""time""
""fullscreenenter"",""1"",""1243""
""blur"",""9"",""50240""
""focus"",""9"",""53449""
","""event"",""trial"",""time""
""blur"",""9"",""50240""
","""event"",""trial"",""time""
""focus"",""9"",""53449""
","""event"",""trial"",""time""
""fullscreenenter"",""1"",""1243""
","
","","","","","","770.5999999940395","images/cat1.png","","","memory_trial","3","maybe_new",""
"html-keyboard-response","140","352455","0.0-18.0-0.48","4660","approach_avoid_sv1","""event"",""trial"",""time""
""fullscreenenter"",""1"",""1243""
""blur"",""9"",""50240""
""focus"",""9"",""53449""
","""event"",""trial"",""time""
""blur"",""9"",""50240""
","""event"",""trial"",""time""
""focus"",""9"",""53449""
","""event"",""trial"",""time""
""fullscreenenter"",""1"",""1243""
","
","","","","","","null","<div style=""font-size:60px;"">+</div>","null","","fixation","","",""
"memory-trial","141","354151","0.0-18.0-1.48","4660","approach_avoid_sv1","""event"",""trial"",""time""
""fullscreenenter"",""1"",""1243""
""blur"",""9"",""50240""
""focus"",""9"",""53449""
","""event"",""trial"",""time""
""blur"",""9"",""50240""
","""event"",""trial"",""time""
""focus"",""9"",""53449""
","""event"",""trial"",""time""
""fullscreenenter"",""1"",""1243""
","
","","","","","","685.8999999761581","images/truck8.png","","","memory_trial","4","definitely_new",""
"html-keyboard-response","142","354655","0.0-18.0-0.49","4660","approach_avoid_sv1","""event"",""trial"",""time""
""fullscreenenter"",""1"",""1243""
""blur"",""9"",""50240""
""focus"",""9"",""53449""
","""event"",""trial"",""time""
""blur"",""9"",""50240""
","""event"",""trial"",""time""
""focus"",""9"",""53449""
","""event"",""trial"",""time""
""fullscreenenter"",""1"",""1243""
","
","","","","","","null","<div style=""font-size:60px;"">+</div>","null","","fixation","","",""
"memory-trial","143","356262","0.0-18.0-1.49","4660","approach_avoid_sv1","""event"",""trial"",""time""
""fullscreenenter"",""1"",""1243""
""blur"",""9"",""50240""
""focus"",""9"",""53449""
","""event"",""trial"",""time""
""blur"",""9"",""50240""
","""event"",""trial"",""time""
""focus"",""9"",""53449""
","""event"",""trial"",""time""
""fullscreenenter"",""1"",""1243""
","
","","","","","","604.0999999940395","images/goat2.png","","","memory_trial","4","definitely_new",""
"html-keyboard-response","144","356766","0.0-18.0-0.50","4660","approach_avoid_sv1","""event"",""trial"",""time""
""fullscreenenter"",""1"",""1243""
""blur"",""9"",""50240""
""focus"",""9"",""53449""
","""event"",""trial"",""time""
""blur"",""9"",""50240""
","""event"",""trial"",""time""
""focus"",""9"",""53449""
","""event"",""trial"",""time""
""fullscreenenter"",""1"",""1243""
","
","","","","","","null","<div style=""font-size:60px;"">+</div>","null","","fixation","","",""
"memory-trial","145","358607","0.0-18.0-1.50","4660","approach_avoid_sv1","""event"",""trial"",""time""
""fullscreenenter"",""1"",""1243""
""blur"",""9"",""50240""
""focus"",""9"",""53449""
","""event"",""trial"",""time""
""blur"",""9"",""50240""
","""event"",""trial"",""time""
""focus"",""9"",""53449""
","""event"",""trial"",""time""
""fullscreenenter"",""1"",""1243""
","
","","","","","","833","images/horse7.png","","","memory_trial","4","definitely_new",""
"html-keyboard-response","146","359110","0.0-18.0-0.51","4660","approach_avoid_sv1","""event"",""trial"",""time""
""fullscreenenter"",""1"",""1243""
""blur"",""9"",""50240""
""focus"",""9"",""53449""
","""event"",""trial"",""time""
""blur"",""9"",""50240""
","""event"",""trial"",""time""
""focus"",""9"",""53449""
","""event"",""trial"",""time""
""fullscreenenter"",""1"",""1243""
","
","","","","","","null","<div style=""font-size:60px;"">+</div>","null","","fixation","","",""
"memory-trial","147","361318","0.0-18.0-1.51","4660","approach_avoid_sv1","""event"",""trial"",""time""
""fullscreenenter"",""1"",""1243""
""blur"",""9"",""50240""
""focus"",""9"",""53449""
","""event"",""trial"",""time""
""blur"",""9"",""50240""
","""event"",""trial"",""time""
""focus"",""9"",""53449""
","""event"",""trial"",""time""
""fullscreenenter"",""1"",""1243""
","
","","","","","","1203.300000011921","images/rabbit1.png","","","memory_trial","3","maybe_new",""
"html-keyboard-response","148","361837","0.0-18.0-0.52","4660","approach_avoid_sv1","""event"",""trial"",""time""
""fullscreenenter"",""1"",""1243""
""blur"",""9"",""50240""
""focus"",""9"",""53449""
","""event"",""trial"",""time""
""blur"",""9"",""50240""
","""event"",""trial"",""time""
""focus"",""9"",""53449""
","""event"",""trial"",""time""
""fullscreenenter"",""1"",""1243""
","
","","","","","","null","<div style=""font-size:60px;"">+</div>","null","","fixation","","",""
"memory-trial","149","363790","0.0-18.0-1.52","4660","approach_avoid_sv1","""event"",""trial"",""time""
""fullscreenenter"",""1"",""1243""
""blur"",""9"",""50240""
""focus"",""9"",""53449""
","""event"",""trial"",""time""
""blur"",""9"",""50240""
","""event"",""trial"",""time""
""focus"",""9"",""53449""
","""event"",""trial"",""time""
""fullscreenenter"",""1"",""1243""
","
","","","","","","949.3999999761581","images/banana6.png","","","memory_trial","4","definitely_new",""
"html-keyboard-response","150","364294","0.0-18.0-0.53","4660","approach_avoid_sv1","""event"",""trial"",""time""
""fullscreenenter"",""1"",""1243""
""blur"",""9"",""50240""
""focus"",""9"",""53449""
","""event"",""trial"",""time""
""blur"",""9"",""50240""
","""event"",""trial"",""time""
""focus"",""9"",""53449""
","""event"",""trial"",""time""
""fullscreenenter"",""1"",""1243""
","
","","","","","","null","<div style=""font-size:60px;"">+</div>","null","","fixation","","",""
"memory-trial","151","365878","0.0-18.0-1.53","4660","approach_avoid_sv1","""event"",""trial"",""time""
""fullscreenenter"",""1"",""1243""
""blur"",""9"",""50240""
""focus"",""9"",""53449""
","""event"",""trial"",""time""
""blur"",""9"",""50240""
","""event"",""trial"",""time""
""focus"",""9"",""53449""
","""event"",""trial"",""time""
""fullscreenenter"",""1"",""1243""
","
","","","","","","579.7999999821186","images/dog5.png","","","memory_trial","4","definitely_new",""
"html-keyboard-response","152","366383","0.0-18.0-0.54","4660","approach_avoid_sv1","""event"",""trial"",""time""
""fullscreenenter"",""1"",""1243""
""blur"",""9"",""50240""
""focus"",""9"",""53449""
","""event"",""trial"",""time""
""blur"",""9"",""50240""
","""event"",""trial"",""time""
""focus"",""9"",""53449""
","""event"",""trial"",""time""
""fullscreenenter"",""1"",""1243""
","
","","","","","","null","<div style=""font-size:60px;"">+</div>","null","","fixation","","",""
"memory-trial","153","367870","0.0-18.0-1.54","4660","approach_avoid_sv1","""event"",""trial"",""time""
""fullscreenenter"",""1"",""1243""
""blur"",""9"",""50240""
""focus"",""9"",""53449""
","""event"",""trial"",""time""
""blur"",""9"",""50240""
","""event"",""trial"",""time""
""focus"",""9"",""53449""
","""event"",""trial"",""time""
""fullscreenenter"",""1"",""1243""
","
","","","","","","479.40000000596046","images/dog8.png","","","memory_trial","4","definitely_new",""
"html-keyboard-response","154","368375","0.0-18.0-0.55","4660","approach_avoid_sv1","""event"",""trial"",""time""
""fullscreenenter"",""1"",""1243""
""blur"",""9"",""50240""
""focus"",""9"",""53449""
","""event"",""trial"",""time""
""blur"",""9"",""50240""
","""event"",""trial"",""time""
""focus"",""9"",""53449""
","""event"",""trial"",""time""
""fullscreenenter"",""1"",""1243""
","
","","","","","","null","<div style=""font-size:60px;"">+</div>","null","","fixation","","",""
"memory-trial","155","370398","0.0-18.0-1.55","4660","approach_avoid_sv1","""event"",""trial"",""time""
""fullscreenenter"",""1"",""1243""
""blur"",""9"",""50240""
""focus"",""9"",""53449""
","""event"",""trial"",""time""
""blur"",""9"",""50240""
","""event"",""trial"",""time""
""focus"",""9"",""53449""
","""event"",""trial"",""time""
""fullscreenenter"",""1"",""1243""
","
","","","","","","1017.5","images/bush8.png","","","memory_trial","1","definitely_old",""
"html-keyboard-response","156","370901","0.0-18.0-0.56","4660","approach_avoid_sv1","""event"",""trial"",""time""
""fullscreenenter"",""1"",""1243""
""blur"",""9"",""50240""
""focus"",""9"",""53449""
","""event"",""trial"",""time""
""blur"",""9"",""50240""
","""event"",""trial"",""time""
""focus"",""9"",""53449""
","""event"",""trial"",""time""
""fullscreenenter"",""1"",""1243""
","
","","","","","","null","<div style=""font-size:60px;"">+</div>","null","","fixation","","",""
"memory-trial","157","373270","0.0-18.0-1.56","4660","approach_avoid_sv1","""event"",""trial"",""time""
""fullscreenenter"",""1"",""1243""
""blur"",""9"",""50240""
""focus"",""9"",""53449""
","""event"",""trial"",""time""
""blur"",""9"",""50240""
","""event"",""trial"",""time""
""focus"",""9"",""53449""
","""event"",""trial"",""time""
""fullscreenenter"",""1"",""1243""
","
","","","","","","1363.4000000059605","images/boat2.png","","","memory_trial","2","maybe_old",""
"html-keyboard-response","158","373784","0.0-18.0-0.57","4660","approach_avoid_sv1","""event"",""trial"",""time""
""fullscreenenter"",""1"",""1243""
""blur"",""9"",""50240""
""focus"",""9"",""53449""
","""event"",""trial"",""time""
""blur"",""9"",""50240""
","""event"",""trial"",""time""
""focus"",""9"",""53449""
","""event"",""trial"",""time""
""fullscreenenter"",""1"",""1243""
","
","","","","","","null","<div style=""font-size:60px;"">+</div>","null","","fixation","","",""
"memory-trial","159","375599","0.0-18.0-1.57","4660","approach_avoid_sv1","""event"",""trial"",""time""
""fullscreenenter"",""1"",""1243""
""blur"",""9"",""50240""
""focus"",""9"",""53449""
","""event"",""trial"",""time""
""blur"",""9"",""50240""
","""event"",""trial"",""time""
""focus"",""9"",""53449""
","""event"",""trial"",""time""
""fullscreenenter"",""1"",""1243""
","
","","","","","","808.7999999821186","images/apple1.png","","","memory_trial","3","maybe_new",""
"html-keyboard-response","160","376102","0.0-18.0-0.58","4660","approach_avoid_sv1","""event"",""trial"",""time""
""fullscreenenter"",""1"",""1243""
""blur"",""9"",""50240""
""focus"",""9"",""53449""
","""event"",""trial"",""time""
""blur"",""9"",""50240""
","""event"",""trial"",""time""
""focus"",""9"",""53449""
","""event"",""trial"",""time""
""fullscreenenter"",""1"",""1243""
","
","","","","","","null","<div style=""font-size:60px;"">+</div>","null","","fixation","","",""
"memory-trial","161","377915","0.0-18.0-1.58","4660","approach_avoid_sv1","""event"",""trial"",""time""
""fullscreenenter"",""1"",""1243""
""blur"",""9"",""50240""
""focus"",""9"",""53449""
","""event"",""trial"",""time""
""blur"",""9"",""50240""
","""event"",""trial"",""time""
""focus"",""9"",""53449""
","""event"",""trial"",""time""
""fullscreenenter"",""1"",""1243""
","
","","","","","","803.0999999940395","images/bush3.png","","","memory_trial","1","definitely_old",""
"html-keyboard-response","162","378423","0.0-18.0-0.59","4660","approach_avoid_sv1","""event"",""trial"",""time""
""fullscreenenter"",""1"",""1243""
""blur"",""9"",""50240""
""focus"",""9"",""53449""
","""event"",""trial"",""time""
""blur"",""9"",""50240""
","""event"",""trial"",""time""
""focus"",""9"",""53449""
","""event"",""trial"",""time""
""fullscreenenter"",""1"",""1243""
","
","","","","","","null","<div style=""font-size:60px;"">+</div>","null","","fixation","","",""
"memory-trial","163","380263","0.0-18.0-1.59","4660","approach_avoid_sv1","""event"",""trial"",""time""
""fullscreenenter"",""1"",""1243""
""blur"",""9"",""50240""
""focus"",""9"",""53449""
","""event"",""trial"",""time""
""blur"",""9"",""50240""
","""event"",""trial"",""time""
""focus"",""9"",""53449""
","""event"",""trial"",""time""
""fullscreenenter"",""1"",""1243""
","
","","","","","","830.5","images/horse5.png","","","memory_trial","4","definitely_new",""
"html-keyboard-response","164","380767","0.0-18.0-0.60","4660","approach_avoid_sv1","""event"",""trial"",""time""
""fullscreenenter"",""1"",""1243""
""blur"",""9"",""50240""
""focus"",""9"",""53449""
","""event"",""trial"",""time""
""blur"",""9"",""50240""
","""event"",""trial"",""time""
""focus"",""9"",""53449""
","""event"",""trial"",""time""
""fullscreenenter"",""1"",""1243""
","
","","","","","","null","<div style=""font-size:60px;"">+</div>","null","","fixation","","",""
"memory-trial","165","382359","0.0-18.0-1.60","4660","approach_avoid_sv1","""event"",""trial"",""time""
""fullscreenenter"",""1"",""1243""
""blur"",""9"",""50240""
""focus"",""9"",""53449""
","""event"",""trial"",""time""
""blur"",""9"",""50240""
","""event"",""trial"",""time""
""focus"",""9"",""53449""
","""event"",""trial"",""time""
""fullscreenenter"",""1"",""1243""
","
","","","","","","583.5","images/boat5.png","","","memory_trial","4","definitely_new",""
"html-keyboard-response","166","382863","0.0-18.0-0.61","4660","approach_avoid_sv1","""event"",""trial"",""time""
""fullscreenenter"",""1"",""1243""
""blur"",""9"",""50240""
""focus"",""9"",""53449""
","""event"",""trial"",""time""
""blur"",""9"",""50240""
","""event"",""trial"",""time""
""focus"",""9"",""53449""
","""event"",""trial"",""time""
""fullscreenenter"",""1"",""1243""
","
","","","","","","null","<div style=""font-size:60px;"">+</div>","null","","fixation","","",""
"memory-trial","167","384951","0.0-18.0-1.61","4660","approach_avoid_sv1","""event"",""trial"",""time""
""fullscreenenter"",""1"",""1243""
""blur"",""9"",""50240""
""focus"",""9"",""53449""
","""event"",""trial"",""time""
""blur"",""9"",""50240""
","""event"",""trial"",""time""
""focus"",""9"",""53449""
","""event"",""trial"",""time""
""fullscreenenter"",""1"",""1243""
","
","","","","","","1084.5","images/dog1.png","","","memory_trial","4","definitely_new",""
"html-keyboard-response","168","385456","0.0-18.0-0.62","4660","approach_avoid_sv1","""event"",""trial"",""time""
""fullscreenenter"",""1"",""1243""
""blur"",""9"",""50240""
""focus"",""9"",""53449""
","""event"",""trial"",""time""
""blur"",""9"",""50240""
","""event"",""trial"",""time""
""focus"",""9"",""53449""
","""event"",""trial"",""time""
""fullscreenenter"",""1"",""1243""
","
","","","","","","null","<div style=""font-size:60px;"">+</div>","null","","fixation","","",""
"memory-trial","169","388871","0.0-18.0-1.62","4660","approach_avoid_sv1","""event"",""trial"",""time""
""fullscreenenter"",""1"",""1243""
""blur"",""9"",""50240""
""focus"",""9"",""53449""
","""event"",""trial"",""time""
""blur"",""9"",""50240""
","""event"",""trial"",""time""
""focus"",""9"",""53449""
","""event"",""trial"",""time""
""fullscreenenter"",""1"",""1243""
","
","","","","","","2407.199999988079","images/apple2.png","","","memory_trial","1","definitely_old",""
"html-keyboard-response","170","389374","0.0-18.0-0.63","4660","approach_avoid_sv1","""event"",""trial"",""time""
""fullscreenenter"",""1"",""1243""
""blur"",""9"",""50240""
""focus"",""9"",""53449""
","""event"",""trial"",""time""
""blur"",""9"",""50240""
","""event"",""trial"",""time""
""focus"",""9"",""53449""
","""event"",""trial"",""time""
""fullscreenenter"",""1"",""1243""
","
","","","","","","null","<div style=""font-size:60px;"">+</div>","null","","fixation","","",""
"memory-trial","171","391375","0.0-18.0-1.63","4660","approach_avoid_sv1","""event"",""trial"",""time""
""fullscreenenter"",""1"",""1243""
""blur"",""9"",""50240""
""focus"",""9"",""53449""
","""event"",""trial"",""time""
""blur"",""9"",""50240""
","""event"",""trial"",""time""
""focus"",""9"",""53449""
","""event"",""trial"",""time""
""fullscreenenter"",""1"",""1243""
","
","","","","","","991.7000000178814","images/table7.png","","","memory_trial","1","definitely_old",""
"html-keyboard-response","172","391879","0.0-18.0-0.64","4660","approach_avoid_sv1","""event"",""trial"",""time""
""fullscreenenter"",""1"",""1243""
""blur"",""9"",""50240""
""focus"",""9"",""53449""
","""event"",""trial"",""time""
""blur"",""9"",""50240""
","""event"",""trial"",""time""
""focus"",""9"",""53449""
","""event"",""trial"",""time""
""fullscreenenter"",""1"",""1243""
","
","","","","","","null","<div style=""font-size:60px;"">+</div>","null","","fixation","","",""
"memory-trial","173","393631","0.0-18.0-1.64","4660","approach_avoid_sv1","""event"",""trial"",""time""
""fullscreenenter"",""1"",""1243""
""blur"",""9"",""50240""
""focus"",""9"",""53449""
","""event"",""trial"",""time""
""blur"",""9"",""50240""
","""event"",""trial"",""time""
""focus"",""9"",""53449""
","""event"",""trial"",""time""
""fullscreenenter"",""1"",""1243""
","
","","","","","","749.0999999940395","images/horse4.png","","","memory_trial","1","definitely_old",""
"html-keyboard-response","174","394135","0.0-18.0-0.65","4660","approach_avoid_sv1","""event"",""trial"",""time""
""fullscreenenter"",""1"",""1243""
""blur"",""9"",""50240""
""focus"",""9"",""53449""
","""event"",""trial"",""time""
""blur"",""9"",""50240""
","""event"",""trial"",""time""
""focus"",""9"",""53449""
","""event"",""trial"",""time""
""fullscreenenter"",""1"",""1243""
","
","","","","","","null","<div style=""font-size:60px;"">+</div>","null","","fixation","","",""
"memory-trial","175","396238","0.0-18.0-1.65","4660","approach_avoid_sv1","""event"",""trial"",""time""
""fullscreenenter"",""1"",""1243""
""blur"",""9"",""50240""
""focus"",""9"",""53449""
","""event"",""trial"",""time""
""blur"",""9"",""50240""
","""event"",""trial"",""time""
""focus"",""9"",""53449""
","""event"",""trial"",""time""
""fullscreenenter"",""1"",""1243""
","
","","","","","","1096.4000000059605","images/horse1.png","","","memory_trial","2","maybe_old",""
"html-keyboard-response","176","396743","0.0-18.0-0.66","4660","approach_avoid_sv1","""event"",""trial"",""time""
""fullscreenenter"",""1"",""1243""
""blur"",""9"",""50240""
""focus"",""9"",""53449""
","""event"",""trial"",""time""
""blur"",""9"",""50240""
","""event"",""trial"",""time""
""focus"",""9"",""53449""
","""event"",""trial"",""time""
""fullscreenenter"",""1"",""1243""
","
","","","","","","null","<div style=""font-size:60px;"">+</div>","null","","fixation","","",""
"memory-trial","177","398565","0.0-18.0-1.66","4660","approach_avoid_sv1","""event"",""trial"",""time""
""fullscreenenter"",""1"",""1243""
""blur"",""9"",""50240""
""focus"",""9"",""53449""
","""event"",""trial"",""time""
""blur"",""9"",""50240""
","""event"",""trial"",""time""
""focus"",""9"",""53449""
","""event"",""trial"",""time""
""fullscreenenter"",""1"",""1243""
","
","","","","","","807.7999999821186","images/cow1.png","","","memory_trial","3","maybe_new",""
"html-keyboard-response","178","399070","0.0-18.0-0.67","4660","approach_avoid_sv1","""event"",""trial"",""time""
""fullscreenenter"",""1"",""1243""
""blur"",""9"",""50240""
""focus"",""9"",""53449""
","""event"",""trial"",""time""
""blur"",""9"",""50240""
","""event"",""trial"",""time""
""focus"",""9"",""53449""
","""event"",""trial"",""time""
""fullscreenenter"",""1"",""1243""
","
","","","","","","null","<div style=""font-size:60px;"">+</div>","null","","fixation","","",""
"memory-trial","179","400838","0.0-18.0-1.67","4660","approach_avoid_sv1","""event"",""trial"",""time""
""fullscreenenter"",""1"",""1243""
""blur"",""9"",""50240""
""focus"",""9"",""53449""
","""event"",""trial"",""time""
""blur"",""9"",""50240""
","""event"",""trial"",""time""
""focus"",""9"",""53449""
","""event"",""trial"",""time""
""fullscreenenter"",""1"",""1243""
","
","","","","","","759","images/plane6.png","","","memory_trial","4","definitely_new",""
"html-keyboard-response","180","401356","0.0-18.0-0.68","4660","approach_avoid_sv1","""event"",""trial"",""time""
""fullscreenenter"",""1"",""1243""
""blur"",""9"",""50240""
""focus"",""9"",""53449""
","""event"",""trial"",""time""
""blur"",""9"",""50240""
","""event"",""trial"",""time""
""focus"",""9"",""53449""
","""event"",""trial"",""time""
""fullscreenenter"",""1"",""1243""
","
","","","","","","null","<div style=""font-size:60px;"">+</div>","null","","fixation","","",""
"memory-trial","181","403255","0.0-18.0-1.68","4660","approach_avoid_sv1","""event"",""trial"",""time""
""fullscreenenter"",""1"",""1243""
""blur"",""9"",""50240""
""focus"",""9"",""53449""
","""event"",""trial"",""time""
""blur"",""9"",""50240""
","""event"",""trial"",""time""
""focus"",""9"",""53449""
","""event"",""trial"",""time""
""fullscreenenter"",""1"",""1243""
","
","","","","","","895.4000000059605","images/goat1.png","","","memory_trial","4","definitely_new",""
"html-keyboard-response","182","403759","0.0-18.0-0.69","4660","approach_avoid_sv1","""event"",""trial"",""time""
""fullscreenenter"",""1"",""1243""
""blur"",""9"",""50240""
""focus"",""9"",""53449""
","""event"",""trial"",""time""
""blur"",""9"",""50240""
","""event"",""trial"",""time""
""focus"",""9"",""53449""
","""event"",""trial"",""time""
""fullscreenenter"",""1"",""1243""
","
","","","","","","null","<div style=""font-size:60px;"">+</div>","null","","fixation","","",""
"memory-trial","183","405678","0.0-18.0-1.69","4660","approach_avoid_sv1","""event"",""trial"",""time""
""fullscreenenter"",""1"",""1243""
""blur"",""9"",""50240""
""focus"",""9"",""53449""
","""event"",""trial"",""time""
""blur"",""9"",""50240""
","""event"",""trial"",""time""
""focus"",""9"",""53449""
","""event"",""trial"",""time""
""fullscreenenter"",""1"",""1243""
","
","","","","","","902.8000000119209","images/goat4.png","","","memory_trial","4","definitely_new",""
"html-keyboard-response","184","406183","0.0-18.0-0.70","4660","approach_avoid_sv1","""event"",""trial"",""time""
""fullscreenenter"",""1"",""1243""
""blur"",""9"",""50240""
""focus"",""9"",""53449""
","""event"",""trial"",""time""
""blur"",""9"",""50240""
","""event"",""trial"",""time""
""focus"",""9"",""53449""
","""event"",""trial"",""time""
""fullscreenenter"",""1"",""1243""
","
","","","","","","null","<div style=""font-size:60px;"">+</div>","null","","fixation","","",""
"memory-trial","185","409919","0.0-18.0-1.70","4660","approach_avoid_sv1","""event"",""trial"",""time""
""fullscreenenter"",""1"",""1243""
""blur"",""9"",""50240""
""focus"",""9"",""53449""
","""event"",""trial"",""time""
""blur"",""9"",""50240""
","""event"",""trial"",""time""
""focus"",""9"",""53449""
","""event"",""trial"",""time""
""fullscreenenter"",""1"",""1243""
","
","","","","","","2727.5999999940395","images/bed1.png","","","memory_trial","2","maybe_old",""
"html-keyboard-response","186","410423","0.0-18.0-0.71","4660","approach_avoid_sv1","""event"",""trial"",""time""
""fullscreenenter"",""1"",""1243""
""blur"",""9"",""50240""
""focus"",""9"",""53449""
","""event"",""trial"",""time""
""blur"",""9"",""50240""
","""event"",""trial"",""time""
""focus"",""9"",""53449""
","""event"",""trial"",""time""
""fullscreenenter"",""1"",""1243""
","
","","","","","","null","<div style=""font-size:60px;"">+</div>","null","","fixation","","",""
"memory-trial","187","412199","0.0-18.0-1.71","4660","approach_avoid_sv1","""event"",""trial"",""time""
""fullscreenenter"",""1"",""1243""
""blur"",""9"",""50240""
""focus"",""9"",""53449""
","""event"",""trial"",""time""
""blur"",""9"",""50240""
","""event"",""trial"",""time""
""focus"",""9"",""53449""
","""event"",""trial"",""time""
""fullscreenenter"",""1"",""1243""
","
","","","","","","767.9000000059605","images/chair1.png","","","memory_trial","1","definitely_old",""
"html-keyboard-response","188","412703","0.0-18.0-0.72","4660","approach_avoid_sv1","""event"",""trial"",""time""
""fullscreenenter"",""1"",""1243""
""blur"",""9"",""50240""
""focus"",""9"",""53449""
","""event"",""trial"",""time""
""blur"",""9"",""50240""
","""event"",""trial"",""time""
""focus"",""9"",""53449""
","""event"",""trial"",""time""
""fullscreenenter"",""1"",""1243""
","
","","","","","","null","<div style=""font-size:60px;"">+</div>","null","","fixation","","",""
"memory-trial","189","414573","0.0-18.0-1.72","4660","approach_avoid_sv1","""event"",""trial"",""time""
""fullscreenenter"",""1"",""1243""
""blur"",""9"",""50240""
""focus"",""9"",""53449""
","""event"",""trial"",""time""
""blur"",""9"",""50240""
","""event"",""trial"",""time""
""focus"",""9"",""53449""
","""event"",""trial"",""time""
""fullscreenenter"",""1"",""1243""
","
","","","","","","858.3000000119209","images/truck4.png","","","memory_trial","4","definitely_new",""
"html-keyboard-response","190","415080","0.0-18.0-0.73","4660","approach_avoid_sv1","""event"",""trial"",""time""
""fullscreenenter"",""1"",""1243""
""blur"",""9"",""50240""
""focus"",""9"",""53449""
","""event"",""trial"",""time""
""blur"",""9"",""50240""
","""event"",""trial"",""time""
""focus"",""9"",""53449""
","""event"",""trial"",""time""
""fullscreenenter"",""1"",""1243""
","
","","","","","","null","<div style=""font-size:60px;"">+</div>","null","","fixation","","",""
"memory-trial","191","416724","0.0-18.0-1.73","4660","approach_avoid_sv1","""event"",""trial"",""time""
""fullscreenenter"",""1"",""1243""
""blur"",""9"",""50240""
""focus"",""9"",""53449""
","""event"",""trial"",""time""
""blur"",""9"",""50240""
","""event"",""trial"",""time""
""focus"",""9"",""53449""
","""event"",""trial"",""time""
""fullscreenenter"",""1"",""1243""
","
","","","","","","621","images/truck3.png","","","memory_trial","4","definitely_new",""
"html-keyboard-response","192","417231","0.0-18.0-0.74","4660","approach_avoid_sv1","""event"",""trial"",""time""
""fullscreenenter"",""1"",""1243""
""blur"",""9"",""50240""
""focus"",""9"",""53449""
","""event"",""trial"",""time""
""blur"",""9"",""50240""
","""event"",""trial"",""time""
""focus"",""9"",""53449""
","""event"",""trial"",""time""
""fullscreenenter"",""1"",""1243""
","
","","","","","","null","<div style=""font-size:60px;"">+</div>","null","","fixation","","",""
"memory-trial","193","419256","0.0-18.0-1.74","4660","approach_avoid_sv1","""event"",""trial"",""time""
""fullscreenenter"",""1"",""1243""
""blur"",""9"",""50240""
""focus"",""9"",""53449""
","""event"",""trial"",""time""
""blur"",""9"",""50240""
","""event"",""trial"",""time""
""focus"",""9"",""53449""
","""event"",""trial"",""time""
""fullscreenenter"",""1"",""1243""
","
","","","","","","1014.5","images/rabbit8.png","","","memory_trial","1","definitely_old",""
"html-keyboard-response","194","419759","0.0-18.0-0.75","4660","approach_avoid_sv1","""event"",""trial"",""time""
""fullscreenenter"",""1"",""1243""
""blur"",""9"",""50240""
""focus"",""9"",""53449""
","""event"",""trial"",""time""
""blur"",""9"",""50240""
","""event"",""trial"",""time""
""focus"",""9"",""53449""
","""event"",""trial"",""time""
""fullscreenenter"",""1"",""1243""
","
","","","","","","null","<div style=""font-size:60px;"">+</div>","null","","fixation","","",""
"memory-trial","195","421679","0.0-18.0-1.75","4660","approach_avoid_sv1","""event"",""trial"",""time""
""fullscreenenter"",""1"",""1243""
""blur"",""9"",""50240""
""focus"",""9"",""53449""
","""event"",""trial"",""time""
""blur"",""9"",""50240""
","""event"",""trial"",""time""
""focus"",""9"",""53449""
","""event"",""trial"",""time""
""fullscreenenter"",""1"",""1243""
","
","","","","","","912","images/flower1.png","","","memory_trial","2","maybe_old",""
"html-keyboard-response","196","422183","0.0-18.0-0.76","4660","approach_avoid_sv1","""event"",""trial"",""time""
""fullscreenenter"",""1"",""1243""
""blur"",""9"",""50240""
""focus"",""9"",""53449""
","""event"",""trial"",""time""
""blur"",""9"",""50240""
","""event"",""trial"",""time""
""focus"",""9"",""53449""
","""event"",""trial"",""time""
""fullscreenenter"",""1"",""1243""
","
","","","","","","null","<div style=""font-size:60px;"">+</div>","null","","fixation","","",""
"memory-trial","197","423847","0.0-18.0-1.76","4660","approach_avoid_sv1","""event"",""trial"",""time""
""fullscreenenter"",""1"",""1243""
""blur"",""9"",""50240""
""focus"",""9"",""53449""
","""event"",""trial"",""time""
""blur"",""9"",""50240""
","""event"",""trial"",""time""
""focus"",""9"",""53449""
","""event"",""trial"",""time""
""fullscreenenter"",""1"",""1243""
","
","","","","","","661","images/straw8.png","","","memory_trial","1","definitely_old",""
"html-keyboard-response","198","424361","0.0-18.0-0.77","4660","approach_avoid_sv1","""event"",""trial"",""time""
""fullscreenenter"",""1"",""1243""
""blur"",""9"",""50240""
""focus"",""9"",""53449""
","""event"",""trial"",""time""
""blur"",""9"",""50240""
","""event"",""trial"",""time""
""focus"",""9"",""53449""
","""event"",""trial"",""time""
""fullscreenenter"",""1"",""1243""
","
","","","","","","null","<div style=""font-size:60px;"">+</div>","null","","fixation","","",""
"memory-trial","199","426280","0.0-18.0-1.77","4660","approach_avoid_sv1","""event"",""trial"",""time""
""fullscreenenter"",""1"",""1243""
""blur"",""9"",""50240""
""focus"",""9"",""53449""
","""event"",""trial"",""time""
""blur"",""9"",""50240""
","""event"",""trial"",""time""
""focus"",""9"",""53449""
","""event"",""trial"",""time""
""fullscreenenter"",""1"",""1243""
","
","","","","","","914.6999999880791","images/bush1.png","","","memory_trial","3","maybe_new",""
"html-keyboard-response","200","426782","0.0-18.0-0.78","4660","approach_avoid_sv1","""event"",""trial"",""time""
""fullscreenenter"",""1"",""1243""
""blur"",""9"",""50240""
""focus"",""9"",""53449""
","""event"",""trial"",""time""
""blur"",""9"",""50240""
","""event"",""trial"",""time""
""focus"",""9"",""53449""
","""event"",""trial"",""time""
""fullscreenenter"",""1"",""1243""
","
","","","","","","null","<div style=""font-size:60px;"">+</div>","null","","fixation","","",""
"memory-trial","201","428471","0.0-18.0-1.78","4660","approach_avoid_sv1","""event"",""trial"",""time""
""fullscreenenter"",""1"",""1243""
""blur"",""9"",""50240""
""focus"",""9"",""53449""
","""event"",""trial"",""time""
""blur"",""9"",""50240""
","""event"",""trial"",""time""
""focus"",""9"",""53449""
","""event"",""trial"",""time""
""fullscreenenter"",""1"",""1243""
","
","","","","","","684.0999999940395","images/boat6.png","","","memory_trial","3","maybe_new",""
