"trial_type","trial_index","time_elapsed","internal_node_id","subject_id","task_version","interactions","blur_events","focus_events","fullscreenenter_events","fullscreenexit_events","success","timeout","failed_images","failed_audio","failed_video","rt","stimulus","response","button_pressed","task_part","key_press","answer","correct"
"pavlovia","0","4","0.0-0.0","6199","approach_avoid_sv1","""event"",""trial"",""time""
""fullscreenenter"",""1"",""2381""
","
","
","""event"",""trial"",""time""
""fullscreenenter"",""1"",""2381""
","
","","","","","","","","","","","","",""
"fullscreen","1","3334","0.0-1.0","6199","approach_avoid_sv1","""event"",""trial"",""time""
""fullscreenenter"",""1"",""2381""
","
","
","""event"",""trial"",""time""
""fullscreenenter"",""1"",""2381""
","
","true","","","","","","","","","","","",""
"preload","2","5411","0.0-2.0","6199","approach_avoid_sv1","""event"",""trial"",""time""
""fullscreenenter"",""1"",""2381""
","
","
","""event"",""trial"",""time""
""fullscreenenter"",""1"",""2381""
","
","true","false","[]","[]","[]","","","","","","","",""
"preload","3","6322","0.0-3.0","6199","approach_avoid_sv1","""event"",""trial"",""time""
""fullscreenenter"",""1"",""2381""
","
","
","""event"",""trial"",""time""
""fullscreenenter"",""1"",""2381""
","
","true","false","[]","[]","[]","","","","","","","",""
"preload","4","6624","0.0-4.0","6199","approach_avoid_sv1","""event"",""trial"",""time""
""fullscreenenter"",""1"",""2381""
","
","
","""event"",""trial"",""time""
""fullscreenenter"",""1"",""2381""
","
","true","false","[]","[]","[]","","","","","","","",""
"audio-keyboard-response","5","20749","0.0-5.0","6199","approach_avoid_sv1","""event"",""trial"",""time""
""fullscreenenter"",""1"",""2381""
","
","
","""event"",""trial"",""time""
""fullscreenenter"",""1"",""2381""
","
","","","","","","14130.666666666666","audio/beep_loop.wav"," ","","","","",""
"audio-button-response","6","22772","0.0-6.0","6199","approach_avoid_sv1","""event"",""trial"",""time""
""fullscreenenter"",""1"",""2381""
","
","
","""event"",""trial"",""time""
""fullscreenenter"",""1"",""2381""
","
","","","","","","2021","audio/turtle.wav","3","","","","",""
"audio-button-response","7","25564","0.0-7.0","6199","approach_avoid_sv1","""event"",""trial"",""time""
""fullscreenenter"",""1"",""2381""
","
","
","""event"",""trial"",""time""
""fullscreenenter"",""1"",""2381""
","
","","","","","","1781","audio/shark.wav","2","","","","",""
"preload","8","28589","0.0-8.0","6199","approach_avoid_sv1","""event"",""trial"",""time""
""fullscreenenter"",""1"",""2381""
","
","
","""event"",""trial"",""time""
""fullscreenenter"",""1"",""2381""
","
","true","false","[]","[]","[]","","","","","","","",""
"learning-instructions","9","35324","0.0-9.0-0.0","6199","approach_avoid_sv1","""event"",""trial"",""time""
""fullscreenenter"",""1"",""2381""
","
","
","""event"",""trial"",""time""
""fullscreenenter"",""1"",""2381""
","
","","","","","","2256.9000000953674","<p> Welcome back! </p><p> Last week, you had to make choices about lots of different items.  </p>","","0","instructions","","",""
"learning-instructions","10","41652","0.0-9.0-0.1","6199","approach_avoid_sv1","""event"",""trial"",""time""
""fullscreenenter"",""1"",""2381""
","
","
","""event"",""trial"",""time""
""fullscreenenter"",""1"",""2381""
","
","","","","","","2204.9000000953674","<p> Today, we are going to ask you to try to remember all the items. </p>","","0","instructions","","",""
"learning-instructions","11","52444","0.0-9.0-0.2","6199","approach_avoid_sv1","""event"",""trial"",""time""
""fullscreenenter"",""1"",""2381""
","
","
","""event"",""trial"",""time""
""fullscreenenter"",""1"",""2381""
","
","","","","","","646.9000000953674","<p> On every trial, you will see an image. </p><p> The image may be an OLD image you saw during the games last week or it may be a NEW image that was not presented. </p>","","0","instructions","","",""
"learning-instructions","12","61444","0.0-9.0-0.3","6199","approach_avoid_sv1","""event"",""trial"",""time""
""fullscreenenter"",""1"",""2381""
","
","
","""event"",""trial"",""time""
""fullscreenenter"",""1"",""2381""
","
","","","","","","485.8999996185303","<p> You need to select whether the image is:  </p><p>  'Definitely old', 'Maybe old', 'Maybe new', or 'Definitely new.'  </p><div class=""mem-choice-instructions-grid""><div class=""choice-option"" id=""choice-option-1"" ><img src=""images/definitely_old_1.png"" id=""choice-option-img-1"" class=""choice-option-img"" stage=""1""></div><div class=""choice-option"" id=""choice-option-2"" ><img src=""images/maybe_old_1.png"" id=""choice-option-img-2"" class=""choice-option-img"" stage=""1""></div><div class=""choice-option"" id=""choice-option-3"" ><img src=""images/maybe_new_1.png"" id=""choice-option-img-3"" class=""choice-option-img"" stage=""1""></div><div class=""choice-option"" id=""choice-option-4"" > <img src=""images/definitely_new_1.png"" id=""choice-option-img-4"" class=""choice-option-img"" stage=""1""></div></div>","","0","instructions","","",""
"learning-instructions","13","69052","0.0-9.0-0.4","6199","approach_avoid_sv1","""event"",""trial"",""time""
""fullscreenenter"",""1"",""2381""
","
","
","""event"",""trial"",""time""
""fullscreenenter"",""1"",""2381""
","
","","","","","","1084","<p> You should use the 1, 2, 3, and 4 keys to make your responses.  </p><div class=""mem-choice-instructions-grid""><div class=""choice-option"" id=""choice-option-1"" ><img src=""images/definitely_old.png"" id=""choice-option-img-1"" class=""choice-option-img"" stage=""1""></div><div class=""choice-option"" id=""choice-option-2"" ><img src=""images/maybe_old.png"" id=""choice-option-img-2"" class=""choice-option-img"" stage=""1""></div><div class=""choice-option"" id=""choice-option-3"" ><img src=""images/maybe_new.png"" id=""choice-option-img-3"" class=""choice-option-img"" stage=""1""></div><div class=""choice-option"" id=""choice-option-4"" > <img src=""images/definitely_new.png"" id=""choice-option-img-4"" class=""choice-option-img"" stage=""1""></div></div>","","0","instructions","","",""
"learning-instructions","14","76756","0.0-9.0-0.5","6199","approach_avoid_sv1","""event"",""trial"",""time""
""fullscreenenter"",""1"",""2381""
","
","
","""event"",""trial"",""time""
""fullscreenenter"",""1"",""2381""
","
","","","","","","1348.8000001907349","<p> You will have 10 seconds to make each response.  </p><p>  Make sure to respond before time runs out! </p>","","0","instructions","","",""
"learning-instructions","15","84572","0.0-9.0-0.6","6199","approach_avoid_sv1","""event"",""trial"",""time""
""fullscreenenter"",""1"",""2381""
","
","
","""event"",""trial"",""time""
""fullscreenenter"",""1"",""2381""
","
","","","","","","724.8000001907349","<p> Today, you will see each image ONCE only.  </p><p>  That means none of the images will repeat. </p>","","0","instructions","","",""
"learning-instructions","16","97988","0.0-9.0-0.7","6199","approach_avoid_sv1","""event"",""trial"",""time""
""fullscreenenter"",""1"",""2381""
","
","
","""event"",""trial"",""time""
""fullscreenenter"",""1"",""2381""
","
","","","","","","730.6000003814697","<p> Before you play the real game, it is time to practice. </p><p>  Just like in the real game, some of the images in the practice will be ones you have seen before. </p><p>  Others will be entirely new. </p>","","0","instructions","","",""
"html-button-response","17","101140","0.0-10.0","6199","approach_avoid_sv1","""event"",""trial"",""time""
""fullscreenenter"",""1"",""2381""
","
","
","""event"",""trial"",""time""
""fullscreenenter"",""1"",""2381""
","
","","","","","","3032.5","<p> Ready to practice? </p><p> Remember, use the 1, 2, 3, and 4 keys to make your responses. </p>","0","","instructions","","",""
"html-keyboard-response","18","101766","0.0-11.0-0.0","6199","approach_avoid_sv1","""event"",""trial"",""time""
""fullscreenenter"",""1"",""2381""
","
","
","""event"",""trial"",""time""
""fullscreenenter"",""1"",""2381""
","
","","","","","","null","<div style=""font-size:60px;"">+</div>","null","","fixation","","",""
"memory-trial","19","105036","0.0-11.0-1.0","6199","approach_avoid_sv1","""event"",""trial"",""time""
""fullscreenenter"",""1"",""2381""
","
","
","""event"",""trial"",""time""
""fullscreenenter"",""1"",""2381""
","
","","","","","","2256","images/ball3.png","","","practice","3","maybe_new",""
"html-keyboard-response","20","105555","0.0-11.0-0.1","6199","approach_avoid_sv1","""event"",""trial"",""time""
""fullscreenenter"",""1"",""2381""
","
","
","""event"",""trial"",""time""
""fullscreenenter"",""1"",""2381""
","
","","","","","","null","<div style=""font-size:60px;"">+</div>","null","","fixation","","",""
"memory-trial","21","109835","0.0-11.0-1.1","6199","approach_avoid_sv1","""event"",""trial"",""time""
""fullscreenenter"",""1"",""2381""
","
","
","""event"",""trial"",""time""
""fullscreenenter"",""1"",""2381""
","
","","","","","","3268.199999809265","images/racket3.png","","","practice","4","definitely_new",""
"html-keyboard-response","22","110355","0.0-11.0-0.2","6199","approach_avoid_sv1","""event"",""trial"",""time""
""fullscreenenter"",""1"",""2381""
","
","
","""event"",""trial"",""time""
""fullscreenenter"",""1"",""2381""
","
","","","","","","null","<div style=""font-size:60px;"">+</div>","null","","fixation","","",""
"memory-trial","23","114285","0.0-11.0-1.2","6199","approach_avoid_sv1","""event"",""trial"",""time""
""fullscreenenter"",""1"",""2381""
","
","
","""event"",""trial"",""time""
""fullscreenenter"",""1"",""2381""
","
","","","","","","2907","images/ball1.png","","","practice","3","maybe_new",""
"html-keyboard-response","24","114805","0.0-11.0-0.3","6199","approach_avoid_sv1","""event"",""trial"",""time""
""fullscreenenter"",""1"",""2381""
","
","
","""event"",""trial"",""time""
""fullscreenenter"",""1"",""2381""
","
","","","","","","null","<div style=""font-size:60px;"">+</div>","null","","fixation","","",""
"memory-trial","25","117435","0.0-11.0-1.3","6199","approach_avoid_sv1","""event"",""trial"",""time""
""fullscreenenter"",""1"",""2381""
","
","
","""event"",""trial"",""time""
""fullscreenenter"",""1"",""2381""
","
","","","","","","1616.6999998092651","images/racket1.png","","","practice","2","maybe_old",""
"html-keyboard-response","26","117955","0.0-11.0-0.4","6199","approach_avoid_sv1","""event"",""trial"",""time""
""fullscreenenter"",""1"",""2381""
","
","
","""event"",""trial"",""time""
""fullscreenenter"",""1"",""2381""
","
","","","","","","null","<div style=""font-size:60px;"">+</div>","null","","fixation","","",""
"memory-trial","27","121455","0.0-11.0-1.4","6199","approach_avoid_sv1","""event"",""trial"",""time""
""fullscreenenter"",""1"",""2381""
","
","
","""event"",""trial"",""time""
""fullscreenenter"",""1"",""2381""
","
","","","","","","2491.5","images/ball2.png","","","practice","2","maybe_old",""
"html-keyboard-response","28","121965","0.0-11.0-0.5","6199","approach_avoid_sv1","""event"",""trial"",""time""
""fullscreenenter"",""1"",""2381""
","
","
","""event"",""trial"",""time""
""fullscreenenter"",""1"",""2381""
","
","","","","","","null","<div style=""font-size:60px;"">+</div>","null","","fixation","","",""
"memory-trial","29","124106","0.0-11.0-1.5","6199","approach_avoid_sv1","""event"",""trial"",""time""
""fullscreenenter"",""1"",""2381""
","
","
","""event"",""trial"",""time""
""fullscreenenter"",""1"",""2381""
","
","","","","","","1129","images/racket5.png","","","practice","2","maybe_old",""
"html-keyboard-response","30","124615","0.0-11.0-0.6","6199","approach_avoid_sv1","""event"",""trial"",""time""
""fullscreenenter"",""1"",""2381""
","
","
","""event"",""trial"",""time""
""fullscreenenter"",""1"",""2381""
","
","","","","","","null","<div style=""font-size:60px;"">+</div>","null","","fixation","","",""
"memory-trial","31","126535","0.0-11.0-1.6","6199","approach_avoid_sv1","""event"",""trial"",""time""
""fullscreenenter"",""1"",""2381""
","
","
","""event"",""trial"",""time""
""fullscreenenter"",""1"",""2381""
","
","","","","","","896.3999996185303","images/ball5.png","","","practice","2","maybe_old",""
"html-keyboard-response","32","127055","0.0-11.0-0.7","6199","approach_avoid_sv1","""event"",""trial"",""time""
""fullscreenenter"",""1"",""2381""
","
","
","""event"",""trial"",""time""
""fullscreenenter"",""1"",""2381""
","
","","","","","","null","<div style=""font-size:60px;"">+</div>","null","","fixation","","",""
"memory-trial","33","129966","0.0-11.0-1.7","6199","approach_avoid_sv1","""event"",""trial"",""time""
""fullscreenenter"",""1"",""2381""
","
","
","""event"",""trial"",""time""
""fullscreenenter"",""1"",""2381""
","
","","","","","","1904","images/racket2.png","","","practice","3","maybe_new",""
"learning-instructions","34","138219","0.0-12.0-0.0","6199","approach_avoid_sv1","""event"",""trial"",""time""
""fullscreenenter"",""1"",""2381""
","
","
","""event"",""trial"",""time""
""fullscreenenter"",""1"",""2381""
","
","","","","","","941.6999998092651","<p> Great! You have completed the practice. </p><p> Before you start, we're going to ask you a few questions about how the game works.  </p>","","0","instructions","","",""
"preload","35","140305","0.0-13.0","6199","approach_avoid_sv1","""event"",""trial"",""time""
""fullscreenenter"",""1"",""2381""
","
","
","""event"",""trial"",""time""
""fullscreenenter"",""1"",""2381""
","
","true","false","[]","[]","[]","","","","","","","",""
"comp-q","36","147108","0.0-14.0-0.0","6199","approach_avoid_sv1","""event"",""trial"",""time""
""fullscreenenter"",""1"",""2381""
","
","
","""event"",""trial"",""time""
""fullscreenenter"",""1"",""2381""
","
","","","","","","969.5999999046326","<p> <b> True or False? </b> </p><p> In this game, you will only see each image once. </p>","","1","comp_question","","","false"
"comp-q","37","155475","0.0-14.0-1.0","6199","approach_avoid_sv1","""event"",""trial"",""time""
""fullscreenenter"",""1"",""2381""
","
","
","""event"",""trial"",""time""
""fullscreenenter"",""1"",""2381""
","
","","","","","","1827.6000003814697","<p> <b>Incorrect.</b> You will see many different images <i> one time each </i> in this game. </p>","","0","comp_answer","","",""
"comp-q","38","162275","0.0-14.1-0.1","6199","approach_avoid_sv1","""event"",""trial"",""time""
""fullscreenenter"",""1"",""2381""
","
","
","""event"",""trial"",""time""
""fullscreenenter"",""1"",""2381""
","
","","","","","","857.5999999046326","<p> <b> True or False? </b> </p><p> In this game, you will only see each image once. </p>","","0","comp_question","","","true"
"comp-q","39","169515","0.0-14.1-1.1","6199","approach_avoid_sv1","""event"",""trial"",""time""
""fullscreenenter"",""1"",""2381""
","
","
","""event"",""trial"",""time""
""fullscreenenter"",""1"",""2381""
","
","","","","","","887.6999998092651","<p> <b> That's right! </b> You will see many different images <i> one time each </i> in this game. </p>","","0","comp_answer","","",""
"comp-q","40","175595","0.0-15.0-0.0","6199","approach_avoid_sv1","""event"",""trial"",""time""
""fullscreenenter"",""1"",""2381""
","
","
","""event"",""trial"",""time""
""fullscreenenter"",""1"",""2381""
","
","","","","","","1047.9000000953674","<p> <b> True or False? </b> </p><p> You should use the mouse and click to make your response. </p>","","1","comp_question","","","true"
"comp-q","41","183763","0.0-15.0-1.0","6199","approach_avoid_sv1","""event"",""trial"",""time""
""fullscreenenter"",""1"",""2381""
","
","
","""event"",""trial"",""time""
""fullscreenenter"",""1"",""2381""
","
","","","","","","1666.0999999046326","<p><b> That's right! </b> You should use the '1', '2', '3', and '4' keys to make your response. </p>","","0","comp_answer","","",""
"comp-q","42","190179","0.0-16.0-0.0","6199","approach_avoid_sv1","""event"",""trial"",""time""
""fullscreenenter"",""1"",""2381""
","
","
","""event"",""trial"",""time""
""fullscreenenter"",""1"",""2381""
","
","","","","","","721.0999999046326","<p> <b> True or False? </b> </p><p> You will have as much time as you want to make each choice. </p>","","1","comp_question","","","true"
"comp-q","43","196443","0.0-16.0-1.0","6199","approach_avoid_sv1","""event"",""trial"",""time""
""fullscreenenter"",""1"",""2381""
","
","
","""event"",""trial"",""time""
""fullscreenenter"",""1"",""2381""
","
","","","","","","1535.6999998092651","<p> <b> That's right! </b> You will only have 10 seconds to make each choice. </p>","","0","comp_answer","","",""
"learning-instructions","44","207019","0.0-17.0","6199","approach_avoid_sv1","""event"",""trial"",""time""
""fullscreenenter"",""1"",""2381""
","
","
","""event"",""trial"",""time""
""fullscreenenter"",""1"",""2381""
","
","","","","","","1881.8000001907349","<p> Great! You are now ready to begin the game. </p><p> Remember, use the 1, 2, 3, and 4 keys to make your responses. </p>","","0","instructions","","",""
"html-keyboard-response","45","207655","0.0-18.0-0.0","6199","approach_avoid_sv1","""event"",""trial"",""time""
""fullscreenenter"",""1"",""2381""
","
","
","""event"",""trial"",""time""
""fullscreenenter"",""1"",""2381""
","
","","","","","","null","<div style=""font-size:60px;"">+</div>","null","","fixation","","",""
"memory-trial","46","211065","0.0-18.0-1.0","6199","approach_avoid_sv1","""event"",""trial"",""time""
""fullscreenenter"",""1"",""2381""
","
","
","""event"",""trial"",""time""
""fullscreenenter"",""1"",""2381""
","
","","","","","","2390","images/dog6.png","","","memory_trial","2","maybe_old",""
"html-keyboard-response","47","211585","0.0-18.0-0.1","6199","approach_avoid_sv1","""event"",""trial"",""time""
""fullscreenenter"",""1"",""2381""
","
","
","""event"",""trial"",""time""
""fullscreenenter"",""1"",""2381""
","
","","","","","","null","<div style=""font-size:60px;"">+</div>","null","","fixation","","",""
"memory-trial","48","214035","0.0-18.0-1.1","6199","approach_avoid_sv1","""event"",""trial"",""time""
""fullscreenenter"",""1"",""2381""
","
","
","""event"",""trial"",""time""
""fullscreenenter"",""1"",""2381""
","
","","","","","","1436.9000000953674","images/straw5.png","","","memory_trial","3","maybe_new",""
"html-keyboard-response","49","214555","0.0-18.0-0.2","6199","approach_avoid_sv1","""event"",""trial"",""time""
""fullscreenenter"",""1"",""2381""
","
","
","""event"",""trial"",""time""
""fullscreenenter"",""1"",""2381""
","
","","","","","","null","<div style=""font-size:60px;"">+</div>","null","","fixation","","",""
"memory-trial","50","216746","0.0-18.0-1.2","6199","approach_avoid_sv1","""event"",""trial"",""time""
""fullscreenenter"",""1"",""2381""
","
","
","""event"",""trial"",""time""
""fullscreenenter"",""1"",""2381""
","
","","","","","","1159.3000001907349","images/rodent3.png","","","memory_trial","3","maybe_new",""
"html-keyboard-response","51","217255","0.0-18.0-0.3","6199","approach_avoid_sv1","""event"",""trial"",""time""
""fullscreenenter"",""1"",""2381""
","
","
","""event"",""trial"",""time""
""fullscreenenter"",""1"",""2381""
","
","","","","","","null","<div style=""font-size:60px;"">+</div>","null","","fixation","","",""
"memory-trial","52","219415","0.0-18.0-1.3","6199","approach_avoid_sv1","""event"",""trial"",""time""
""fullscreenenter"",""1"",""2381""
","
","
","""event"",""trial"",""time""
""fullscreenenter"",""1"",""2381""
","
","","","","","","1134.5","images/table8.png","","","memory_trial","3","maybe_new",""
"html-keyboard-response","53","219935","0.0-18.0-0.4","6199","approach_avoid_sv1","""event"",""trial"",""time""
""fullscreenenter"",""1"",""2381""
","
","
","""event"",""trial"",""time""
""fullscreenenter"",""1"",""2381""
","
","","","","","","null","<div style=""font-size:60px;"">+</div>","null","","fixation","","",""
"memory-trial","54","222055","0.0-18.0-1.4","6199","approach_avoid_sv1","""event"",""trial"",""time""
""fullscreenenter"",""1"",""2381""
","
","
","""event"",""trial"",""time""
""fullscreenenter"",""1"",""2381""
","
","","","","","","1102.2999997138977","images/tree3.png","","","memory_trial","1","definitely_old",""
"html-keyboard-response","55","222565","0.0-18.0-0.5","6199","approach_avoid_sv1","""event"",""trial"",""time""
""fullscreenenter"",""1"",""2381""
","
","
","""event"",""trial"",""time""
""fullscreenenter"",""1"",""2381""
","
","","","","","","null","<div style=""font-size:60px;"">+</div>","null","","fixation","","",""
"memory-trial","56","225726","0.0-18.0-1.5","6199","approach_avoid_sv1","""event"",""trial"",""time""
""fullscreenenter"",""1"",""2381""
","
","
","""event"",""trial"",""time""
""fullscreenenter"",""1"",""2381""
","
","","","","","","2144.8999996185303","images/banana3.png","","","memory_trial","3","maybe_new",""
"html-keyboard-response","57","226235","0.0-18.0-0.6","6199","approach_avoid_sv1","""event"",""trial"",""time""
""fullscreenenter"",""1"",""2381""
","
","
","""event"",""trial"",""time""
""fullscreenenter"",""1"",""2381""
","
","","","","","","null","<div style=""font-size:60px;"">+</div>","null","","fixation","","",""
"memory-trial","58","228425","0.0-18.0-1.6","6199","approach_avoid_sv1","""event"",""trial"",""time""
""fullscreenenter"",""1"",""2381""
","
","
","""event"",""trial"",""time""
""fullscreenenter"",""1"",""2381""
","
","","","","","","1170.1999998092651","images/banana8.png","","","memory_trial","3","maybe_new",""
"html-keyboard-response","59","228935","0.0-18.0-0.7","6199","approach_avoid_sv1","""event"",""trial"",""time""
""fullscreenenter"",""1"",""2381""
","
","
","""event"",""trial"",""time""
""fullscreenenter"",""1"",""2381""
","
","","","","","","null","<div style=""font-size:60px;"">+</div>","null","","fixation","","",""
"memory-trial","60","231495","0.0-18.0-1.7","6199","approach_avoid_sv1","""event"",""trial"",""time""
""fullscreenenter"",""1"",""2381""
","
","
","""event"",""trial"",""time""
""fullscreenenter"",""1"",""2381""
","
","","","","","","1551.0999999046326","images/dog1.png","","","memory_trial","2","maybe_old",""
"html-keyboard-response","61","232015","0.0-18.0-0.8","6199","approach_avoid_sv1","""event"",""trial"",""time""
""fullscreenenter"",""1"",""2381""
","
","
","""event"",""trial"",""time""
""fullscreenenter"",""1"",""2381""
","
","","","","","","null","<div style=""font-size:60px;"">+</div>","null","","fixation","","",""
"memory-trial","62","235145","0.0-18.0-1.8","6199","approach_avoid_sv1","""event"",""trial"",""time""
""fullscreenenter"",""1"",""2381""
","
","
","""event"",""trial"",""time""
""fullscreenenter"",""1"",""2381""
","
","","","","","","2118.3999996185303","images/train4.png","","","memory_trial","2","maybe_old",""
"html-keyboard-response","63","235655","0.0-18.0-0.9","6199","approach_avoid_sv1","""event"",""trial"",""time""
""fullscreenenter"",""1"",""2381""
","
","
","""event"",""trial"",""time""
""fullscreenenter"",""1"",""2381""
","
","","","","","","null","<div style=""font-size:60px;"">+</div>","null","","fixation","","",""
"memory-trial","64","238295","0.0-18.0-1.9","6199","approach_avoid_sv1","""event"",""trial"",""time""
""fullscreenenter"",""1"",""2381""
","
","
","""event"",""trial"",""time""
""fullscreenenter"",""1"",""2381""
","
","","","","","","1631.5999999046326","images/boat3.png","","","memory_trial","2","maybe_old",""
"html-keyboard-response","65","238799","0.0-18.0-0.10","6199","approach_avoid_sv1","""event"",""trial"",""time""
""fullscreenenter"",""1"",""2381""
","
","
","""event"",""trial"",""time""
""fullscreenenter"",""1"",""2381""
","
","","","","","","null","<div style=""font-size:60px;"">+</div>","null","","fixation","","",""
"memory-trial","66","241686","0.0-18.0-1.10","6199","approach_avoid_sv1","""event"",""trial"",""time""
""fullscreenenter"",""1"",""2381""
","
","
","""event"",""trial"",""time""
""fullscreenenter"",""1"",""2381""
","
","","","","","","1878.3999996185303","images/train6.png","","","memory_trial","3","maybe_new",""
"html-keyboard-response","67","242191","0.0-18.0-0.11","6199","approach_avoid_sv1","""event"",""trial"",""time""
""fullscreenenter"",""1"",""2381""
","
","
","""event"",""trial"",""time""
""fullscreenenter"",""1"",""2381""
","
","","","","","","null","<div style=""font-size:60px;"">+</div>","null","","fixation","","",""
"memory-trial","68","244094","0.0-18.0-1.11","6199","approach_avoid_sv1","""event"",""trial"",""time""
""fullscreenenter"",""1"",""2381""
","
","
","""event"",""trial"",""time""
""fullscreenenter"",""1"",""2381""
","
","","","","","","894.8000001907349","images/tree5.png","","","memory_trial","2","maybe_old",""
"html-keyboard-response","69","244599","0.0-18.0-0.12","6199","approach_avoid_sv1","""event"",""trial"",""time""
""fullscreenenter"",""1"",""2381""
","
","
","""event"",""trial"",""time""
""fullscreenenter"",""1"",""2381""
","
","","","","","","null","<div style=""font-size:60px;"">+</div>","null","","fixation","","",""
"memory-trial","70","246783","0.0-18.0-1.12","6199","approach_avoid_sv1","""event"",""trial"",""time""
""fullscreenenter"",""1"",""2381""
","
","
","""event"",""trial"",""time""
""fullscreenenter"",""1"",""2381""
","
","","","","","","1175.5999999046326","images/flower1.png","","","memory_trial","1","definitely_old",""
"html-keyboard-response","71","247286","0.0-18.0-0.13","6199","approach_avoid_sv1","""event"",""trial"",""time""
""fullscreenenter"",""1"",""2381""
","
","
","""event"",""trial"",""time""
""fullscreenenter"",""1"",""2381""
","
","","","","","","null","<div style=""font-size:60px;"">+</div>","null","","fixation","","",""
"memory-trial","72","249582","0.0-18.0-1.13","6199","approach_avoid_sv1","""event"",""trial"",""time""
""fullscreenenter"",""1"",""2381""
","
","
","""event"",""trial"",""time""
""fullscreenenter"",""1"",""2381""
","
","","","","","","1288.3000001907349","images/truck1.png","","","memory_trial","1","definitely_old",""
"html-keyboard-response","73","250087","0.0-18.0-0.14","6199","approach_avoid_sv1","""event"",""trial"",""time""
""fullscreenenter"",""1"",""2381""
","
","
","""event"",""trial"",""time""
""fullscreenenter"",""1"",""2381""
","
","","","","","","null","<div style=""font-size:60px;"">+</div>","null","","fixation","","",""
"memory-trial","74","252134","0.0-18.0-1.14","6199","approach_avoid_sv1","""event"",""trial"",""time""
""fullscreenenter"",""1"",""2381""
","
","
","""event"",""trial"",""time""
""fullscreenenter"",""1"",""2381""
","
","","","","","","1038.7999997138977","images/sheep7.png","","","memory_trial","1","definitely_old",""
"html-keyboard-response","75","252639","0.0-18.0-0.15","6199","approach_avoid_sv1","""event"",""trial"",""time""
""fullscreenenter"",""1"",""2381""
","
","
","""event"",""trial"",""time""
""fullscreenenter"",""1"",""2381""
","
","","","","","","null","<div style=""font-size:60px;"">+</div>","null","","fixation","","",""
"memory-trial","76","254974","0.0-18.0-1.15","6199","approach_avoid_sv1","""event"",""trial"",""time""
""fullscreenenter"",""1"",""2381""
","
","
","""event"",""trial"",""time""
""fullscreenenter"",""1"",""2381""
","
","","","","","","1327.2999997138977","images/horse2.png","","","memory_trial","3","maybe_new",""
"html-keyboard-response","77","255479","0.0-18.0-0.16","6199","approach_avoid_sv1","""event"",""trial"",""time""
""fullscreenenter"",""1"",""2381""
","
","
","""event"",""trial"",""time""
""fullscreenenter"",""1"",""2381""
","
","","","","","","null","<div style=""font-size:60px;"">+</div>","null","","fixation","","",""
"memory-trial","78","258095","0.0-18.0-1.16","6199","approach_avoid_sv1","""event"",""trial"",""time""
""fullscreenenter"",""1"",""2381""
","
","
","""event"",""trial"",""time""
""fullscreenenter"",""1"",""2381""
","
","","","","","","1607.5","images/cow8.png","","","memory_trial","1","definitely_old",""
"html-keyboard-response","79","258598","0.0-18.0-0.17","6199","approach_avoid_sv1","""event"",""trial"",""time""
""fullscreenenter"",""1"",""2381""
","
","
","""event"",""trial"",""time""
""fullscreenenter"",""1"",""2381""
","
","","","","","","null","<div style=""font-size:60px;"">+</div>","null","","fixation","","",""
"memory-trial","80","260878","0.0-18.0-1.17","6199","approach_avoid_sv1","""event"",""trial"",""time""
""fullscreenenter"",""1"",""2381""
","
","
","""event"",""trial"",""time""
""fullscreenenter"",""1"",""2381""
","
","","","","","","1270.8000001907349","images/rabbit3.png","","","memory_trial","1","definitely_old",""
"html-keyboard-response","81","261383","0.0-18.0-0.18","6199","approach_avoid_sv1","""event"",""trial"",""time""
""fullscreenenter"",""1"",""2381""
","
","
","""event"",""trial"",""time""
""fullscreenenter"",""1"",""2381""
","
","","","","","","null","<div style=""font-size:60px;"">+</div>","null","","fixation","","",""
"memory-trial","82","263967","0.0-18.0-1.18","6199","approach_avoid_sv1","""event"",""trial"",""time""
""fullscreenenter"",""1"",""2381""
","
","
","""event"",""trial"",""time""
""fullscreenenter"",""1"",""2381""
","
","","","","","","1575.5999999046326","images/boat4.png","","","memory_trial","3","maybe_new",""
"html-keyboard-response","83","264471","0.0-18.0-0.19","6199","approach_avoid_sv1","""event"",""trial"",""time""
""fullscreenenter"",""1"",""2381""
","
","
","""event"",""trial"",""time""
""fullscreenenter"",""1"",""2381""
","
","","","","","","null","<div style=""font-size:60px;"">+</div>","null","","fixation","","",""
"memory-trial","84","267103","0.0-18.0-1.19","6199","approach_avoid_sv1","""event"",""trial"",""time""
""fullscreenenter"",""1"",""2381""
","
","
","""event"",""trial"",""time""
""fullscreenenter"",""1"",""2381""
","
","","","","","","1622.4000000953674","images/apple8.png","","","memory_trial","2","maybe_old",""
"html-keyboard-response","85","267606","0.0-18.0-0.20","6199","approach_avoid_sv1","""event"",""trial"",""time""
""fullscreenenter"",""1"",""2381""
","
","
","""event"",""trial"",""time""
""fullscreenenter"",""1"",""2381""
","
","","","","","","null","<div style=""font-size:60px;"">+</div>","null","","fixation","","",""
"memory-trial","86","269983","0.0-18.0-1.20","6199","approach_avoid_sv1","""event"",""trial"",""time""
""fullscreenenter"",""1"",""2381""
","
","
","""event"",""trial"",""time""
""fullscreenenter"",""1"",""2381""
","
","","","","","","1367.9000000953674","images/rodent4.png","","","memory_trial","4","definitely_new",""
"html-keyboard-response","87","270486","0.0-18.0-0.21","6199","approach_avoid_sv1","""event"",""trial"",""time""
""fullscreenenter"",""1"",""2381""
","
","
","""event"",""trial"",""time""
""fullscreenenter"",""1"",""2381""
","
","","","","","","null","<div style=""font-size:60px;"">+</div>","null","","fixation","","",""
"memory-trial","88","272566","0.0-18.0-1.21","6199","approach_avoid_sv1","""event"",""trial"",""time""
""fullscreenenter"",""1"",""2381""
","
","
","""event"",""trial"",""time""
""fullscreenenter"",""1"",""2381""
","
","","","","","","1070.7999997138977","images/bush1.png","","","memory_trial","4","definitely_new",""
"html-keyboard-response","89","273071","0.0-18.0-0.22","6199","approach_avoid_sv1","""event"",""trial"",""time""
""fullscreenenter"",""1"",""2381""
","
","
","""event"",""trial"",""time""
""fullscreenenter"",""1"",""2381""
","
","","","","","","null","<div style=""font-size:60px;"">+</div>","null","","fixation","","",""
"memory-trial","90","275519","0.0-18.0-1.22","6199","approach_avoid_sv1","""event"",""trial"",""time""
""fullscreenenter"",""1"",""2381""
","
","
","""event"",""trial"",""time""
""fullscreenenter"",""1"",""2381""
","
","","","","","","1439.3000001907349","images/orange2.png","","","memory_trial","2","maybe_old",""
"html-keyboard-response","91","276022","0.0-18.0-0.23","6199","approach_avoid_sv1","""event"",""trial"",""time""
""fullscreenenter"",""1"",""2381""
","
","
","""event"",""trial"",""time""
""fullscreenenter"",""1"",""2381""
","
","","","","","","null","<div style=""font-size:60px;"">+</div>","null","","fixation","","",""
"memory-trial","92","278191","0.0-18.0-1.23","6199","approach_avoid_sv1","""event"",""trial"",""time""
""fullscreenenter"",""1"",""2381""
","
","
","""event"",""trial"",""time""
""fullscreenenter"",""1"",""2381""
","
","","","","","","1158.5999999046326","images/orange7.png","","","memory_trial","1","definitely_old",""
"html-keyboard-response","93","278694","0.0-18.0-0.24","6199","approach_avoid_sv1","""event"",""trial"",""time""
""fullscreenenter"",""1"",""2381""
","
","
","""event"",""trial"",""time""
""fullscreenenter"",""1"",""2381""
","
","","","","","","null","<div style=""font-size:60px;"">+</div>","null","","fixation","","",""
"memory-trial","94","280974","0.0-18.0-1.24","6199","approach_avoid_sv1","""event"",""trial"",""time""
""fullscreenenter"",""1"",""2381""
","
","
","""event"",""trial"",""time""
""fullscreenenter"",""1"",""2381""
","
","","","","","","1271.6999998092651","images/horse3.png","","","memory_trial","3","maybe_new",""
"html-keyboard-response","95","281479","0.0-18.0-0.25","6199","approach_avoid_sv1","""event"",""trial"",""time""
""fullscreenenter"",""1"",""2381""
","
","
","""event"",""trial"",""time""
""fullscreenenter"",""1"",""2381""
","
","","","","","","null","<div style=""font-size:60px;"">+</div>","null","","fixation","","",""
"memory-trial","96","283639","0.0-18.0-1.25","6199","approach_avoid_sv1","""event"",""trial"",""time""
""fullscreenenter"",""1"",""2381""
","
","
","""event"",""trial"",""time""
""fullscreenenter"",""1"",""2381""
","
","","","","","","1151.1999998092651","images/boat1.png","","","memory_trial","2","maybe_old",""
"html-keyboard-response","97","284142","0.0-18.0-0.26","6199","approach_avoid_sv1","""event"",""trial"",""time""
""fullscreenenter"",""1"",""2381""
","
","
","""event"",""trial"",""time""
""fullscreenenter"",""1"",""2381""
","
","","","","","","null","<div style=""font-size:60px;"">+</div>","null","","fixation","","",""
"memory-trial","98","286174","0.0-18.0-1.26","6199","approach_avoid_sv1","""event"",""trial"",""time""
""fullscreenenter"",""1"",""2381""
","
","
","""event"",""trial"",""time""
""fullscreenenter"",""1"",""2381""
","
","","","","","","1023.5","images/bed8.png","","","memory_trial","3","maybe_new",""
"html-keyboard-response","99","286679","0.0-18.0-0.27","6199","approach_avoid_sv1","""event"",""trial"",""time""
""fullscreenenter"",""1"",""2381""
","
","
","""event"",""trial"",""time""
""fullscreenenter"",""1"",""2381""
","
","","","","","","null","<div style=""font-size:60px;"">+</div>","null","","fixation","","",""
"memory-trial","100","288791","0.0-18.0-1.27","6199","approach_avoid_sv1","""event"",""trial"",""time""
""fullscreenenter"",""1"",""2381""
","
","
","""event"",""trial"",""time""
""fullscreenenter"",""1"",""2381""
","
","","","","","","1103","images/straw7.png","","","memory_trial","2","maybe_old",""
"html-keyboard-response","101","289294","0.0-18.0-0.28","6199","approach_avoid_sv1","""event"",""trial"",""time""
""fullscreenenter"",""1"",""2381""
","
","
","""event"",""trial"",""time""
""fullscreenenter"",""1"",""2381""
","
","","","","","","null","<div style=""font-size:60px;"">+</div>","null","","fixation","","",""
"memory-trial","102","291623","0.0-18.0-1.28","6199","approach_avoid_sv1","""event"",""trial"",""time""
""fullscreenenter"",""1"",""2381""
","
","
","""event"",""trial"",""time""
""fullscreenenter"",""1"",""2381""
","
","","","","","","1319.6999998092651","images/bed2.png","","","memory_trial","3","maybe_new",""
"html-keyboard-response","103","292126","0.0-18.0-0.29","6199","approach_avoid_sv1","""event"",""trial"",""time""
""fullscreenenter"",""1"",""2381""
","
","
","""event"",""trial"",""time""
""fullscreenenter"",""1"",""2381""
","
","","","","","","null","<div style=""font-size:60px;"">+</div>","null","","fixation","","",""
"memory-trial","104","294127","0.0-18.0-1.29","6199","approach_avoid_sv1","""event"",""trial"",""time""
""fullscreenenter"",""1"",""2381""
","
","
","""event"",""trial"",""time""
""fullscreenenter"",""1"",""2381""
","
","","","","","","991.0999999046326","images/cow7.png","","","memory_trial","2","maybe_old",""
"html-keyboard-response","105","294630","0.0-18.0-0.30","6199","approach_avoid_sv1","""event"",""trial"",""time""
""fullscreenenter"",""1"",""2381""
","
","
","""event"",""trial"",""time""
""fullscreenenter"",""1"",""2381""
","
","","","","","","null","<div style=""font-size:60px;"">+</div>","null","","fixation","","",""
"memory-trial","106","296999","0.0-18.0-1.30","6199","approach_avoid_sv1","""event"",""trial"",""time""
""fullscreenenter"",""1"",""2381""
","
","
","""event"",""trial"",""time""
""fullscreenenter"",""1"",""2381""
","
","","","","","","1360.1000003814697","images/apple3.png","","","memory_trial","4","definitely_new",""
"html-keyboard-response","107","297502","0.0-18.0-0.31","6199","approach_avoid_sv1","""event"",""trial"",""time""
""fullscreenenter"",""1"",""2381""
","
","
","""event"",""trial"",""time""
""fullscreenenter"",""1"",""2381""
","
","","","","","","null","<div style=""font-size:60px;"">+</div>","null","","fixation","","",""
"memory-trial","108","299519","0.0-18.0-1.31","6199","approach_avoid_sv1","""event"",""trial"",""time""
""fullscreenenter"",""1"",""2381""
","
","
","""event"",""trial"",""time""
""fullscreenenter"",""1"",""2381""
","
","","","","","","1007.7999997138977","images/tree4.png","","","memory_trial","2","maybe_old",""
"html-keyboard-response","109","300022","0.0-18.0-0.32","6199","approach_avoid_sv1","""event"",""trial"",""time""
""fullscreenenter"",""1"",""2381""
","
","
","""event"",""trial"",""time""
""fullscreenenter"",""1"",""2381""
","
","","","","","","null","<div style=""font-size:60px;"">+</div>","null","","fixation","","",""
"memory-trial","110","302134","0.0-18.0-1.32","6199","approach_avoid_sv1","""event"",""trial"",""time""
""fullscreenenter"",""1"",""2381""
","
","
","""event"",""trial"",""time""
""fullscreenenter"",""1"",""2381""
","
","","","","","","1103.9000000953674","images/apple4.png","","","memory_trial","2","maybe_old",""
"html-keyboard-response","111","302638","0.0-18.0-0.33","6199","approach_avoid_sv1","""event"",""trial"",""time""
""fullscreenenter"",""1"",""2381""
","
","
","""event"",""trial"",""time""
""fullscreenenter"",""1"",""2381""
","
","","","","","","null","<div style=""font-size:60px;"">+</div>","null","","fixation","","",""
"memory-trial","112","304310","0.0-18.0-1.33","6199","approach_avoid_sv1","""event"",""trial"",""time""
""fullscreenenter"",""1"",""2381""
","
","
","""event"",""trial"",""time""
""fullscreenenter"",""1"",""2381""
","
","","","","","","662.8000001907349","images/straw8.png","","","memory_trial","2","maybe_old",""
"html-keyboard-response","113","304814","0.0-18.0-0.34","6199","approach_avoid_sv1","""event"",""trial"",""time""
""fullscreenenter"",""1"",""2381""
","
","
","""event"",""trial"",""time""
""fullscreenenter"",""1"",""2381""
","
","","","","","","null","<div style=""font-size:60px;"">+</div>","null","","fixation","","",""
"memory-trial","114","306911","0.0-18.0-1.34","6199","approach_avoid_sv1","""event"",""trial"",""time""
""fullscreenenter"",""1"",""2381""
","
","
","""event"",""trial"",""time""
""fullscreenenter"",""1"",""2381""
","
","","","","","","1087.5","images/goat4.png","","","memory_trial","1","definitely_old",""
"html-keyboard-response","115","307415","0.0-18.0-0.35","6199","approach_avoid_sv1","""event"",""trial"",""time""
""fullscreenenter"",""1"",""2381""
","
","
","""event"",""trial"",""time""
""fullscreenenter"",""1"",""2381""
","
","","","","","","null","<div style=""font-size:60px;"">+</div>","null","","fixation","","",""
"memory-trial","116","310759","0.0-18.0-1.35","6199","approach_avoid_sv1","""event"",""trial"",""time""
""fullscreenenter"",""1"",""2381""
","
","
","""event"",""trial"",""time""
""fullscreenenter"",""1"",""2381""
","
","","","","","","2335","images/rabbit6.png","","","memory_trial","2","maybe_old",""
"html-keyboard-response","117","311263","0.0-18.0-0.36","6199","approach_avoid_sv1","""event"",""trial"",""time""
""fullscreenenter"",""1"",""2381""
","
","
","""event"",""trial"",""time""
""fullscreenenter"",""1"",""2381""
","
","","","","","","null","<div style=""font-size:60px;"">+</div>","null","","fixation","","",""
"memory-trial","118","313655","0.0-18.0-1.36","6199","approach_avoid_sv1","""event"",""trial"",""time""
""fullscreenenter"",""1"",""2381""
","
","
","""event"",""trial"",""time""
""fullscreenenter"",""1"",""2381""
","
","","","","","","1382.0999999046326","images/table5.png","","","memory_trial","1","definitely_old",""
"html-keyboard-response","119","314158","0.0-18.0-0.37","6199","approach_avoid_sv1","""event"",""trial"",""time""
""fullscreenenter"",""1"",""2381""
","
","
","""event"",""trial"",""time""
""fullscreenenter"",""1"",""2381""
","
","","","","","","null","<div style=""font-size:60px;"">+</div>","null","","fixation","","",""
"memory-trial","120","316118","0.0-18.0-1.37","6199","approach_avoid_sv1","""event"",""trial"",""time""
""fullscreenenter"",""1"",""2381""
","
","
","""event"",""trial"",""time""
""fullscreenenter"",""1"",""2381""
","
","","","","","","950.2000002861023","images/sofa5.png","","","memory_trial","1","definitely_old",""
"html-keyboard-response","121","316622","0.0-18.0-0.38","6199","approach_avoid_sv1","""event"",""trial"",""time""
""fullscreenenter"",""1"",""2381""
","
","
","""event"",""trial"",""time""
""fullscreenenter"",""1"",""2381""
","
","","","","","","null","<div style=""font-size:60px;"">+</div>","null","","fixation","","",""
"memory-trial","122","319030","0.0-18.0-1.38","6199","approach_avoid_sv1","""event"",""trial"",""time""
""fullscreenenter"",""1"",""2381""
","
","
","""event"",""trial"",""time""
""fullscreenenter"",""1"",""2381""
","
","","","","","","1399.6999998092651","images/table1.png","","","memory_trial","2","maybe_old",""
"html-keyboard-response","123","319534","0.0-18.0-0.39","6199","approach_avoid_sv1","""event"",""trial"",""time""
""fullscreenenter"",""1"",""2381""
","
","
","""event"",""trial"",""time""
""fullscreenenter"",""1"",""2381""
","
","","","","","","null","<div style=""font-size:60px;"">+</div>","null","","fixation","","",""
"memory-trial","124","321630","0.0-18.0-1.39","6199","approach_avoid_sv1","""event"",""trial"",""time""
""fullscreenenter"",""1"",""2381""
","
","
","""event"",""trial"",""time""
""fullscreenenter"",""1"",""2381""
","
","","","","","","1087.3000001907349","images/orange4.png","","","memory_trial","1","definitely_old",""
"html-keyboard-response","125","322135","0.0-18.0-0.40","6199","approach_avoid_sv1","""event"",""trial"",""time""
""fullscreenenter"",""1"",""2381""
","
","
","""event"",""trial"",""time""
""fullscreenenter"",""1"",""2381""
","
","","","","","","null","<div style=""font-size:60px;"">+</div>","null","","fixation","","",""
"memory-trial","126","324215","0.0-18.0-1.40","6199","approach_avoid_sv1","""event"",""trial"",""time""
""fullscreenenter"",""1"",""2381""
","
","
","""event"",""trial"",""time""
""fullscreenenter"",""1"",""2381""
","
","","","","","","1070.7000002861023","images/plane3.png","","","memory_trial","1","definitely_old",""
"html-keyboard-response","127","324719","0.0-18.0-0.41","6199","approach_avoid_sv1","""event"",""trial"",""time""
""fullscreenenter"",""1"",""2381""
","
","
","""event"",""trial"",""time""
""fullscreenenter"",""1"",""2381""
","
","","","","","","null","<div style=""font-size:60px;"">+</div>","null","","fixation","","",""
"memory-trial","128","326823","0.0-18.0-1.41","6199","approach_avoid_sv1","""event"",""trial"",""time""
""fullscreenenter"",""1"",""2381""
","
","
","""event"",""trial"",""time""
""fullscreenenter"",""1"",""2381""
","
","","","","","","1093.9000000953674","images/table3.png","","","memory_trial","1","definitely_old",""
"html-button-response","129","330778","0.0-18.0-2.41-0.41","6199","approach_avoid_sv1","""event"",""trial"",""time""
""fullscreenenter"",""1"",""2381""
","
","
","""event"",""trial"",""time""
""fullscreenenter"",""1"",""2381""
","
","","","","","","3953.5","<p> Take a break! </p><p> Click the button to continue. </p>","0","","break","","",""
"html-keyboard-response","130","331279","0.0-18.0-0.42","6199","approach_avoid_sv1","""event"",""trial"",""time""
""fullscreenenter"",""1"",""2381""
","
","
","""event"",""trial"",""time""
""fullscreenenter"",""1"",""2381""
","
","","","","","","null","<div style=""font-size:60px;"">+</div>","null","","fixation","","",""
"memory-trial","131","333903","0.0-18.0-1.42","6199","approach_avoid_sv1","""event"",""trial"",""time""
""fullscreenenter"",""1"",""2381""
","
","
","""event"",""trial"",""time""
""fullscreenenter"",""1"",""2381""
","
","","","","","","1611.5","images/sheep2.png","","","memory_trial","3","maybe_new",""
"html-keyboard-response","132","334407","0.0-18.0-0.43","6199","approach_avoid_sv1","""event"",""trial"",""time""
""fullscreenenter"",""1"",""2381""
","
","
","""event"",""trial"",""time""
""fullscreenenter"",""1"",""2381""
","
","","","","","","null","<div style=""font-size:60px;"">+</div>","null","","fixation","","",""
"memory-trial","133","337071","0.0-18.0-1.43","6199","approach_avoid_sv1","""event"",""trial"",""time""
""fullscreenenter"",""1"",""2381""
","
","
","""event"",""trial"",""time""
""fullscreenenter"",""1"",""2381""
","
","","","","","","1653.6999998092651","images/banana1.png","","","memory_trial","2","maybe_old",""
"html-keyboard-response","134","337574","0.0-18.0-0.44","6199","approach_avoid_sv1","""event"",""trial"",""time""
""fullscreenenter"",""1"",""2381""
","
","
","""event"",""trial"",""time""
""fullscreenenter"",""1"",""2381""
","
","","","","","","null","<div style=""font-size:60px;"">+</div>","null","","fixation","","",""
"memory-trial","135","339582","0.0-18.0-1.44","6199","approach_avoid_sv1","""event"",""trial"",""time""
""fullscreenenter"",""1"",""2381""
","
","
","""event"",""trial"",""time""
""fullscreenenter"",""1"",""2381""
","
","","","","","","998.4000000953674","images/bed5.png","","","memory_trial","3","maybe_new",""
"html-keyboard-response","136","340086","0.0-18.0-0.45","6199","approach_avoid_sv1","""event"",""trial"",""time""
""fullscreenenter"",""1"",""2381""
","
","
","""event"",""trial"",""time""
""fullscreenenter"",""1"",""2381""
","
","","","","","","null","<div style=""font-size:60px;"">+</div>","null","","fixation","","",""
"memory-trial","137","342911","0.0-18.0-1.45","6199","approach_avoid_sv1","""event"",""trial"",""time""
""fullscreenenter"",""1"",""2381""
","
","
","""event"",""trial"",""time""
""fullscreenenter"",""1"",""2381""
","
","","","","","","1815.1000003814697","images/cat8.png","","","memory_trial","3","maybe_new",""
"html-keyboard-response","138","343414","0.0-18.0-0.46","6199","approach_avoid_sv1","""event"",""trial"",""time""
""fullscreenenter"",""1"",""2381""
","
","
","""event"",""trial"",""time""
""fullscreenenter"",""1"",""2381""
","
","","","","","","null","<div style=""font-size:60px;"">+</div>","null","","fixation","","",""
"memory-trial","139","347439","0.0-18.0-1.46","6199","approach_avoid_sv1","""event"",""trial"",""time""
""fullscreenenter"",""1"",""2381""
","
","
","""event"",""trial"",""time""
""fullscreenenter"",""1"",""2381""
","
","","","","","","3014.5999999046326","images/banana7.png","","","memory_trial","2","maybe_old",""
"html-keyboard-response","140","347942","0.0-18.0-0.47","6199","approach_avoid_sv1","""event"",""trial"",""time""
""fullscreenenter"",""1"",""2381""
","
","
","""event"",""trial"",""time""
""fullscreenenter"",""1"",""2381""
","
","","","","","","null","<div style=""font-size:60px;"">+</div>","null","","fixation","","",""
"memory-trial","141","349966","0.0-18.0-1.47","6199","approach_avoid_sv1","""event"",""trial"",""time""
""fullscreenenter"",""1"",""2381""
","
","
","""event"",""trial"",""time""
""fullscreenenter"",""1"",""2381""
","
","","","","","","1014.3000001907349","images/cat6.png","","","memory_trial","2","maybe_old",""
"html-keyboard-response","142","350470","0.0-18.0-0.48","6199","approach_avoid_sv1","""event"",""trial"",""time""
""fullscreenenter"",""1"",""2381""
","
","
","""event"",""trial"",""time""
""fullscreenenter"",""1"",""2381""
","
","","","","","","null","<div style=""font-size:60px;"">+</div>","null","","fixation","","",""
"memory-trial","143","352942","0.0-18.0-1.48","6199","approach_avoid_sv1","""event"",""trial"",""time""
""fullscreenenter"",""1"",""2381""
","
","
","""event"",""trial"",""time""
""fullscreenenter"",""1"",""2381""
","
","","","","","","1462.5999999046326","images/straw1.png","","","memory_trial","3","maybe_new",""
"html-keyboard-response","144","353446","0.0-18.0-0.49","6199","approach_avoid_sv1","""event"",""trial"",""time""
""fullscreenenter"",""1"",""2381""
","
","
","""event"",""trial"",""time""
""fullscreenenter"",""1"",""2381""
","
","","","","","","null","<div style=""font-size:60px;"">+</div>","null","","fixation","","",""
"memory-trial","145","355719","0.0-18.0-1.49","6199","approach_avoid_sv1","""event"",""trial"",""time""
""fullscreenenter"",""1"",""2381""
","
","
","""event"",""trial"",""time""
""fullscreenenter"",""1"",""2381""
","
","","","","","","1263.0999999046326","images/rabbit7.png","","","memory_trial","3","maybe_new",""
"html-keyboard-response","146","356223","0.0-18.0-0.50","6199","approach_avoid_sv1","""event"",""trial"",""time""
""fullscreenenter"",""1"",""2381""
","
","
","""event"",""trial"",""time""
""fullscreenenter"",""1"",""2381""
","
","","","","","","null","<div style=""font-size:60px;"">+</div>","null","","fixation","","",""
"memory-trial","147","358727","0.0-18.0-1.50","6199","approach_avoid_sv1","""event"",""trial"",""time""
""fullscreenenter"",""1"",""2381""
","
","
","""event"",""trial"",""time""
""fullscreenenter"",""1"",""2381""
","
","","","","","","1493.5999999046326","images/goat1.png","","","memory_trial","1","definitely_old",""
"html-keyboard-response","148","359231","0.0-18.0-0.51","6199","approach_avoid_sv1","""event"",""trial"",""time""
""fullscreenenter"",""1"",""2381""
","
","
","""event"",""trial"",""time""
""fullscreenenter"",""1"",""2381""
","
","","","","","","null","<div style=""font-size:60px;"">+</div>","null","","fixation","","",""
"memory-trial","149","361383","0.0-18.0-1.51","6199","approach_avoid_sv1","""event"",""trial"",""time""
""fullscreenenter"",""1"",""2381""
","
","
","""event"",""trial"",""time""
""fullscreenenter"",""1"",""2381""
","
","","","","","","1141.6999998092651","images/sofa7.png","","","memory_trial","1","definitely_old",""
"html-keyboard-response","150","361886","0.0-18.0-0.52","6199","approach_avoid_sv1","""event"",""trial"",""time""
""fullscreenenter"",""1"",""2381""
","
","
","""event"",""trial"",""time""
""fullscreenenter"",""1"",""2381""
","
","","","","","","null","<div style=""font-size:60px;"">+</div>","null","","fixation","","",""
"memory-trial","151","363950","0.0-18.0-1.52","6199","approach_avoid_sv1","""event"",""trial"",""time""
""fullscreenenter"",""1"",""2381""
","
","
","""event"",""trial"",""time""
""fullscreenenter"",""1"",""2381""
","
","","","","","","1054.9000000953674","images/chair1.png","","","memory_trial","1","definitely_old",""
"html-keyboard-response","152","364455","0.0-18.0-0.53","6199","approach_avoid_sv1","""event"",""trial"",""time""
""fullscreenenter"",""1"",""2381""
","
","
","""event"",""trial"",""time""
""fullscreenenter"",""1"",""2381""
","
","","","","","","null","<div style=""font-size:60px;"">+</div>","null","","fixation","","",""
"memory-trial","153","366167","0.0-18.0-1.53","6199","approach_avoid_sv1","""event"",""trial"",""time""
""fullscreenenter"",""1"",""2381""
","
","
","""event"",""trial"",""time""
""fullscreenenter"",""1"",""2381""
","
","","","","","","700.5","images/chair7.png","","","memory_trial","1","definitely_old",""
"html-keyboard-response","154","366671","0.0-18.0-0.54","6199","approach_avoid_sv1","""event"",""trial"",""time""
""fullscreenenter"",""1"",""2381""
","
","
","""event"",""trial"",""time""
""fullscreenenter"",""1"",""2381""
","
","","","","","","null","<div style=""font-size:60px;"">+</div>","null","","fixation","","",""
"memory-trial","155","368902","0.0-18.0-1.54","6199","approach_avoid_sv1","""event"",""trial"",""time""
""fullscreenenter"",""1"",""2381""
","
","
","""event"",""trial"",""time""
""fullscreenenter"",""1"",""2381""
","
","","","","","","1222.2000002861023","images/train5.png","","","memory_trial","3","maybe_new",""
"html-keyboard-response","156","369407","0.0-18.0-0.55","6199","approach_avoid_sv1","""event"",""trial"",""time""
""fullscreenenter"",""1"",""2381""
","
","
","""event"",""trial"",""time""
""fullscreenenter"",""1"",""2381""
","
","","","","","","null","<div style=""font-size:60px;"">+</div>","null","","fixation","","",""
"memory-trial","157","372103","0.0-18.0-1.55","6199","approach_avoid_sv1","""event"",""trial"",""time""
""fullscreenenter"",""1"",""2381""
","
","
","""event"",""trial"",""time""
""fullscreenenter"",""1"",""2381""
","
","","","","","","1686.1000003814697","images/rabbit2.png","","","memory_trial","1","definitely_old",""
"html-keyboard-response","158","372606","0.0-18.0-0.56","6199","approach_avoid_sv1","""event"",""trial"",""time""
""fullscreenenter"",""1"",""2381""
","
","
","""event"",""trial"",""time""
""fullscreenenter"",""1"",""2381""
","
","","","","","","null","<div style=""font-size:60px;"">+</div>","null","","fixation","","",""
"memory-trial","159","375142","0.0-18.0-1.56","6199","approach_avoid_sv1","""event"",""trial"",""time""
""fullscreenenter"",""1"",""2381""
","
","
","""event"",""trial"",""time""
""fullscreenenter"",""1"",""2381""
","
","","","","","","1526.6999998092651","images/boat6.png","","","memory_trial","2","maybe_old",""
"html-keyboard-response","160","375646","0.0-18.0-0.57","6199","approach_avoid_sv1","""event"",""trial"",""time""
""fullscreenenter"",""1"",""2381""
","
","
","""event"",""trial"",""time""
""fullscreenenter"",""1"",""2381""
","
","","","","","","null","<div style=""font-size:60px;"">+</div>","null","","fixation","","",""
"memory-trial","161","377887","0.0-18.0-1.57","6199","approach_avoid_sv1","""event"",""trial"",""time""
""fullscreenenter"",""1"",""2381""
","
","
","""event"",""trial"",""time""
""fullscreenenter"",""1"",""2381""
","
","","","","","","1230.6999998092651","images/bush3.png","","","memory_trial","3","maybe_new",""
"html-keyboard-response","162","378390","0.0-18.0-0.58","6199","approach_avoid_sv1","""event"",""trial"",""time""
""fullscreenenter"",""1"",""2381""
","
","
","""event"",""trial"",""time""
""fullscreenenter"",""1"",""2381""
","
","","","","","","null","<div style=""font-size:60px;"">+</div>","null","","fixation","","",""
"memory-trial","163","381599","0.0-18.0-1.58","6199","approach_avoid_sv1","""event"",""trial"",""time""
""fullscreenenter"",""1"",""2381""
","
","
","""event"",""trial"",""time""
""fullscreenenter"",""1"",""2381""
","
","","","","","","2197.199999809265","images/sofa1.png","","","memory_trial","4","definitely_new",""
"html-keyboard-response","164","382103","0.0-18.0-0.59","6199","approach_avoid_sv1","""event"",""trial"",""time""
""fullscreenenter"",""1"",""2381""
","
","
","""event"",""trial"",""time""
""fullscreenenter"",""1"",""2381""
","
","","","","","","null","<div style=""font-size:60px;"">+</div>","null","","fixation","","",""
"memory-trial","165","384015","0.0-18.0-1.59","6199","approach_avoid_sv1","""event"",""trial"",""time""
""fullscreenenter"",""1"",""2381""
","
","
","""event"",""trial"",""time""
""fullscreenenter"",""1"",""2381""
","
","","","","","","902.5","images/bed7.png","","","memory_trial","4","definitely_new",""
"html-keyboard-response","166","384519","0.0-18.0-0.60","6199","approach_avoid_sv1","""event"",""trial"",""time""
""fullscreenenter"",""1"",""2381""
","
","
","""event"",""trial"",""time""
""fullscreenenter"",""1"",""2381""
","
","","","","","","null","<div style=""font-size:60px;"">+</div>","null","","fixation","","",""
"memory-trial","167","388110","0.0-18.0-1.60","6199","approach_avoid_sv1","""event"",""trial"",""time""
""fullscreenenter"",""1"",""2381""
","
","
","""event"",""trial"",""time""
""fullscreenenter"",""1"",""2381""
","
","","","","","","2581.7000002861023","images/cat5.png","","","memory_trial","3","maybe_new",""
"html-keyboard-response","168","388615","0.0-18.0-0.61","6199","approach_avoid_sv1","""event"",""trial"",""time""
""fullscreenenter"",""1"",""2381""
","
","
","""event"",""trial"",""time""
""fullscreenenter"",""1"",""2381""
","
","","","","","","null","<div style=""font-size:60px;"">+</div>","null","","fixation","","",""
"memory-trial","169","392079","0.0-18.0-1.61","6199","approach_avoid_sv1","""event"",""trial"",""time""
""fullscreenenter"",""1"",""2381""
","
","
","""event"",""trial"",""time""
""fullscreenenter"",""1"",""2381""
","
","","","","","","2453.4000000953674","images/cactus5.png","","","memory_trial","2","maybe_old",""
"html-keyboard-response","170","392583","0.0-18.0-0.62","6199","approach_avoid_sv1","""event"",""trial"",""time""
""fullscreenenter"",""1"",""2381""
","
","
","""event"",""trial"",""time""
""fullscreenenter"",""1"",""2381""
","
","","","","","","null","<div style=""font-size:60px;"">+</div>","null","","fixation","","",""
"memory-trial","171","394943","0.0-18.0-1.62","6199","approach_avoid_sv1","""event"",""trial"",""time""
""fullscreenenter"",""1"",""2381""
","
","
","""event"",""trial"",""time""
""fullscreenenter"",""1"",""2381""
","
","","","","","","1348.9000000953674","images/dog5.png","","","memory_trial","1","definitely_old",""
"html-keyboard-response","172","395447","0.0-18.0-0.63","6199","approach_avoid_sv1","""event"",""trial"",""time""
""fullscreenenter"",""1"",""2381""
","
","
","""event"",""trial"",""time""
""fullscreenenter"",""1"",""2381""
","
","","","","","","null","<div style=""font-size:60px;"">+</div>","null","","fixation","","",""
"memory-trial","173","397551","0.0-18.0-1.63","6199","approach_avoid_sv1","""event"",""trial"",""time""
""fullscreenenter"",""1"",""2381""
","
","
","""event"",""trial"",""time""
""fullscreenenter"",""1"",""2381""
","
","","","","","","1093.9000000953674","images/truck5.png","","","memory_trial","1","definitely_old",""
"html-keyboard-response","174","398056","0.0-18.0-0.64","6199","approach_avoid_sv1","""event"",""trial"",""time""
""fullscreenenter"",""1"",""2381""
","
","
","""event"",""trial"",""time""
""fullscreenenter"",""1"",""2381""
","
","","","","","","null","<div style=""font-size:60px;"">+</div>","null","","fixation","","",""
"memory-trial","175","401143","0.0-18.0-1.64","6199","approach_avoid_sv1","""event"",""trial"",""time""
""fullscreenenter"",""1"",""2381""
","
","
","""event"",""trial"",""time""
""fullscreenenter"",""1"",""2381""
","
","","","","","","2077","images/train8.png","","","memory_trial","3","maybe_new",""
"html-keyboard-response","176","401646","0.0-18.0-0.65","6199","approach_avoid_sv1","""event"",""trial"",""time""
""fullscreenenter"",""1"",""2381""
","
","
","""event"",""trial"",""time""
""fullscreenenter"",""1"",""2381""
","
","","","","","","null","<div style=""font-size:60px;"">+</div>","null","","fixation","","",""
"memory-trial","177","404783","0.0-18.0-1.65","6199","approach_avoid_sv1","""event"",""trial"",""time""
""fullscreenenter"",""1"",""2381""
","
","
","""event"",""trial"",""time""
""fullscreenenter"",""1"",""2381""
","
","","","","","","2125","images/rodent5.png","","","memory_trial","1","definitely_old",""
"html-keyboard-response","178","405287","0.0-18.0-0.66","6199","approach_avoid_sv1","""event"",""trial"",""time""
""fullscreenenter"",""1"",""2381""
","
","
","""event"",""trial"",""time""
""fullscreenenter"",""1"",""2381""
","
","","","","","","null","<div style=""font-size:60px;"">+</div>","null","","fixation","","",""
"memory-trial","179","407295","0.0-18.0-1.66","6199","approach_avoid_sv1","""event"",""trial"",""time""
""fullscreenenter"",""1"",""2381""
","
","
","""event"",""trial"",""time""
""fullscreenenter"",""1"",""2381""
","
","","","","","","997.4000000953674","images/rodent1.png","","","memory_trial","1","definitely_old",""
"html-keyboard-response","180","407799","0.0-18.0-0.67","6199","approach_avoid_sv1","""event"",""trial"",""time""
""fullscreenenter"",""1"",""2381""
","
","
","""event"",""trial"",""time""
""fullscreenenter"",""1"",""2381""
","
","","","","","","null","<div style=""font-size:60px;"">+</div>","null","","fixation","","",""
"memory-trial","181","410463","0.0-18.0-1.67","6199","approach_avoid_sv1","""event"",""trial"",""time""
""fullscreenenter"",""1"",""2381""
","
","
","""event"",""trial"",""time""
""fullscreenenter"",""1"",""2381""
","
","","","","","","1654.5","images/dog8.png","","","memory_trial","3","maybe_new",""
"html-keyboard-response","182","410967","0.0-18.0-0.68","6199","approach_avoid_sv1","""event"",""trial"",""time""
""fullscreenenter"",""1"",""2381""
","
","
","""event"",""trial"",""time""
""fullscreenenter"",""1"",""2381""
","
","","","","","","null","<div style=""font-size:60px;"">+</div>","null","","fixation","","",""
"memory-trial","183","414166","0.0-18.0-1.68","6199","approach_avoid_sv1","""event"",""trial"",""time""
""fullscreenenter"",""1"",""2381""
","
","
","""event"",""trial"",""time""
""fullscreenenter"",""1"",""2381""
","
","","","","","","2188.8999996185303","images/tree1.png","","","memory_trial","3","maybe_new",""
"html-keyboard-response","184","414670","0.0-18.0-0.69","6199","approach_avoid_sv1","""event"",""trial"",""time""
""fullscreenenter"",""1"",""2381""
","
","
","""event"",""trial"",""time""
""fullscreenenter"",""1"",""2381""
","
","","","","","","null","<div style=""font-size:60px;"">+</div>","null","","fixation","","",""
"memory-trial","185","418879","0.0-18.0-1.69","6199","approach_avoid_sv1","""event"",""trial"",""time""
""fullscreenenter"",""1"",""2381""
","
","
","""event"",""trial"",""time""
""fullscreenenter"",""1"",""2381""
","
","","","","","","3197.800000190735","images/horse4.png","","","memory_trial","3","maybe_new",""
"html-keyboard-response","186","419382","0.0-18.0-0.70","6199","approach_avoid_sv1","""event"",""trial"",""time""
""fullscreenenter"",""1"",""2381""
","
","
","""event"",""trial"",""time""
""fullscreenenter"",""1"",""2381""
","
","","","","","","null","<div style=""font-size:60px;"">+</div>","null","","fixation","","",""
"memory-trial","187","421575","0.0-18.0-1.70","6199","approach_avoid_sv1","""event"",""trial"",""time""
""fullscreenenter"",""1"",""2381""
","
","
","""event"",""trial"",""time""
""fullscreenenter"",""1"",""2381""
","
","","","","","","1181.3000001907349","images/goat3.png","","","memory_trial","2","maybe_old",""
"html-keyboard-response","188","422079","0.0-18.0-0.71","6199","approach_avoid_sv1","""event"",""trial"",""time""
""fullscreenenter"",""1"",""2381""
","
","
","""event"",""trial"",""time""
""fullscreenenter"",""1"",""2381""
","
","","","","","","null","<div style=""font-size:60px;"">+</div>","null","","fixation","","",""
"memory-trial","189","425695","0.0-18.0-1.71","6199","approach_avoid_sv1","""event"",""trial"",""time""
""fullscreenenter"",""1"",""2381""
","
","
","""event"",""trial"",""time""
""fullscreenenter"",""1"",""2381""
","
","","","","","","2605.9000000953674","images/bush6.png","","","memory_trial","2","maybe_old",""
"html-keyboard-response","190","426199","0.0-18.0-0.72","6199","approach_avoid_sv1","""event"",""trial"",""time""
""fullscreenenter"",""1"",""2381""
","
","
","""event"",""trial"",""time""
""fullscreenenter"",""1"",""2381""
","
","","","","","","null","<div style=""font-size:60px;"">+</div>","null","","fixation","","",""
"memory-trial","191","428366","0.0-18.0-1.72","6199","approach_avoid_sv1","""event"",""trial"",""time""
""fullscreenenter"",""1"",""2381""
","
","
","""event"",""trial"",""time""
""fullscreenenter"",""1"",""2381""
","
","","","","","","1156","images/horse5.png","","","memory_trial","3","maybe_new",""
"html-keyboard-response","192","428871","0.0-18.0-0.73","6199","approach_avoid_sv1","""event"",""trial"",""time""
""fullscreenenter"",""1"",""2381""
","
","
","""event"",""trial"",""time""
""fullscreenenter"",""1"",""2381""
","
","","","","","","null","<div style=""font-size:60px;"">+</div>","null","","fixation","","",""
"memory-trial","193","433287","0.0-18.0-1.73","6199","approach_avoid_sv1","""event"",""trial"",""time""
""fullscreenenter"",""1"",""2381""
","
","
","""event"",""trial"",""time""
""fullscreenenter"",""1"",""2381""
","
","","","","","","3404.9000000953674","images/plane1.png","","","memory_trial","3","maybe_new",""
"html-keyboard-response","194","433790","0.0-18.0-0.74","6199","approach_avoid_sv1","""event"",""trial"",""time""
""fullscreenenter"",""1"",""2381""
","
","
","""event"",""trial"",""time""
""fullscreenenter"",""1"",""2381""
","
","","","","","","null","<div style=""font-size:60px;"">+</div>","null","","fixation","","",""
"memory-trial","195","436343","0.0-18.0-1.74","6199","approach_avoid_sv1","""event"",""trial"",""time""
""fullscreenenter"",""1"",""2381""
","
","
","""event"",""trial"",""time""
""fullscreenenter"",""1"",""2381""
","
","","","","","","1541.8000001907349","images/orange3.png","","","memory_trial","1","definitely_old",""
"html-keyboard-response","196","436847","0.0-18.0-0.75","6199","approach_avoid_sv1","""event"",""trial"",""time""
""fullscreenenter"",""1"",""2381""
","
","
","""event"",""trial"",""time""
""fullscreenenter"",""1"",""2381""
","
","","","","","","null","<div style=""font-size:60px;"">+</div>","null","","fixation","","",""
"memory-trial","197","439999","0.0-18.0-1.75","6199","approach_avoid_sv1","""event"",""trial"",""time""
""fullscreenenter"",""1"",""2381""
","
","
","""event"",""trial"",""time""
""fullscreenenter"",""1"",""2381""
","
","","","","","","2140.5999999046326","images/plane4.png","","","memory_trial","2","maybe_old",""
"html-keyboard-response","198","440503","0.0-18.0-0.76","6199","approach_avoid_sv1","""event"",""trial"",""time""
""fullscreenenter"",""1"",""2381""
","
","
","""event"",""trial"",""time""
""fullscreenenter"",""1"",""2381""
","
","","","","","","null","<div style=""font-size:60px;"">+</div>","null","","fixation","","",""
"memory-trial","199","442656","0.0-18.0-1.76","6199","approach_avoid_sv1","""event"",""trial"",""time""
""fullscreenenter"",""1"",""2381""
","
","
","""event"",""trial"",""time""
""fullscreenenter"",""1"",""2381""
","
","","","","","","1141.8000001907349","images/bush4.png","","","memory_trial","3","maybe_new",""
"html-keyboard-response","200","443160","0.0-18.0-0.77","6199","approach_avoid_sv1","""event"",""trial"",""time""
""fullscreenenter"",""1"",""2381""
","
","
","""event"",""trial"",""time""
""fullscreenenter"",""1"",""2381""
","
","","","","","","null","<div style=""font-size:60px;"">+</div>","null","","fixation","","",""
"memory-trial","201","445399","0.0-18.0-1.77","6199","approach_avoid_sv1","""event"",""trial"",""time""
""fullscreenenter"",""1"",""2381""
","
","
","""event"",""trial"",""time""
""fullscreenenter"",""1"",""2381""
","
","","","","","","1229.0999999046326","images/chair2.png","","","memory_trial","1","definitely_old",""
"html-keyboard-response","202","445903","0.0-18.0-0.78","6199","approach_avoid_sv1","""event"",""trial"",""time""
""fullscreenenter"",""1"",""2381""
","
","
","""event"",""trial"",""time""
""fullscreenenter"",""1"",""2381""
","
","","","","","","null","<div style=""font-size:60px;"">+</div>","null","","fixation","","",""
"memory-trial","203","447798","0.0-18.0-1.78","6199","approach_avoid_sv1","""event"",""trial"",""time""
""fullscreenenter"",""1"",""2381""
","
","
","""event"",""trial"",""time""
""fullscreenenter"",""1"",""2381""
","
","","","","","","886","images/flower7.png","","","memory_trial","1","definitely_old",""
"html-keyboard-response","204","448303","0.0-18.0-0.79","6199","approach_avoid_sv1","""event"",""trial"",""time""
""fullscreenenter"",""1"",""2381""
","
","
","""event"",""trial"",""time""
""fullscreenenter"",""1"",""2381""
","
","","","","","","null","<div style=""font-size:60px;"">+</div>","null","","fixation","","",""
"memory-trial","205","451382","0.0-18.0-1.79","6199","approach_avoid_sv1","""event"",""trial"",""time""
""fullscreenenter"",""1"",""2381""
","
","
","""event"",""trial"",""time""
""fullscreenenter"",""1"",""2381""
","
","","","","","","2069.7999997138977","images/table7.png","","","memory_trial","1","definitely_old",""
"html-keyboard-response","206","451887","0.0-18.0-0.80","6199","approach_avoid_sv1","""event"",""trial"",""time""
""fullscreenenter"",""1"",""2381""
","
","
","""event"",""trial"",""time""
""fullscreenenter"",""1"",""2381""
","
","","","","","","null","<div style=""font-size:60px;"">+</div>","null","","fixation","","",""
"memory-trial","207","453783","0.0-18.0-1.80","6199","approach_avoid_sv1","""event"",""trial"",""time""
""fullscreenenter"",""1"",""2381""
","
","
","""event"",""trial"",""time""
""fullscreenenter"",""1"",""2381""
","
","","","","","","885.1999998092651","images/straw2.png","","","memory_trial","2","maybe_old",""
"html-keyboard-response","208","454287","0.0-18.0-0.81","6199","approach_avoid_sv1","""event"",""trial"",""time""
""fullscreenenter"",""1"",""2381""
","
","
","""event"",""trial"",""time""
""fullscreenenter"",""1"",""2381""
","
","","","","","","null","<div style=""font-size:60px;"">+</div>","null","","fixation","","",""
"memory-trial","209","456782","0.0-18.0-1.81","6199","approach_avoid_sv1","""event"",""trial"",""time""
""fullscreenenter"",""1"",""2381""
","
","
","""event"",""trial"",""time""
""fullscreenenter"",""1"",""2381""
","
","","","","","","1485.7999997138977","images/banana2.png","","","memory_trial","3","maybe_new",""
"html-keyboard-response","210","457286","0.0-18.0-0.82","6199","approach_avoid_sv1","""event"",""trial"",""time""
""fullscreenenter"",""1"",""2381""
","
","
","""event"",""trial"",""time""
""fullscreenenter"",""1"",""2381""
","
","","","","","","null","<div style=""font-size:60px;"">+</div>","null","","fixation","","",""
"memory-trial","211","461903","0.0-18.0-1.82","6199","approach_avoid_sv1","""event"",""trial"",""time""
""fullscreenenter"",""1"",""2381""
","
","
","""event"",""trial"",""time""
""fullscreenenter"",""1"",""2381""
","
","","","","","","3606.2000002861023","images/sheep4.png","","","memory_trial","3","maybe_new",""
"html-keyboard-response","212","462407","0.0-18.0-0.83","6199","approach_avoid_sv1","""event"",""trial"",""time""
""fullscreenenter"",""1"",""2381""
","
","
","""event"",""trial"",""time""
""fullscreenenter"",""1"",""2381""
","
","","","","","","null","<div style=""font-size:60px;"">+</div>","null","","fixation","","",""
"memory-trial","213","465662","0.0-18.0-1.83","6199","approach_avoid_sv1","""event"",""trial"",""time""
""fullscreenenter"",""1"",""2381""
","
","
","""event"",""trial"",""time""
""fullscreenenter"",""1"",""2381""
","
","","","","","","2244.7000002861023","images/banana6.png","","","memory_trial","2","maybe_old",""
"html-keyboard-response","214","466166","0.0-18.0-0.84","6199","approach_avoid_sv1","""event"",""trial"",""time""
""fullscreenenter"",""1"",""2381""
","
","
","""event"",""trial"",""time""
""fullscreenenter"",""1"",""2381""
","
","","","","","","null","<div style=""font-size:60px;"">+</div>","null","","fixation","","",""
"memory-trial","215","468030","0.0-18.0-1.84","6199","approach_avoid_sv1","""event"",""trial"",""time""
""fullscreenenter"",""1"",""2381""
","
","
","""event"",""trial"",""time""
""fullscreenenter"",""1"",""2381""
","
","","","","","","853.0999999046326","images/bush2.png","","","memory_trial","3","maybe_new",""
"html-keyboard-response","216","468534","0.0-18.0-0.85","6199","approach_avoid_sv1","""event"",""trial"",""time""
""fullscreenenter"",""1"",""2381""
","
","
","""event"",""trial"",""time""
""fullscreenenter"",""1"",""2381""
","
","","","","","","null","<div style=""font-size:60px;"">+</div>","null","","fixation","","",""
"memory-trial","217","471543","0.0-18.0-1.85","6199","approach_avoid_sv1","""event"",""trial"",""time""
""fullscreenenter"",""1"",""2381""
","
","
","""event"",""trial"",""time""
""fullscreenenter"",""1"",""2381""
","
","","","","","","1998.3000001907349","images/sheep1.png","","","memory_trial","2","maybe_old",""
"html-keyboard-response","218","472047","0.0-18.0-0.86","6199","approach_avoid_sv1","""event"",""trial"",""time""
""fullscreenenter"",""1"",""2381""
","
","
","""event"",""trial"",""time""
""fullscreenenter"",""1"",""2381""
","
","","","","","","null","<div style=""font-size:60px;"">+</div>","null","","fixation","","",""
"memory-trial","219","474255","0.0-18.0-1.86","6199","approach_avoid_sv1","""event"",""trial"",""time""
""fullscreenenter"",""1"",""2381""
","
","
","""event"",""trial"",""time""
""fullscreenenter"",""1"",""2381""
","
","","","","","","1197.0999999046326","images/orange8.png","","","memory_trial","3","maybe_new",""
"html-keyboard-response","220","474759","0.0-18.0-0.87","6199","approach_avoid_sv1","""event"",""trial"",""time""
""fullscreenenter"",""1"",""2381""
","
","
","""event"",""trial"",""time""
""fullscreenenter"",""1"",""2381""
","
","","","","","","null","<div style=""font-size:60px;"">+</div>","null","","fixation","","",""
"memory-trial","221","478054","0.0-18.0-1.87","6199","approach_avoid_sv1","""event"",""trial"",""time""
""fullscreenenter"",""1"",""2381""
","
","
","""event"",""trial"",""time""
""fullscreenenter"",""1"",""2381""
","
","","","","","","2285.0999999046326","images/bed1.png","","","memory_trial","3","maybe_new",""
"html-keyboard-response","222","478558","0.0-18.0-0.88","6199","approach_avoid_sv1","""event"",""trial"",""time""
""fullscreenenter"",""1"",""2381""
","
","
","""event"",""trial"",""time""
""fullscreenenter"",""1"",""2381""
","
","","","","","","null","<div style=""font-size:60px;"">+</div>","null","","fixation","","",""
"memory-trial","223","480520","0.0-18.0-1.88","6199","approach_avoid_sv1","""event"",""trial"",""time""
""fullscreenenter"",""1"",""2381""
","
","
","""event"",""trial"",""time""
""fullscreenenter"",""1"",""2381""
","
","","","","","","951.3000001907349","images/cat7.png","","","memory_trial","3","maybe_new",""
"html-keyboard-response","224","481022","0.0-18.0-0.89","6199","approach_avoid_sv1","""event"",""trial"",""time""
""fullscreenenter"",""1"",""2381""
","
","
","""event"",""trial"",""time""
""fullscreenenter"",""1"",""2381""
","
","","","","","","null","<div style=""font-size:60px;"">+</div>","null","","fixation","","",""
"memory-trial","225","483086","0.0-18.0-1.89","6199","approach_avoid_sv1","""event"",""trial"",""time""
""fullscreenenter"",""1"",""2381""
","
","
","""event"",""trial"",""time""
""fullscreenenter"",""1"",""2381""
","
","","","","","","1053.4000000953674","images/cactus7.png","","","memory_trial","2","maybe_old",""
"html-keyboard-response","226","483590","0.0-18.0-0.90","6199","approach_avoid_sv1","""event"",""trial"",""time""
""fullscreenenter"",""1"",""2381""
","
","
","""event"",""trial"",""time""
""fullscreenenter"",""1"",""2381""
","
","","","","","","null","<div style=""font-size:60px;"">+</div>","null","","fixation","","",""
"memory-trial","227","485391","0.0-18.0-1.90","6199","approach_avoid_sv1","""event"",""trial"",""time""
""fullscreenenter"",""1"",""2381""
","
","
","""event"",""trial"",""time""
""fullscreenenter"",""1"",""2381""
","
","","","","","","790.0999999046326","images/flower2.png","","","memory_trial","1","definitely_old",""
"html-keyboard-response","228","485894","0.0-18.0-0.91","6199","approach_avoid_sv1","""event"",""trial"",""time""
""fullscreenenter"",""1"",""2381""
","
","
","""event"",""trial"",""time""
""fullscreenenter"",""1"",""2381""
","
","","","","","","null","<div style=""font-size:60px;"">+</div>","null","","fixation","","",""
"memory-trial","229","488751","0.0-18.0-1.91","6199","approach_avoid_sv1","""event"",""trial"",""time""
""fullscreenenter"",""1"",""2381""
","
","
","""event"",""trial"",""time""
""fullscreenenter"",""1"",""2381""
","
","","","","","","1846","images/chair3.png","","","memory_trial","2","maybe_old",""
"html-button-response","230","499216","0.0-18.0-2.91-0.91","6199","approach_avoid_sv1","""event"",""trial"",""time""
""fullscreenenter"",""1"",""2381""
","
","
","""event"",""trial"",""time""
""fullscreenenter"",""1"",""2381""
","
","","","","","","10464","<p> Take a break! </p><p> Click the button to continue. </p>","0","","break","","",""
"html-keyboard-response","231","499720","0.0-18.0-0.92","6199","approach_avoid_sv1","""event"",""trial"",""time""
""fullscreenenter"",""1"",""2381""
","
","
","""event"",""trial"",""time""
""fullscreenenter"",""1"",""2381""
","
","","","","","","null","<div style=""font-size:60px;"">+</div>","null","","fixation","","",""
"memory-trial","232","502839","0.0-18.0-1.92","6199","approach_avoid_sv1","""event"",""trial"",""time""
""fullscreenenter"",""1"",""2381""
","
","
","""event"",""trial"",""time""
""fullscreenenter"",""1"",""2381""
","
","","","","","","2107.4000000953674","images/horse6.png","","","memory_trial","2","maybe_old",""
"html-keyboard-response","233","503342","0.0-18.0-0.93","6199","approach_avoid_sv1","""event"",""trial"",""time""
""fullscreenenter"",""1"",""2381""
","
","
","""event"",""trial"",""time""
""fullscreenenter"",""1"",""2381""
","
","","","","","","null","<div style=""font-size:60px;"">+</div>","null","","fixation","","",""
"memory-trial","234","505606","0.0-18.0-1.93","6199","approach_avoid_sv1","""event"",""trial"",""time""
""fullscreenenter"",""1"",""2381""
","
","
","""event"",""trial"",""time""
""fullscreenenter"",""1"",""2381""
","
","","","","","","1253.4000000953674","images/horse8.png","","","memory_trial","2","maybe_old",""
"html-keyboard-response","235","506111","0.0-18.0-0.94","6199","approach_avoid_sv1","""event"",""trial"",""time""
""fullscreenenter"",""1"",""2381""
","
","
","""event"",""trial"",""time""
""fullscreenenter"",""1"",""2381""
","
","","","","","","null","<div style=""font-size:60px;"">+</div>","null","","fixation","","",""
"memory-trial","236","508143","0.0-18.0-1.94","6199","approach_avoid_sv1","""event"",""trial"",""time""
""fullscreenenter"",""1"",""2381""
","
","
","""event"",""trial"",""time""
""fullscreenenter"",""1"",""2381""
","
","","","","","","1020.6999998092651","images/boat2.png","","","memory_trial","2","maybe_old",""
"html-keyboard-response","237","508646","0.0-18.0-0.95","6199","approach_avoid_sv1","""event"",""trial"",""time""
""fullscreenenter"",""1"",""2381""
","
","
","""event"",""trial"",""time""
""fullscreenenter"",""1"",""2381""
","
","","","","","","null","<div style=""font-size:60px;"">+</div>","null","","fixation","","",""
"memory-trial","238","511879","0.0-18.0-1.95","6199","approach_avoid_sv1","""event"",""trial"",""time""
""fullscreenenter"",""1"",""2381""
","
","
","""event"",""trial"",""time""
""fullscreenenter"",""1"",""2381""
","
","","","","","","2222","images/apple2.png","","","memory_trial","2","maybe_old",""
"html-keyboard-response","239","512383","0.0-18.0-0.96","6199","approach_avoid_sv1","""event"",""trial"",""time""
""fullscreenenter"",""1"",""2381""
","
","
","""event"",""trial"",""time""
""fullscreenenter"",""1"",""2381""
","
","","","","","","null","<div style=""font-size:60px;"">+</div>","null","","fixation","","",""
"memory-trial","240","514383","0.0-18.0-1.96","6199","approach_avoid_sv1","""event"",""trial"",""time""
""fullscreenenter"",""1"",""2381""
","
","
","""event"",""trial"",""time""
""fullscreenenter"",""1"",""2381""
","
","","","","","","988.1999998092651","images/cow2.png","","","memory_trial","3","maybe_new",""
"html-keyboard-response","241","514886","0.0-18.0-0.97","6199","approach_avoid_sv1","""event"",""trial"",""time""
""fullscreenenter"",""1"",""2381""
","
","
","""event"",""trial"",""time""
""fullscreenenter"",""1"",""2381""
","
","","","","","","null","<div style=""font-size:60px;"">+</div>","null","","fixation","","",""
"memory-trial","242","517319","0.0-18.0-1.97","6199","approach_avoid_sv1","""event"",""trial"",""time""
""fullscreenenter"",""1"",""2381""
","
","
","""event"",""trial"",""time""
""fullscreenenter"",""1"",""2381""
","
","","","","","","1421.9000000953674","images/tree6.png","","","memory_trial","2","maybe_old",""
"html-keyboard-response","243","517822","0.0-18.0-0.98","6199","approach_avoid_sv1","""event"",""trial"",""time""
""fullscreenenter"",""1"",""2381""
","
","
","""event"",""trial"",""time""
""fullscreenenter"",""1"",""2381""
","
","","","","","","null","<div style=""font-size:60px;"">+</div>","null","","fixation","","",""
"memory-trial","244","519622","0.0-18.0-1.98","6199","approach_avoid_sv1","""event"",""trial"",""time""
""fullscreenenter"",""1"",""2381""
","
","
","""event"",""trial"",""time""
""fullscreenenter"",""1"",""2381""
","
","","","","","","789.0999999046326","images/orange1.png","","","memory_trial","2","maybe_old",""
"html-keyboard-response","245","520127","0.0-18.0-0.99","6199","approach_avoid_sv1","""event"",""trial"",""time""
""fullscreenenter"",""1"",""2381""
","
","
","""event"",""trial"",""time""
""fullscreenenter"",""1"",""2381""
","
","","","","","","null","<div style=""font-size:60px;"">+</div>","null","","fixation","","",""
"memory-trial","246","522646","0.0-18.0-1.99","6199","approach_avoid_sv1","""event"",""trial"",""time""
""fullscreenenter"",""1"",""2381""
","
","
","""event"",""trial"",""time""
""fullscreenenter"",""1"",""2381""
","
","","","","","","1509.4000000953674","images/apple7.png","","","memory_trial","1","definitely_old",""
"html-keyboard-response","247","523150","0.0-18.0-0.100","6199","approach_avoid_sv1","""event"",""trial"",""time""
""fullscreenenter"",""1"",""2381""
","
","
","""event"",""trial"",""time""
""fullscreenenter"",""1"",""2381""
","
","","","","","","null","<div style=""font-size:60px;"">+</div>","null","","fixation","","",""
"memory-trial","248","526974","0.0-18.0-1.100","6199","approach_avoid_sv1","""event"",""trial"",""time""
""fullscreenenter"",""1"",""2381""
","
","
","""event"",""trial"",""time""
""fullscreenenter"",""1"",""2381""
","
","","","","","","2813.300000190735","images/goat7.png","","","memory_trial","3","maybe_new",""
"html-keyboard-response","249","527479","0.0-18.0-0.101","6199","approach_avoid_sv1","""event"",""trial"",""time""
""fullscreenenter"",""1"",""2381""
","
","
","""event"",""trial"",""time""
""fullscreenenter"",""1"",""2381""
","
","","","","","","null","<div style=""font-size:60px;"">+</div>","null","","fixation","","",""
"memory-trial","250","530959","0.0-18.0-1.101","6199","approach_avoid_sv1","""event"",""trial"",""time""
""fullscreenenter"",""1"",""2381""
","
","
","""event"",""trial"",""time""
""fullscreenenter"",""1"",""2381""
","
","","","","","","2467.7000002861023","images/banana4.png","","","memory_trial","3","maybe_new",""
"html-keyboard-response","251","531462","0.0-18.0-0.102","6199","approach_avoid_sv1","""event"",""trial"",""time""
""fullscreenenter"",""1"",""2381""
","
","
","""event"",""trial"",""time""
""fullscreenenter"",""1"",""2381""
","
","","","","","","null","<div style=""font-size:60px;"">+</div>","null","","fixation","","",""
"memory-trial","252","533679","0.0-18.0-1.102","6199","approach_avoid_sv1","""event"",""trial"",""time""
""fullscreenenter"",""1"",""2381""
","
","
","""event"",""trial"",""time""
""fullscreenenter"",""1"",""2381""
","
","","","","","","1204.9000000953674","images/table4.png","","","memory_trial","3","maybe_new",""
"html-keyboard-response","253","534182","0.0-18.0-0.103","6199","approach_avoid_sv1","""event"",""trial"",""time""
""fullscreenenter"",""1"",""2381""
","
","
","""event"",""trial"",""time""
""fullscreenenter"",""1"",""2381""
","
","","","","","","null","<div style=""font-size:60px;"">+</div>","null","","fixation","","",""
"memory-trial","254","536567","0.0-18.0-1.103","6199","approach_avoid_sv1","""event"",""trial"",""time""
""fullscreenenter"",""1"",""2381""
","
","
","""event"",""trial"",""time""
""fullscreenenter"",""1"",""2381""
","
","","","","","","1380.5","images/straw6.png","","","memory_trial","2","maybe_old",""
"html-keyboard-response","255","537071","0.0-18.0-0.104","6199","approach_avoid_sv1","""event"",""trial"",""time""
""fullscreenenter"",""1"",""2381""
","
","
","""event"",""trial"",""time""
""fullscreenenter"",""1"",""2381""
","
","","","","","","null","<div style=""font-size:60px;"">+</div>","null","","fixation","","",""
"memory-trial","256","539910","0.0-18.0-1.104","6199","approach_avoid_sv1","""event"",""trial"",""time""
""fullscreenenter"",""1"",""2381""
","
","
","""event"",""trial"",""time""
""fullscreenenter"",""1"",""2381""
","
","","","","","","1836.8000001907349","images/dog4.png","","","memory_trial","2","maybe_old",""
"html-keyboard-response","257","540414","0.0-18.0-0.105","6199","approach_avoid_sv1","""event"",""trial"",""time""
""fullscreenenter"",""1"",""2381""
","
","
","""event"",""trial"",""time""
""fullscreenenter"",""1"",""2381""
","
","","","","","","null","<div style=""font-size:60px;"">+</div>","null","","fixation","","",""
"memory-trial","258","543111","0.0-18.0-1.105","6199","approach_avoid_sv1","""event"",""trial"",""time""
""fullscreenenter"",""1"",""2381""
","
","
","""event"",""trial"",""time""
""fullscreenenter"",""1"",""2381""
","
","","","","","","1692.5999999046326","images/rodent7.png","","","memory_trial","1","definitely_old",""
"html-keyboard-response","259","543614","0.0-18.0-0.106","6199","approach_avoid_sv1","""event"",""trial"",""time""
""fullscreenenter"",""1"",""2381""
","
","
","""event"",""trial"",""time""
""fullscreenenter"",""1"",""2381""
","
","","","","","","null","<div style=""font-size:60px;"">+</div>","null","","fixation","","",""
"memory-trial","260","545990","0.0-18.0-1.106","6199","approach_avoid_sv1","""event"",""trial"",""time""
""fullscreenenter"",""1"",""2381""
","
","
","""event"",""trial"",""time""
""fullscreenenter"",""1"",""2381""
","
","","","","","","1365.1000003814697","images/truck2.png","","","memory_trial","4","definitely_new",""
"html-keyboard-response","261","546494","0.0-18.0-0.107","6199","approach_avoid_sv1","""event"",""trial"",""time""
""fullscreenenter"",""1"",""2381""
","
","
","""event"",""trial"",""time""
""fullscreenenter"",""1"",""2381""
","
","","","","","","null","<div style=""font-size:60px;"">+</div>","null","","fixation","","",""
"memory-trial","262","548686","0.0-18.0-1.107","6199","approach_avoid_sv1","""event"",""trial"",""time""
""fullscreenenter"",""1"",""2381""
","
","
","""event"",""trial"",""time""
""fullscreenenter"",""1"",""2381""
","
","","","","","","1188.4000000953674","images/plane5.png","","","memory_trial","2","maybe_old",""
"html-keyboard-response","263","549190","0.0-18.0-0.108","6199","approach_avoid_sv1","""event"",""trial"",""time""
""fullscreenenter"",""1"",""2381""
","
","
","""event"",""trial"",""time""
""fullscreenenter"",""1"",""2381""
","
","","","","","","null","<div style=""font-size:60px;"">+</div>","null","","fixation","","",""
"memory-trial","264","551287","0.0-18.0-1.108","6199","approach_avoid_sv1","""event"",""trial"",""time""
""fullscreenenter"",""1"",""2381""
","
","
","""event"",""trial"",""time""
""fullscreenenter"",""1"",""2381""
","
","","","","","","1093.0999999046326","images/cactus6.png","","","memory_trial","1","definitely_old",""
"html-keyboard-response","265","551790","0.0-18.0-0.109","6199","approach_avoid_sv1","""event"",""trial"",""time""
""fullscreenenter"",""1"",""2381""
","
","
","""event"",""trial"",""time""
""fullscreenenter"",""1"",""2381""
","
","","","","","","null","<div style=""font-size:60px;"">+</div>","null","","fixation","","",""
"memory-trial","266","554990","0.0-18.0-1.109","6199","approach_avoid_sv1","""event"",""trial"",""time""
""fullscreenenter"",""1"",""2381""
","
","
","""event"",""trial"",""time""
""fullscreenenter"",""1"",""2381""
","
","","","","","","2197.4000000953674","images/cow4.png","","","memory_trial","2","maybe_old",""
"html-keyboard-response","267","555494","0.0-18.0-0.110","6199","approach_avoid_sv1","""event"",""trial"",""time""
""fullscreenenter"",""1"",""2381""
","
","
","""event"",""trial"",""time""
""fullscreenenter"",""1"",""2381""
","
","","","","","","null","<div style=""font-size:60px;"">+</div>","null","","fixation","","",""
"memory-trial","268","560286","0.0-18.0-1.110","6199","approach_avoid_sv1","""event"",""trial"",""time""
""fullscreenenter"",""1"",""2381""
","
","
","""event"",""trial"",""time""
""fullscreenenter"",""1"",""2381""
","
","","","","","","3780.800000190735","images/goat8.png","","","memory_trial","4","definitely_new",""
"html-keyboard-response","269","560790","0.0-18.0-0.111","6199","approach_avoid_sv1","""event"",""trial"",""time""
""fullscreenenter"",""1"",""2381""
","
","
","""event"",""trial"",""time""
""fullscreenenter"",""1"",""2381""
","
","","","","","","null","<div style=""font-size:60px;"">+</div>","null","","fixation","","",""
"memory-trial","270","562783","0.0-18.0-1.111","6199","approach_avoid_sv1","""event"",""trial"",""time""
""fullscreenenter"",""1"",""2381""
","
","
","""event"",""trial"",""time""
""fullscreenenter"",""1"",""2381""
","
","","","","","","987.8000001907349","images/banana5.png","","","memory_trial","4","definitely_new",""
"html-keyboard-response","271","563286","0.0-18.0-0.112","6199","approach_avoid_sv1","""event"",""trial"",""time""
""fullscreenenter"",""1"",""2381""
","
","
","""event"",""trial"",""time""
""fullscreenenter"",""1"",""2381""
","
","","","","","","null","<div style=""font-size:60px;"">+</div>","null","","fixation","","",""
"memory-trial","272","565471","0.0-18.0-1.112","6199","approach_avoid_sv1","""event"",""trial"",""time""
""fullscreenenter"",""1"",""2381""
","
","
","""event"",""trial"",""time""
""fullscreenenter"",""1"",""2381""
","
","","","","","","1182","images/train2.png","","","memory_trial","4","definitely_new",""
"html-keyboard-response","273","565974","0.0-18.0-0.113","6199","approach_avoid_sv1","""event"",""trial"",""time""
""fullscreenenter"",""1"",""2381""
","
","
","""event"",""trial"",""time""
""fullscreenenter"",""1"",""2381""
","
","","","","","","null","<div style=""font-size:60px;"">+</div>","null","","fixation","","",""
"memory-trial","274","567759","0.0-18.0-1.113","6199","approach_avoid_sv1","""event"",""trial"",""time""
""fullscreenenter"",""1"",""2381""
","
","
","""event"",""trial"",""time""
""fullscreenenter"",""1"",""2381""
","
","","","","","","781.1999998092651","images/boat7.png","","","memory_trial","2","maybe_old",""
"html-keyboard-response","275","568263","0.0-18.0-0.114","6199","approach_avoid_sv1","""event"",""trial"",""time""
""fullscreenenter"",""1"",""2381""
","
","
","""event"",""trial"",""time""
""fullscreenenter"",""1"",""2381""
","
","","","","","","null","<div style=""font-size:60px;"">+</div>","null","","fixation","","",""
"memory-trial","276","570111","0.0-18.0-1.114","6199","approach_avoid_sv1","""event"",""trial"",""time""
""fullscreenenter"",""1"",""2381""
","
","
","""event"",""trial"",""time""
""fullscreenenter"",""1"",""2381""
","
","","","","","","843.7000002861023","images/plane6.png","","","memory_trial","1","definitely_old",""
"html-keyboard-response","277","570615","0.0-18.0-0.115","6199","approach_avoid_sv1","""event"",""trial"",""time""
""fullscreenenter"",""1"",""2381""
","
","
","""event"",""trial"",""time""
""fullscreenenter"",""1"",""2381""
","
","","","","","","null","<div style=""font-size:60px;"">+</div>","null","","fixation","","",""
"memory-trial","278","573071","0.0-18.0-1.115","6199","approach_avoid_sv1","""event"",""trial"",""time""
""fullscreenenter"",""1"",""2381""
","
","
","""event"",""trial"",""time""
""fullscreenenter"",""1"",""2381""
","
","","","","","","1452.5","images/straw4.png","","","memory_trial","2","maybe_old",""
"html-keyboard-response","279","573575","0.0-18.0-0.116","6199","approach_avoid_sv1","""event"",""trial"",""time""
""fullscreenenter"",""1"",""2381""
","
","
","""event"",""trial"",""time""
""fullscreenenter"",""1"",""2381""
","
","","","","","","null","<div style=""font-size:60px;"">+</div>","null","","fixation","","",""
"memory-trial","280","576023","0.0-18.0-1.116","6199","approach_avoid_sv1","""event"",""trial"",""time""
""fullscreenenter"",""1"",""2381""
","
","
","""event"",""trial"",""time""
""fullscreenenter"",""1"",""2381""
","
","","","","","","1444.5999999046326","images/chair5.png","","","memory_trial","1","definitely_old",""
"html-keyboard-response","281","576526","0.0-18.0-0.117","6199","approach_avoid_sv1","""event"",""trial"",""time""
""fullscreenenter"",""1"",""2381""
","
","
","""event"",""trial"",""time""
""fullscreenenter"",""1"",""2381""
","
","","","","","","null","<div style=""font-size:60px;"">+</div>","null","","fixation","","",""
"memory-trial","282","578311","0.0-18.0-1.117","6199","approach_avoid_sv1","""event"",""trial"",""time""
""fullscreenenter"",""1"",""2381""
","
","
","""event"",""trial"",""time""
""fullscreenenter"",""1"",""2381""
","
","","","","","","780.5","images/boat8.png","","","memory_trial","2","maybe_old",""
"html-keyboard-response","283","578814","0.0-18.0-0.118","6199","approach_avoid_sv1","""event"",""trial"",""time""
""fullscreenenter"",""1"",""2381""
","
","
","""event"",""trial"",""time""
""fullscreenenter"",""1"",""2381""
","
","","","","","","null","<div style=""font-size:60px;"">+</div>","null","","fixation","","",""
"memory-trial","284","582390","0.0-18.0-1.118","6199","approach_avoid_sv1","""event"",""trial"",""time""
""fullscreenenter"",""1"",""2381""
","
","
","""event"",""trial"",""time""
""fullscreenenter"",""1"",""2381""
","
","","","","","","2572.9000000953674","images/plane2.png","","","memory_trial","4","definitely_new",""
"html-keyboard-response","285","582895","0.0-18.0-0.119","6199","approach_avoid_sv1","""event"",""trial"",""time""
""fullscreenenter"",""1"",""2381""
","
","
","""event"",""trial"",""time""
""fullscreenenter"",""1"",""2381""
","
","","","","","","null","<div style=""font-size:60px;"">+</div>","null","","fixation","","",""
"memory-trial","286","585614","0.0-18.0-1.119","6199","approach_avoid_sv1","""event"",""trial"",""time""
""fullscreenenter"",""1"",""2381""
","
","
","""event"",""trial"",""time""
""fullscreenenter"",""1"",""2381""
","
","","","","","","1716.2999997138977","images/truck4.png","","","memory_trial","1","definitely_old",""
"html-keyboard-response","287","586119","0.0-18.0-0.120","6199","approach_avoid_sv1","""event"",""trial"",""time""
""fullscreenenter"",""1"",""2381""
","
","
","""event"",""trial"",""time""
""fullscreenenter"",""1"",""2381""
","
","","","","","","null","<div style=""font-size:60px;"">+</div>","null","","fixation","","",""
"memory-trial","288","588647","0.0-18.0-1.120","6199","approach_avoid_sv1","""event"",""trial"",""time""
""fullscreenenter"",""1"",""2381""
","
","
","""event"",""trial"",""time""
""fullscreenenter"",""1"",""2381""
","
","","","","","","1523.7000002861023","images/chair4.png","","","memory_trial","2","maybe_old",""
"html-keyboard-response","289","589151","0.0-18.0-0.121","6199","approach_avoid_sv1","""event"",""trial"",""time""
""fullscreenenter"",""1"",""2381""
","
","
","""event"",""trial"",""time""
""fullscreenenter"",""1"",""2381""
","
","","","","","","null","<div style=""font-size:60px;"">+</div>","null","","fixation","","",""
"memory-trial","290","592863","0.0-18.0-1.121","6199","approach_avoid_sv1","""event"",""trial"",""time""
""fullscreenenter"",""1"",""2381""
","
","
","""event"",""trial"",""time""
""fullscreenenter"",""1"",""2381""
","
","","","","","","2708.2000002861023","images/truck8.png","","","memory_trial","3","maybe_new",""
"html-keyboard-response","291","593366","0.0-18.0-0.122","6199","approach_avoid_sv1","""event"",""trial"",""time""
""fullscreenenter"",""1"",""2381""
","
","
","""event"",""trial"",""time""
""fullscreenenter"",""1"",""2381""
","
","","","","","","null","<div style=""font-size:60px;"">+</div>","null","","fixation","","",""
"memory-trial","292","596734","0.0-18.0-1.122","6199","approach_avoid_sv1","""event"",""trial"",""time""
""fullscreenenter"",""1"",""2381""
","
","
","""event"",""trial"",""time""
""fullscreenenter"",""1"",""2381""
","
","","","","","","2364.2999997138977","images/horse7.png","","","memory_trial","2","maybe_old",""
"html-keyboard-response","293","597238","0.0-18.0-0.123","6199","approach_avoid_sv1","""event"",""trial"",""time""
""fullscreenenter"",""1"",""2381""
","
","
","""event"",""trial"",""time""
""fullscreenenter"",""1"",""2381""
","
","","","","","","null","<div style=""font-size:60px;"">+</div>","null","","fixation","","",""
"memory-trial","294","599094","0.0-18.0-1.123","6199","approach_avoid_sv1","""event"",""trial"",""time""
""fullscreenenter"",""1"",""2381""
","
","
","""event"",""trial"",""time""
""fullscreenenter"",""1"",""2381""
","
","","","","","","852.0999999046326","images/rodent2.png","","","memory_trial","1","definitely_old",""
"html-keyboard-response","295","599598","0.0-18.0-0.124","6199","approach_avoid_sv1","""event"",""trial"",""time""
""fullscreenenter"",""1"",""2381""
","
","
","""event"",""trial"",""time""
""fullscreenenter"",""1"",""2381""
","
","","","","","","null","<div style=""font-size:60px;"">+</div>","null","","fixation","","",""
"memory-trial","296","602071","0.0-18.0-1.124","6199","approach_avoid_sv1","""event"",""trial"",""time""
""fullscreenenter"",""1"",""2381""
","
","
","""event"",""trial"",""time""
""fullscreenenter"",""1"",""2381""
","
","","","","","","1468.5999999046326","images/straw3.png","","","memory_trial","2","maybe_old",""
"html-keyboard-response","297","602574","0.0-18.0-0.125","6199","approach_avoid_sv1","""event"",""trial"",""time""
""fullscreenenter"",""1"",""2381""
","
","
","""event"",""trial"",""time""
""fullscreenenter"",""1"",""2381""
","
