"trial_type","trial_index","time_elapsed","internal_node_id","subject_id","task_version","interactions","blur_events","focus_events","fullscreenenter_events","fullscreenexit_events","success","timeout","failed_images","failed_audio","failed_video","rt","stimulus","response","button_pressed","task_part","key_press","answer","correct"
"pavlovia","0","3","0.0-0.0","4132","approach_avoid_sv1","""event"",""trial"",""time""
""fullscreenenter"",""1"",""1513""
","
","
","""event"",""trial"",""time""
""fullscreenenter"",""1"",""1513""
","
","","","","","","","","","","","","",""
"fullscreen","1","2497","0.0-1.0","4132","approach_avoid_sv1","""event"",""trial"",""time""
""fullscreenenter"",""1"",""1513""
","
","
","""event"",""trial"",""time""
""fullscreenenter"",""1"",""1513""
","
","true","","","","","","","","","","","",""
"preload","2","21363","0.0-2.0","4132","approach_avoid_sv1","""event"",""trial"",""time""
""fullscreenenter"",""1"",""1513""
","
","
","""event"",""trial"",""time""
""fullscreenenter"",""1"",""1513""
","
","true","false","[]","[]","[]","","","","","","","",""
"preload","3","30909","0.0-3.0","4132","approach_avoid_sv1","""event"",""trial"",""time""
""fullscreenenter"",""1"",""1513""
","
","
","""event"",""trial"",""time""
""fullscreenenter"",""1"",""1513""
","
","true","false","[]","[]","[]","","","","","","","",""
"preload","4","31671","0.0-4.0","4132","approach_avoid_sv1","""event"",""trial"",""time""
""fullscreenenter"",""1"",""1513""
","
","
","""event"",""trial"",""time""
""fullscreenenter"",""1"",""1513""
","
","true","false","[]","[]","[]","","","","","","","",""
"audio-keyboard-response","5","35795","0.0-5.0","4132","approach_avoid_sv1","""event"",""trial"",""time""
""fullscreenenter"",""1"",""1513""
","
","
","""event"",""trial"",""time""
""fullscreenenter"",""1"",""1513""
","
","","","","","","4122.666666666666","audio/beep_loop.wav"," ","","","","",""
"audio-button-response","6","37555","0.0-6.0","4132","approach_avoid_sv1","""event"",""trial"",""time""
""fullscreenenter"",""1"",""1513""
","
","
","""event"",""trial"",""time""
""fullscreenenter"",""1"",""1513""
","
","","","","","","1760","audio/turtle.wav","3","","","","",""
"audio-button-response","7","40366","0.0-7.0","4132","approach_avoid_sv1","""event"",""trial"",""time""
""fullscreenenter"",""1"",""1513""
","
","
","""event"",""trial"",""time""
""fullscreenenter"",""1"",""1513""
","
","","","","","","1803","audio/shark.wav","2","","","","",""
"preload","8","51888","0.0-8.0","4132","approach_avoid_sv1","""event"",""trial"",""time""
""fullscreenenter"",""1"",""1513""
","
","
","""event"",""trial"",""time""
""fullscreenenter"",""1"",""1513""
","
","true","false","[]","[]","[]","","","","","","","",""
"learning-instructions","9","58254","0.0-9.0-0.0","4132","approach_avoid_sv1","""event"",""trial"",""time""
""fullscreenenter"",""1"",""1513""
","
","
","""event"",""trial"",""time""
""fullscreenenter"",""1"",""1513""
","
","","","","","","1883.7000000476837","<p> Welcome back! </p><p> Last week, you had to make choices about lots of different items.  </p>","","0","instructions","","",""
"learning-instructions","10","63351","0.0-9.0-0.1","4132","approach_avoid_sv1","""event"",""trial"",""time""
""fullscreenenter"",""1"",""1513""
","
","
","""event"",""trial"",""time""
""fullscreenenter"",""1"",""1513""
","
","","","","","","981.6999999284744","<p> Today, we are going to ask you to try to remember all the items. </p>","","0","instructions","","",""
"learning-instructions","11","73911","0.0-9.0-0.2","4132","approach_avoid_sv1","""event"",""trial"",""time""
""fullscreenenter"",""1"",""1513""
","
","
","""event"",""trial"",""time""
""fullscreenenter"",""1"",""1513""
","
","","","","","","426.7000000476837","<p> On every trial, you will see an image. </p><p> The image may be an OLD image you saw during the games last week or it may be a NEW image that was not presented. </p>","","0","instructions","","",""
"learning-instructions","12","82855","0.0-9.0-0.3","4132","approach_avoid_sv1","""event"",""trial"",""time""
""fullscreenenter"",""1"",""1513""
","
","
","""event"",""trial"",""time""
""fullscreenenter"",""1"",""1513""
","
","","","","","","441.5","<p> You need to select whether the image is:  </p><p>  'Definitely old', 'Maybe old', 'Maybe new', or 'Definitely new.'  </p><div class=""mem-choice-instructions-grid""><div class=""choice-option"" id=""choice-option-1"" ><img src=""images/definitely_old_1.png"" id=""choice-option-img-1"" class=""choice-option-img"" stage=""1""></div><div class=""choice-option"" id=""choice-option-2"" ><img src=""images/maybe_old_1.png"" id=""choice-option-img-2"" class=""choice-option-img"" stage=""1""></div><div class=""choice-option"" id=""choice-option-3"" ><img src=""images/maybe_new_1.png"" id=""choice-option-img-3"" class=""choice-option-img"" stage=""1""></div><div class=""choice-option"" id=""choice-option-4"" > <img src=""images/definitely_new_1.png"" id=""choice-option-img-4"" class=""choice-option-img"" stage=""1""></div></div>","","0","instructions","","",""
"learning-instructions","13","90856","0.0-9.0-0.4","4132","approach_avoid_sv1","""event"",""trial"",""time""
""fullscreenenter"",""1"",""1513""
","
","
","""event"",""trial"",""time""
""fullscreenenter"",""1"",""1513""
","
","","","","","","1487.8999999761581","<p> You should use the 1, 2, 3, and 4 keys to make your responses.  </p><div class=""mem-choice-instructions-grid""><div class=""choice-option"" id=""choice-option-1"" ><img src=""images/definitely_old.png"" id=""choice-option-img-1"" class=""choice-option-img"" stage=""1""></div><div class=""choice-option"" id=""choice-option-2"" ><img src=""images/maybe_old.png"" id=""choice-option-img-2"" class=""choice-option-img"" stage=""1""></div><div class=""choice-option"" id=""choice-option-3"" ><img src=""images/maybe_new.png"" id=""choice-option-img-3"" class=""choice-option-img"" stage=""1""></div><div class=""choice-option"" id=""choice-option-4"" > <img src=""images/definitely_new.png"" id=""choice-option-img-4"" class=""choice-option-img"" stage=""1""></div></div>","","0","instructions","","",""
"learning-instructions","14","97644","0.0-9.0-0.5","4132","approach_avoid_sv1","""event"",""trial"",""time""
""fullscreenenter"",""1"",""1513""
","
","
","""event"",""trial"",""time""
""fullscreenenter"",""1"",""1513""
","
","","","","","","463.8000000715256","<p> You will have 10 seconds to make each response.  </p><p>  Make sure to respond before time runs out! </p>","","0","instructions","","",""
"learning-instructions","15","105211","0.0-9.0-0.6","4132","approach_avoid_sv1","""event"",""trial"",""time""
""fullscreenenter"",""1"",""1513""
","
","
","""event"",""trial"",""time""
""fullscreenenter"",""1"",""1513""
","
","","","","","","488.59999990463257","<p> Today, you will see each image ONCE only.  </p><p>  That means none of the images will repeat. </p>","","0","instructions","","",""
"learning-instructions","16","118494","0.0-9.0-0.7","4132","approach_avoid_sv1","""event"",""trial"",""time""
""fullscreenenter"",""1"",""1513""
","
","
","""event"",""trial"",""time""
""fullscreenenter"",""1"",""1513""
","
","","","","","","614.3999999761581","<p> Before you play the real game, it is time to practice. </p><p>  Just like in the real game, some of the images in the practice will be ones you have seen before. </p><p>  Others will be entirely new. </p>","","0","instructions","","",""
"html-button-response","17","120242","0.0-10.0","4132","approach_avoid_sv1","""event"",""trial"",""time""
""fullscreenenter"",""1"",""1513""
","
","
","""event"",""trial"",""time""
""fullscreenenter"",""1"",""1513""
","
","","","","","","1643.2000000476837","<p> Ready to practice? </p><p> Remember, use the 1, 2, 3, and 4 keys to make your responses. </p>","0","","instructions","","",""
"html-keyboard-response","18","120844","0.0-11.0-0.0","4132","approach_avoid_sv1","""event"",""trial"",""time""
""fullscreenenter"",""1"",""1513""
","
","
","""event"",""trial"",""time""
""fullscreenenter"",""1"",""1513""
","
","","","","","","null","<div style=""font-size:60px;"">+</div>","null","","fixation","","",""
"memory-trial","19","123831","0.0-11.0-1.0","4132","approach_avoid_sv1","""event"",""trial"",""time""
""fullscreenenter"",""1"",""1513""
","
","
","""event"",""trial"",""time""
""fullscreenenter"",""1"",""1513""
","
","","","","","","1981.2000000476837","images/racket1.png","","","practice","1","definitely_old",""
"html-keyboard-response","20","124332","0.0-11.0-0.1","4132","approach_avoid_sv1","""event"",""trial"",""time""
""fullscreenenter"",""1"",""1513""
","
","
","""event"",""trial"",""time""
""fullscreenenter"",""1"",""1513""
","
","","","","","","null","<div style=""font-size:60px;"">+</div>","null","","fixation","","",""
"memory-trial","21","127479","0.0-11.0-1.1","4132","approach_avoid_sv1","""event"",""trial"",""time""
""fullscreenenter"",""1"",""1513""
","
","
","""event"",""trial"",""time""
""fullscreenenter"",""1"",""1513""
","
","","","","","","2142.5","images/racket2.png","","","practice","1","definitely_old",""
"html-keyboard-response","22","127980","0.0-11.0-0.2","4132","approach_avoid_sv1","""event"",""trial"",""time""
""fullscreenenter"",""1"",""1513""
","
","
","""event"",""trial"",""time""
""fullscreenenter"",""1"",""1513""
","
","","","","","","null","<div style=""font-size:60px;"">+</div>","null","","fixation","","",""
"memory-trial","23","130574","0.0-11.0-1.2","4132","approach_avoid_sv1","""event"",""trial"",""time""
""fullscreenenter"",""1"",""1513""
","
","
","""event"",""trial"",""time""
""fullscreenenter"",""1"",""1513""
","
","","","","","","1589.3000000715256","images/racket5.png","","","practice","1","definitely_old",""
"html-keyboard-response","24","131079","0.0-11.0-0.3","4132","approach_avoid_sv1","""event"",""trial"",""time""
""fullscreenenter"",""1"",""1513""
","
","
","""event"",""trial"",""time""
""fullscreenenter"",""1"",""1513""
","
","","","","","","null","<div style=""font-size:60px;"">+</div>","null","","fixation","","",""
"memory-trial","25","134770","0.0-11.0-1.3","4132","approach_avoid_sv1","""event"",""trial"",""time""
""fullscreenenter"",""1"",""1513""
","
","
","""event"",""trial"",""time""
""fullscreenenter"",""1"",""1513""
","
","","","","","","2687.2000000476837","images/ball3.png","","","practice","4","definitely_new",""
"html-keyboard-response","26","135271","0.0-11.0-0.4","4132","approach_avoid_sv1","""event"",""trial"",""time""
""fullscreenenter"",""1"",""1513""
","
","
","""event"",""trial"",""time""
""fullscreenenter"",""1"",""1513""
","
","","","","","","null","<div style=""font-size:60px;"">+</div>","null","","fixation","","",""
"memory-trial","27","138375","0.0-11.0-1.4","4132","approach_avoid_sv1","""event"",""trial"",""time""
""fullscreenenter"",""1"",""1513""
","
","
","""event"",""trial"",""time""
""fullscreenenter"",""1"",""1513""
","
","","","","","","2097.8000000715256","images/ball2.png","","","practice","1","definitely_old",""
"html-keyboard-response","28","138876","0.0-11.0-0.5","4132","approach_avoid_sv1","""event"",""trial"",""time""
""fullscreenenter"",""1"",""1513""
","
","
","""event"",""trial"",""time""
""fullscreenenter"",""1"",""1513""
","
","","","","","","null","<div style=""font-size:60px;"">+</div>","null","","fixation","","",""
"memory-trial","29","142072","0.0-11.0-1.5","4132","approach_avoid_sv1","""event"",""trial"",""time""
""fullscreenenter"",""1"",""1513""
","
","
","""event"",""trial"",""time""
""fullscreenenter"",""1"",""1513""
","
","","","","","","2190","images/racket3.png","","","practice","4","definitely_new",""
"html-keyboard-response","30","142578","0.0-11.0-0.6","4132","approach_avoid_sv1","""event"",""trial"",""time""
""fullscreenenter"",""1"",""1513""
","
","
","""event"",""trial"",""time""
""fullscreenenter"",""1"",""1513""
","
","","","","","","null","<div style=""font-size:60px;"">+</div>","null","","fixation","","",""
"memory-trial","31","145255","0.0-11.0-1.6","4132","approach_avoid_sv1","""event"",""trial"",""time""
""fullscreenenter"",""1"",""1513""
","
","
","""event"",""trial"",""time""
""fullscreenenter"",""1"",""1513""
","
","","","","","","1670.6000000238419","images/ball5.png","","","practice","4","definitely_new",""
"html-keyboard-response","32","145756","0.0-11.0-0.7","4132","approach_avoid_sv1","""event"",""trial"",""time""
""fullscreenenter"",""1"",""1513""
","
","
","""event"",""trial"",""time""
""fullscreenenter"",""1"",""1513""
","
","","","","","","null","<div style=""font-size:60px;"">+</div>","null","","fixation","","",""
"memory-trial","33","148637","0.0-11.0-1.7","4132","approach_avoid_sv1","""event"",""trial"",""time""
""fullscreenenter"",""1"",""1513""
","
","
","""event"",""trial"",""time""
""fullscreenenter"",""1"",""1513""
","
","","","","","","1877.1000000238419","images/ball1.png","","","practice","2","maybe_old",""
"learning-instructions","34","157437","0.0-12.0-0.0","4132","approach_avoid_sv1","""event"",""trial"",""time""
""fullscreenenter"",""1"",""1513""
","
","
","""event"",""trial"",""time""
""fullscreenenter"",""1"",""1513""
","
","","","","","","1078.1999999284744","<p> Great! You have completed the practice. </p><p> Before you start, we're going to ask you a few questions about how the game works.  </p>","","0","instructions","","",""
"preload","35","166225","0.0-13.0","4132","approach_avoid_sv1","""event"",""trial"",""time""
""fullscreenenter"",""1"",""1513""
","
","
","""event"",""trial"",""time""
""fullscreenenter"",""1"",""1513""
","
","true","false","[]","[]","[]","","","","","","","",""
"comp-q","36","173233","0.0-14.0-0.0","4132","approach_avoid_sv1","""event"",""trial"",""time""
""fullscreenenter"",""1"",""1513""
","
","
","""event"",""trial"",""time""
""fullscreenenter"",""1"",""1513""
","
","","","","","","1178.4000000953674","<p> <b> True or False? </b> </p><p> In this game, you will only see each image once. </p>","","0","comp_question","","","true"
"comp-q","37","180500","0.0-14.0-1.0","4132","approach_avoid_sv1","""event"",""trial"",""time""
""fullscreenenter"",""1"",""1513""
","
","
","""event"",""trial"",""time""
""fullscreenenter"",""1"",""1513""
","
","","","","","","930.5","<p> <b> That's right! </b> You will see many different images <i> one time each </i> in this game. </p>","","0","comp_answer","","",""
"comp-q","38","186119","0.0-15.0-0.0","4132","approach_avoid_sv1","""event"",""trial"",""time""
""fullscreenenter"",""1"",""1513""
","
","
","""event"",""trial"",""time""
""fullscreenenter"",""1"",""1513""
","
","","","","","","613.7000000476837","<p> <b> True or False? </b> </p><p> You should use the mouse and click to make your response. </p>","","1","comp_question","","","true"
"comp-q","39","193440","0.0-15.0-1.0","4132","approach_avoid_sv1","""event"",""trial"",""time""
""fullscreenenter"",""1"",""1513""
","
","
","""event"",""trial"",""time""
""fullscreenenter"",""1"",""1513""
","
","","","","","","819.8999999761581","<p><b> That's right! </b> You should use the '1', '2', '3', and '4' keys to make your response. </p>","","0","comp_answer","","",""
"comp-q","40","199768","0.0-16.0-0.0","4132","approach_avoid_sv1","""event"",""trial"",""time""
""fullscreenenter"",""1"",""1513""
","
","
","""event"",""trial"",""time""
""fullscreenenter"",""1"",""1513""
","
","","","","","","652.1000000238419","<p> <b> True or False? </b> </p><p> You will have as much time as you want to make each choice. </p>","","0","comp_question","","","false"
"comp-q","41","205168","0.0-16.0-1.0","4132","approach_avoid_sv1","""event"",""trial"",""time""
""fullscreenenter"",""1"",""1513""
","
","
","""event"",""trial"",""time""
""fullscreenenter"",""1"",""1513""
","
","","","","","","655.5","<p> <b>Incorrect.</b> You will only have 10 seconds to make each choice.</p>","","0","comp_answer","","",""
"comp-q","42","211355","0.0-16.1-0.1","4132","approach_avoid_sv1","""event"",""trial"",""time""
""fullscreenenter"",""1"",""1513""
","
","
","""event"",""trial"",""time""
""fullscreenenter"",""1"",""1513""
","
","","","","","","510.60000002384186","<p> <b> True or False? </b> </p><p> You will have as much time as you want to make each choice. </p>","","1","comp_question","","","true"
"comp-q","43","217006","0.0-16.1-1.1","4132","approach_avoid_sv1","""event"",""trial"",""time""
""fullscreenenter"",""1"",""1513""
","
","
","""event"",""trial"",""time""
""fullscreenenter"",""1"",""1513""
","
","","","","","","956.9000000953674","<p> <b> That's right! </b> You will only have 10 seconds to make each choice. </p>","","0","comp_answer","","",""
"learning-instructions","44","226835","0.0-17.0","4132","approach_avoid_sv1","""event"",""trial"",""time""
""fullscreenenter"",""1"",""1513""
","
","
","""event"",""trial"",""time""
""fullscreenenter"",""1"",""1513""
","
","","","","","","1159.1000000238419","<p> Great! You are now ready to begin the game. </p><p> Remember, use the 1, 2, 3, and 4 keys to make your responses. </p>","","0","instructions","","",""
"html-keyboard-response","45","227440","0.0-18.0-0.0","4132","approach_avoid_sv1","""event"",""trial"",""time""
""fullscreenenter"",""1"",""1513""
","
","
","""event"",""trial"",""time""
""fullscreenenter"",""1"",""1513""
","
","","","","","","null","<div style=""font-size:60px;"">+</div>","null","","fixation","","",""
"memory-trial","46","230422","0.0-18.0-1.0","4132","approach_avoid_sv1","""event"",""trial"",""time""
""fullscreenenter"",""1"",""1513""
","
","
","""event"",""trial"",""time""
""fullscreenenter"",""1"",""1513""
","
","","","","","","1975.8999999761581","images/banana2.png","","","memory_trial","4","definitely_new",""
"html-keyboard-response","47","230923","0.0-18.0-0.1","4132","approach_avoid_sv1","""event"",""trial"",""time""
""fullscreenenter"",""1"",""1513""
","
","
","""event"",""trial"",""time""
""fullscreenenter"",""1"",""1513""
","
","","","","","","null","<div style=""font-size:60px;"">+</div>","null","","fixation","","",""
"memory-trial","48","234270","0.0-18.0-1.1","4132","approach_avoid_sv1","""event"",""trial"",""time""
""fullscreenenter"",""1"",""1513""
","
","
","""event"",""trial"",""time""
""fullscreenenter"",""1"",""1513""
","
","","","","","","2340.899999976158","images/bed5.png","","","memory_trial","1","definitely_old",""
"html-keyboard-response","49","234776","0.0-18.0-0.2","4132","approach_avoid_sv1","""event"",""trial"",""time""
""fullscreenenter"",""1"",""1513""
","
","
","""event"",""trial"",""time""
""fullscreenenter"",""1"",""1513""
","
","","","","","","null","<div style=""font-size:60px;"">+</div>","null","","fixation","","",""
"memory-trial","50","238139","0.0-18.0-1.2","4132","approach_avoid_sv1","""event"",""trial"",""time""
""fullscreenenter"",""1"",""1513""
","
","
","""event"",""trial"",""time""
""fullscreenenter"",""1"",""1513""
","
","","","","","","2358.7000000476837","images/rabbit6.png","","","memory_trial","3","maybe_new",""
"html-keyboard-response","51","238641","0.0-18.0-0.3","4132","approach_avoid_sv1","""event"",""trial"",""time""
""fullscreenenter"",""1"",""1513""
","
","
","""event"",""trial"",""time""
""fullscreenenter"",""1"",""1513""
","
","","","","","","null","<div style=""font-size:60px;"">+</div>","null","","fixation","","",""
"memory-trial","52","240769","0.0-18.0-1.3","4132","approach_avoid_sv1","""event"",""trial"",""time""
""fullscreenenter"",""1"",""1513""
","
","
","""event"",""trial"",""time""
""fullscreenenter"",""1"",""1513""
","
","","","","","","1122.7999999523163","images/chair8.png","","","memory_trial","1","definitely_old",""
"html-keyboard-response","53","241272","0.0-18.0-0.4","4132","approach_avoid_sv1","""event"",""trial"",""time""
""fullscreenenter"",""1"",""1513""
","
","
","""event"",""trial"",""time""
""fullscreenenter"",""1"",""1513""
","
","","","","","","null","<div style=""font-size:60px;"">+</div>","null","","fixation","","",""
"memory-trial","54","244336","0.0-18.0-1.4","4132","approach_avoid_sv1","""event"",""trial"",""time""
""fullscreenenter"",""1"",""1513""
","
","
","""event"",""trial"",""time""
""fullscreenenter"",""1"",""1513""
","
","","","","","","2058.0999999046326","images/dog1.png","","","memory_trial","2","maybe_old",""
"html-keyboard-response","55","244838","0.0-18.0-0.5","4132","approach_avoid_sv1","""event"",""trial"",""time""
""fullscreenenter"",""1"",""1513""
","
","
","""event"",""trial"",""time""
""fullscreenenter"",""1"",""1513""
","
","","","","","","null","<div style=""font-size:60px;"">+</div>","null","","fixation","","",""
"memory-trial","56","246875","0.0-18.0-1.5","4132","approach_avoid_sv1","""event"",""trial"",""time""
""fullscreenenter"",""1"",""1513""
","
","
","""event"",""trial"",""time""
""fullscreenenter"",""1"",""1513""
","
","","","","","","1030.5","images/straw1.png","","","memory_trial","1","definitely_old",""
"html-keyboard-response","57","247377","0.0-18.0-0.6","4132","approach_avoid_sv1","""event"",""trial"",""time""
""fullscreenenter"",""1"",""1513""
","
","
","""event"",""trial"",""time""
""fullscreenenter"",""1"",""1513""
","
","","","","","","null","<div style=""font-size:60px;"">+</div>","null","","fixation","","",""
"memory-trial","58","249249","0.0-18.0-1.6","4132","approach_avoid_sv1","""event"",""trial"",""time""
""fullscreenenter"",""1"",""1513""
","
","
","""event"",""trial"",""time""
""fullscreenenter"",""1"",""1513""
","
","","","","","","866.1000000238419","images/cow2.png","","","memory_trial","1","definitely_old",""
"html-keyboard-response","59","249750","0.0-18.0-0.7","4132","approach_avoid_sv1","""event"",""trial"",""time""
""fullscreenenter"",""1"",""1513""
","
","
","""event"",""trial"",""time""
""fullscreenenter"",""1"",""1513""
","
","","","","","","null","<div style=""font-size:60px;"">+</div>","null","","fixation","","",""
"memory-trial","60","252626","0.0-18.0-1.7","4132","approach_avoid_sv1","""event"",""trial"",""time""
""fullscreenenter"",""1"",""1513""
","
","
","""event"",""trial"",""time""
""fullscreenenter"",""1"",""1513""
","
","","","","","","1869.3999999761581","images/horse7.png","","","memory_trial","4","definitely_new",""
"html-keyboard-response","61","253131","0.0-18.0-0.8","4132","approach_avoid_sv1","""event"",""trial"",""time""
""fullscreenenter"",""1"",""1513""
","
","
","""event"",""trial"",""time""
""fullscreenenter"",""1"",""1513""
","
","","","","","","null","<div style=""font-size:60px;"">+</div>","null","","fixation","","",""
"memory-trial","62","256572","0.0-18.0-1.8","4132","approach_avoid_sv1","""event"",""trial"",""time""
""fullscreenenter"",""1"",""1513""
","
","
","""event"",""trial"",""time""
""fullscreenenter"",""1"",""1513""
","
","","","","","","2436.5999999046326","images/apple3.png","","","memory_trial","2","maybe_old",""
"html-keyboard-response","63","257079","0.0-18.0-0.9","4132","approach_avoid_sv1","""event"",""trial"",""time""
""fullscreenenter"",""1"",""1513""
","
","
","""event"",""trial"",""time""
""fullscreenenter"",""1"",""1513""
","
","","","","","","null","<div style=""font-size:60px;"">+</div>","null","","fixation","","",""
"memory-trial","64","260519","0.0-18.0-1.9","4132","approach_avoid_sv1","""event"",""trial"",""time""
""fullscreenenter"",""1"",""1513""
","
","
","""event"",""trial"",""time""
""fullscreenenter"",""1"",""1513""
","
","","","","","","2433.5","images/rabbit7.png","","","memory_trial","3","maybe_new",""
"html-keyboard-response","65","261020","0.0-18.0-0.10","4132","approach_avoid_sv1","""event"",""trial"",""time""
""fullscreenenter"",""1"",""1513""
","
","
","""event"",""trial"",""time""
""fullscreenenter"",""1"",""1513""
","
","","","","","","null","<div style=""font-size:60px;"">+</div>","null","","fixation","","",""
"memory-trial","66","263154","0.0-18.0-1.10","4132","approach_avoid_sv1","""event"",""trial"",""time""
""fullscreenenter"",""1"",""1513""
","
","
","""event"",""trial"",""time""
""fullscreenenter"",""1"",""1513""
","
","","","","","","1129.1000000238419","images/flower7.png","","","memory_trial","1","definitely_old",""
"html-keyboard-response","67","263655","0.0-18.0-0.11","4132","approach_avoid_sv1","""event"",""trial"",""time""
""fullscreenenter"",""1"",""1513""
","
","
","""event"",""trial"",""time""
""fullscreenenter"",""1"",""1513""
","
","","","","","","null","<div style=""font-size:60px;"">+</div>","null","","fixation","","",""
"memory-trial","68","265554","0.0-18.0-1.11","4132","approach_avoid_sv1","""event"",""trial"",""time""
""fullscreenenter"",""1"",""1513""
","
","
","""event"",""trial"",""time""
""fullscreenenter"",""1"",""1513""
","
","","","","","","895.1000000238419","images/train3.png","","","memory_trial","1","definitely_old",""
"html-keyboard-response","69","266055","0.0-18.0-0.12","4132","approach_avoid_sv1","""event"",""trial"",""time""
""fullscreenenter"",""1"",""1513""
","
","
","""event"",""trial"",""time""
""fullscreenenter"",""1"",""1513""
","
","","","","","","null","<div style=""font-size:60px;"">+</div>","null","","fixation","","",""
"memory-trial","70","267890","0.0-18.0-1.12","4132","approach_avoid_sv1","""event"",""trial"",""time""
""fullscreenenter"",""1"",""1513""
","
","
","""event"",""trial"",""time""
""fullscreenenter"",""1"",""1513""
","
","","","","","","831.6999999284744","images/cactus1.png","","","memory_trial","1","definitely_old",""
"html-keyboard-response","71","268395","0.0-18.0-0.13","4132","approach_avoid_sv1","""event"",""trial"",""time""
""fullscreenenter"",""1"",""1513""
","
","
","""event"",""trial"",""time""
""fullscreenenter"",""1"",""1513""
","
","","","","","","null","<div style=""font-size:60px;"">+</div>","null","","fixation","","",""
"memory-trial","72","270904","0.0-18.0-1.13","4132","approach_avoid_sv1","""event"",""trial"",""time""
""fullscreenenter"",""1"",""1513""
","
","
","""event"",""trial"",""time""
""fullscreenenter"",""1"",""1513""
","
","","","","","","1503.1999999284744","images/banana8.png","","","memory_trial","4","definitely_new",""
"html-keyboard-response","73","271410","0.0-18.0-0.14","4132","approach_avoid_sv1","""event"",""trial"",""time""
""fullscreenenter"",""1"",""1513""
","
","
","""event"",""trial"",""time""
""fullscreenenter"",""1"",""1513""
","
","","","","","","null","<div style=""font-size:60px;"">+</div>","null","","fixation","","",""
"memory-trial","74","274060","0.0-18.0-1.14","4132","approach_avoid_sv1","""event"",""trial"",""time""
""fullscreenenter"",""1"",""1513""
","
","
","""event"",""trial"",""time""
""fullscreenenter"",""1"",""1513""
","
","","","","","","1647.7000000476837","images/goat1.png","","","memory_trial","1","definitely_old",""
"html-keyboard-response","75","274562","0.0-18.0-0.15","4132","approach_avoid_sv1","""event"",""trial"",""time""
""fullscreenenter"",""1"",""1513""
","
","
","""event"",""trial"",""time""
""fullscreenenter"",""1"",""1513""
","
","","","","","","null","<div style=""font-size:60px;"">+</div>","null","","fixation","","",""
"memory-trial","76","276631","0.0-18.0-1.15","4132","approach_avoid_sv1","""event"",""trial"",""time""
""fullscreenenter"",""1"",""1513""
","
","
","""event"",""trial"",""time""
""fullscreenenter"",""1"",""1513""
","
","","","","","","1062.7999999523163","images/apple4.png","","","memory_trial","1","definitely_old",""
"html-keyboard-response","77","277132","0.0-18.0-0.16","4132","approach_avoid_sv1","""event"",""trial"",""time""
""fullscreenenter"",""1"",""1513""
","
","
","""event"",""trial"",""time""
""fullscreenenter"",""1"",""1513""
","
","","","","","","null","<div style=""font-size:60px;"">+</div>","null","","fixation","","",""
"memory-trial","78","280887","0.0-18.0-1.16","4132","approach_avoid_sv1","""event"",""trial"",""time""
""fullscreenenter"",""1"",""1513""
","
","
","""event"",""trial"",""time""
""fullscreenenter"",""1"",""1513""
","
","","","","","","2748","images/boat5.png","","","memory_trial","2","maybe_old",""
"html-keyboard-response","79","281391","0.0-18.0-0.17","4132","approach_avoid_sv1","""event"",""trial"",""time""
""fullscreenenter"",""1"",""1513""
","
","
","""event"",""trial"",""time""
""fullscreenenter"",""1"",""1513""
","
","","","","","","null","<div style=""font-size:60px;"">+</div>","null","","fixation","","",""
"memory-trial","80","283351","0.0-18.0-1.17","4132","approach_avoid_sv1","""event"",""trial"",""time""
""fullscreenenter"",""1"",""1513""
","
","
","""event"",""trial"",""time""
""fullscreenenter"",""1"",""1513""
","
","","","","","","955","images/dog4.png","","","memory_trial","1","definitely_old",""
"html-keyboard-response","81","283852","0.0-18.0-0.18","4132","approach_avoid_sv1","""event"",""trial"",""time""
""fullscreenenter"",""1"",""1513""
","
","
","""event"",""trial"",""time""
""fullscreenenter"",""1"",""1513""
","
","","","","","","null","<div style=""font-size:60px;"">+</div>","null","","fixation","","",""
"memory-trial","82","285615","0.0-18.0-1.18","4132","approach_avoid_sv1","""event"",""trial"",""time""
""fullscreenenter"",""1"",""1513""
","
","
","""event"",""trial"",""time""
""fullscreenenter"",""1"",""1513""
","
","","","","","","756.0999999046326","images/boat1.png","","","memory_trial","1","definitely_old",""
"html-keyboard-response","83","286119","0.0-18.0-0.19","4132","approach_avoid_sv1","""event"",""trial"",""time""
""fullscreenenter"",""1"",""1513""
","
","
","""event"",""trial"",""time""
""fullscreenenter"",""1"",""1513""
","
","","","","","","null","<div style=""font-size:60px;"">+</div>","null","","fixation","","",""
"memory-trial","84","287988","0.0-18.0-1.19","4132","approach_avoid_sv1","""event"",""trial"",""time""
""fullscreenenter"",""1"",""1513""
","
","
","""event"",""trial"",""time""
""fullscreenenter"",""1"",""1513""
","
","","","","","","863.1000000238419","images/bush2.png","","","memory_trial","1","definitely_old",""
"html-keyboard-response","85","288492","0.0-18.0-0.20","4132","approach_avoid_sv1","""event"",""trial"",""time""
""fullscreenenter"",""1"",""1513""
","
","
","""event"",""trial"",""time""
""fullscreenenter"",""1"",""1513""
","
","","","","","","null","<div style=""font-size:60px;"">+</div>","null","","fixation","","",""
"memory-trial","86","290978","0.0-18.0-1.20","4132","approach_avoid_sv1","""event"",""trial"",""time""
""fullscreenenter"",""1"",""1513""
","
","
","""event"",""trial"",""time""
""fullscreenenter"",""1"",""1513""
","
","","","","","","1479.1000000238419","images/rodent8.png","","","memory_trial","4","definitely_new",""
"html-keyboard-response","87","291481","0.0-18.0-0.21","4132","approach_avoid_sv1","""event"",""trial"",""time""
""fullscreenenter"",""1"",""1513""
","
","
","""event"",""trial"",""time""
""fullscreenenter"",""1"",""1513""
","
","","","","","","null","<div style=""font-size:60px;"">+</div>","null","","fixation","","",""
"memory-trial","88","293634","0.0-18.0-1.21","4132","approach_avoid_sv1","""event"",""trial"",""time""
""fullscreenenter"",""1"",""1513""
","
","
","""event"",""trial"",""time""
""fullscreenenter"",""1"",""1513""
","
","","","","","","1148.7999999523163","images/chair6.png","","","memory_trial","1","definitely_old",""
"html-keyboard-response","89","294135","0.0-18.0-0.22","4132","approach_avoid_sv1","""event"",""trial"",""time""
""fullscreenenter"",""1"",""1513""
","
","
","""event"",""trial"",""time""
""fullscreenenter"",""1"",""1513""
","
","","","","","","null","<div style=""font-size:60px;"">+</div>","null","","fixation","","",""
"memory-trial","90","298081","0.0-18.0-1.22","4132","approach_avoid_sv1","""event"",""trial"",""time""
""fullscreenenter"",""1"",""1513""
","
","
","""event"",""trial"",""time""
""fullscreenenter"",""1"",""1513""
","
","","","","","","2942.2000000476837","images/cactus3.png","","","memory_trial","3","maybe_new",""
"html-keyboard-response","91","298583","0.0-18.0-0.23","4132","approach_avoid_sv1","""event"",""trial"",""time""
""fullscreenenter"",""1"",""1513""
","
","
","""event"",""trial"",""time""
""fullscreenenter"",""1"",""1513""
","
","","","","","","null","<div style=""font-size:60px;"">+</div>","null","","fixation","","",""
"memory-trial","92","300946","0.0-18.0-1.23","4132","approach_avoid_sv1","""event"",""trial"",""time""
""fullscreenenter"",""1"",""1513""
","
","
","""event"",""trial"",""time""
""fullscreenenter"",""1"",""1513""
","
","","","","","","1357.7000000476837","images/table3.png","","","memory_trial","4","definitely_new",""
"html-keyboard-response","93","301447","0.0-18.0-0.24","4132","approach_avoid_sv1","""event"",""trial"",""time""
""fullscreenenter"",""1"",""1513""
","
","
","""event"",""trial"",""time""
""fullscreenenter"",""1"",""1513""
","
","","","","","","null","<div style=""font-size:60px;"">+</div>","null","","fixation","","",""
"memory-trial","94","304903","0.0-18.0-1.24","4132","approach_avoid_sv1","""event"",""trial"",""time""
""fullscreenenter"",""1"",""1513""
","
","
","""event"",""trial"",""time""
""fullscreenenter"",""1"",""1513""
","
","","","","","","2453.600000023842","images/boat6.png","","","memory_trial","3","maybe_new",""
"html-keyboard-response","95","305405","0.0-18.0-0.25","4132","approach_avoid_sv1","""event"",""trial"",""time""
""fullscreenenter"",""1"",""1513""
","
","
","""event"",""trial"",""time""
""fullscreenenter"",""1"",""1513""
","
","","","","","","null","<div style=""font-size:60px;"">+</div>","null","","fixation","","",""
"memory-trial","96","307927","0.0-18.0-1.25","4132","approach_avoid_sv1","""event"",""trial"",""time""
""fullscreenenter"",""1"",""1513""
","
","
","""event"",""trial"",""time""
""fullscreenenter"",""1"",""1513""
","
","","","","","","1518","images/horse4.png","","","memory_trial","2","maybe_old",""
"html-keyboard-response","97","308429","0.0-18.0-0.26","4132","approach_avoid_sv1","""event"",""trial"",""time""
""fullscreenenter"",""1"",""1513""
","
","
","""event"",""trial"",""time""
""fullscreenenter"",""1"",""1513""
","
","","","","","","null","<div style=""font-size:60px;"">+</div>","null","","fixation","","",""
"memory-trial","98","311484","0.0-18.0-1.26","4132","approach_avoid_sv1","""event"",""trial"",""time""
""fullscreenenter"",""1"",""1513""
","
","
","""event"",""trial"",""time""
""fullscreenenter"",""1"",""1513""
","
","","","","","","2051.1999999284744","images/cat3.png","","","memory_trial","3","maybe_new",""
"html-keyboard-response","99","311986","0.0-18.0-0.27","4132","approach_avoid_sv1","""event"",""trial"",""time""
""fullscreenenter"",""1"",""1513""
","
","
","""event"",""trial"",""time""
""fullscreenenter"",""1"",""1513""
","
","","","","","","null","<div style=""font-size:60px;"">+</div>","null","","fixation","","",""
"memory-trial","100","313964","0.0-18.0-1.27","4132","approach_avoid_sv1","""event"",""trial"",""time""
""fullscreenenter"",""1"",""1513""
","
","
","""event"",""trial"",""time""
""fullscreenenter"",""1"",""1513""
","
","","","","","","974.6999999284744","images/chair1.png","","","memory_trial","1","definitely_old",""
"html-keyboard-response","101","314466","0.0-18.0-0.28","4132","approach_avoid_sv1","""event"",""trial"",""time""
""fullscreenenter"",""1"",""1513""
","
","
","""event"",""trial"",""time""
""fullscreenenter"",""1"",""1513""
","
","","","","","","null","<div style=""font-size:60px;"">+</div>","null","","fixation","","",""
"memory-trial","102","317447","0.0-18.0-1.28","4132","approach_avoid_sv1","""event"",""trial"",""time""
""fullscreenenter"",""1"",""1513""
","
","
","""event"",""trial"",""time""
""fullscreenenter"",""1"",""1513""
","
","","","","","","1973","images/apple2.png","","","memory_trial","3","maybe_new",""
"html-keyboard-response","103","317948","0.0-18.0-0.29","4132","approach_avoid_sv1","""event"",""trial"",""time""
""fullscreenenter"",""1"",""1513""
","
","
","""event"",""trial"",""time""
""fullscreenenter"",""1"",""1513""
","
","","","","","","null","<div style=""font-size:60px;"">+</div>","null","","fixation","","",""
"memory-trial","104","320498","0.0-18.0-1.29","4132","approach_avoid_sv1","""event"",""trial"",""time""
""fullscreenenter"",""1"",""1513""
","
","
","""event"",""trial"",""time""
""fullscreenenter"",""1"",""1513""
","
","","","","","","1542.1999999284744","images/flower2.png","","","memory_trial","3","maybe_new",""
"html-keyboard-response","105","320999","0.0-18.0-0.30","4132","approach_avoid_sv1","""event"",""trial"",""time""
""fullscreenenter"",""1"",""1513""
","
","
","""event"",""trial"",""time""
""fullscreenenter"",""1"",""1513""
","
","","","","","","null","<div style=""font-size:60px;"">+</div>","null","","fixation","","",""
"memory-trial","106","323837","0.0-18.0-1.30","4132","approach_avoid_sv1","""event"",""trial"",""time""
""fullscreenenter"",""1"",""1513""
","
","
","""event"",""trial"",""time""
""fullscreenenter"",""1"",""1513""
","
","","","","","","1832.5","images/flower1.png","","","memory_trial","2","maybe_old",""
"html-keyboard-response","107","324338","0.0-18.0-0.31","4132","approach_avoid_sv1","""event"",""trial"",""time""
""fullscreenenter"",""1"",""1513""
","
","
","""event"",""trial"",""time""
""fullscreenenter"",""1"",""1513""
","
","","","","","","null","<div style=""font-size:60px;"">+</div>","null","","fixation","","",""
"memory-trial","108","327479","0.0-18.0-1.31","4132","approach_avoid_sv1","""event"",""trial"",""time""
""fullscreenenter"",""1"",""1513""
","
","
","""event"",""trial"",""time""
""fullscreenenter"",""1"",""1513""
","
","","","","","","2138.100000023842","images/banana5.png","","","memory_trial","3","maybe_new",""
"html-keyboard-response","109","327982","0.0-18.0-0.32","4132","approach_avoid_sv1","""event"",""trial"",""time""
""fullscreenenter"",""1"",""1513""
","
","
","""event"",""trial"",""time""
""fullscreenenter"",""1"",""1513""
","
","","","","","","null","<div style=""font-size:60px;"">+</div>","null","","fixation","","",""
"memory-trial","110","330722","0.0-18.0-1.32","4132","approach_avoid_sv1","""event"",""trial"",""time""
""fullscreenenter"",""1"",""1513""
","
","
","""event"",""trial"",""time""
""fullscreenenter"",""1"",""1513""
","
","","","","","","1735.1999999284744","images/rabbit4.png","","","memory_trial","3","maybe_new",""
"html-keyboard-response","111","331223","0.0-18.0-0.33","4132","approach_avoid_sv1","""event"",""trial"",""time""
""fullscreenenter"",""1"",""1513""
","
","
","""event"",""trial"",""time""
""fullscreenenter"",""1"",""1513""
","
","","","","","","null","<div style=""font-size:60px;"">+</div>","null","","fixation","","",""
"memory-trial","112","333362","0.0-18.0-1.33","4132","approach_avoid_sv1","""event"",""trial"",""time""
""fullscreenenter"",""1"",""1513""
","
","
","""event"",""trial"",""time""
""fullscreenenter"",""1"",""1513""
","
","","","","","","1134.3999999761581","images/plane3.png","","","memory_trial","1","definitely_old",""
"html-keyboard-response","113","333863","0.0-18.0-0.34","4132","approach_avoid_sv1","""event"",""trial"",""time""
""fullscreenenter"",""1"",""1513""
","
","
","""event"",""trial"",""time""
""fullscreenenter"",""1"",""1513""
","
","","","","","","null","<div style=""font-size:60px;"">+</div>","null","","fixation","","",""
"memory-trial","114","335842","0.0-18.0-1.34","4132","approach_avoid_sv1","""event"",""trial"",""time""
""fullscreenenter"",""1"",""1513""
","
","
","""event"",""trial"",""time""
""fullscreenenter"",""1"",""1513""
","
","","","","","","971.7000000476837","images/cat4.png","","","memory_trial","1","definitely_old",""
"html-keyboard-response","115","336343","0.0-18.0-0.35","4132","approach_avoid_sv1","""event"",""trial"",""time""
""fullscreenenter"",""1"",""1513""
","
","
","""event"",""trial"",""time""
""fullscreenenter"",""1"",""1513""
","
","","","","","","null","<div style=""font-size:60px;"">+</div>","null","","fixation","","",""
"memory-trial","116","338012","0.0-18.0-1.35","4132","approach_avoid_sv1","""event"",""trial"",""time""
""fullscreenenter"",""1"",""1513""
","
","
","""event"",""trial"",""time""
""fullscreenenter"",""1"",""1513""
","
","","","","","","666.3999999761581","images/bush4.png","","","memory_trial","1","definitely_old",""
"html-keyboard-response","117","338514","0.0-18.0-0.36","4132","approach_avoid_sv1","""event"",""trial"",""time""
""fullscreenenter"",""1"",""1513""
","
","
","""event"",""trial"",""time""
""fullscreenenter"",""1"",""1513""
","
","","","","","","null","<div style=""font-size:60px;"">+</div>","null","","fixation","","",""
"memory-trial","118","340968","0.0-18.0-1.36","4132","approach_avoid_sv1","""event"",""trial"",""time""
""fullscreenenter"",""1"",""1513""
","
","
","""event"",""trial"",""time""
""fullscreenenter"",""1"",""1513""
","
","","","","","","1446.6000000238419","images/rodent4.png","","","memory_trial","4","definitely_new",""
"html-keyboard-response","119","341469","0.0-18.0-0.37","4132","approach_avoid_sv1","""event"",""trial"",""time""
""fullscreenenter"",""1"",""1513""
","
","
","""event"",""trial"",""time""
""fullscreenenter"",""1"",""1513""
","
","","","","","","null","<div style=""font-size:60px;"">+</div>","null","","fixation","","",""
"memory-trial","120","344178","0.0-18.0-1.37","4132","approach_avoid_sv1","""event"",""trial"",""time""
""fullscreenenter"",""1"",""1513""
","
","
","""event"",""trial"",""time""
""fullscreenenter"",""1"",""1513""
","
","","","","","","1706.8999999761581","images/cow3.png","","","memory_trial","1","definitely_old",""
"html-keyboard-response","121","344684","0.0-18.0-0.38","4132","approach_avoid_sv1","""event"",""trial"",""time""
""fullscreenenter"",""1"",""1513""
","
","
","""event"",""trial"",""time""
""fullscreenenter"",""1"",""1513""
","
","","","","","","null","<div style=""font-size:60px;"">+</div>","null","","fixation","","",""
"memory-trial","122","346712","0.0-18.0-1.38","4132","approach_avoid_sv1","""event"",""trial"",""time""
""fullscreenenter"",""1"",""1513""
","
","
","""event"",""trial"",""time""
""fullscreenenter"",""1"",""1513""
","
","","","","","","1024.2000000476837","images/sofa4.png","","","memory_trial","1","definitely_old",""
"html-keyboard-response","123","347213","0.0-18.0-0.39","4132","approach_avoid_sv1","""event"",""trial"",""time""
""fullscreenenter"",""1"",""1513""
","
","
","""event"",""trial"",""time""
""fullscreenenter"",""1"",""1513""
","
","","","","","","null","<div style=""font-size:60px;"">+</div>","null","","fixation","","",""
"memory-trial","124","350002","0.0-18.0-1.39","4132","approach_avoid_sv1","""event"",""trial"",""time""
""fullscreenenter"",""1"",""1513""
","
","
","""event"",""trial"",""time""
""fullscreenenter"",""1"",""1513""
","
","","","","","","1787.5","images/rodent1.png","","","memory_trial","4","definitely_new",""
"html-keyboard-response","125","350504","0.0-18.0-0.40","4132","approach_avoid_sv1","""event"",""trial"",""time""
""fullscreenenter"",""1"",""1513""
","
","
","""event"",""trial"",""time""
""fullscreenenter"",""1"",""1513""
","
","","","","","","null","<div style=""font-size:60px;"">+</div>","null","","fixation","","",""
"memory-trial","126","353122","0.0-18.0-1.40","4132","approach_avoid_sv1","""event"",""trial"",""time""
""fullscreenenter"",""1"",""1513""
","
","
","""event"",""trial"",""time""
""fullscreenenter"",""1"",""1513""
","
","","","","","","1615.1000000238419","images/cactus2.png","","","memory_trial","3","maybe_new",""
"html-keyboard-response","127","353624","0.0-18.0-0.41","4132","approach_avoid_sv1","""event"",""trial"",""time""
""fullscreenenter"",""1"",""1513""
","
","
","""event"",""trial"",""time""
""fullscreenenter"",""1"",""1513""
","
","","","","","","null","<div style=""font-size:60px;"">+</div>","null","","fixation","","",""
"memory-trial","128","356376","0.0-18.0-1.41","4132","approach_avoid_sv1","""event"",""trial"",""time""
""fullscreenenter"",""1"",""1513""
","
","
","""event"",""trial"",""time""
""fullscreenenter"",""1"",""1513""
","
","","","","","","1746","images/bush8.png","","","memory_trial","3","maybe_new",""
"html-button-response","129","358441","0.0-18.0-2.41-0.41","4132","approach_avoid_sv1","""event"",""trial"",""time""
""fullscreenenter"",""1"",""1513""
","
","
","""event"",""trial"",""time""
""fullscreenenter"",""1"",""1513""
","
","","","","","","2063.6999999284744","<p> Take a break! </p><p> Click the button to continue. </p>","0","","break","","",""
"html-keyboard-response","130","358942","0.0-18.0-0.42","4132","approach_avoid_sv1","""event"",""trial"",""time""
""fullscreenenter"",""1"",""1513""
","
","
","""event"",""trial"",""time""
""fullscreenenter"",""1"",""1513""
","
","","","","","","null","<div style=""font-size:60px;"">+</div>","null","","fixation","","",""
"memory-trial","131","361869","0.0-18.0-1.42","4132","approach_avoid_sv1","""event"",""trial"",""time""
""fullscreenenter"",""1"",""1513""
","
","
","""event"",""trial"",""time""
""fullscreenenter"",""1"",""1513""
","
","","","","","","1919.6999999284744","images/chair2.png","","","memory_trial","1","definitely_old",""
"html-keyboard-response","132","362370","0.0-18.0-0.43","4132","approach_avoid_sv1","""event"",""trial"",""time""
""fullscreenenter"",""1"",""1513""
","
","
","""event"",""trial"",""time""
""fullscreenenter"",""1"",""1513""
","
","","","","","","null","<div style=""font-size:60px;"">+</div>","null","","fixation","","",""
"memory-trial","133","365085","0.0-18.0-1.43","4132","approach_avoid_sv1","""event"",""trial"",""time""
""fullscreenenter"",""1"",""1513""
","
","
","""event"",""trial"",""time""
""fullscreenenter"",""1"",""1513""
","
","","","","","","1710.1000000238419","images/banana7.png","","","memory_trial","3","maybe_new",""
"html-keyboard-response","134","365586","0.0-18.0-0.44","4132","approach_avoid_sv1","""event"",""trial"",""time""
""fullscreenenter"",""1"",""1513""
","
","
","""event"",""trial"",""time""
""fullscreenenter"",""1"",""1513""
","
","","","","","","null","<div style=""font-size:60px;"">+</div>","null","","fixation","","",""
"memory-trial","135","367800","0.0-18.0-1.44","4132","approach_avoid_sv1","""event"",""trial"",""time""
""fullscreenenter"",""1"",""1513""
","
","
","""event"",""trial"",""time""
""fullscreenenter"",""1"",""1513""
","
","","","","","","1209.8000000715256","images/goat8.png","","","memory_trial","1","definitely_old",""
"html-keyboard-response","136","368301","0.0-18.0-0.45","4132","approach_avoid_sv1","""event"",""trial"",""time""
""fullscreenenter"",""1"",""1513""
","
","
","""event"",""trial"",""time""
""fullscreenenter"",""1"",""1513""
","
","","","","","","null","<div style=""font-size:60px;"">+</div>","null","","fixation","","",""
"memory-trial","137","370216","0.0-18.0-1.45","4132","approach_avoid_sv1","""event"",""trial"",""time""
""fullscreenenter"",""1"",""1513""
","
","
","""event"",""trial"",""time""
""fullscreenenter"",""1"",""1513""
","
","","","","","","910.1000000238419","images/rabbit5.png","","","memory_trial","1","definitely_old",""
"html-keyboard-response","138","370718","0.0-18.0-0.46","4132","approach_avoid_sv1","""event"",""trial"",""time""
""fullscreenenter"",""1"",""1513""
","
","
","""event"",""trial"",""time""
""fullscreenenter"",""1"",""1513""
","
","","","","","","null","<div style=""font-size:60px;"">+</div>","null","","fixation","","",""
"memory-trial","139","372984","0.0-18.0-1.46","4132","approach_avoid_sv1","""event"",""trial"",""time""
""fullscreenenter"",""1"",""1513""
","
","
","""event"",""trial"",""time""
""fullscreenenter"",""1"",""1513""
","
","","","","","","1258.1000000238419","images/rodent2.png","","","memory_trial","4","definitely_new",""
"html-keyboard-response","140","373485","0.0-18.0-0.47","4132","approach_avoid_sv1","""event"",""trial"",""time""
""fullscreenenter"",""1"",""1513""
","
","
","""event"",""trial"",""time""
""fullscreenenter"",""1"",""1513""
","
","","","","","","null","<div style=""font-size:60px;"">+</div>","null","","fixation","","",""
"memory-trial","141","375490","0.0-18.0-1.47","4132","approach_avoid_sv1","""event"",""trial"",""time""
""fullscreenenter"",""1"",""1513""
","
","
","""event"",""trial"",""time""
""fullscreenenter"",""1"",""1513""
","
","","","","","","1002.5","images/tree8.png","","","memory_trial","4","definitely_new",""
"html-keyboard-response","142","375992","0.0-18.0-0.48","4132","approach_avoid_sv1","""event"",""trial"",""time""
""fullscreenenter"",""1"",""1513""
","
","
","""event"",""trial"",""time""
""fullscreenenter"",""1"",""1513""
","
","","","","","","null","<div style=""font-size:60px;"">+</div>","null","","fixation","","",""
"memory-trial","143","378072","0.0-18.0-1.48","4132","approach_avoid_sv1","""event"",""trial"",""time""
""fullscreenenter"",""1"",""1513""
","
","
","""event"",""trial"",""time""
""fullscreenenter"",""1"",""1513""
","
","","","","","","1074.3999999761581","images/horse2.png","","","memory_trial","4","definitely_new",""
"html-keyboard-response","144","378573","0.0-18.0-0.49","4132","approach_avoid_sv1","""event"",""trial"",""time""
""fullscreenenter"",""1"",""1513""
","
","
","""event"",""trial"",""time""
""fullscreenenter"",""1"",""1513""
","
","","","","","","null","<div style=""font-size:60px;"">+</div>","null","","fixation","","",""
"memory-trial","145","380627","0.0-18.0-1.49","4132","approach_avoid_sv1","""event"",""trial"",""time""
""fullscreenenter"",""1"",""1513""
","
","
","""event"",""trial"",""time""
""fullscreenenter"",""1"",""1513""
","
","","","","","","1051.2000000476837","images/sofa6.png","","","memory_trial","1","definitely_old",""
"html-keyboard-response","146","381128","0.0-18.0-0.50","4132","approach_avoid_sv1","""event"",""trial"",""time""
""fullscreenenter"",""1"",""1513""
","
","
","""event"",""trial"",""time""
""fullscreenenter"",""1"",""1513""
","
","","","","","","null","<div style=""font-size:60px;"">+</div>","null","","fixation","","",""
"memory-trial","147","382941","0.0-18.0-1.50","4132","approach_avoid_sv1","""event"",""trial"",""time""
""fullscreenenter"",""1"",""1513""
","
","
","""event"",""trial"",""time""
""fullscreenenter"",""1"",""1513""
","
","","","","","","807.6000000238419","images/goat7.png","","","memory_trial","1","definitely_old",""
"html-keyboard-response","148","383447","0.0-18.0-0.51","4132","approach_avoid_sv1","""event"",""trial"",""time""
""fullscreenenter"",""1"",""1513""
","
","
","""event"",""trial"",""time""
""fullscreenenter"",""1"",""1513""
","
","","","","","","null","<div style=""font-size:60px;"">+</div>","null","","fixation","","",""
"memory-trial","149","385101","0.0-18.0-1.51","4132","approach_avoid_sv1","""event"",""trial"",""time""
""fullscreenenter"",""1"",""1513""
","
","
","""event"",""trial"",""time""
""fullscreenenter"",""1"",""1513""
","
","","","","","","648.2000000476837","images/straw5.png","","","memory_trial","1","definitely_old",""
"html-keyboard-response","150","385602","0.0-18.0-0.52","4132","approach_avoid_sv1","""event"",""trial"",""time""
""fullscreenenter"",""1"",""1513""
","
","
","""event"",""trial"",""time""
""fullscreenenter"",""1"",""1513""
","
","","","","","","null","<div style=""font-size:60px;"">+</div>","null","","fixation","","",""
"memory-trial","151","389101","0.0-18.0-1.52","4132","approach_avoid_sv1","""event"",""trial"",""time""
""fullscreenenter"",""1"",""1513""
","
","
","""event"",""trial"",""time""
""fullscreenenter"",""1"",""1513""
","
","","","","","","2494","images/flower5.png","","","memory_trial","3","maybe_new",""
"html-keyboard-response","152","389602","0.0-18.0-0.53","4132","approach_avoid_sv1","""event"",""trial"",""time""
""fullscreenenter"",""1"",""1513""
","
","
","""event"",""trial"",""time""
""fullscreenenter"",""1"",""1513""
","
","","","","","","null","<div style=""font-size:60px;"">+</div>","null","","fixation","","",""
"memory-trial","153","391640","0.0-18.0-1.53","4132","approach_avoid_sv1","""event"",""trial"",""time""
""fullscreenenter"",""1"",""1513""
","
","
","""event"",""trial"",""time""
""fullscreenenter"",""1"",""1513""
","
","","","","","","1032.6000000238419","images/bush3.png","","","memory_trial","3","maybe_new",""
"html-keyboard-response","154","392142","0.0-18.0-0.54","4132","approach_avoid_sv1","""event"",""trial"",""time""
""fullscreenenter"",""1"",""1513""
","
","
","""event"",""trial"",""time""
""fullscreenenter"",""1"",""1513""
","
","","","","","","null","<div style=""font-size:60px;"">+</div>","null","","fixation","","",""
"memory-trial","155","394509","0.0-18.0-1.54","4132","approach_avoid_sv1","""event"",""trial"",""time""
""fullscreenenter"",""1"",""1513""
","
","
","""event"",""trial"",""time""
""fullscreenenter"",""1"",""1513""
","
","","","","","","1360.9000000953674","images/boat7.png","","","memory_trial","3","maybe_new",""
"html-keyboard-response","156","395012","0.0-18.0-0.55","4132","approach_avoid_sv1","""event"",""trial"",""time""
""fullscreenenter"",""1"",""1513""
","
","
","""event"",""trial"",""time""
""fullscreenenter"",""1"",""1513""
","
","","","","","","null","<div style=""font-size:60px;"">+</div>","null","","fixation","","",""
"memory-trial","157","397448","0.0-18.0-1.55","4132","approach_avoid_sv1","""event"",""trial"",""time""
""fullscreenenter"",""1"",""1513""
","
","
","""event"",""trial"",""time""
""fullscreenenter"",""1"",""1513""
","
","","","","","","1429.2000000476837","images/table7.png","","","memory_trial","1","definitely_old",""
"html-keyboard-response","158","397949","0.0-18.0-0.56","4132","approach_avoid_sv1","""event"",""trial"",""time""
""fullscreenenter"",""1"",""1513""
","
","
","""event"",""trial"",""time""
""fullscreenenter"",""1"",""1513""
","
","","","","","","null","<div style=""font-size:60px;"">+</div>","null","","fixation","","",""
"memory-trial","159","399874","0.0-18.0-1.56","4132","approach_avoid_sv1","""event"",""trial"",""time""
""fullscreenenter"",""1"",""1513""
","
","
","""event"",""trial"",""time""
""fullscreenenter"",""1"",""1513""
","
","","","","","","918.1000000238419","images/orange2.png","","","memory_trial","1","definitely_old",""
"html-keyboard-response","160","400376","0.0-18.0-0.57","4132","approach_avoid_sv1","""event"",""trial"",""time""
""fullscreenenter"",""1"",""1513""
","
","
","""event"",""trial"",""time""
""fullscreenenter"",""1"",""1513""
","
","","","","","","null","<div style=""font-size:60px;"">+</div>","null","","fixation","","",""
"memory-trial","161","402418","0.0-18.0-1.57","4132","approach_avoid_sv1","""event"",""trial"",""time""
""fullscreenenter"",""1"",""1513""
","
","
","""event"",""trial"",""time""
""fullscreenenter"",""1"",""1513""
","
","","","","","","1036.1999999284744","images/goat5.png","","","memory_trial","1","definitely_old",""
"html-keyboard-response","162","402921","0.0-18.0-0.58","4132","approach_avoid_sv1","""event"",""trial"",""time""
""fullscreenenter"",""1"",""1513""
","
","
","""event"",""trial"",""time""
""fullscreenenter"",""1"",""1513""
","
","","","","","","null","<div style=""font-size:60px;"">+</div>","null","","fixation","","",""
"memory-trial","163","405395","0.0-18.0-1.58","4132","approach_avoid_sv1","""event"",""trial"",""time""
""fullscreenenter"",""1"",""1513""
","
","
","""event"",""trial"",""time""
""fullscreenenter"",""1"",""1513""
","
","","","","","","1466.7999999523163","images/truck5.png","","","memory_trial","4","definitely_new",""
"html-keyboard-response","164","405896","0.0-18.0-0.59","4132","approach_avoid_sv1","""event"",""trial"",""time""
""fullscreenenter"",""1"",""1513""
","
","
","""event"",""trial"",""time""
""fullscreenenter"",""1"",""1513""
","
","","","","","","null","<div style=""font-size:60px;"">+</div>","null","","fixation","","",""
"memory-trial","165","407768","0.0-18.0-1.59","4132","approach_avoid_sv1","""event"",""trial"",""time""
""fullscreenenter"",""1"",""1513""
","
","
","""event"",""trial"",""time""
""fullscreenenter"",""1"",""1513""
","
","","","","","","867.1000000238419","images/dog6.png","","","memory_trial","1","definitely_old",""
"html-keyboard-response","166","408269","0.0-18.0-0.60","4132","approach_avoid_sv1","""event"",""trial"",""time""
""fullscreenenter"",""1"",""1513""
","
","
","""event"",""trial"",""time""
""fullscreenenter"",""1"",""1513""
","
","","","","","","null","<div style=""font-size:60px;"">+</div>","null","","fixation","","",""
"memory-trial","167","410744","0.0-18.0-1.60","4132","approach_avoid_sv1","""event"",""trial"",""time""
""fullscreenenter"",""1"",""1513""
","
","
","""event"",""trial"",""time""
""fullscreenenter"",""1"",""1513""
","
","","","","","","1471.8999999761581","images/cactus5.png","","","memory_trial","3","maybe_new",""
"html-keyboard-response","168","411245","0.0-18.0-0.61","4132","approach_avoid_sv1","""event"",""trial"",""time""
""fullscreenenter"",""1"",""1513""
","
","
","""event"",""trial"",""time""
""fullscreenenter"",""1"",""1513""
","
","","","","","","null","<div style=""font-size:60px;"">+</div>","null","","fixation","","",""
"memory-trial","169","414632","0.0-18.0-1.61","4132","approach_avoid_sv1","""event"",""trial"",""time""
""fullscreenenter"",""1"",""1513""
","
","
","""event"",""trial"",""time""
""fullscreenenter"",""1"",""1513""
","
","","","","","","2381.100000023842","images/cow7.png","","","memory_trial","1","definitely_old",""
"html-keyboard-response","170","415133","0.0-18.0-0.62","4132","approach_avoid_sv1","""event"",""trial"",""time""
""fullscreenenter"",""1"",""1513""
","
","
","""event"",""trial"",""time""
""fullscreenenter"",""1"",""1513""
","
","","","","","","null","<div style=""font-size:60px;"">+</div>","null","","fixation","","",""
"memory-trial","171","416877","0.0-18.0-1.62","4132","approach_avoid_sv1","""event"",""trial"",""time""
""fullscreenenter"",""1"",""1513""
","
","
","""event"",""trial"",""time""
""fullscreenenter"",""1"",""1513""
","
","","","","","","740.5","images/train6.png","","","memory_trial","1","definitely_old",""
"html-keyboard-response","172","417379","0.0-18.0-0.63","4132","approach_avoid_sv1","""event"",""trial"",""time""
""fullscreenenter"",""1"",""1513""
","
","
","""event"",""trial"",""time""
""fullscreenenter"",""1"",""1513""
","
","","","","","","null","<div style=""font-size:60px;"">+</div>","null","","fixation","","",""
"memory-trial","173","419117","0.0-18.0-1.63","4132","approach_avoid_sv1","""event"",""trial"",""time""
""fullscreenenter"",""1"",""1513""
","
","
","""event"",""trial"",""time""
""fullscreenenter"",""1"",""1513""
","
","","","","","","734.2000000476837","images/plane8.png","","","memory_trial","1","definitely_old",""
"html-keyboard-response","174","419619","0.0-18.0-0.64","4132","approach_avoid_sv1","""event"",""trial"",""time""
""fullscreenenter"",""1"",""1513""
","
","
","""event"",""trial"",""time""
""fullscreenenter"",""1"",""1513""
","
","","","","","","null","<div style=""font-size:60px;"">+</div>","null","","fixation","","",""
"memory-trial","175","423544","0.0-18.0-1.64","4132","approach_avoid_sv1","""event"",""trial"",""time""
""fullscreenenter"",""1"",""1513""
","
","
","""event"",""trial"",""time""
""fullscreenenter"",""1"",""1513""
","
","","","","","","2922.8000000715256","images/cat1.png","","","memory_trial","4","definitely_new",""
"html-keyboard-response","176","424045","0.0-18.0-0.65","4132","approach_avoid_sv1","""event"",""trial"",""time""
""fullscreenenter"",""1"",""1513""
","
","
","""event"",""trial"",""time""
""fullscreenenter"",""1"",""1513""
","
","","","","","","null","<div style=""font-size:60px;"">+</div>","null","","fixation","","",""
"memory-trial","177","425855","0.0-18.0-1.65","4132","approach_avoid_sv1","""event"",""trial"",""time""
""fullscreenenter"",""1"",""1513""
","
","
","""event"",""trial"",""time""
""fullscreenenter"",""1"",""1513""
","
","","","","","","804","images/tree3.png","","","memory_trial","4","definitely_new",""
"html-keyboard-response","178","426360","0.0-18.0-0.66","4132","approach_avoid_sv1","""event"",""trial"",""time""
""fullscreenenter"",""1"",""1513""
","
","
","""event"",""trial"",""time""
""fullscreenenter"",""1"",""1513""
","
","","","","","","null","<div style=""font-size:60px;"">+</div>","null","","fixation","","",""
"memory-trial","179","428408","0.0-18.0-1.66","4132","approach_avoid_sv1","""event"",""trial"",""time""
""fullscreenenter"",""1"",""1513""
","
","
","""event"",""trial"",""time""
""fullscreenenter"",""1"",""1513""
","
","","","","","","1043.8999999761581","images/plane2.png","","","memory_trial","4","definitely_new",""
"html-keyboard-response","180","428909","0.0-18.0-0.67","4132","approach_avoid_sv1","""event"",""trial"",""time""
""fullscreenenter"",""1"",""1513""
","
","
","""event"",""trial"",""time""
""fullscreenenter"",""1"",""1513""
","
","","","","","","null","<div style=""font-size:60px;"">+</div>","null","","fixation","","",""
"memory-trial","181","430707","0.0-18.0-1.67","4132","approach_avoid_sv1","""event"",""trial"",""time""
""fullscreenenter"",""1"",""1513""
","
","
","""event"",""trial"",""time""
""fullscreenenter"",""1"",""1513""
","
","","","","","","792.5","images/tree2.png","","","memory_trial","4","definitely_new",""
"html-keyboard-response","182","431208","0.0-18.0-0.68","4132","approach_avoid_sv1","""event"",""trial"",""time""
""fullscreenenter"",""1"",""1513""
","
","
","""event"",""trial"",""time""
""fullscreenenter"",""1"",""1513""
","
","","","","","","null","<div style=""font-size:60px;"">+</div>","null","","fixation","","",""
"memory-trial","183","432990","0.0-18.0-1.68","4132","approach_avoid_sv1","""event"",""trial"",""time""
""fullscreenenter"",""1"",""1513""
","
","
","""event"",""trial"",""time""
""fullscreenenter"",""1"",""1513""
","
","","","","","","779","images/rodent7.png","","","memory_trial","4","definitely_new",""
"html-keyboard-response","184","433493","0.0-18.0-0.69","4132","approach_avoid_sv1","""event"",""trial"",""time""
""fullscreenenter"",""1"",""1513""
","
","
","""event"",""trial"",""time""
""fullscreenenter"",""1"",""1513""
","
","","","","","","null","<div style=""font-size:60px;"">+</div>","null","","fixation","","",""
"memory-trial","185","436184","0.0-18.0-1.69","4132","approach_avoid_sv1","""event"",""trial"",""time""
""fullscreenenter"",""1"",""1513""
","
","
","""event"",""trial"",""time""
""fullscreenenter"",""1"",""1513""
","
","","","","","","1687.8999999761581","images/table6.png","","","memory_trial","2","maybe_old",""
"html-keyboard-response","186","436686","0.0-18.0-0.70","4132","approach_avoid_sv1","""event"",""trial"",""time""
""fullscreenenter"",""1"",""1513""
","
","
","""event"",""trial"",""time""
""fullscreenenter"",""1"",""1513""
","
","","","","","","null","<div style=""font-size:60px;"">+</div>","null","","fixation","","",""
"memory-trial","187","439901","0.0-18.0-1.70","4132","approach_avoid_sv1","""event"",""trial"",""time""
""fullscreenenter"",""1"",""1513""
","
","
","""event"",""trial"",""time""
""fullscreenenter"",""1"",""1513""
","
","","","","","","2208.899999976158","images/train1.png","","","memory_trial","3","maybe_new",""
"html-keyboard-response","188","440402","0.0-18.0-0.71","4132","approach_avoid_sv1","""event"",""trial"",""time""
""fullscreenenter"",""1"",""1513""
","
","
","""event"",""trial"",""time""
""fullscreenenter"",""1"",""1513""
","
","","","","","","null","<div style=""font-size:60px;"">+</div>","null","","fixation","","",""
"memory-trial","189","442840","0.0-18.0-1.71","4132","approach_avoid_sv1","""event"",""trial"",""time""
""fullscreenenter"",""1"",""1513""
","
","
","""event"",""trial"",""time""
""fullscreenenter"",""1"",""1513""
","
","","","","","","1432.6000000238419","images/dog2.png","","","memory_trial","3","maybe_new",""
"html-keyboard-response","190","443342","0.0-18.0-0.72","4132","approach_avoid_sv1","""event"",""trial"",""time""
""fullscreenenter"",""1"",""1513""
","
","
","""event"",""trial"",""time""
""fullscreenenter"",""1"",""1513""
","
","","","","","","null","<div style=""font-size:60px;"">+</div>","null","","fixation","","",""
"memory-trial","191","446083","0.0-18.0-1.72","4132","approach_avoid_sv1","""event"",""trial"",""time""
""fullscreenenter"",""1"",""1513""
","
","
","""event"",""trial"",""time""
""fullscreenenter"",""1"",""1513""
","
","","","","","","1734.1000000238419","images/rodent6.png","","","memory_trial","3","maybe_new",""
"html-keyboard-response","192","446584","0.0-18.0-0.73","4132","approach_avoid_sv1","""event"",""trial"",""time""
""fullscreenenter"",""1"",""1513""
","
","
","""event"",""trial"",""time""
""fullscreenenter"",""1"",""1513""
","
","","","","","","null","<div style=""font-size:60px;"">+</div>","null","","fixation","","",""
"memory-trial","193","448646","0.0-18.0-1.73","4132","approach_avoid_sv1","""event"",""trial"",""time""
""fullscreenenter"",""1"",""1513""
","
","
","""event"",""trial"",""time""
""fullscreenenter"",""1"",""1513""
","
","","","","","","1055.3999999761581","images/dog5.png","","","memory_trial","1","definitely_old",""
"html-keyboard-response","194","449150","0.0-18.0-0.74","4132","approach_avoid_sv1","""event"",""trial"",""time""
""fullscreenenter"",""1"",""1513""
","
","
","""event"",""trial"",""time""
""fullscreenenter"",""1"",""1513""
","
","","","","","","null","<div style=""font-size:60px;"">+</div>","null","","fixation","","",""
"memory-trial","195","450808","0.0-18.0-1.74","4132","approach_avoid_sv1","""event"",""trial"",""time""
""fullscreenenter"",""1"",""1513""
","
","
","""event"",""trial"",""time""
""fullscreenenter"",""1"",""1513""
","
","","","","","","652.9000000953674","images/straw7.png","","","memory_trial","1","definitely_old",""
"html-keyboard-response","196","451314","0.0-18.0-0.75","4132","approach_avoid_sv1","""event"",""trial"",""time""
""fullscreenenter"",""1"",""1513""
","
","
","""event"",""trial"",""time""
""fullscreenenter"",""1"",""1513""
","
","","","","","","null","<div style=""font-size:60px;"">+</div>","null","","fixation","","",""
"memory-trial","197","453619","0.0-18.0-1.75","4132","approach_avoid_sv1","""event"",""trial"",""time""
""fullscreenenter"",""1"",""1513""
","
","
","""event"",""trial"",""time""
""fullscreenenter"",""1"",""1513""
","
","","","","","","1299.2000000476837","images/truck7.png","","","memory_trial","4","definitely_new",""
"html-keyboard-response","198","454120","0.0-18.0-0.76","4132","approach_avoid_sv1","""event"",""trial"",""time""
""fullscreenenter"",""1"",""1513""
","
","
","""event"",""trial"",""time""
""fullscreenenter"",""1"",""1513""
","
","","","","","","null","<div style=""font-size:60px;"">+</div>","null","","fixation","","",""
"memory-trial","199","456126","0.0-18.0-1.76","4132","approach_avoid_sv1","""event"",""trial"",""time""
""fullscreenenter"",""1"",""1513""
","
","
","""event"",""trial"",""time""
""fullscreenenter"",""1"",""1513""
","
","","","","","","999.6000000238419","images/goat2.png","","","memory_trial","1","definitely_old",""
"html-keyboard-response","200","456627","0.0-18.0-0.77","4132","approach_avoid_sv1","""event"",""trial"",""time""
""fullscreenenter"",""1"",""1513""
","
","
","""event"",""trial"",""time""
""fullscreenenter"",""1"",""1513""
","
","","","","","","null","<div style=""font-size:60px;"">+</div>","null","","fixation","","",""
"memory-trial","201","459768","0.0-18.0-1.77","4132","approach_avoid_sv1","""event"",""trial"",""time""
""fullscreenenter"",""1"",""1513""
","
","
","""event"",""trial"",""time""
""fullscreenenter"",""1"",""1513""
","
","","","","","","2138.5","images/sofa8.png","","","memory_trial","3","maybe_new",""
"html-keyboard-response","202","460270","0.0-18.0-0.78","4132","approach_avoid_sv1","""event"",""trial"",""time""
""fullscreenenter"",""1"",""1513""
","
","
","""event"",""trial"",""time""
""fullscreenenter"",""1"",""1513""
","
","","","","","","null","<div style=""font-size:60px;"">+</div>","null","","fixation","","",""
"memory-trial","203","463802","0.0-18.0-1.78","4132","approach_avoid_sv1","""event"",""trial"",""time""
""fullscreenenter"",""1"",""1513""
","
","
","""event"",""trial"",""time""
""fullscreenenter"",""1"",""1513""
","
","","","","","","2524.600000023842","images/straw8.png","","","memory_trial","3","maybe_new",""
"html-keyboard-response","204","464307","0.0-18.0-0.79","4132","approach_avoid_sv1","""event"",""trial"",""time""
""fullscreenenter"",""1"",""1513""
","
","
","""event"",""trial"",""time""
""fullscreenenter"",""1"",""1513""
","
","","","","","","null","<div style=""font-size:60px;"">+</div>","null","","fixation","","",""
"memory-trial","205","466877","0.0-18.0-1.79","4132","approach_avoid_sv1","""event"",""trial"",""time""
""fullscreenenter"",""1"",""1513""
","
","
","""event"",""trial"",""time""
""fullscreenenter"",""1"",""1513""
","
","","","","","","1566.7000000476837","images/cat2.png","","","memory_trial","1","definitely_old",""
"html-keyboard-response","206","467379","0.0-18.0-0.80","4132","approach_avoid_sv1","""event"",""trial"",""time""
""fullscreenenter"",""1"",""1513""
","
","
","""event"",""trial"",""time""
""fullscreenenter"",""1"",""1513""
","
","","","","","","null","<div style=""font-size:60px;"">+</div>","null","","fixation","","",""
"memory-trial","207","471470","0.0-18.0-1.80","4132","approach_avoid_sv1","""event"",""trial"",""time""
""fullscreenenter"",""1"",""1513""
","
","
","""event"",""trial"",""time""
""fullscreenenter"",""1"",""1513""
","
","","","","","","3088.8000000715256","images/straw4.png","","","memory_trial","2","maybe_old",""
"html-keyboard-response","208","471972","0.0-18.0-0.81","4132","approach_avoid_sv1","""event"",""trial"",""time""
""fullscreenenter"",""1"",""1513""
","
","
","""event"",""trial"",""time""
""fullscreenenter"",""1"",""1513""
","
","","","","","","null","<div style=""font-size:60px;"">+</div>","null","","fixation","","",""
"memory-trial","209","474003","0.0-18.0-1.81","4132","approach_avoid_sv1","""event"",""trial"",""time""
""fullscreenenter"",""1"",""1513""
","
","
","""event"",""trial"",""time""
""fullscreenenter"",""1"",""1513""
","
","","","","","","1023.8999999761581","images/flower3.png","","","memory_trial","1","definitely_old",""
"html-keyboard-response","210","474504","0.0-18.0-0.82","4132","approach_avoid_sv1","""event"",""trial"",""time""
""fullscreenenter"",""1"",""1513""
","
","
","""event"",""trial"",""time""
""fullscreenenter"",""1"",""1513""
","
","","","","","","null","<div style=""font-size:60px;"">+</div>","null","","fixation","","",""
"memory-trial","211","478370","0.0-18.0-1.82","4132","approach_avoid_sv1","""event"",""trial"",""time""
""fullscreenenter"",""1"",""1513""
","
","
","""event"",""trial"",""time""
""fullscreenenter"",""1"",""1513""
","
","","","","","","2859.4000000953674","images/tree6.png","","","memory_trial","3","maybe_new",""
"html-keyboard-response","212","478872","0.0-18.0-0.83","4132","approach_avoid_sv1","""event"",""trial"",""time""
""fullscreenenter"",""1"",""1513""
","
","
","""event"",""trial"",""time""
""fullscreenenter"",""1"",""1513""
","
","","","","","","null","<div style=""font-size:60px;"">+</div>","null","","fixation","","",""
"memory-trial","213","480862","0.0-18.0-1.83","4132","approach_avoid_sv1","""event"",""trial"",""time""
""fullscreenenter"",""1"",""1513""
","
","
","""event"",""trial"",""time""
""fullscreenenter"",""1"",""1513""
","
","","","","","","981.6000000238419","images/sheep2.png","","","memory_trial","3","maybe_new",""
"html-keyboard-response","214","481363","0.0-18.0-0.84","4132","approach_avoid_sv1","""event"",""trial"",""time""
""fullscreenenter"",""1"",""1513""
","
","
","""event"",""trial"",""time""
""fullscreenenter"",""1"",""1513""
","
","","","","","","null","<div style=""font-size:60px;"">+</div>","null","","fixation","","",""
"memory-trial","215","483219","0.0-18.0-1.84","4132","approach_avoid_sv1","""event"",""trial"",""time""
""fullscreenenter"",""1"",""1513""
","
","
","""event"",""trial"",""time""
""fullscreenenter"",""1"",""1513""
","
","","","","","","851.2999999523163","images/orange6.png","","","memory_trial","1","definitely_old",""
"html-keyboard-response","216","483722","0.0-18.0-0.85","4132","approach_avoid_sv1","""event"",""trial"",""time""
""fullscreenenter"",""1"",""1513""
","
","
","""event"",""trial"",""time""
""fullscreenenter"",""1"",""1513""
","
","","","","","","null","<div style=""font-size:60px;"">+</div>","null","","fixation","","",""
"memory-trial","217","485337","0.0-18.0-1.85","4132","approach_avoid_sv1","""event"",""trial"",""time""
""fullscreenenter"",""1"",""1513""
","
","
","""event"",""trial"",""time""
""fullscreenenter"",""1"",""1513""
","
","","","","","","610.6999999284744","images/orange3.png","","","memory_trial","1","definitely_old",""
"html-keyboard-response","218","485838","0.0-18.0-0.86","4132","approach_avoid_sv1","""event"",""trial"",""time""
""fullscreenenter"",""1"",""1513""
","
","
","""event"",""trial"",""time""
""fullscreenenter"",""1"",""1513""
","
","","","","","","null","<div style=""font-size:60px;"">+</div>","null","","fixation","","",""
"memory-trial","219","489123","0.0-18.0-1.86","4132","approach_avoid_sv1","""event"",""trial"",""time""
""fullscreenenter"",""1"",""1513""
","
","
","""event"",""trial"",""time""
""fullscreenenter"",""1"",""1513""
","
","","","","","","2281.100000023842","images/banana6.png","","","memory_trial","3","maybe_new",""
"html-keyboard-response","220","489624","0.0-18.0-0.87","4132","approach_avoid_sv1","""event"",""trial"",""time""
""fullscreenenter"",""1"",""1513""
","
","
","""event"",""trial"",""time""
""fullscreenenter"",""1"",""1513""
","
","","","","","","null","<div style=""font-size:60px;"">+</div>","null","","fixation","","",""
"memory-trial","221","492339","0.0-18.0-1.87","4132","approach_avoid_sv1","""event"",""trial"",""time""
""fullscreenenter"",""1"",""1513""
","
","
","""event"",""trial"",""time""
""fullscreenenter"",""1"",""1513""
","
","","","","","","1711","images/cow5.png","","","memory_trial","1","definitely_old",""
"html-keyboard-response","222","492842","0.0-18.0-0.88","4132","approach_avoid_sv1","""event"",""trial"",""time""
""fullscreenenter"",""1"",""1513""
","
","
","""event"",""trial"",""time""
""fullscreenenter"",""1"",""1513""
","
","","","","","","null","<div style=""font-size:60px;"">+</div>","null","","fixation","","",""
"memory-trial","223","494483","0.0-18.0-1.88","4132","approach_avoid_sv1","""event"",""trial"",""time""
""fullscreenenter"",""1"",""1513""
","
","
","""event"",""trial"",""time""
""fullscreenenter"",""1"",""1513""
","
","","","","","","637.3000000715256","images/sheep4.png","","","memory_trial","1","definitely_old",""
"html-keyboard-response","224","494984","0.0-18.0-0.89","4132","approach_avoid_sv1","""event"",""trial"",""time""
""fullscreenenter"",""1"",""1513""
","
","
","""event"",""trial"",""time""
""fullscreenenter"",""1"",""1513""
","
","","","","","","null","<div style=""font-size:60px;"">+</div>","null","","fixation","","",""
"memory-trial","225","497094","0.0-18.0-1.89","4132","approach_avoid_sv1","""event"",""trial"",""time""
""fullscreenenter"",""1"",""1513""
","
","
","""event"",""trial"",""time""
""fullscreenenter"",""1"",""1513""
","
","","","","","","1102.7000000476837","images/tree7.png","","","memory_trial","4","definitely_new",""
"html-keyboard-response","226","497598","0.0-18.0-0.90","4132","approach_avoid_sv1","""event"",""trial"",""time""
""fullscreenenter"",""1"",""1513""
","
","
","""event"",""trial"",""time""
""fullscreenenter"",""1"",""1513""
","
","","","","","","null","<div style=""font-size:60px;"">+</div>","null","","fixation","","",""
"memory-trial","227","501214","0.0-18.0-1.90","4132","approach_avoid_sv1","""event"",""trial"",""time""
""fullscreenenter"",""1"",""1513""
","
","
","""event"",""trial"",""time""
""fullscreenenter"",""1"",""1513""
","
","","","","","","2611.600000023842","images/cow8.png","","","memory_trial","3","maybe_new",""
"html-keyboard-response","228","501715","0.0-18.0-0.91","4132","approach_avoid_sv1","""event"",""trial"",""time""
""fullscreenenter"",""1"",""1513""
","
","
","""event"",""trial"",""time""
""fullscreenenter"",""1"",""1513""
","
","","","","","","null","<div style=""font-size:60px;"">+</div>","null","","fixation","","",""
"memory-trial","229","503774","0.0-18.0-1.91","4132","approach_avoid_sv1","""event"",""trial"",""time""
""fullscreenenter"",""1"",""1513""
","
","
","""event"",""trial"",""time""
""fullscreenenter"",""1"",""1513""
","
","","","","","","1053.3000000715256","images/sheep7.png","","","memory_trial","3","maybe_new",""
"html-button-response","230","508618","0.0-18.0-2.91-0.91","4132","approach_avoid_sv1","""event"",""trial"",""time""
""fullscreenenter"",""1"",""1513""
","
","
","""event"",""trial"",""time""
""fullscreenenter"",""1"",""1513""
","
","","","","","","4842.799999952316","<p> Take a break! </p><p> Click the button to continue. </p>","0","","break","","",""
"html-keyboard-response","231","509119","0.0-18.0-0.92","4132","approach_avoid_sv1","""event"",""trial"",""time""
""fullscreenenter"",""1"",""1513""
","
","
","""event"",""trial"",""time""
""fullscreenenter"",""1"",""1513""
","
","","","","","","null","<div style=""font-size:60px;"">+</div>","null","","fixation","","",""
"memory-trial","232","511726","0.0-18.0-1.92","4132","approach_avoid_sv1","""event"",""trial"",""time""
""fullscreenenter"",""1"",""1513""
","
","
","""event"",""trial"",""time""
""fullscreenenter"",""1"",""1513""
","
","","","","","","1601.0999999046326","images/table4.png","","","memory_trial","2","maybe_old",""
"html-keyboard-response","233","512227","0.0-18.0-0.93","4132","approach_avoid_sv1","""event"",""trial"",""time""
""fullscreenenter"",""1"",""1513""
","
","
","""event"",""trial"",""time""
""fullscreenenter"",""1"",""1513""
","
","","","","","","null","<div style=""font-size:60px;"">+</div>","null","","fixation","","",""
"memory-trial","234","514040","0.0-18.0-1.93","4132","approach_avoid_sv1","""event"",""trial"",""time""
""fullscreenenter"",""1"",""1513""
","
","
","""event"",""trial"",""time""
""fullscreenenter"",""1"",""1513""
","
","","","","","","808","images/bed2.png","","","memory_trial","1","definitely_old",""
"html-keyboard-response","235","514542","0.0-18.0-0.94","4132","approach_avoid_sv1","""event"",""trial"",""time""
""fullscreenenter"",""1"",""1513""
","
","
","""event"",""trial"",""time""
""fullscreenenter"",""1"",""1513""
","
","","","","","","null","<div style=""font-size:60px;"">+</div>","null","","fixation","","",""
"memory-trial","236","517664","0.0-18.0-1.94","4132","approach_avoid_sv1","""event"",""trial"",""time""
""fullscreenenter"",""1"",""1513""
","
","
","""event"",""trial"",""time""
""fullscreenenter"",""1"",""1513""
","
","","","","","","2117.399999976158","images/truck1.png","","","memory_trial","1","definitely_old",""
"html-keyboard-response","237","518170","0.0-18.0-0.95","4132","approach_avoid_sv1","""event"",""trial"",""time""
""fullscreenenter"",""1"",""1513""
","
","
","""event"",""trial"",""time""
""fullscreenenter"",""1"",""1513""
","
","","","","","","null","<div style=""font-size:60px;"">+</div>","null","","fixation","","",""
"memory-trial","238","520809","0.0-18.0-1.95","4132","approach_avoid_sv1","""event"",""trial"",""time""
""fullscreenenter"",""1"",""1513""
","
","
","""event"",""trial"",""time""
""fullscreenenter"",""1"",""1513""
","
","","","","","","1633.7000000476837","images/goat6.png","","","memory_trial","4","definitely_new",""
"html-keyboard-response","239","521310","0.0-18.0-0.96","4132","approach_avoid_sv1","""event"",""trial"",""time""
""fullscreenenter"",""1"",""1513""
","
","
","""event"",""trial"",""time""
""fullscreenenter"",""1"",""1513""
","
","","","","","","null","<div style=""font-size:60px;"">+</div>","null","","fixation","","",""
"memory-trial","240","523481","0.0-18.0-1.96","4132","approach_avoid_sv1","""event"",""trial"",""time""
""fullscreenenter"",""1"",""1513""
","
","
","""event"",""trial"",""time""
""fullscreenenter"",""1"",""1513""
","
","","","","","","1164.6000000238419","images/bed1.png","","","memory_trial","1","definitely_old",""
"html-keyboard-response","241","523982","0.0-18.0-0.97","4132","approach_avoid_sv1","""event"",""trial"",""time""
""fullscreenenter"",""1"",""1513""
","
","
","""event"",""trial"",""time""
""fullscreenenter"",""1"",""1513""
","
","","","","","","null","<div style=""font-size:60px;"">+</div>","null","","fixation","","",""
"memory-trial","242","525734","0.0-18.0-1.97","4132","approach_avoid_sv1","""event"",""trial"",""time""
""fullscreenenter"",""1"",""1513""
","
","
","""event"",""trial"",""time""
""fullscreenenter"",""1"",""1513""
","
","","","","","","746","images/sofa7.png","","","memory_trial","1","definitely_old",""
"html-keyboard-response","243","526238","0.0-18.0-0.98","4132","approach_avoid_sv1","""event"",""trial"",""time""
""fullscreenenter"",""1"",""1513""
","
","
","""event"",""trial"",""time""
""fullscreenenter"",""1"",""1513""
","
","","","","","","null","<div style=""font-size:60px;"">+</div>","null","","fixation","","",""
"memory-trial","244","528089","0.0-18.0-1.98","4132","approach_avoid_sv1","""event"",""trial"",""time""
""fullscreenenter"",""1"",""1513""
","
","
","""event"",""trial"",""time""
""fullscreenenter"",""1"",""1513""
","
","","","","","","846.8000000715256","images/boat4.png","","","memory_trial","1","definitely_old",""
"html-keyboard-response","245","528590","0.0-18.0-0.99","4132","approach_avoid_sv1","""event"",""trial"",""time""
""fullscreenenter"",""1"",""1513""
","
","
","""event"",""trial"",""time""
""fullscreenenter"",""1"",""1513""
","
","","","","","","null","<div style=""font-size:60px;"">+</div>","null","","fixation","","",""
"memory-trial","246","531715","0.0-18.0-1.99","4132","approach_avoid_sv1","""event"",""trial"",""time""
""fullscreenenter"",""1"",""1513""
","
","
","""event"",""trial"",""time""
""fullscreenenter"",""1"",""1513""
","
","","","","","","2119.0999999046326","images/cow6.png","","","memory_trial","4","definitely_new",""
"html-keyboard-response","247","532217","0.0-18.0-0.100","4132","approach_avoid_sv1","""event"",""trial"",""time""
""fullscreenenter"",""1"",""1513""
","
","
","""event"",""trial"",""time""
""fullscreenenter"",""1"",""1513""
","
","","","","","","null","<div style=""font-size:60px;"">+</div>","null","","fixation","","",""
"memory-trial","248","534067","0.0-18.0-1.100","4132","approach_avoid_sv1","""event"",""trial"",""time""
""fullscreenenter"",""1"",""1513""
","
","
","""event"",""trial"",""time""
""fullscreenenter"",""1"",""1513""
","
","","","","","","844.1999999284744","images/tree1.png","","","memory_trial","4","definitely_new",""
"html-keyboard-response","249","534569","0.0-18.0-0.101","4132","approach_avoid_sv1","""event"",""trial"",""time""
""fullscreenenter"",""1"",""1513""
","
","
","""event"",""trial"",""time""
""fullscreenenter"",""1"",""1513""
","
","","","","","","null","<div style=""font-size:60px;"">+</div>","null","","fixation","","",""
"memory-trial","250","536630","0.0-18.0-1.101","4132","approach_avoid_sv1","""event"",""trial"",""time""
""fullscreenenter"",""1"",""1513""
","
","
","""event"",""trial"",""time""
""fullscreenenter"",""1"",""1513""
","
","","","","","","1055.7999999523163","images/bush7.png","","","memory_trial","4","definitely_new",""
"html-keyboard-response","251","537134","0.0-18.0-0.102","4132","approach_avoid_sv1","""event"",""trial"",""time""
""fullscreenenter"",""1"",""1513""
","
","
","""event"",""trial"",""time""
""fullscreenenter"",""1"",""1513""
","
","","","","","","null","<div style=""font-size:60px;"">+</div>","null","","fixation","","",""
"memory-trial","252","539134","0.0-18.0-1.102","4132","approach_avoid_sv1","""event"",""trial"",""time""
""fullscreenenter"",""1"",""1513""
","
","
","""event"",""trial"",""time""
""fullscreenenter"",""1"",""1513""
","
","","","","","","997.7000000476837","images/truck6.png","","","memory_trial","4","definitely_new",""
"html-keyboard-response","253","539635","0.0-18.0-0.103","4132","approach_avoid_sv1","""event"",""trial"",""time""
""fullscreenenter"",""1"",""1513""
","
","
","""event"",""trial"",""time""
""fullscreenenter"",""1"",""1513""
","
","","","","","","null","<div style=""font-size:60px;"">+</div>","null","","fixation","","",""
"memory-trial","254","542723","0.0-18.0-1.103","4132","approach_avoid_sv1","""event"",""trial"",""time""
""fullscreenenter"",""1"",""1513""
","
","
","""event"",""trial"",""time""
""fullscreenenter"",""1"",""1513""
","
","","","","","","2084.899999976158","images/sofa3.png","","","memory_trial","2","maybe_old",""
"html-keyboard-response","255","543225","0.0-18.0-0.104","4132","approach_avoid_sv1","""event"",""trial"",""time""
""fullscreenenter"",""1"",""1513""
","
","
","""event"",""trial"",""time""
""fullscreenenter"",""1"",""1513""
","
","","","","","","null","<div style=""font-size:60px;"">+</div>","null","","fixation","","",""
"memory-trial","256","546067","0.0-18.0-1.104","4132","approach_avoid_sv1","""event"",""trial"",""time""
""fullscreenenter"",""1"",""1513""
","
","
","""event"",""trial"",""time""
""fullscreenenter"",""1"",""1513""
","
","","","","","","1837.6000000238419","images/plane4.png","","","memory_trial","1","definitely_old",""
"html-keyboard-response","257","546569","0.0-18.0-0.105","4132","approach_avoid_sv1","""event"",""trial"",""time""
""fullscreenenter"",""1"",""1513""
","
","
","""event"",""trial"",""time""
""fullscreenenter"",""1"",""1513""
","
","","","","","","null","<div style=""font-size:60px;"">+</div>","null","","fixation","","",""
"memory-trial","258","549497","0.0-18.0-1.105","4132","approach_avoid_sv1","""event"",""trial"",""time""
""fullscreenenter"",""1"",""1513""
","
","
","""event"",""trial"",""time""
""fullscreenenter"",""1"",""1513""
","
","","","","","","1921.1000000238419","images/goat3.png","","","memory_trial","3","maybe_new",""
"html-keyboard-response","259","549998","0.0-18.0-0.106","4132","approach_avoid_sv1","""event"",""trial"",""time""
""fullscreenenter"",""1"",""1513""
","
","
","""event"",""trial"",""time""
""fullscreenenter"",""1"",""1513""
","
","","","","","","null","<div style=""font-size:60px;"">+</div>","null","","fixation","","",""
"memory-trial","260","552137","0.0-18.0-1.106","4132","approach_avoid_sv1","""event"",""trial"",""time""
""fullscreenenter"",""1"",""1513""
","
","
","""event"",""trial"",""time""
""fullscreenenter"",""1"",""1513""
","
","","","","","","1133","images/cow4.png","","","memory_trial","3","maybe_new",""
"html-keyboard-response","261","552638","0.0-18.0-0.107","4132","approach_avoid_sv1","""event"",""trial"",""time""
""fullscreenenter"",""1"",""1513""
","
","
","""event"",""trial"",""time""
""fullscreenenter"",""1"",""1513""
","
","","","","","","null","<div style=""font-size:60px;"">+</div>","null","","fixation","","",""
"memory-trial","262","554825","0.0-18.0-1.107","4132","approach_avoid_sv1","""event"",""trial"",""time""
""fullscreenenter"",""1"",""1513""
","
","
","""event"",""trial"",""time""
""fullscreenenter"",""1"",""1513""
","
","","","","","","1183","images/banana3.png","","","memory_trial","1","definitely_old",""
"html-keyboard-response","263","555326","0.0-18.0-0.108","4132","approach_avoid_sv1","""event"",""trial"",""time""
""fullscreenenter"",""1"",""1513""
","
","
","""event"",""trial"",""time""
""fullscreenenter"",""1"",""1513""
","
","","","","","","null","<div style=""font-size:60px;"">+</div>","null","","fixation","","",""
"memory-trial","264","557225","0.0-18.0-1.108","4132","approach_avoid_sv1","""event"",""trial"",""time""
""fullscreenenter"",""1"",""1513""
","
","
","""event"",""trial"",""time""
""fullscreenenter"",""1"",""1513""
","
","","","","","","893.2999999523163","images/rabbit8.png","","","memory_trial","1","definitely_old",""
"html-keyboard-response","265","557726","0.0-18.0-0.109","4132","approach_avoid_sv1","""event"",""trial"",""time""
""fullscreenenter"",""1"",""1513""
","
","
","""event"",""trial"",""time""
""fullscreenenter"",""1"",""1513""
","
","","","","","","null","<div style=""font-size:60px;"">+</div>","null","","fixation","","",""
"memory-trial","266","559444","0.0-18.0-1.109","4132","approach_avoid_sv1","""event"",""trial"",""time""
""fullscreenenter"",""1"",""1513""
","
","
","""event"",""trial"",""time""
""fullscreenenter"",""1"",""1513""
","
","","","","","","715.3000000715256","images/flower4.png","","","memory_trial","1","definitely_old",""
"html-keyboard-response","267","559948","0.0-18.0-0.110","4132","approach_avoid_sv1","""event"",""trial"",""time""
""fullscreenenter"",""1"",""1513""
","
","
","""event"",""trial"",""time""
""fullscreenenter"",""1"",""1513""
","
","","","","","","null","<div style=""font-size:60px;"">+</div>","null","","fixation","","",""
"memory-trial","268","563043","0.0-18.0-1.110","4132","approach_avoid_sv1","""event"",""trial"",""time""
""fullscreenenter"",""1"",""1513""
","
","
","""event"",""trial"",""time""
""fullscreenenter"",""1"",""1513""
","
","","","","","","2091.600000023842","images/chair7.png","","","memory_trial","4","definitely_new",""
"html-keyboard-response","269","563545","0.0-18.0-0.111","4132","approach_avoid_sv1","""event"",""trial"",""time""
""fullscreenenter"",""1"",""1513""
","
","
","""event"",""trial"",""time""
""fullscreenenter"",""1"",""1513""
","
","","","","","","null","<div style=""font-size:60px;"">+</div>","null","","fixation","","",""
"memory-trial","270","566052","0.0-18.0-1.111","4132","approach_avoid_sv1","""event"",""trial"",""time""
""fullscreenenter"",""1"",""1513""
","
","
","""event"",""trial"",""time""
""fullscreenenter"",""1"",""1513""
","
","","","","","","1502.6000000238419","images/rabbit2.png","","","memory_trial","1","definitely_old",""
"html-keyboard-response","271","566553","0.0-18.0-0.112","4132","approach_avoid_sv1","""event"",""trial"",""time""
""fullscreenenter"",""1"",""1513""
","
","
","""event"",""trial"",""time""
""fullscreenenter"",""1"",""1513""
","
","","","","","","null","<div style=""font-size:60px;"">+</div>","null","","fixation","","",""
"memory-trial","272","569390","0.0-18.0-1.112","4132","approach_avoid_sv1","""event"",""trial"",""time""
""fullscreenenter"",""1"",""1513""
","
","
","""event"",""trial"",""time""
""fullscreenenter"",""1"",""1513""
","
","","","","","","1833.7000000476837","images/goat4.png","","","memory_trial","3","maybe_new",""
"html-keyboard-response","273","569892","0.0-18.0-0.113","4132","approach_avoid_sv1","""event"",""trial"",""time""
""fullscreenenter"",""1"",""1513""
","
","
","""event"",""trial"",""time""
""fullscreenenter"",""1"",""1513""
","
","","","","","","null","<div style=""font-size:60px;"">+</div>","null","","fixation","","",""
"memory-trial","274","571774","0.0-18.0-1.113","4132","approach_avoid_sv1","""event"",""trial"",""time""
""fullscreenenter"",""1"",""1513""
","
","
","""event"",""trial"",""time""
""fullscreenenter"",""1"",""1513""
","
","","","","","","875.6000000238419","images/sheep3.png","","","memory_trial","3","maybe_new",""
"html-keyboard-response","275","572276","0.0-18.0-0.114","4132","approach_avoid_sv1","""event"",""trial"",""time""
""fullscreenenter"",""1"",""1513""
","
","
","""event"",""trial"",""time""
""fullscreenenter"",""1"",""1513""
","
","","","","","","null","<div style=""font-size:60px;"">+</div>","null","","fixation","","",""
"memory-trial","276","574244","0.0-18.0-1.114","4132","approach_avoid_sv1","""event"",""trial"",""time""
""fullscreenenter"",""1"",""1513""
","
","
","""event"",""trial"",""time""
""fullscreenenter"",""1"",""1513""
","
","","","","","","961.6999999284744","images/sofa5.png","","","memory_trial","1","definitely_old",""
"html-keyboard-response","277","574745","0.0-18.0-0.115","4132","approach_avoid_sv1","""event"",""trial"",""time""
""fullscreenenter"",""1"",""1513""
","
","
","""event"",""trial"",""time""
""fullscreenenter"",""1"",""1513""
","
","","","","","","null","<div style=""font-size:60px;"">+</div>","null","","fixation","","",""
"memory-trial","278","576585","0.0-18.0-1.115","4132","approach_avoid_sv1","""event"",""trial"",""time""
""fullscreenenter"",""1"",""1513""
","
","
","""event"",""trial"",""time""
""fullscreenenter"",""1"",""1513""
","
","","","","","","836.6000000238419","images/cat6.png","","","memory_trial","1","definitely_old",""
"html-keyboard-response","279","577092","0.0-18.0-0.116","4132","approach_avoid_sv1","""event"",""trial"",""time""
""fullscreenenter"",""1"",""1513""
","
","
","""event"",""trial"",""time""
""fullscreenenter"",""1"",""1513""
","
","","","","","","null","<div style=""font-size:60px;"">+</div>","null","","fixation","","",""
"memory-trial","280","578686","0.0-18.0-1.116","4132","approach_avoid_sv1","""event"",""trial"",""time""
""fullscreenenter"",""1"",""1513""
","
","
","""event"",""trial"",""time""
""fullscreenenter"",""1"",""1513""
","
","","","","","","589.7999999523163","images/orange8.png","","","memory_trial","1","definitely_old",""
"html-keyboard-response","281","579189","0.0-18.0-0.117","4132","approach_avoid_sv1","""event"",""trial"",""time""
""fullscreenenter"",""1"",""1513""
","
","
","""event"",""trial"",""time""
""fullscreenenter"",""1"",""1513""
","
","","","","","","null","<div style=""font-size:60px;"">+</div>","null","","fixation","","",""
"memory-trial","282","581550","0.0-18.0-1.117","4132","approach_avoid_sv1","""event"",""trial"",""time""
""fullscreenenter"",""1"",""1513""
","
","
","""event"",""trial"",""time""
""fullscreenenter"",""1"",""1513""
","
","","","","","","1358.3000000715256","images/plane7.png","","","memory_trial","1","definitely_old",""
"html-keyboard-response","283","582054","0.0-18.0-0.118","4132","approach_avoid_sv1","""event"",""trial"",""time""
""fullscreenenter"",""1"",""1513""
","
","
","""event"",""trial"",""time""
""fullscreenenter"",""1"",""1513""
","
","","","","","","null","<div style=""font-size:60px;"">+</div>","null","","fixation","","",""
"memory-trial","284","584185","0.0-18.0-1.118","4132","approach_avoid_sv1","""event"",""trial"",""time""
""fullscreenenter"",""1"",""1513""
","
","
","""event"",""trial"",""time""
""fullscreenenter"",""1"",""1513""
","
","","","","","","1126.2999999523163","images/truck3.png","","","memory_trial","4","definitely_new",""
"html-keyboard-response","285","584686","0.0-18.0-0.119","4132","approach_avoid_sv1","""event"",""trial"",""time""
""fullscreenenter"",""1"",""1513""
","
","
","""event"",""trial"",""time""
""fullscreenenter"",""1"",""1513""
","
","","","","","","null","<div style=""font-size:60px;"">+</div>","null","","fixation","","",""
"memory-trial","286","587860","0.0-18.0-1.119","4132","approach_avoid_sv1","""event"",""trial"",""time""
""fullscreenenter"",""1"",""1513""
","
","
","""event"",""trial"",""time""
""fullscreenenter"",""1"",""1513""
","
","","","","","","2171.3000000715256","images/straw3.png","","","memory_trial","3","maybe_new",""
"html-keyboard-response","287","588362","0.0-18.0-0.120","4132","approach_avoid_sv1","""event"",""trial"",""time""
""fullscreenenter"",""1"",""1513""
","
","
","""event"",""trial"",""time""
""fullscreenenter"",""1"",""1513""
","
","","","","","","null","<div style=""font-size:60px;"">+</div>","null","","fixation","","",""
"memory-trial","288","590627","0.0-18.0-1.120","4132","approach_avoid_sv1","""event"",""trial"",""time""
""fullscreenenter"",""1"",""1513""
","
","
","""event"",""trial"",""time""
""fullscreenenter"",""1"",""1513""
","
","","","","","","1260.5999999046326","images/cactus6.png","","","memory_trial","3","maybe_new",""
"html-keyboard-response","289","591129","0.0-18.0-0.121","4132","approach_avoid_sv1","""event"",""trial"",""time""
""fullscreenenter"",""1"",""1513""
","
","
","""event"",""trial"",""time""
""fullscreenenter"",""1"",""1513""
","
","","","","","","null","<div style=""font-size:60px;"">+</div>","null","","fixation","","",""
"memory-trial","290","593475","0.0-18.0-1.121","4132","approach_avoid_sv1","""event"",""trial"",""time""
""fullscreenenter"",""1"",""1513""
","
","
","""event"",""trial"",""time""
""fullscreenenter"",""1"",""1513""
","
","","","","","","1343","images/train2.png","","","memory_trial","1","definitely_old",""
"html-keyboard-response","291","593977","0.0-18.0-0.122","4132","approach_avoid_sv1","""event"",""trial"",""time""
""fullscreenenter"",""1"",""1513""
","
","
","""event"",""trial"",""time""
""fullscreenenter"",""1"",""1513""
","
","","","","","","null","<div style=""font-size:60px;"">+</div>","null","","fixation","","",""
"memory-trial","292","596900","0.0-18.0-1.122","4132","approach_avoid_sv1","""event"",""trial"",""time""
""fullscreenenter"",""1"",""1513""
","
","
","""event"",""trial"",""time""
""fullscreenenter"",""1"",""1513""
","
","","","","","","1915.0999999046326","images/table2.png","","","memory_trial","2","maybe_old",""
"html-keyboard-response","293","597401","0.0-18.0-0.123","4132","approach_avoid_sv1","""event"",""trial"",""time""
""fullscreenenter"",""1"",""1513""
","
","
","""event"",""trial"",""time""
""fullscreenenter"",""1"",""1513""
","
","","","","","","null","<div style=""font-size:60px;"">+</div>","null","","fixation","","",""
"memory-trial","294","599118","0.0-18.0-1.123","4132","approach_avoid_sv1","""event"",""trial"",""time""
""fullscreenenter"",""1"",""1513""
","
","
","""event"",""trial"",""time""
""fullscreenenter"",""1"",""1513""
","
","","","","","","713.1999999284744","images/orange4.png","","","memory_trial","1","definitely_old",""
"html-keyboard-response","295","599620","0.0-18.0-0.124","4132","approach_avoid_sv1","""event"",""trial"",""time""
""fullscreenenter"",""1"",""1513""
","
","
","""event"",""trial"",""time""
""fullscreenenter"",""1"",""1513""
","
","","","","","","null","<div style=""font-size:60px;"">+</div>","null","","fixation","","",""
"memory-trial","296","602873","0.0-18.0-1.124","4132","approach_avoid_sv1","""event"",""trial"",""time""
""fullscreenenter"",""1"",""1513""
","
","
","""event"",""trial"",""time""
""fullscreenenter"",""1"",""1513""
","
","","","","","","2247.6999999284744","images/dog3.png","","","memory_trial","3","maybe_new",""
