"trial_type","trial_index","time_elapsed","internal_node_id","subject_id","task_version","interactions","blur_events","focus_events","fullscreenenter_events","fullscreenexit_events","success","timeout","failed_images","failed_audio","failed_video","rt","stimulus","response","button_pressed","task_part","key_press","answer","correct"
"pavlovia","0","27","0.0-0.0","4531","approach_avoid_sv1","""event"",""trial"",""time""
""blur"",""1"",""7740""
""focus"",""1"",""56635""
""fullscreenenter"",""1"",""56780""
","""event"",""trial"",""time""
""blur"",""1"",""7740""
","""event"",""trial"",""time""
""focus"",""1"",""56635""
","""event"",""trial"",""time""
""fullscreenenter"",""1"",""56780""
","
","","","","","","","","","","","","",""
"fullscreen","1","57668","0.0-1.0","4531","approach_avoid_sv1","""event"",""trial"",""time""
""blur"",""1"",""7740""
""focus"",""1"",""56635""
""fullscreenenter"",""1"",""56780""
","""event"",""trial"",""time""
""blur"",""1"",""7740""
","""event"",""trial"",""time""
""focus"",""1"",""56635""
","""event"",""trial"",""time""
""fullscreenenter"",""1"",""56780""
","
","true","","","","","","","","","","","",""
"preload","2","62384","0.0-2.0","4531","approach_avoid_sv1","""event"",""trial"",""time""
""blur"",""1"",""7740""
""focus"",""1"",""56635""
""fullscreenenter"",""1"",""56780""
","""event"",""trial"",""time""
""blur"",""1"",""7740""
","""event"",""trial"",""time""
""focus"",""1"",""56635""
","""event"",""trial"",""time""
""fullscreenenter"",""1"",""56780""
","
","true","false","[]","[]","[]","","","","","","","",""
"preload","3","66423","0.0-3.0","4531","approach_avoid_sv1","""event"",""trial"",""time""
""blur"",""1"",""7740""
""focus"",""1"",""56635""
""fullscreenenter"",""1"",""56780""
","""event"",""trial"",""time""
""blur"",""1"",""7740""
","""event"",""trial"",""time""
""focus"",""1"",""56635""
","""event"",""trial"",""time""
""fullscreenenter"",""1"",""56780""
","
","true","false","[]","[]","[]","","","","","","","",""
"preload","4","66943","0.0-4.0","4531","approach_avoid_sv1","""event"",""trial"",""time""
""blur"",""1"",""7740""
""focus"",""1"",""56635""
""fullscreenenter"",""1"",""56780""
","""event"",""trial"",""time""
""blur"",""1"",""7740""
","""event"",""trial"",""time""
""focus"",""1"",""56635""
","""event"",""trial"",""time""
""fullscreenenter"",""1"",""56780""
","
","true","false","[]","[]","[]","","","","","","","",""
"audio-keyboard-response","5","70585","0.0-5.0","4531","approach_avoid_sv1","""event"",""trial"",""time""
""blur"",""1"",""7740""
""focus"",""1"",""56635""
""fullscreenenter"",""1"",""56780""
","""event"",""trial"",""time""
""blur"",""1"",""7740""
","""event"",""trial"",""time""
""focus"",""1"",""56635""
","""event"",""trial"",""time""
""fullscreenenter"",""1"",""56780""
","
","","","","","","3239.999999999995","audio/beep_loop.wav"," ","","","","",""
"audio-button-response","6","72425","0.0-6.0","4531","approach_avoid_sv1","""event"",""trial"",""time""
""blur"",""1"",""7740""
""focus"",""1"",""56635""
""fullscreenenter"",""1"",""56780""
","""event"",""trial"",""time""
""blur"",""1"",""7740""
","""event"",""trial"",""time""
""focus"",""1"",""56635""
","""event"",""trial"",""time""
""fullscreenenter"",""1"",""56780""
","
","","","","","","1832","audio/turtle.wav","3","","","","",""
"audio-button-response","7","75864","0.0-7.0","4531","approach_avoid_sv1","""event"",""trial"",""time""
""blur"",""1"",""7740""
""focus"",""1"",""56635""
""fullscreenenter"",""1"",""56780""
","""event"",""trial"",""time""
""blur"",""1"",""7740""
","""event"",""trial"",""time""
""focus"",""1"",""56635""
","""event"",""trial"",""time""
""fullscreenenter"",""1"",""56780""
","
","","","","","","2411","audio/shark.wav","2","","","","",""
"preload","8","80584","0.0-8.0","4531","approach_avoid_sv1","""event"",""trial"",""time""
""blur"",""1"",""7740""
""focus"",""1"",""56635""
""fullscreenenter"",""1"",""56780""
","""event"",""trial"",""time""
""blur"",""1"",""7740""
","""event"",""trial"",""time""
""focus"",""1"",""56635""
","""event"",""trial"",""time""
""fullscreenenter"",""1"",""56780""
","
","true","false","[]","[]","[]","","","","","","","",""
"learning-instructions","9","87066","0.0-9.0-0.0","4531","approach_avoid_sv1","""event"",""trial"",""time""
""blur"",""1"",""7740""
""focus"",""1"",""56635""
""fullscreenenter"",""1"",""56780""
","""event"",""trial"",""time""
""blur"",""1"",""7740""
","""event"",""trial"",""time""
""focus"",""1"",""56635""
","""event"",""trial"",""time""
""fullscreenenter"",""1"",""56780""
","
","","","","","","2001.7999999821186","<p> Welcome back! </p><p> Last week, you had to make choices about lots of different items.  </p>","","0","instructions","","",""
"learning-instructions","10","91696","0.0-9.0-0.1","4531","approach_avoid_sv1","""event"",""trial"",""time""
""blur"",""1"",""7740""
""focus"",""1"",""56635""
""fullscreenenter"",""1"",""56780""
","""event"",""trial"",""time""
""blur"",""1"",""7740""
","""event"",""trial"",""time""
""focus"",""1"",""56635""
","""event"",""trial"",""time""
""fullscreenenter"",""1"",""56780""
","
","","","","","","492.2999999821186","<p> Today, we are going to ask you to try to remember all the items. </p>","","0","instructions","","",""
"learning-instructions","11","106692","0.0-9.0-0.2","4531","approach_avoid_sv1","""event"",""trial"",""time""
""blur"",""1"",""7740""
""focus"",""1"",""56635""
""fullscreenenter"",""1"",""56780""
","""event"",""trial"",""time""
""blur"",""1"",""7740""
","""event"",""trial"",""time""
""focus"",""1"",""56635""
","""event"",""trial"",""time""
""fullscreenenter"",""1"",""56780""
","
","","","","","","4848.700000017881","<p> On every trial, you will see an image. </p><p> The image may be an OLD image you saw during the games last week or it may be a NEW image that was not presented. </p>","","0","instructions","","",""
"learning-instructions","12","117070","0.0-9.0-0.3","4531","approach_avoid_sv1","""event"",""trial"",""time""
""blur"",""1"",""7740""
""focus"",""1"",""56635""
""fullscreenenter"",""1"",""56780""
","""event"",""trial"",""time""
""blur"",""1"",""7740""
","""event"",""trial"",""time""
""focus"",""1"",""56635""
","""event"",""trial"",""time""
""fullscreenenter"",""1"",""56780""
","
","","","","","","1862.5","<p> You need to select whether the image is:  </p><p>  'Definitely old', 'Maybe old', 'Maybe new', or 'Definitely new.'  </p><div class=""mem-choice-instructions-grid""><div class=""choice-option"" id=""choice-option-1"" ><img src=""images/definitely_old_1.png"" id=""choice-option-img-1"" class=""choice-option-img"" stage=""1""></div><div class=""choice-option"" id=""choice-option-2"" ><img src=""images/maybe_old_1.png"" id=""choice-option-img-2"" class=""choice-option-img"" stage=""1""></div><div class=""choice-option"" id=""choice-option-3"" ><img src=""images/maybe_new_1.png"" id=""choice-option-img-3"" class=""choice-option-img"" stage=""1""></div><div class=""choice-option"" id=""choice-option-4"" > <img src=""images/definitely_new_1.png"" id=""choice-option-img-4"" class=""choice-option-img"" stage=""1""></div></div>","","0","instructions","","",""
"learning-instructions","13","124827","0.0-9.0-0.4","4531","approach_avoid_sv1","""event"",""trial"",""time""
""blur"",""1"",""7740""
""focus"",""1"",""56635""
""fullscreenenter"",""1"",""56780""
","""event"",""trial"",""time""
""blur"",""1"",""7740""
","""event"",""trial"",""time""
""focus"",""1"",""56635""
","""event"",""trial"",""time""
""fullscreenenter"",""1"",""56780""
","
","","","","","","1219","<p> You should use the 1, 2, 3, and 4 keys to make your responses.  </p><div class=""mem-choice-instructions-grid""><div class=""choice-option"" id=""choice-option-1"" ><img src=""images/definitely_old.png"" id=""choice-option-img-1"" class=""choice-option-img"" stage=""1""></div><div class=""choice-option"" id=""choice-option-2"" ><img src=""images/maybe_old.png"" id=""choice-option-img-2"" class=""choice-option-img"" stage=""1""></div><div class=""choice-option"" id=""choice-option-3"" ><img src=""images/maybe_new.png"" id=""choice-option-img-3"" class=""choice-option-img"" stage=""1""></div><div class=""choice-option"" id=""choice-option-4"" > <img src=""images/definitely_new.png"" id=""choice-option-img-4"" class=""choice-option-img"" stage=""1""></div></div>","","0","instructions","","",""
"learning-instructions","14","133278","0.0-9.0-0.5","4531","approach_avoid_sv1","""event"",""trial"",""time""
""blur"",""1"",""7740""
""focus"",""1"",""56635""
""fullscreenenter"",""1"",""56780""
","""event"",""trial"",""time""
""blur"",""1"",""7740""
","""event"",""trial"",""time""
""focus"",""1"",""56635""
","""event"",""trial"",""time""
""fullscreenenter"",""1"",""56780""
","
","","","","","","2103.5","<p> You will have 10 seconds to make each response.  </p><p>  Make sure to respond before time runs out! </p>","","0","instructions","","",""
"learning-instructions","15","143244","0.0-9.0-0.6","4531","approach_avoid_sv1","""event"",""trial"",""time""
""blur"",""1"",""7740""
""focus"",""1"",""56635""
""fullscreenenter"",""1"",""56780""
","""event"",""trial"",""time""
""blur"",""1"",""7740""
","""event"",""trial"",""time""
""focus"",""1"",""56635""
","""event"",""trial"",""time""
""fullscreenenter"",""1"",""56780""
","
","","","","","","2877.300000011921","<p> Today, you will see each image ONCE only.  </p><p>  That means none of the images will repeat. </p>","","0","instructions","","",""
"learning-instructions","16","180227","0.0-9.0-0.7","4531","approach_avoid_sv1","""event"",""trial"",""time""
""blur"",""1"",""7740""
""focus"",""1"",""56635""
""fullscreenenter"",""1"",""56780""
","""event"",""trial"",""time""
""blur"",""1"",""7740""
","""event"",""trial"",""time""
""focus"",""1"",""56635""
","""event"",""trial"",""time""
""fullscreenenter"",""1"",""56780""
","
","","","","","","24293.5","<p> Before you play the real game, it is time to practice. </p><p>  Just like in the real game, some of the images in the practice will be ones you have seen before. </p><p>  Others will be entirely new. </p>","","0","instructions","","",""
"html-button-response","17","182544","0.0-10.0","4531","approach_avoid_sv1","""event"",""trial"",""time""
""blur"",""1"",""7740""
""focus"",""1"",""56635""
""fullscreenenter"",""1"",""56780""
","""event"",""trial"",""time""
""blur"",""1"",""7740""
","""event"",""trial"",""time""
""focus"",""1"",""56635""
","""event"",""trial"",""time""
""fullscreenenter"",""1"",""56780""
","
","","","","","","2196","<p> Ready to practice? </p><p> Remember, use the 1, 2, 3, and 4 keys to make your responses. </p>","0","","instructions","","",""
"html-keyboard-response","18","183174","0.0-11.0-0.0","4531","approach_avoid_sv1","""event"",""trial"",""time""
""blur"",""1"",""7740""
""focus"",""1"",""56635""
""fullscreenenter"",""1"",""56780""
","""event"",""trial"",""time""
""blur"",""1"",""7740""
","""event"",""trial"",""time""
""focus"",""1"",""56635""
","""event"",""trial"",""time""
""fullscreenenter"",""1"",""56780""
","
","","","","","","null","<div style=""font-size:60px;"">+</div>","null","","fixation","","",""
"memory-trial","19","187823","0.0-11.0-1.0","4531","approach_avoid_sv1","""event"",""trial"",""time""
""blur"",""1"",""7740""
""focus"",""1"",""56635""
""fullscreenenter"",""1"",""56780""
","""event"",""trial"",""time""
""blur"",""1"",""7740""
","""event"",""trial"",""time""
""focus"",""1"",""56635""
","""event"",""trial"",""time""
""fullscreenenter"",""1"",""56780""
","
","","","","","","3636.5999999940395","images/racket3.png","","","practice","2","maybe_old",""
"html-keyboard-response","20","188338","0.0-11.0-0.1","4531","approach_avoid_sv1","""event"",""trial"",""time""
""blur"",""1"",""7740""
""focus"",""1"",""56635""
""fullscreenenter"",""1"",""56780""
","""event"",""trial"",""time""
""blur"",""1"",""7740""
","""event"",""trial"",""time""
""focus"",""1"",""56635""
","""event"",""trial"",""time""
""fullscreenenter"",""1"",""56780""
","
","","","","","","null","<div style=""font-size:60px;"">+</div>","null","","fixation","","",""
"memory-trial","21","194029","0.0-11.0-1.1","4531","approach_avoid_sv1","""event"",""trial"",""time""
""blur"",""1"",""7740""
""focus"",""1"",""56635""
""fullscreenenter"",""1"",""56780""
","""event"",""trial"",""time""
""blur"",""1"",""7740""
","""event"",""trial"",""time""
""focus"",""1"",""56635""
","""event"",""trial"",""time""
""fullscreenenter"",""1"",""56780""
","
","","","","","","4670.700000017881","images/ball3.png","","","practice","3","maybe_new",""
"html-keyboard-response","22","194541","0.0-11.0-0.2","4531","approach_avoid_sv1","""event"",""trial"",""time""
""blur"",""1"",""7740""
""focus"",""1"",""56635""
""fullscreenenter"",""1"",""56780""
","""event"",""trial"",""time""
""blur"",""1"",""7740""
","""event"",""trial"",""time""
""focus"",""1"",""56635""
","""event"",""trial"",""time""
""fullscreenenter"",""1"",""56780""
","
","","","","","","null","<div style=""font-size:60px;"">+</div>","null","","fixation","","",""
"memory-trial","23","200187","0.0-11.0-1.2","4531","approach_avoid_sv1","""event"",""trial"",""time""
""blur"",""1"",""7740""
""focus"",""1"",""56635""
""fullscreenenter"",""1"",""56780""
","""event"",""trial"",""time""
""blur"",""1"",""7740""
","""event"",""trial"",""time""
""focus"",""1"",""56635""
","""event"",""trial"",""time""
""fullscreenenter"",""1"",""56780""
","
","","","","","","4626","images/racket1.png","","","practice","2","maybe_old",""
"html-keyboard-response","24","200699","0.0-11.0-0.3","4531","approach_avoid_sv1","""event"",""trial"",""time""
""blur"",""1"",""7740""
""focus"",""1"",""56635""
""fullscreenenter"",""1"",""56780""
","""event"",""trial"",""time""
""blur"",""1"",""7740""
","""event"",""trial"",""time""
""focus"",""1"",""56635""
","""event"",""trial"",""time""
""fullscreenenter"",""1"",""56780""
","
","","","","","","null","<div style=""font-size:60px;"">+</div>","null","","fixation","","",""
"memory-trial","25","210719","0.0-11.0-1.3","4531","approach_avoid_sv1","""event"",""trial"",""time""
""blur"",""1"",""7740""
""focus"",""1"",""56635""
""fullscreenenter"",""1"",""56780""
","""event"",""trial"",""time""
""blur"",""1"",""7740""
","""event"",""trial"",""time""
""focus"",""1"",""56635""
","""event"",""trial"",""time""
""fullscreenenter"",""1"",""56780""
","
","","","","","","null","images/racket5.png","","","practice","null","null",""
"html-keyboard-response","26","211230","0.0-11.0-0.4","4531","approach_avoid_sv1","""event"",""trial"",""time""
""blur"",""1"",""7740""
""focus"",""1"",""56635""
""fullscreenenter"",""1"",""56780""
","""event"",""trial"",""time""
""blur"",""1"",""7740""
","""event"",""trial"",""time""
""focus"",""1"",""56635""
","""event"",""trial"",""time""
""fullscreenenter"",""1"",""56780""
","
","","","","","","null","<div style=""font-size:60px;"">+</div>","null","","fixation","","",""
"memory-trial","27","221245","0.0-11.0-1.4","4531","approach_avoid_sv1","""event"",""trial"",""time""
""blur"",""1"",""7740""
""focus"",""1"",""56635""
""fullscreenenter"",""1"",""56780""
","""event"",""trial"",""time""
""blur"",""1"",""7740""
","""event"",""trial"",""time""
""focus"",""1"",""56635""
","""event"",""trial"",""time""
""fullscreenenter"",""1"",""56780""
","
","","","","","","null","images/ball5.png","","","practice","null","null",""
"html-keyboard-response","28","221755","0.0-11.0-0.5","4531","approach_avoid_sv1","""event"",""trial"",""time""
""blur"",""1"",""7740""
""focus"",""1"",""56635""
""fullscreenenter"",""1"",""56780""
","""event"",""trial"",""time""
""blur"",""1"",""7740""
","""event"",""trial"",""time""
""focus"",""1"",""56635""
","""event"",""trial"",""time""
""fullscreenenter"",""1"",""56780""
","
","","","","","","null","<div style=""font-size:60px;"">+</div>","null","","fixation","","",""
"memory-trial","29","231770","0.0-11.0-1.5","4531","approach_avoid_sv1","""event"",""trial"",""time""
""blur"",""1"",""7740""
""focus"",""1"",""56635""
""fullscreenenter"",""1"",""56780""
","""event"",""trial"",""time""
""blur"",""1"",""7740""
","""event"",""trial"",""time""
""focus"",""1"",""56635""
","""event"",""trial"",""time""
""fullscreenenter"",""1"",""56780""
","
","","","","","","null","images/racket2.png","","","practice","null","null",""
"html-keyboard-response","30","232287","0.0-11.0-0.6","4531","approach_avoid_sv1","""event"",""trial"",""time""
""blur"",""1"",""7740""
""focus"",""1"",""56635""
""fullscreenenter"",""1"",""56780""
","""event"",""trial"",""time""
""blur"",""1"",""7740""
","""event"",""trial"",""time""
""focus"",""1"",""56635""
","""event"",""trial"",""time""
""fullscreenenter"",""1"",""56780""
","
","","","","","","null","<div style=""font-size:60px;"">+</div>","null","","fixation","","",""
"memory-trial","31","242318","0.0-11.0-1.6","4531","approach_avoid_sv1","""event"",""trial"",""time""
""blur"",""1"",""7740""
""focus"",""1"",""56635""
""fullscreenenter"",""1"",""56780""
","""event"",""trial"",""time""
""blur"",""1"",""7740""
","""event"",""trial"",""time""
""focus"",""1"",""56635""
","""event"",""trial"",""time""
""fullscreenenter"",""1"",""56780""
","
","","","","","","null","images/ball1.png","","","practice","null","null",""
"html-keyboard-response","32","242840","0.0-11.0-0.7","4531","approach_avoid_sv1","""event"",""trial"",""time""
""blur"",""1"",""7740""
""focus"",""1"",""56635""
""fullscreenenter"",""1"",""56780""
","""event"",""trial"",""time""
""blur"",""1"",""7740""
","""event"",""trial"",""time""
""focus"",""1"",""56635""
","""event"",""trial"",""time""
""fullscreenenter"",""1"",""56780""
","
","","","","","","null","<div style=""font-size:60px;"">+</div>","null","","fixation","","",""
"memory-trial","33","245785","0.0-11.0-1.7","4531","approach_avoid_sv1","""event"",""trial"",""time""
""blur"",""1"",""7740""
""focus"",""1"",""56635""
""fullscreenenter"",""1"",""56780""
","""event"",""trial"",""time""
""blur"",""1"",""7740""
","""event"",""trial"",""time""
""focus"",""1"",""56635""
","""event"",""trial"",""time""
""fullscreenenter"",""1"",""56780""
","
","","","","","","1910.7999999821186","images/ball2.png","","","practice","3","maybe_new",""
"learning-instructions","34","255990","0.0-12.0-0.0","4531","approach_avoid_sv1","""event"",""trial"",""time""
""blur"",""1"",""7740""
""focus"",""1"",""56635""
""fullscreenenter"",""1"",""56780""
","""event"",""trial"",""time""
""blur"",""1"",""7740""
","""event"",""trial"",""time""
""focus"",""1"",""56635""
","""event"",""trial"",""time""
""fullscreenenter"",""1"",""56780""
","
","","","","","","2341.5999999940395","<p> Great! You have completed the practice. </p><p> Before you start, we're going to ask you a few questions about how the game works.  </p>","","0","instructions","","",""
"preload","35","259763","0.0-13.0","4531","approach_avoid_sv1","""event"",""trial"",""time""
""blur"",""1"",""7740""
""focus"",""1"",""56635""
""fullscreenenter"",""1"",""56780""
","""event"",""trial"",""time""
""blur"",""1"",""7740""
","""event"",""trial"",""time""
""focus"",""1"",""56635""
","""event"",""trial"",""time""
""fullscreenenter"",""1"",""56780""
","
","true","false","[]","[]","[]","","","","","","","",""
"comp-q","36","266707","0.0-14.0-0.0","4531","approach_avoid_sv1","""event"",""trial"",""time""
""blur"",""1"",""7740""
""focus"",""1"",""56635""
""fullscreenenter"",""1"",""56780""
","""event"",""trial"",""time""
""blur"",""1"",""7740""
","""event"",""trial"",""time""
""focus"",""1"",""56635""
","""event"",""trial"",""time""
""fullscreenenter"",""1"",""56780""
","
","","","","","","1105.2999999821186","<p> <b> True or False? </b> </p><p> In this game, you will only see each image once. </p>","","0","comp_question","","","true"
"comp-q","37","274453","0.0-14.0-1.0","4531","approach_avoid_sv1","""event"",""trial"",""time""
""blur"",""1"",""7740""
""focus"",""1"",""56635""
""fullscreenenter"",""1"",""56780""
","""event"",""trial"",""time""
""blur"",""1"",""7740""
","""event"",""trial"",""time""
""focus"",""1"",""56635""
","""event"",""trial"",""time""
""fullscreenenter"",""1"",""56780""
","
","","","","","","1404.0999999940395","<p> <b> That's right! </b> You will see many different images <i> one time each </i> in this game. </p>","","0","comp_answer","","",""
"comp-q","38","280392","0.0-15.0-0.0","4531","approach_avoid_sv1","""event"",""trial"",""time""
""blur"",""1"",""7740""
""focus"",""1"",""56635""
""fullscreenenter"",""1"",""56780""
","""event"",""trial"",""time""
""blur"",""1"",""7740""
","""event"",""trial"",""time""
""focus"",""1"",""56635""
","""event"",""trial"",""time""
""fullscreenenter"",""1"",""56780""
","
","","","","","","900.5","<p> <b> True or False? </b> </p><p> You should use the mouse and click to make your response. </p>","","1","comp_question","","","true"
"comp-q","39","288402","0.0-15.0-1.0","4531","approach_avoid_sv1","""event"",""trial"",""time""
""blur"",""1"",""7740""
""focus"",""1"",""56635""
""fullscreenenter"",""1"",""56780""
","""event"",""trial"",""time""
""blur"",""1"",""7740""
","""event"",""trial"",""time""
""focus"",""1"",""56635""
","""event"",""trial"",""time""
""fullscreenenter"",""1"",""56780""
","
","","","","","","1489.8999999761581","<p><b> That's right! </b> You should use the '1', '2', '3', and '4' keys to make your response. </p>","","0","comp_answer","","",""
"comp-q","40","294773","0.0-16.0-0.0","4531","approach_avoid_sv1","""event"",""trial"",""time""
""blur"",""1"",""7740""
""focus"",""1"",""56635""
""fullscreenenter"",""1"",""56780""
","""event"",""trial"",""time""
""blur"",""1"",""7740""
","""event"",""trial"",""time""
""focus"",""1"",""56635""
","""event"",""trial"",""time""
""fullscreenenter"",""1"",""56780""
","
","","","","","","682.8000000119209","<p> <b> True or False? </b> </p><p> You will have as much time as you want to make each choice. </p>","","1","comp_question","","","true"
"comp-q","41","301493","0.0-16.0-1.0","4531","approach_avoid_sv1","""event"",""trial"",""time""
""blur"",""1"",""7740""
""focus"",""1"",""56635""
""fullscreenenter"",""1"",""56780""
","""event"",""trial"",""time""
""blur"",""1"",""7740""
","""event"",""trial"",""time""
""focus"",""1"",""56635""
","""event"",""trial"",""time""
""fullscreenenter"",""1"",""56780""
","
","","","","","","2003.2000000178814","<p> <b> That's right! </b> You will only have 10 seconds to make each choice. </p>","","0","comp_answer","","",""
"learning-instructions","42","312654","0.0-17.0","4531","approach_avoid_sv1","""event"",""trial"",""time""
""blur"",""1"",""7740""
""focus"",""1"",""56635""
""fullscreenenter"",""1"",""56780""
","""event"",""trial"",""time""
""blur"",""1"",""7740""
","""event"",""trial"",""time""
""focus"",""1"",""56635""
","""event"",""trial"",""time""
""fullscreenenter"",""1"",""56780""
","
","","","","","","2456.0999999940395","<p> Great! You are now ready to begin the game. </p><p> Remember, use the 1, 2, 3, and 4 keys to make your responses. </p>","","0","instructions","","",""
"html-keyboard-response","43","313285","0.0-18.0-0.0","4531","approach_avoid_sv1","""event"",""trial"",""time""
""blur"",""1"",""7740""
""focus"",""1"",""56635""
""fullscreenenter"",""1"",""56780""
","""event"",""trial"",""time""
""blur"",""1"",""7740""
","""event"",""trial"",""time""
""focus"",""1"",""56635""
","""event"",""trial"",""time""
""fullscreenenter"",""1"",""56780""
","
","","","","","","null","<div style=""font-size:60px;"">+</div>","null","","fixation","","",""
"memory-trial","44","315333","0.0-18.0-1.0","4531","approach_avoid_sv1","""event"",""trial"",""time""
""blur"",""1"",""7740""
""focus"",""1"",""56635""
""fullscreenenter"",""1"",""56780""
","""event"",""trial"",""time""
""blur"",""1"",""7740""
","""event"",""trial"",""time""
""focus"",""1"",""56635""
","""event"",""trial"",""time""
""fullscreenenter"",""1"",""56780""
","
","","","","","","1011.9000000059605","images/goat5.png","","","memory_trial","3","maybe_new",""
"html-keyboard-response","45","315853","0.0-18.0-0.1","4531","approach_avoid_sv1","""event"",""trial"",""time""
""blur"",""1"",""7740""
""focus"",""1"",""56635""
""fullscreenenter"",""1"",""56780""
","""event"",""trial"",""time""
""blur"",""1"",""7740""
","""event"",""trial"",""time""
""focus"",""1"",""56635""
","""event"",""trial"",""time""
""fullscreenenter"",""1"",""56780""
","
","","","","","","null","<div style=""font-size:60px;"">+</div>","null","","fixation","","",""
"memory-trial","46","318003","0.0-18.0-1.1","4531","approach_avoid_sv1","""event"",""trial"",""time""
""blur"",""1"",""7740""
""focus"",""1"",""56635""
""fullscreenenter"",""1"",""56780""
","""event"",""trial"",""time""
""blur"",""1"",""7740""
","""event"",""trial"",""time""
""focus"",""1"",""56635""
","""event"",""trial"",""time""
""fullscreenenter"",""1"",""56780""
","
","","","","","","1123.6000000238419","images/tree5.png","","","memory_trial","2","maybe_old",""
"html-keyboard-response","47","318512","0.0-18.0-0.2","4531","approach_avoid_sv1","""event"",""trial"",""time""
""blur"",""1"",""7740""
""focus"",""1"",""56635""
""fullscreenenter"",""1"",""56780""
","""event"",""trial"",""time""
""blur"",""1"",""7740""
","""event"",""trial"",""time""
""focus"",""1"",""56635""
","""event"",""trial"",""time""
""fullscreenenter"",""1"",""56780""
","
","","","","","","null","<div style=""font-size:60px;"">+</div>","null","","fixation","","",""
"memory-trial","48","321732","0.0-18.0-1.2","4531","approach_avoid_sv1","""event"",""trial"",""time""
""blur"",""1"",""7740""
""focus"",""1"",""56635""
""fullscreenenter"",""1"",""56780""
","""event"",""trial"",""time""
""blur"",""1"",""7740""
","""event"",""trial"",""time""
""focus"",""1"",""56635""
","""event"",""trial"",""time""
""fullscreenenter"",""1"",""56780""
","
","","","","","","2192.300000011921","images/horse6.png","","","memory_trial","2","maybe_old",""
"html-keyboard-response","49","322243","0.0-18.0-0.3","4531","approach_avoid_sv1","""event"",""trial"",""time""
""blur"",""1"",""7740""
""focus"",""1"",""56635""
""fullscreenenter"",""1"",""56780""
","""event"",""trial"",""time""
""blur"",""1"",""7740""
","""event"",""trial"",""time""
""focus"",""1"",""56635""
","""event"",""trial"",""time""
""fullscreenenter"",""1"",""56780""
","
","","","","","","null","<div style=""font-size:60px;"">+</div>","null","","fixation","","",""
"memory-trial","50","323884","0.0-18.0-1.3","4531","approach_avoid_sv1","""event"",""trial"",""time""
""blur"",""1"",""7740""
""focus"",""1"",""56635""
""fullscreenenter"",""1"",""56780""
","""event"",""trial"",""time""
""blur"",""1"",""7740""
","""event"",""trial"",""time""
""focus"",""1"",""56635""
","""event"",""trial"",""time""
""fullscreenenter"",""1"",""56780""
","
","","","","","","614.8000000119209","images/table2.png","","","memory_trial","4","definitely_new",""
"html-keyboard-response","51","324395","0.0-18.0-0.4","4531","approach_avoid_sv1","""event"",""trial"",""time""
""blur"",""1"",""7740""
""focus"",""1"",""56635""
""fullscreenenter"",""1"",""56780""
","""event"",""trial"",""time""
""blur"",""1"",""7740""
","""event"",""trial"",""time""
""focus"",""1"",""56635""
","""event"",""trial"",""time""
""fullscreenenter"",""1"",""56780""
","
","","","","","","null","<div style=""font-size:60px;"">+</div>","null","","fixation","","",""
"memory-trial","52","325553","0.0-18.0-1.4","4531","approach_avoid_sv1","""event"",""trial"",""time""
""blur"",""1"",""7740""
""focus"",""1"",""56635""
""fullscreenenter"",""1"",""56780""
","""event"",""trial"",""time""
""blur"",""1"",""7740""
","""event"",""trial"",""time""
""focus"",""1"",""56635""
","""event"",""trial"",""time""
""fullscreenenter"",""1"",""56780""
","
","","","","","","146.09999999403954","images/boat3.png","","","memory_trial","2","maybe_old",""
"html-keyboard-response","53","326072","0.0-18.0-0.5","4531","approach_avoid_sv1","""event"",""trial"",""time""
""blur"",""1"",""7740""
""focus"",""1"",""56635""
""fullscreenenter"",""1"",""56780""
","""event"",""trial"",""time""
""blur"",""1"",""7740""
","""event"",""trial"",""time""
""focus"",""1"",""56635""
","""event"",""trial"",""time""
""fullscreenenter"",""1"",""56780""
","
","","","","","","null","<div style=""font-size:60px;"">+</div>","null","","fixation","","",""
"memory-trial","54","327403","0.0-18.0-1.5","4531","approach_avoid_sv1","""event"",""trial"",""time""
""blur"",""1"",""7740""
""focus"",""1"",""56635""
""fullscreenenter"",""1"",""56780""
","""event"",""trial"",""time""
""blur"",""1"",""7740""
","""event"",""trial"",""time""
""focus"",""1"",""56635""
","""event"",""trial"",""time""
""fullscreenenter"",""1"",""56780""
","
","","","","","","303.19999998807907","images/chair6.png","","","memory_trial","1","definitely_old",""
"html-keyboard-response","55","327922","0.0-18.0-0.6","4531","approach_avoid_sv1","""event"",""trial"",""time""
""blur"",""1"",""7740""
""focus"",""1"",""56635""
""fullscreenenter"",""1"",""56780""
","""event"",""trial"",""time""
""blur"",""1"",""7740""
","""event"",""trial"",""time""
""focus"",""1"",""56635""
","""event"",""trial"",""time""
""fullscreenenter"",""1"",""56780""
","
","","","","","","null","<div style=""font-size:60px;"">+</div>","null","","fixation","","",""
"memory-trial","56","329290","0.0-18.0-1.6","4531","approach_avoid_sv1","""event"",""trial"",""time""
""blur"",""1"",""7740""
""focus"",""1"",""56635""
""fullscreenenter"",""1"",""56780""
","""event"",""trial"",""time""
""blur"",""1"",""7740""
","""event"",""trial"",""time""
""focus"",""1"",""56635""
","""event"",""trial"",""time""
""fullscreenenter"",""1"",""56780""
","
","","","","","","347.7999999821186","images/bed3.png","","","memory_trial","3","maybe_new",""
"html-keyboard-response","57","329808","0.0-18.0-0.7","4531","approach_avoid_sv1","""event"",""trial"",""time""
""blur"",""1"",""7740""
""focus"",""1"",""56635""
""fullscreenenter"",""1"",""56780""
","""event"",""trial"",""time""
""blur"",""1"",""7740""
","""event"",""trial"",""time""
""focus"",""1"",""56635""
","""event"",""trial"",""time""
""fullscreenenter"",""1"",""56780""
","
","","","","","","null","<div style=""font-size:60px;"">+</div>","null","","fixation","","",""
"memory-trial","58","331104","0.0-18.0-1.7","4531","approach_avoid_sv1","""event"",""trial"",""time""
""blur"",""1"",""7740""
""focus"",""1"",""56635""
""fullscreenenter"",""1"",""56780""
","""event"",""trial"",""time""
""blur"",""1"",""7740""
","""event"",""trial"",""time""
""focus"",""1"",""56635""
","""event"",""trial"",""time""
""fullscreenenter"",""1"",""56780""
","
","","","","","","271.19999998807907","images/flower5.png","","","memory_trial","2","maybe_old",""
"html-keyboard-response","59","331622","0.0-18.0-0.8","4531","approach_avoid_sv1","""event"",""trial"",""time""
""blur"",""1"",""7740""
""focus"",""1"",""56635""
""fullscreenenter"",""1"",""56780""
","""event"",""trial"",""time""
""blur"",""1"",""7740""
","""event"",""trial"",""time""
""focus"",""1"",""56635""
","""event"",""trial"",""time""
""fullscreenenter"",""1"",""56780""
","
","","","","","","null","<div style=""font-size:60px;"">+</div>","null","","fixation","","",""
"memory-trial","60","333064","0.0-18.0-1.8","4531","approach_avoid_sv1","""event"",""trial"",""time""
""blur"",""1"",""7740""
""focus"",""1"",""56635""
""fullscreenenter"",""1"",""56780""
","""event"",""trial"",""time""
""blur"",""1"",""7740""
","""event"",""trial"",""time""
""focus"",""1"",""56635""
","""event"",""trial"",""time""
""fullscreenenter"",""1"",""56780""
","
","","","","","","415.2000000178814","images/rabbit2.png","","","memory_trial","3","maybe_new",""
"html-keyboard-response","61","333572","0.0-18.0-0.9","4531","approach_avoid_sv1","""event"",""trial"",""time""
""blur"",""1"",""7740""
""focus"",""1"",""56635""
""fullscreenenter"",""1"",""56780""
","""event"",""trial"",""time""
""blur"",""1"",""7740""
","""event"",""trial"",""time""
""focus"",""1"",""56635""
","""event"",""trial"",""time""
""fullscreenenter"",""1"",""56780""
","
","","","","","","null","<div style=""font-size:60px;"">+</div>","null","","fixation","","",""
"memory-trial","62","334947","0.0-18.0-1.9","4531","approach_avoid_sv1","""event"",""trial"",""time""
""blur"",""1"",""7740""
""focus"",""1"",""56635""
""fullscreenenter"",""1"",""56780""
","""event"",""trial"",""time""
""blur"",""1"",""7740""
","""event"",""trial"",""time""
""focus"",""1"",""56635""
","""event"",""trial"",""time""
""fullscreenenter"",""1"",""56780""
","
","","","","","","360.2000000178814","images/cactus8.png","","","memory_trial","3","maybe_new",""
"html-keyboard-response","63","335459","0.0-18.0-0.10","4531","approach_avoid_sv1","""event"",""trial"",""time""
""blur"",""1"",""7740""
""focus"",""1"",""56635""
""fullscreenenter"",""1"",""56780""
","""event"",""trial"",""time""
""blur"",""1"",""7740""
","""event"",""trial"",""time""
""focus"",""1"",""56635""
","""event"",""trial"",""time""
""fullscreenenter"",""1"",""56780""
","
","","","","","","null","<div style=""font-size:60px;"">+</div>","null","","fixation","","",""
"memory-trial","64","337857","0.0-18.0-1.10","4531","approach_avoid_sv1","""event"",""trial"",""time""
""blur"",""1"",""7740""
""focus"",""1"",""56635""
""fullscreenenter"",""1"",""56780""
","""event"",""trial"",""time""
""blur"",""1"",""7740""
","""event"",""trial"",""time""
""focus"",""1"",""56635""
","""event"",""trial"",""time""
""fullscreenenter"",""1"",""56780""
","
","","","","","","1371.8999999761581","images/rodent6.png","","","memory_trial","2","maybe_old",""
"html-keyboard-response","65","338379","0.0-18.0-0.11","4531","approach_avoid_sv1","""event"",""trial"",""time""
""blur"",""1"",""7740""
""focus"",""1"",""56635""
""fullscreenenter"",""1"",""56780""
","""event"",""trial"",""time""
""blur"",""1"",""7740""
","""event"",""trial"",""time""
""focus"",""1"",""56635""
","""event"",""trial"",""time""
""fullscreenenter"",""1"",""56780""
","
","","","","","","null","<div style=""font-size:60px;"">+</div>","null","","fixation","","",""
"memory-trial","66","341211","0.0-18.0-1.11","4531","approach_avoid_sv1","""event"",""trial"",""time""
""blur"",""1"",""7740""
""focus"",""1"",""56635""
""fullscreenenter"",""1"",""56780""
","""event"",""trial"",""time""
""blur"",""1"",""7740""
","""event"",""trial"",""time""
""focus"",""1"",""56635""
","""event"",""trial"",""time""
""fullscreenenter"",""1"",""56780""
","
","","","","","","1816.800000011921","images/chair5.png","","","memory_trial","1","definitely_old",""
"html-keyboard-response","67","341721","0.0-18.0-0.12","4531","approach_avoid_sv1","""event"",""trial"",""time""
""blur"",""1"",""7740""
""focus"",""1"",""56635""
""fullscreenenter"",""1"",""56780""
","""event"",""trial"",""time""
""blur"",""1"",""7740""
","""event"",""trial"",""time""
""focus"",""1"",""56635""
","""event"",""trial"",""time""
""fullscreenenter"",""1"",""56780""
","
","","","","","","null","<div style=""font-size:60px;"">+</div>","null","","fixation","","",""
"memory-trial","68","343600","0.0-18.0-1.12","4531","approach_avoid_sv1","""event"",""trial"",""time""
""blur"",""1"",""7740""
""focus"",""1"",""56635""
""fullscreenenter"",""1"",""56780""
","""event"",""trial"",""time""
""blur"",""1"",""7740""
","""event"",""trial"",""time""
""focus"",""1"",""56635""
","""event"",""trial"",""time""
""fullscreenenter"",""1"",""56780""
","
","","","","","","863.4000000059605","images/chair1.png","","","memory_trial","4","definitely_new",""
"html-keyboard-response","69","344114","0.0-18.0-0.13","4531","approach_avoid_sv1","""event"",""trial"",""time""
""blur"",""1"",""7740""
""focus"",""1"",""56635""
""fullscreenenter"",""1"",""56780""
","""event"",""trial"",""time""
""blur"",""1"",""7740""
","""event"",""trial"",""time""
""focus"",""1"",""56635""
","""event"",""trial"",""time""
""fullscreenenter"",""1"",""56780""
","
","","","","","","null","<div style=""font-size:60px;"">+</div>","null","","fixation","","",""
"memory-trial","70","345659","0.0-18.0-1.13","4531","approach_avoid_sv1","""event"",""trial"",""time""
""blur"",""1"",""7740""
""focus"",""1"",""56635""
""fullscreenenter"",""1"",""56780""
","""event"",""trial"",""time""
""blur"",""1"",""7740""
","""event"",""trial"",""time""
""focus"",""1"",""56635""
","""event"",""trial"",""time""
""fullscreenenter"",""1"",""56780""
","
","","","","","","532.0999999940395","images/apple2.png","","","memory_trial","2","maybe_old",""
"html-keyboard-response","71","346165","0.0-18.0-0.14","4531","approach_avoid_sv1","""event"",""trial"",""time""
""blur"",""1"",""7740""
""focus"",""1"",""56635""
""fullscreenenter"",""1"",""56780""
","""event"",""trial"",""time""
""blur"",""1"",""7740""
","""event"",""trial"",""time""
""focus"",""1"",""56635""
","""event"",""trial"",""time""
""fullscreenenter"",""1"",""56780""
","
","","","","","","null","<div style=""font-size:60px;"">+</div>","null","","fixation","","",""
"memory-trial","72","347411","0.0-18.0-1.14","4531","approach_avoid_sv1","""event"",""trial"",""time""
""blur"",""1"",""7740""
""focus"",""1"",""56635""
""fullscreenenter"",""1"",""56780""
","""event"",""trial"",""time""
""blur"",""1"",""7740""
","""event"",""trial"",""time""
""focus"",""1"",""56635""
","""event"",""trial"",""time""
""fullscreenenter"",""1"",""56780""
","
","","","","","","228.59999999403954","images/sheep4.png","","","memory_trial","3","maybe_new",""
"html-keyboard-response","73","347917","0.0-18.0-0.15","4531","approach_avoid_sv1","""event"",""trial"",""time""
""blur"",""1"",""7740""
""focus"",""1"",""56635""
""fullscreenenter"",""1"",""56780""
","""event"",""trial"",""time""
""blur"",""1"",""7740""
","""event"",""trial"",""time""
""focus"",""1"",""56635""
","""event"",""trial"",""time""
""fullscreenenter"",""1"",""56780""
","
","","","","","","null","<div style=""font-size:60px;"">+</div>","null","","fixation","","",""
"memory-trial","74","349124","0.0-18.0-1.15","4531","approach_avoid_sv1","""event"",""trial"",""time""
""blur"",""1"",""7740""
""focus"",""1"",""56635""
""fullscreenenter"",""1"",""56780""
","""event"",""trial"",""time""
""blur"",""1"",""7740""
","""event"",""trial"",""time""
""focus"",""1"",""56635""
","""event"",""trial"",""time""
""fullscreenenter"",""1"",""56780""
","
","","","","","","187","images/table1.png","","","memory_trial","2","maybe_old",""
"html-keyboard-response","75","349633","0.0-18.0-0.16","4531","approach_avoid_sv1","""event"",""trial"",""time""
""blur"",""1"",""7740""
""focus"",""1"",""56635""
""fullscreenenter"",""1"",""56780""
","""event"",""trial"",""time""
""blur"",""1"",""7740""
","""event"",""trial"",""time""
""focus"",""1"",""56635""
","""event"",""trial"",""time""
""fullscreenenter"",""1"",""56780""
","
","","","","","","null","<div style=""font-size:60px;"">+</div>","null","","fixation","","",""
"memory-trial","76","350687","0.0-18.0-1.16","4531","approach_avoid_sv1","""event"",""trial"",""time""
""blur"",""1"",""7740""
""focus"",""1"",""56635""
""fullscreenenter"",""1"",""56780""
","""event"",""trial"",""time""
""blur"",""1"",""7740""
","""event"",""trial"",""time""
""focus"",""1"",""56635""
","""event"",""trial"",""time""
""fullscreenenter"",""1"",""56780""
","
","","","","","","40.099999994039536","images/cactus2.png","","","memory_trial","3","maybe_new",""
"html-keyboard-response","77","351198","0.0-18.0-0.17","4531","approach_avoid_sv1","""event"",""trial"",""time""
""blur"",""1"",""7740""
""focus"",""1"",""56635""
""fullscreenenter"",""1"",""56780""
","""event"",""trial"",""time""
""blur"",""1"",""7740""
","""event"",""trial"",""time""
""focus"",""1"",""56635""
","""event"",""trial"",""time""
""fullscreenenter"",""1"",""56780""
","
","","","","","","null","<div style=""font-size:60px;"">+</div>","null","","fixation","","",""
"memory-trial","78","352592","0.0-18.0-1.17","4531","approach_avoid_sv1","""event"",""trial"",""time""
""blur"",""1"",""7740""
""focus"",""1"",""56635""
""fullscreenenter"",""1"",""56780""
","""event"",""trial"",""time""
""blur"",""1"",""7740""
","""event"",""trial"",""time""
""focus"",""1"",""56635""
","""event"",""trial"",""time""
""fullscreenenter"",""1"",""56780""
","
","","","","","","375.2999999821186","images/sofa8.png","","","memory_trial","3","maybe_new",""
"html-keyboard-response","79","353101","0.0-18.0-0.18","4531","approach_avoid_sv1","""event"",""trial"",""time""
""blur"",""1"",""7740""
""focus"",""1"",""56635""
""fullscreenenter"",""1"",""56780""
","""event"",""trial"",""time""
""blur"",""1"",""7740""
","""event"",""trial"",""time""
""focus"",""1"",""56635""
","""event"",""trial"",""time""
""fullscreenenter"",""1"",""56780""
","
","","","","","","null","<div style=""font-size:60px;"">+</div>","null","","fixation","","",""
"memory-trial","80","354836","0.0-18.0-1.18","4531","approach_avoid_sv1","""event"",""trial"",""time""
""blur"",""1"",""7740""
""focus"",""1"",""56635""
""fullscreenenter"",""1"",""56780""
","""event"",""trial"",""time""
""blur"",""1"",""7740""
","""event"",""trial"",""time""
""focus"",""1"",""56635""
","""event"",""trial"",""time""
""fullscreenenter"",""1"",""56780""
","
","","","","","","718.0999999940395","images/rodent3.png","","","memory_trial","3","maybe_new",""
"html-keyboard-response","81","355341","0.0-18.0-0.19","4531","approach_avoid_sv1","""event"",""trial"",""time""
""blur"",""1"",""7740""
""focus"",""1"",""56635""
""fullscreenenter"",""1"",""56780""
","""event"",""trial"",""time""
""blur"",""1"",""7740""
","""event"",""trial"",""time""
""focus"",""1"",""56635""
","""event"",""trial"",""time""
""fullscreenenter"",""1"",""56780""
","
","","","","","","null","<div style=""font-size:60px;"">+</div>","null","","fixation","","",""
"memory-trial","82","357001","0.0-18.0-1.19","4531","approach_avoid_sv1","""event"",""trial"",""time""
""blur"",""1"",""7740""
""focus"",""1"",""56635""
""fullscreenenter"",""1"",""56780""
","""event"",""trial"",""time""
""blur"",""1"",""7740""
","""event"",""trial"",""time""
""focus"",""1"",""56635""
","""event"",""trial"",""time""
""fullscreenenter"",""1"",""56780""
","
","","","","","","645.6999999880791","images/straw2.png","","","memory_trial","4","definitely_new",""
"html-keyboard-response","83","357515","0.0-18.0-0.20","4531","approach_avoid_sv1","""event"",""trial"",""time""
""blur"",""1"",""7740""
""focus"",""1"",""56635""
""fullscreenenter"",""1"",""56780""
","""event"",""trial"",""time""
""blur"",""1"",""7740""
","""event"",""trial"",""time""
""focus"",""1"",""56635""
","""event"",""trial"",""time""
""fullscreenenter"",""1"",""56780""
","
","","","","","","null","<div style=""font-size:60px;"">+</div>","null","","fixation","","",""
"memory-trial","84","359594","0.0-18.0-1.20","4531","approach_avoid_sv1","""event"",""trial"",""time""
""blur"",""1"",""7740""
""focus"",""1"",""56635""
""fullscreenenter"",""1"",""56780""
","""event"",""trial"",""time""
""blur"",""1"",""7740""
","""event"",""trial"",""time""
""focus"",""1"",""56635""
","""event"",""trial"",""time""
""fullscreenenter"",""1"",""56780""
","
","","","","","","1062.7000000178814","images/dog7.png","","","memory_trial","3","maybe_new",""
"html-keyboard-response","85","360105","0.0-18.0-0.21","4531","approach_avoid_sv1","""event"",""trial"",""time""
""blur"",""1"",""7740""
""focus"",""1"",""56635""
""fullscreenenter"",""1"",""56780""
","""event"",""trial"",""time""
""blur"",""1"",""7740""
","""event"",""trial"",""time""
""focus"",""1"",""56635""
","""event"",""trial"",""time""
""fullscreenenter"",""1"",""56780""
","
","","","","","","null","<div style=""font-size:60px;"">+</div>","null","","fixation","","",""
"memory-trial","86","361213","0.0-18.0-1.21","4531","approach_avoid_sv1","""event"",""trial"",""time""
""blur"",""1"",""7740""
""focus"",""1"",""56635""
""fullscreenenter"",""1"",""56780""
","""event"",""trial"",""time""
""blur"",""1"",""7740""
","""event"",""trial"",""time""
""focus"",""1"",""56635""
","""event"",""trial"",""time""
""fullscreenenter"",""1"",""56780""
","
","","","","","","93.90000000596046","images/train4.png","","","memory_trial","1","definitely_old",""
"html-keyboard-response","87","361716","0.0-18.0-0.22","4531","approach_avoid_sv1","""event"",""trial"",""time""
""blur"",""1"",""7740""
""focus"",""1"",""56635""
""fullscreenenter"",""1"",""56780""
","""event"",""trial"",""time""
""blur"",""1"",""7740""
","""event"",""trial"",""time""
""focus"",""1"",""56635""
","""event"",""trial"",""time""
""fullscreenenter"",""1"",""56780""
","
","","","","","","null","<div style=""font-size:60px;"">+</div>","null","","fixation","","",""
"memory-trial","88","362742","0.0-18.0-1.22","4531","approach_avoid_sv1","""event"",""trial"",""time""
""blur"",""1"",""7740""
""focus"",""1"",""56635""
""fullscreenenter"",""1"",""56780""
","""event"",""trial"",""time""
""blur"",""1"",""7740""
","""event"",""trial"",""time""
""focus"",""1"",""56635""
","""event"",""trial"",""time""
""fullscreenenter"",""1"",""56780""
","
","","","","","","13.800000011920929","images/cat8.png","","","memory_trial","3","maybe_new",""
"html-keyboard-response","89","363253","0.0-18.0-0.23","4531","approach_avoid_sv1","""event"",""trial"",""time""
""blur"",""1"",""7740""
""focus"",""1"",""56635""
""fullscreenenter"",""1"",""56780""
","""event"",""trial"",""time""
""blur"",""1"",""7740""
","""event"",""trial"",""time""
""focus"",""1"",""56635""
","""event"",""trial"",""time""
""fullscreenenter"",""1"",""56780""
","
","","","","","","null","<div style=""font-size:60px;"">+</div>","null","","fixation","","",""
"memory-trial","90","364322","0.0-18.0-1.23","4531","approach_avoid_sv1","""event"",""trial"",""time""
""blur"",""1"",""7740""
""focus"",""1"",""56635""
""fullscreenenter"",""1"",""56780""
","""event"",""trial"",""time""
""blur"",""1"",""7740""
","""event"",""trial"",""time""
""focus"",""1"",""56635""
","""event"",""trial"",""time""
""fullscreenenter"",""1"",""56780""
","
","","","","","","50.099999994039536","images/plane4.png","","","memory_trial","2","maybe_old",""
"html-keyboard-response","91","364834","0.0-18.0-0.24","4531","approach_avoid_sv1","""event"",""trial"",""time""
""blur"",""1"",""7740""
""focus"",""1"",""56635""
""fullscreenenter"",""1"",""56780""
","""event"",""trial"",""time""
""blur"",""1"",""7740""
","""event"",""trial"",""time""
""focus"",""1"",""56635""
","""event"",""trial"",""time""
""fullscreenenter"",""1"",""56780""
","
","","","","","","null","<div style=""font-size:60px;"">+</div>","null","","fixation","","",""
"memory-trial","92","367383","0.0-18.0-1.24","4531","approach_avoid_sv1","""event"",""trial"",""time""
""blur"",""1"",""7740""
""focus"",""1"",""56635""
""fullscreenenter"",""1"",""56780""
","""event"",""trial"",""time""
""blur"",""1"",""7740""
","""event"",""trial"",""time""
""focus"",""1"",""56635""
","""event"",""trial"",""time""
""fullscreenenter"",""1"",""56780""
","
","","","","","","1533.7000000178814","images/cactus7.png","","","memory_trial","4","definitely_new",""
"html-keyboard-response","93","367901","0.0-18.0-0.25","4531","approach_avoid_sv1","""event"",""trial"",""time""
""blur"",""1"",""7740""
""focus"",""1"",""56635""
""fullscreenenter"",""1"",""56780""
","""event"",""trial"",""time""
""blur"",""1"",""7740""
","""event"",""trial"",""time""
""focus"",""1"",""56635""
","""event"",""trial"",""time""
""fullscreenenter"",""1"",""56780""
","
","","","","","","null","<div style=""font-size:60px;"">+</div>","null","","fixation","","",""
"memory-trial","94","370762","0.0-18.0-1.25","4531","approach_avoid_sv1","""event"",""trial"",""time""
""blur"",""1"",""7740""
""focus"",""1"",""56635""
""fullscreenenter"",""1"",""56780""
","""event"",""trial"",""time""
""blur"",""1"",""7740""
","""event"",""trial"",""time""
""focus"",""1"",""56635""
","""event"",""trial"",""time""
""fullscreenenter"",""1"",""56780""
","
","","","","","","1840.8999999761581","images/chair8.png","","","memory_trial","1","definitely_old",""
"html-keyboard-response","95","371277","0.0-18.0-0.26","4531","approach_avoid_sv1","""event"",""trial"",""time""
""blur"",""1"",""7740""
""focus"",""1"",""56635""
""fullscreenenter"",""1"",""56780""
""fullscreenexit"",""96"",""374146""
""blur"",""96"",""381130""
","""event"",""trial"",""time""
""blur"",""1"",""7740""
""blur"",""96"",""381130""
","""event"",""trial"",""time""
""focus"",""1"",""56635""
","""event"",""trial"",""time""
""fullscreenenter"",""1"",""56780""
","""event"",""trial"",""time""
""fullscreenexit"",""96"",""374146""
","","","","","","null","<div style=""font-size:60px;"">+</div>","null","","fixation","","",""
"memory-trial","96","382086","0.0-18.0-1.26","4531","approach_avoid_sv1","""event"",""trial"",""time""
""blur"",""1"",""7740""
""focus"",""1"",""56635""
""fullscreenenter"",""1"",""56780""
""fullscreenexit"",""96"",""374146""
""blur"",""96"",""381130""
","""event"",""trial"",""time""
""blur"",""1"",""7740""
""blur"",""96"",""381130""
","""event"",""trial"",""time""
""focus"",""1"",""56635""
","""event"",""trial"",""time""
""fullscreenenter"",""1"",""56780""
","""event"",""trial"",""time""
""fullscreenexit"",""96"",""374146""
","","","","","","null","images/apple6.png","","","memory_trial","null","null",""
"html-keyboard-response","97","383080","0.0-18.0-0.27","4531","approach_avoid_sv1","""event"",""trial"",""time""
""blur"",""1"",""7740""
""focus"",""1"",""56635""
""fullscreenenter"",""1"",""56780""
""fullscreenexit"",""96"",""374146""
""blur"",""96"",""381130""
","""event"",""trial"",""time""
""blur"",""1"",""7740""
""blur"",""96"",""381130""
","""event"",""trial"",""time""
""focus"",""1"",""56635""
","""event"",""trial"",""time""
""fullscreenenter"",""1"",""56780""
","""event"",""trial"",""time""
""fullscreenexit"",""96"",""374146""
","","","","","","null","<div style=""font-size:60px;"">+</div>","null","","fixation","","",""
"memory-trial","98","394197","0.0-18.0-1.27","4531","approach_avoid_sv1","""event"",""trial"",""time""
""blur"",""1"",""7740""
""focus"",""1"",""56635""
""fullscreenenter"",""1"",""56780""
""fullscreenexit"",""96"",""374146""
""blur"",""96"",""381130""
","""event"",""trial"",""time""
""blur"",""1"",""7740""
""blur"",""96"",""381130""
","""event"",""trial"",""time""
""focus"",""1"",""56635""
","""event"",""trial"",""time""
""fullscreenenter"",""1"",""56780""
","""event"",""trial"",""time""
""fullscreenexit"",""96"",""374146""
","","","","","","null","images/sheep2.png","","","memory_trial","null","null",""
"html-keyboard-response","99","395080","0.0-18.0-0.28","4531","approach_avoid_sv1","""event"",""trial"",""time""
""blur"",""1"",""7740""
""focus"",""1"",""56635""
""fullscreenenter"",""1"",""56780""
""fullscreenexit"",""96"",""374146""
""blur"",""96"",""381130""
","""event"",""trial"",""time""
""blur"",""1"",""7740""
""blur"",""96"",""381130""
","""event"",""trial"",""time""
""focus"",""1"",""56635""
","""event"",""trial"",""time""
""fullscreenenter"",""1"",""56780""
","""event"",""trial"",""time""
""fullscreenexit"",""96"",""374146""
","","","","","","null","<div style=""font-size:60px;"">+</div>","null","","fixation","","",""
"memory-trial","100","408422","0.0-18.0-1.28","4531","approach_avoid_sv1","""event"",""trial"",""time""
""blur"",""1"",""7740""
""focus"",""1"",""56635""
""fullscreenenter"",""1"",""56780""
""fullscreenexit"",""96"",""374146""
""blur"",""96"",""381130""
","""event"",""trial"",""time""
""blur"",""1"",""7740""
""blur"",""96"",""381130""
","""event"",""trial"",""time""
""focus"",""1"",""56635""
","""event"",""trial"",""time""
""fullscreenenter"",""1"",""56780""
","""event"",""trial"",""time""
""fullscreenexit"",""96"",""374146""
","","","","","","null","images/chair4.png","","","memory_trial","null","null",""
"html-keyboard-response","101","409788","0.0-18.0-0.29","4531","approach_avoid_sv1","""event"",""trial"",""time""
""blur"",""1"",""7740""
""focus"",""1"",""56635""
""fullscreenenter"",""1"",""56780""
""fullscreenexit"",""96"",""374146""
""blur"",""96"",""381130""
","""event"",""trial"",""time""
""blur"",""1"",""7740""
""blur"",""96"",""381130""
","""event"",""trial"",""time""
""focus"",""1"",""56635""
","""event"",""trial"",""time""
""fullscreenenter"",""1"",""56780""
","""event"",""trial"",""time""
""fullscreenexit"",""96"",""374146""
","","","","","","null","<div style=""font-size:60px;"">+</div>","null","","fixation","","",""
"memory-trial","102","420088","0.0-18.0-1.29","4531","approach_avoid_sv1","""event"",""trial"",""time""
""blur"",""1"",""7740""
""focus"",""1"",""56635""
""fullscreenenter"",""1"",""56780""
""fullscreenexit"",""96"",""374146""
""blur"",""96"",""381130""
","""event"",""trial"",""time""
""blur"",""1"",""7740""
""blur"",""96"",""381130""
","""event"",""trial"",""time""
""focus"",""1"",""56635""
","""event"",""trial"",""time""
""fullscreenenter"",""1"",""56780""
","""event"",""trial"",""time""
""fullscreenexit"",""96"",""374146""
","","","","","","null","images/cat2.png","","","memory_trial","null","null",""
"html-keyboard-response","103","421078","0.0-18.0-0.30","4531","approach_avoid_sv1","""event"",""trial"",""time""
""blur"",""1"",""7740""
""focus"",""1"",""56635""
""fullscreenenter"",""1"",""56780""
""fullscreenexit"",""96"",""374146""
""blur"",""96"",""381130""
","""event"",""trial"",""time""
""blur"",""1"",""7740""
""blur"",""96"",""381130""
","""event"",""trial"",""time""
""focus"",""1"",""56635""
","""event"",""trial"",""time""
""fullscreenenter"",""1"",""56780""
","""event"",""trial"",""time""
""fullscreenexit"",""96"",""374146""
","","","","","","null","<div style=""font-size:60px;"">+</div>","null","","fixation","","",""
"memory-trial","104","432152","0.0-18.0-1.30","4531","approach_avoid_sv1","""event"",""trial"",""time""
""blur"",""1"",""7740""
""focus"",""1"",""56635""
""fullscreenenter"",""1"",""56780""
""fullscreenexit"",""96"",""374146""
""blur"",""96"",""381130""
","""event"",""trial"",""time""
""blur"",""1"",""7740""
""blur"",""96"",""381130""
","""event"",""trial"",""time""
""focus"",""1"",""56635""
","""event"",""trial"",""time""
""fullscreenenter"",""1"",""56780""
","""event"",""trial"",""time""
""fullscreenexit"",""96"",""374146""
","","","","","","null","images/orange3.png","","","memory_trial","null","null",""
"html-keyboard-response","105","433083","0.0-18.0-0.31","4531","approach_avoid_sv1","""event"",""trial"",""time""
""blur"",""1"",""7740""
""focus"",""1"",""56635""
""fullscreenenter"",""1"",""56780""
""fullscreenexit"",""96"",""374146""
""blur"",""96"",""381130""
""focus"",""106"",""436530""
","""event"",""trial"",""time""
""blur"",""1"",""7740""
""blur"",""96"",""381130""
","""event"",""trial"",""time""
""focus"",""1"",""56635""
""focus"",""106"",""436530""
","""event"",""trial"",""time""
""fullscreenenter"",""1"",""56780""
","""event"",""trial"",""time""
""fullscreenexit"",""96"",""374146""
","","","","","","null","<div style=""font-size:60px;"">+</div>","null","","fixation","","",""
"memory-trial","106","443113","0.0-18.0-1.31","4531","approach_avoid_sv1","""event"",""trial"",""time""
""blur"",""1"",""7740""
""focus"",""1"",""56635""
""fullscreenenter"",""1"",""56780""
""fullscreenexit"",""96"",""374146""
""blur"",""96"",""381130""
""focus"",""106"",""436530""
","""event"",""trial"",""time""
""blur"",""1"",""7740""
""blur"",""96"",""381130""
","""event"",""trial"",""time""
""focus"",""1"",""56635""
""focus"",""106"",""436530""
","""event"",""trial"",""time""
""fullscreenenter"",""1"",""56780""
","""event"",""trial"",""time""
""fullscreenexit"",""96"",""374146""
","","","","","","null","images/cat4.png","","","memory_trial","null","null",""
"html-keyboard-response","107","443628","0.0-18.0-0.32","4531","approach_avoid_sv1","""event"",""trial"",""time""
""blur"",""1"",""7740""
""focus"",""1"",""56635""
""fullscreenenter"",""1"",""56780""
""fullscreenexit"",""96"",""374146""
""blur"",""96"",""381130""
""focus"",""106"",""436530""
","""event"",""trial"",""time""
""blur"",""1"",""7740""
""blur"",""96"",""381130""
","""event"",""trial"",""time""
""focus"",""1"",""56635""
""focus"",""106"",""436530""
","""event"",""trial"",""time""
""fullscreenenter"",""1"",""56780""
","""event"",""trial"",""time""
""fullscreenexit"",""96"",""374146""
","","","","","","null","<div style=""font-size:60px;"">+</div>","null","","fixation","","",""
"memory-trial","108","445384","0.0-18.0-1.32","4531","approach_avoid_sv1","""event"",""trial"",""time""
""blur"",""1"",""7740""
""focus"",""1"",""56635""
""fullscreenenter"",""1"",""56780""
""fullscreenexit"",""96"",""374146""
""blur"",""96"",""381130""
""focus"",""106"",""436530""
","""event"",""trial"",""time""
""blur"",""1"",""7740""
""blur"",""96"",""381130""
","""event"",""trial"",""time""
""focus"",""1"",""56635""
""focus"",""106"",""436530""
","""event"",""trial"",""time""
""fullscreenenter"",""1"",""56780""
","""event"",""trial"",""time""
""fullscreenexit"",""96"",""374146""
","","","","","","729.3000000119209","images/straw8.png","","","memory_trial","2","maybe_old",""
"html-keyboard-response","109","445895","0.0-18.0-0.33","4531","approach_avoid_sv1","""event"",""trial"",""time""
""blur"",""1"",""7740""
""focus"",""1"",""56635""
""fullscreenenter"",""1"",""56780""
""fullscreenexit"",""96"",""374146""
""blur"",""96"",""381130""
""focus"",""106"",""436530""
","""event"",""trial"",""time""
""blur"",""1"",""7740""
""blur"",""96"",""381130""
","""event"",""trial"",""time""
""focus"",""1"",""56635""
""focus"",""106"",""436530""
","""event"",""trial"",""time""
""fullscreenenter"",""1"",""56780""
","""event"",""trial"",""time""
""fullscreenexit"",""96"",""374146""
","","","","","","null","<div style=""font-size:60px;"">+</div>","null","","fixation","","",""
"memory-trial","110","447383","0.0-18.0-1.33","4531","approach_avoid_sv1","""event"",""trial"",""time""
""blur"",""1"",""7740""
""focus"",""1"",""56635""
""fullscreenenter"",""1"",""56780""
""fullscreenexit"",""96"",""374146""
""blur"",""96"",""381130""
""focus"",""106"",""436530""
","""event"",""trial"",""time""
""blur"",""1"",""7740""
""blur"",""96"",""381130""
","""event"",""trial"",""time""
""focus"",""1"",""56635""
""focus"",""106"",""436530""
","""event"",""trial"",""time""
""fullscreenenter"",""1"",""56780""
","""event"",""trial"",""time""
""fullscreenexit"",""96"",""374146""
","","","","","","463.5","images/truck8.png","","","memory_trial","4","definitely_new",""
"html-keyboard-response","111","447895","0.0-18.0-0.34","4531","approach_avoid_sv1","""event"",""trial"",""time""
""blur"",""1"",""7740""
""focus"",""1"",""56635""
""fullscreenenter"",""1"",""56780""
""fullscreenexit"",""96"",""374146""
""blur"",""96"",""381130""
""focus"",""106"",""436530""
","""event"",""trial"",""time""
""blur"",""1"",""7740""
""blur"",""96"",""381130""
","""event"",""trial"",""time""
""focus"",""1"",""56635""
""focus"",""106"",""436530""
","""event"",""trial"",""time""
""fullscreenenter"",""1"",""56780""
","""event"",""trial"",""time""
""fullscreenexit"",""96"",""374146""
","","","","","","null","<div style=""font-size:60px;"">+</div>","null","","fixation","","",""
"memory-trial","112","449281","0.0-18.0-1.34","4531","approach_avoid_sv1","""event"",""trial"",""time""
""blur"",""1"",""7740""
""focus"",""1"",""56635""
""fullscreenenter"",""1"",""56780""
""fullscreenexit"",""96"",""374146""
""blur"",""96"",""381130""
""focus"",""106"",""436530""
","""event"",""trial"",""time""
""blur"",""1"",""7740""
""blur"",""96"",""381130""
","""event"",""trial"",""time""
""focus"",""1"",""56635""
""focus"",""106"",""436530""
","""event"",""trial"",""time""
""fullscreenenter"",""1"",""56780""
","""event"",""trial"",""time""
""fullscreenexit"",""96"",""374146""
","","","","","","368.2999999523163","images/table4.png","","","memory_trial","3","maybe_new",""
"html-keyboard-response","113","449793","0.0-18.0-0.35","4531","approach_avoid_sv1","""event"",""trial"",""time""
""blur"",""1"",""7740""
""focus"",""1"",""56635""
""fullscreenenter"",""1"",""56780""
""fullscreenexit"",""96"",""374146""
""blur"",""96"",""381130""
""focus"",""106"",""436530""
","""event"",""trial"",""time""
""blur"",""1"",""7740""
""blur"",""96"",""381130""
","""event"",""trial"",""time""
""focus"",""1"",""56635""
""focus"",""106"",""436530""
","""event"",""trial"",""time""
""fullscreenenter"",""1"",""56780""
","""event"",""trial"",""time""
""fullscreenexit"",""96"",""374146""
","","","","","","null","<div style=""font-size:60px;"">+</div>","null","","fixation","","",""
"memory-trial","114","451588","0.0-18.0-1.35","4531","approach_avoid_sv1","""event"",""trial"",""time""
""blur"",""1"",""7740""
""focus"",""1"",""56635""
""fullscreenenter"",""1"",""56780""
""fullscreenexit"",""96"",""374146""
""blur"",""96"",""381130""
""focus"",""106"",""436530""
","""event"",""trial"",""time""
""blur"",""1"",""7740""
""blur"",""96"",""381130""
","""event"",""trial"",""time""
""focus"",""1"",""56635""
""focus"",""106"",""436530""
","""event"",""trial"",""time""
""fullscreenenter"",""1"",""56780""
","""event"",""trial"",""time""
""fullscreenexit"",""96"",""374146""
","","","","","","771.8999999761581","images/cactus5.png","","","memory_trial","1","definitely_old",""
"html-keyboard-response","115","452098","0.0-18.0-0.36","4531","approach_avoid_sv1","""event"",""trial"",""time""
""blur"",""1"",""7740""
""focus"",""1"",""56635""
""fullscreenenter"",""1"",""56780""
""fullscreenexit"",""96"",""374146""
""blur"",""96"",""381130""
""focus"",""106"",""436530""
","""event"",""trial"",""time""
""blur"",""1"",""7740""
""blur"",""96"",""381130""
","""event"",""trial"",""time""
""focus"",""1"",""56635""
""focus"",""106"",""436530""
","""event"",""trial"",""time""
""fullscreenenter"",""1"",""56780""
","""event"",""trial"",""time""
""fullscreenexit"",""96"",""374146""
","","","","","","null","<div style=""font-size:60px;"">+</div>","null","","fixation","","",""
"memory-trial","116","453785","0.0-18.0-1.36","4531","approach_avoid_sv1","""event"",""trial"",""time""
""blur"",""1"",""7740""
""focus"",""1"",""56635""
""fullscreenenter"",""1"",""56780""
""fullscreenexit"",""96"",""374146""
""blur"",""96"",""381130""
""focus"",""106"",""436530""
","""event"",""trial"",""time""
""blur"",""1"",""7740""
""blur"",""96"",""381130""
","""event"",""trial"",""time""
""focus"",""1"",""56635""
""focus"",""106"",""436530""
","""event"",""trial"",""time""
""fullscreenenter"",""1"",""56780""
","""event"",""trial"",""time""
""fullscreenexit"",""96"",""374146""
","","","","","","671.8999999761581","images/bush8.png","","","memory_trial","2","maybe_old",""
"html-keyboard-response","117","454295","0.0-18.0-0.37","4531","approach_avoid_sv1","""event"",""trial"",""time""
""blur"",""1"",""7740""
""focus"",""1"",""56635""
""fullscreenenter"",""1"",""56780""
""fullscreenexit"",""96"",""374146""
""blur"",""96"",""381130""
""focus"",""106"",""436530""
","""event"",""trial"",""time""
""blur"",""1"",""7740""
""blur"",""96"",""381130""
","""event"",""trial"",""time""
""focus"",""1"",""56635""
""focus"",""106"",""436530""
","""event"",""trial"",""time""
""fullscreenenter"",""1"",""56780""
","""event"",""trial"",""time""
""fullscreenexit"",""96"",""374146""
","","","","","","null","<div style=""font-size:60px;"">+</div>","null","","fixation","","",""
"memory-trial","118","455536","0.0-18.0-1.37","4531","approach_avoid_sv1","""event"",""trial"",""time""
""blur"",""1"",""7740""
""focus"",""1"",""56635""
""fullscreenenter"",""1"",""56780""
""fullscreenexit"",""96"",""374146""
""blur"",""96"",""381130""
""focus"",""106"",""436530""
","""event"",""trial"",""time""
""blur"",""1"",""7740""
""blur"",""96"",""381130""
","""event"",""trial"",""time""
""focus"",""1"",""56635""
""focus"",""106"",""436530""
","""event"",""trial"",""time""
""fullscreenenter"",""1"",""56780""
","""event"",""trial"",""time""
""fullscreenexit"",""96"",""374146""
","","","","","","229.19999998807907","images/boat7.png","","","memory_trial","4","definitely_new",""
"html-keyboard-response","119","456048","0.0-18.0-0.38","4531","approach_avoid_sv1","""event"",""trial"",""time""
""blur"",""1"",""7740""
""focus"",""1"",""56635""
""fullscreenenter"",""1"",""56780""
""fullscreenexit"",""96"",""374146""
""blur"",""96"",""381130""
""focus"",""106"",""436530""
","""event"",""trial"",""time""
""blur"",""1"",""7740""
""blur"",""96"",""381130""
","""event"",""trial"",""time""
""focus"",""1"",""56635""
""focus"",""106"",""436530""
","""event"",""trial"",""time""
""fullscreenenter"",""1"",""56780""
","""event"",""trial"",""time""
""fullscreenexit"",""96"",""374146""
","","","","","","null","<div style=""font-size:60px;"">+</div>","null","","fixation","","",""
"memory-trial","120","457245","0.0-18.0-1.38","4531","approach_avoid_sv1","""event"",""trial"",""time""
""blur"",""1"",""7740""
""focus"",""1"",""56635""
""fullscreenenter"",""1"",""56780""
""fullscreenexit"",""96"",""374146""
""blur"",""96"",""381130""
""focus"",""106"",""436530""
","""event"",""trial"",""time""
""blur"",""1"",""7740""
""blur"",""96"",""381130""
","""event"",""trial"",""time""
""focus"",""1"",""56635""
""focus"",""106"",""436530""
","""event"",""trial"",""time""
""fullscreenenter"",""1"",""56780""
","""event"",""trial"",""time""
""fullscreenexit"",""96"",""374146""
","","","","","","176.5999999642372","images/orange2.png","","","memory_trial","3","maybe_new",""
"html-keyboard-response","121","457755","0.0-18.0-0.39","4531","approach_avoid_sv1","""event"",""trial"",""time""
""blur"",""1"",""7740""
""focus"",""1"",""56635""
""fullscreenenter"",""1"",""56780""
""fullscreenexit"",""96"",""374146""
""blur"",""96"",""381130""
""focus"",""106"",""436530""
","""event"",""trial"",""time""
""blur"",""1"",""7740""
""blur"",""96"",""381130""
","""event"",""trial"",""time""
""focus"",""1"",""56635""
""focus"",""106"",""436530""
","""event"",""trial"",""time""
""fullscreenenter"",""1"",""56780""
","""event"",""trial"",""time""
""fullscreenexit"",""96"",""374146""
","","","","","","null","<div style=""font-size:60px;"">+</div>","null","","fixation","","",""
"memory-trial","122","467766","0.0-18.0-1.39","4531","approach_avoid_sv1","""event"",""trial"",""time""
""blur"",""1"",""7740""
""focus"",""1"",""56635""
""fullscreenenter"",""1"",""56780""
""fullscreenexit"",""96"",""374146""
""blur"",""96"",""381130""
""focus"",""106"",""436530""
","""event"",""trial"",""time""
""blur"",""1"",""7740""
""blur"",""96"",""381130""
","""event"",""trial"",""time""
""focus"",""1"",""56635""
""focus"",""106"",""436530""
","""event"",""trial"",""time""
""fullscreenenter"",""1"",""56780""
","""event"",""trial"",""time""
""fullscreenexit"",""96"",""374146""
","","","","","","null","images/banana4.png","","","memory_trial","null","null",""
"html-keyboard-response","123","468275","0.0-18.0-0.40","4531","approach_avoid_sv1","""event"",""trial"",""time""
""blur"",""1"",""7740""
""focus"",""1"",""56635""
""fullscreenenter"",""1"",""56780""
""fullscreenexit"",""96"",""374146""
""blur"",""96"",""381130""
""focus"",""106"",""436530""
","""event"",""trial"",""time""
""blur"",""1"",""7740""
""blur"",""96"",""381130""
","""event"",""trial"",""time""
""focus"",""1"",""56635""
""focus"",""106"",""436530""
","""event"",""trial"",""time""
""fullscreenenter"",""1"",""56780""
","""event"",""trial"",""time""
""fullscreenexit"",""96"",""374146""
","","","","","","null","<div style=""font-size:60px;"">+</div>","null","","fixation","","",""
"memory-trial","124","478289","0.0-18.0-1.40","4531","approach_avoid_sv1","""event"",""trial"",""time""
""blur"",""1"",""7740""
""focus"",""1"",""56635""
""fullscreenenter"",""1"",""56780""
""fullscreenexit"",""96"",""374146""
""blur"",""96"",""381130""
""focus"",""106"",""436530""
","""event"",""trial"",""time""
""blur"",""1"",""7740""
""blur"",""96"",""381130""
","""event"",""trial"",""time""
""focus"",""1"",""56635""
""focus"",""106"",""436530""
","""event"",""trial"",""time""
""fullscreenenter"",""1"",""56780""
","""event"",""trial"",""time""
""fullscreenexit"",""96"",""374146""
","","","","","","null","images/tree3.png","","","memory_trial","null","null",""
"html-keyboard-response","125","478808","0.0-18.0-0.41","4531","approach_avoid_sv1","""event"",""trial"",""time""
""blur"",""1"",""7740""
""focus"",""1"",""56635""
""fullscreenenter"",""1"",""56780""
""fullscreenexit"",""96"",""374146""
""blur"",""96"",""381130""
""focus"",""106"",""436530""
","""event"",""trial"",""time""
""blur"",""1"",""7740""
""blur"",""96"",""381130""
","""event"",""trial"",""time""
""focus"",""1"",""56635""
""focus"",""106"",""436530""
","""event"",""trial"",""time""
""fullscreenenter"",""1"",""56780""
","""event"",""trial"",""time""
""fullscreenexit"",""96"",""374146""
","","","","","","null","<div style=""font-size:60px;"">+</div>","null","","fixation","","",""
"memory-trial","126","482169","0.0-18.0-1.41","4531","approach_avoid_sv1","""event"",""trial"",""time""
""blur"",""1"",""7740""
""focus"",""1"",""56635""
""fullscreenenter"",""1"",""56780""
""fullscreenexit"",""96"",""374146""
""blur"",""96"",""381130""
""focus"",""106"",""436530""
""blur"",""127"",""486987""
""focus"",""127"",""501317""
","""event"",""trial"",""time""
""blur"",""1"",""7740""
""blur"",""96"",""381130""
""blur"",""127"",""486987""
","""event"",""trial"",""time""
""focus"",""1"",""56635""
""focus"",""106"",""436530""
""focus"",""127"",""501317""
","""event"",""trial"",""time""
""fullscreenenter"",""1"",""56780""
","""event"",""trial"",""time""
""fullscreenexit"",""96"",""374146""
","","","","","","2342.800000011921","images/bush6.png","","","memory_trial","4","definitely_new",""
"html-button-response","127","501359","0.0-18.0-2.41-0.41","4531","approach_avoid_sv1","""event"",""trial"",""time""
""blur"",""1"",""7740""
""focus"",""1"",""56635""
""fullscreenenter"",""1"",""56780""
""fullscreenexit"",""96"",""374146""
""blur"",""96"",""381130""
""focus"",""106"",""436530""
""blur"",""127"",""486987""
""focus"",""127"",""501317""
","""event"",""trial"",""time""
""blur"",""1"",""7740""
""blur"",""96"",""381130""
""blur"",""127"",""486987""
","""event"",""trial"",""time""
""focus"",""1"",""56635""
""focus"",""106"",""436530""
""focus"",""127"",""501317""
","""event"",""trial"",""time""
""fullscreenenter"",""1"",""56780""
","""event"",""trial"",""time""
""fullscreenexit"",""96"",""374146""
","","","","","","19188.099999964237","<p> Take a break! </p><p> Click the button to continue. </p>","0","","break","","",""
"html-keyboard-response","128","501877","0.0-18.0-0.42","4531","approach_avoid_sv1","""event"",""trial"",""time""
""blur"",""1"",""7740""
""focus"",""1"",""56635""
""fullscreenenter"",""1"",""56780""
""fullscreenexit"",""96"",""374146""
""blur"",""96"",""381130""
""focus"",""106"",""436530""
""blur"",""127"",""486987""
""focus"",""127"",""501317""
","""event"",""trial"",""time""
""blur"",""1"",""7740""
""blur"",""96"",""381130""
""blur"",""127"",""486987""
","""event"",""trial"",""time""
""focus"",""1"",""56635""
""focus"",""106"",""436530""
""focus"",""127"",""501317""
","""event"",""trial"",""time""
""fullscreenenter"",""1"",""56780""
","""event"",""trial"",""time""
""fullscreenexit"",""96"",""374146""
","","","","","","null","<div style=""font-size:60px;"">+</div>","null","","fixation","","",""
"memory-trial","129","503780","0.0-18.0-1.42","4531","approach_avoid_sv1","""event"",""trial"",""time""
""blur"",""1"",""7740""
""focus"",""1"",""56635""
""fullscreenenter"",""1"",""56780""
""fullscreenexit"",""96"",""374146""
""blur"",""96"",""381130""
""focus"",""106"",""436530""
""blur"",""127"",""486987""
""focus"",""127"",""501317""
","""event"",""trial"",""time""
""blur"",""1"",""7740""
""blur"",""96"",""381130""
""blur"",""127"",""486987""
","""event"",""trial"",""time""
""focus"",""1"",""56635""
""focus"",""106"",""436530""
""focus"",""127"",""501317""
","""event"",""trial"",""time""
""fullscreenenter"",""1"",""56780""
","""event"",""trial"",""time""
""fullscreenexit"",""96"",""374146""
","","","","","","878.8999999761581","images/rodent8.png","","","memory_trial","2","maybe_old",""
"html-keyboard-response","130","504288","0.0-18.0-0.43","4531","approach_avoid_sv1","""event"",""trial"",""time""
""blur"",""1"",""7740""
""focus"",""1"",""56635""
""fullscreenenter"",""1"",""56780""
""fullscreenexit"",""96"",""374146""
""blur"",""96"",""381130""
""focus"",""106"",""436530""
""blur"",""127"",""486987""
""focus"",""127"",""501317""
","""event"",""trial"",""time""
""blur"",""1"",""7740""
""blur"",""96"",""381130""
""blur"",""127"",""486987""
","""event"",""trial"",""time""
""focus"",""1"",""56635""
""focus"",""106"",""436530""
""focus"",""127"",""501317""
","""event"",""trial"",""time""
""fullscreenenter"",""1"",""56780""
","""event"",""trial"",""time""
""fullscreenexit"",""96"",""374146""
","","","","","","null","<div style=""font-size:60px;"">+</div>","null","","fixation","","",""
"memory-trial","131","505479","0.0-18.0-1.43","4531","approach_avoid_sv1","""event"",""trial"",""time""
""blur"",""1"",""7740""
""focus"",""1"",""56635""
""fullscreenenter"",""1"",""56780""
""fullscreenexit"",""96"",""374146""
""blur"",""96"",""381130""
""focus"",""106"",""436530""
""blur"",""127"",""486987""
""focus"",""127"",""501317""
","""event"",""trial"",""time""
""blur"",""1"",""7740""
""blur"",""96"",""381130""
""blur"",""127"",""486987""
","""event"",""trial"",""time""
""focus"",""1"",""56635""
""focus"",""106"",""436530""
""focus"",""127"",""501317""
","""event"",""trial"",""time""
""fullscreenenter"",""1"",""56780""
","""event"",""trial"",""time""
""fullscreenexit"",""96"",""374146""
","","","","","","178.0999999642372","images/banana2.png","","","memory_trial","4","definitely_new",""
"html-keyboard-response","132","505998","0.0-18.0-0.44","4531","approach_avoid_sv1","""event"",""trial"",""time""
""blur"",""1"",""7740""
""focus"",""1"",""56635""
""fullscreenenter"",""1"",""56780""
""fullscreenexit"",""96"",""374146""
""blur"",""96"",""381130""
""focus"",""106"",""436530""
""blur"",""127"",""486987""
""focus"",""127"",""501317""
","""event"",""trial"",""time""
""blur"",""1"",""7740""
""blur"",""96"",""381130""
""blur"",""127"",""486987""
","""event"",""trial"",""time""
""focus"",""1"",""56635""
""focus"",""106"",""436530""
""focus"",""127"",""501317""
","""event"",""trial"",""time""
""fullscreenenter"",""1"",""56780""
","""event"",""trial"",""time""
""fullscreenexit"",""96"",""374146""
","","","","","","null","<div style=""font-size:60px;"">+</div>","null","","fixation","","",""
"memory-trial","133","507112","0.0-18.0-1.44","4531","approach_avoid_sv1","""event"",""trial"",""time""
""blur"",""1"",""7740""
""focus"",""1"",""56635""
""fullscreenenter"",""1"",""56780""
""fullscreenexit"",""96"",""374146""
""blur"",""96"",""381130""
""focus"",""106"",""436530""
""blur"",""127"",""486987""
""focus"",""127"",""501317""
","""event"",""trial"",""time""
""blur"",""1"",""7740""
""blur"",""96"",""381130""
""blur"",""127"",""486987""
","""event"",""trial"",""time""
""focus"",""1"",""56635""
""focus"",""106"",""436530""
""focus"",""127"",""501317""
","""event"",""trial"",""time""
""fullscreenenter"",""1"",""56780""
","""event"",""trial"",""time""
""fullscreenexit"",""96"",""374146""
","","","","","","88.19999998807907","images/table8.png","","","memory_trial","1","definitely_old",""
"html-keyboard-response","134","507627","0.0-18.0-0.45","4531","approach_avoid_sv1","""event"",""trial"",""time""
""blur"",""1"",""7740""
""focus"",""1"",""56635""
""fullscreenenter"",""1"",""56780""
""fullscreenexit"",""96"",""374146""
""blur"",""96"",""381130""
""focus"",""106"",""436530""
""blur"",""127"",""486987""
""focus"",""127"",""501317""
","""event"",""trial"",""time""
""blur"",""1"",""7740""
""blur"",""96"",""381130""
""blur"",""127"",""486987""
","""event"",""trial"",""time""
""focus"",""1"",""56635""
""focus"",""106"",""436530""
""focus"",""127"",""501317""
","""event"",""trial"",""time""
""fullscreenenter"",""1"",""56780""
","""event"",""trial"",""time""
""fullscreenexit"",""96"",""374146""
","","","","","","null","<div style=""font-size:60px;"">+</div>","null","","fixation","","",""
"memory-trial","135","509065","0.0-18.0-1.45","4531","approach_avoid_sv1","""event"",""trial"",""time""
""blur"",""1"",""7740""
""focus"",""1"",""56635""
""fullscreenenter"",""1"",""56780""
""fullscreenexit"",""96"",""374146""
""blur"",""96"",""381130""
""focus"",""106"",""436530""
""blur"",""127"",""486987""
""focus"",""127"",""501317""
","""event"",""trial"",""time""
""blur"",""1"",""7740""
""blur"",""96"",""381130""
""blur"",""127"",""486987""
","""event"",""trial"",""time""
""focus"",""1"",""56635""
""focus"",""106"",""436530""
""focus"",""127"",""501317""
","""event"",""trial"",""time""
""fullscreenenter"",""1"",""56780""
","""event"",""trial"",""time""
""fullscreenexit"",""96"",""374146""
","","","","","","420.69999998807907","images/bed7.png","","","memory_trial","1","definitely_old",""
"html-keyboard-response","136","509581","0.0-18.0-0.46","4531","approach_avoid_sv1","""event"",""trial"",""time""
""blur"",""1"",""7740""
""focus"",""1"",""56635""
""fullscreenenter"",""1"",""56780""
""fullscreenexit"",""96"",""374146""
""blur"",""96"",""381130""
""focus"",""106"",""436530""
""blur"",""127"",""486987""
""focus"",""127"",""501317""
","""event"",""trial"",""time""
""blur"",""1"",""7740""
""blur"",""96"",""381130""
""blur"",""127"",""486987""
","""event"",""trial"",""time""
""focus"",""1"",""56635""
""focus"",""106"",""436530""
""focus"",""127"",""501317""
","""event"",""trial"",""time""
""fullscreenenter"",""1"",""56780""
","""event"",""trial"",""time""
""fullscreenexit"",""96"",""374146""
","","","","","","null","<div style=""font-size:60px;"">+</div>","null","","fixation","","",""
"memory-trial","137","510649","0.0-18.0-1.46","4531","approach_avoid_sv1","""event"",""trial"",""time""
""blur"",""1"",""7740""
""focus"",""1"",""56635""
""fullscreenenter"",""1"",""56780""
""fullscreenexit"",""96"",""374146""
""blur"",""96"",""381130""
""focus"",""106"",""436530""
""blur"",""127"",""486987""
""focus"",""127"",""501317""
","""event"",""trial"",""time""
""blur"",""1"",""7740""
""blur"",""96"",""381130""
""blur"",""127"",""486987""
","""event"",""trial"",""time""
""focus"",""1"",""56635""
""focus"",""106"",""436530""
""focus"",""127"",""501317""
","""event"",""trial"",""time""
""fullscreenenter"",""1"",""56780""
","""event"",""trial"",""time""
""fullscreenexit"",""96"",""374146""
","","","","","","52.39999997615814","images/cat3.png","","","memory_trial","1","definitely_old",""
"html-keyboard-response","138","511159","0.0-18.0-0.47","4531","approach_avoid_sv1","""event"",""trial"",""time""
""blur"",""1"",""7740""
""focus"",""1"",""56635""
""fullscreenenter"",""1"",""56780""
""fullscreenexit"",""96"",""374146""
""blur"",""96"",""381130""
""focus"",""106"",""436530""
""blur"",""127"",""486987""
""focus"",""127"",""501317""
","""event"",""trial"",""time""
""blur"",""1"",""7740""
""blur"",""96"",""381130""
""blur"",""127"",""486987""
","""event"",""trial"",""time""
""focus"",""1"",""56635""
""focus"",""106"",""436530""
""focus"",""127"",""501317""
","""event"",""trial"",""time""
""fullscreenenter"",""1"",""56780""
","""event"",""trial"",""time""
""fullscreenexit"",""96"",""374146""
","","","","","","null","<div style=""font-size:60px;"">+</div>","null","","fixation","","",""
"memory-trial","139","512335","0.0-18.0-1.47","4531","approach_avoid_sv1","""event"",""trial"",""time""
""blur"",""1"",""7740""
""focus"",""1"",""56635""
""fullscreenenter"",""1"",""56780""
""fullscreenexit"",""96"",""374146""
""blur"",""96"",""381130""
""focus"",""106"",""436530""
""blur"",""127"",""486987""
""focus"",""127"",""501317""
","""event"",""trial"",""time""
""blur"",""1"",""7740""
""blur"",""96"",""381130""
""blur"",""127"",""486987""
","""event"",""trial"",""time""
""focus"",""1"",""56635""
""focus"",""106"",""436530""
""focus"",""127"",""501317""
","""event"",""trial"",""time""
""fullscreenenter"",""1"",""56780""
","""event"",""trial"",""time""
""fullscreenexit"",""96"",""374146""
","","","","","","156.5999999642372","images/rabbit5.png","","","memory_trial","2","maybe_old",""
"html-keyboard-response","140","512860","0.0-18.0-0.48","4531","approach_avoid_sv1","""event"",""trial"",""time""
""blur"",""1"",""7740""
""focus"",""1"",""56635""
""fullscreenenter"",""1"",""56780""
""fullscreenexit"",""96"",""374146""
""blur"",""96"",""381130""
""focus"",""106"",""436530""
""blur"",""127"",""486987""
""focus"",""127"",""501317""
","""event"",""trial"",""time""
""blur"",""1"",""7740""
""blur"",""96"",""381130""
""blur"",""127"",""486987""
","""event"",""trial"",""time""
""focus"",""1"",""56635""
""focus"",""106"",""436530""
""focus"",""127"",""501317""
","""event"",""trial"",""time""
""fullscreenenter"",""1"",""56780""
","""event"",""trial"",""time""
""fullscreenexit"",""96"",""374146""
","","","","","","null","<div style=""font-size:60px;"">+</div>","null","","fixation","","",""
"memory-trial","141","513913","0.0-18.0-1.48","4531","approach_avoid_sv1","""event"",""trial"",""time""
""blur"",""1"",""7740""
""focus"",""1"",""56635""
""fullscreenenter"",""1"",""56780""
""fullscreenexit"",""96"",""374146""
""blur"",""96"",""381130""
""focus"",""106"",""436530""
""blur"",""127"",""486987""
""focus"",""127"",""501317""
","""event"",""trial"",""time""
""blur"",""1"",""7740""
""blur"",""96"",""381130""
""blur"",""127"",""486987""
","""event"",""trial"",""time""
""focus"",""1"",""56635""
""focus"",""106"",""436530""
""focus"",""127"",""501317""
","""event"",""trial"",""time""
""fullscreenenter"",""1"",""56780""
","""event"",""trial"",""time""
""fullscreenexit"",""96"",""374146""
","","","","","","36.799999952316284","images/apple3.png","","","memory_trial","2","maybe_old",""
"html-keyboard-response","142","514427","0.0-18.0-0.49","4531","approach_avoid_sv1","""event"",""trial"",""time""
""blur"",""1"",""7740""
""focus"",""1"",""56635""
""fullscreenenter"",""1"",""56780""
""fullscreenexit"",""96"",""374146""
""blur"",""96"",""381130""
""focus"",""106"",""436530""
""blur"",""127"",""486987""
""focus"",""127"",""501317""
","""event"",""trial"",""time""
""blur"",""1"",""7740""
""blur"",""96"",""381130""
""blur"",""127"",""486987""
","""event"",""trial"",""time""
""focus"",""1"",""56635""
""focus"",""106"",""436530""
""focus"",""127"",""501317""
","""event"",""trial"",""time""
""fullscreenenter"",""1"",""56780""
","""event"",""trial"",""time""
""fullscreenexit"",""96"",""374146""
","","","","","","null","<div style=""font-size:60px;"">+</div>","null","","fixation","","",""
"memory-trial","143","515469","0.0-18.0-1.49","4531","approach_avoid_sv1","""event"",""trial"",""time""
""blur"",""1"",""7740""
""focus"",""1"",""56635""
""fullscreenenter"",""1"",""56780""
""fullscreenexit"",""96"",""374146""
""blur"",""96"",""381130""
""focus"",""106"",""436530""
""blur"",""127"",""486987""
""focus"",""127"",""501317""
","""event"",""trial"",""time""
""blur"",""1"",""7740""
""blur"",""96"",""381130""
""blur"",""127"",""486987""
","""event"",""trial"",""time""
""focus"",""1"",""56635""
""focus"",""106"",""436530""
""focus"",""127"",""501317""
","""event"",""trial"",""time""
""fullscreenenter"",""1"",""56780""
","""event"",""trial"",""time""
""fullscreenexit"",""96"",""374146""
","","","","","","23.19999998807907","images/plane7.png","","","memory_trial","3","maybe_new",""
"html-keyboard-response","144","515973","0.0-18.0-0.50","4531","approach_avoid_sv1","""event"",""trial"",""time""
""blur"",""1"",""7740""
""focus"",""1"",""56635""
""fullscreenenter"",""1"",""56780""
""fullscreenexit"",""96"",""374146""
""blur"",""96"",""381130""
""focus"",""106"",""436530""
""blur"",""127"",""486987""
""focus"",""127"",""501317""
","""event"",""trial"",""time""
""blur"",""1"",""7740""
""blur"",""96"",""381130""
""blur"",""127"",""486987""
","""event"",""trial"",""time""
""focus"",""1"",""56635""
""focus"",""106"",""436530""
""focus"",""127"",""501317""
","""event"",""trial"",""time""
""fullscreenenter"",""1"",""56780""
","""event"",""trial"",""time""
""fullscreenexit"",""96"",""374146""
","","","","","","null","<div style=""font-size:60px;"">+</div>","null","","fixation","","",""
"memory-trial","145","517512","0.0-18.0-1.50","4531","approach_avoid_sv1","""event"",""trial"",""time""
""blur"",""1"",""7740""
""focus"",""1"",""56635""
""fullscreenenter"",""1"",""56780""
""fullscreenexit"",""96"",""374146""
""blur"",""96"",""381130""
""focus"",""106"",""436530""
""blur"",""127"",""486987""
""focus"",""127"",""501317""
","""event"",""trial"",""time""
""blur"",""1"",""7740""
""blur"",""96"",""381130""
""blur"",""127"",""486987""
","""event"",""trial"",""time""
""focus"",""1"",""56635""
""focus"",""106"",""436530""
""focus"",""127"",""501317""
","""event"",""trial"",""time""
""fullscreenenter"",""1"",""56780""
","""event"",""trial"",""time""
""fullscreenexit"",""96"",""374146""
","","","","","","520.5","images/cat6.png","","","memory_trial","2","maybe_old",""
"html-keyboard-response","146","518031","0.0-18.0-0.51","4531","approach_avoid_sv1","""event"",""trial"",""time""
""blur"",""1"",""7740""
""focus"",""1"",""56635""
""fullscreenenter"",""1"",""56780""
""fullscreenexit"",""96"",""374146""
""blur"",""96"",""381130""
""focus"",""106"",""436530""
""blur"",""127"",""486987""
""focus"",""127"",""501317""
","""event"",""trial"",""time""
""blur"",""1"",""7740""
""blur"",""96"",""381130""
""blur"",""127"",""486987""
","""event"",""trial"",""time""
""focus"",""1"",""56635""
""focus"",""106"",""436530""
""focus"",""127"",""501317""
","""event"",""trial"",""time""
""fullscreenenter"",""1"",""56780""
","""event"",""trial"",""time""
""fullscreenexit"",""96"",""374146""
","","","","","","null","<div style=""font-size:60px;"">+</div>","null","","fixation","","",""
"memory-trial","147","519082","0.0-18.0-1.51","4531","approach_avoid_sv1","""event"",""trial"",""time""
""blur"",""1"",""7740""
""focus"",""1"",""56635""
""fullscreenenter"",""1"",""56780""
""fullscreenexit"",""96"",""374146""
""blur"",""96"",""381130""
""focus"",""106"",""436530""
""blur"",""127"",""486987""
""focus"",""127"",""501317""
","""event"",""trial"",""time""
""blur"",""1"",""7740""
""blur"",""96"",""381130""
""blur"",""127"",""486987""
","""event"",""trial"",""time""
""focus"",""1"",""56635""
""focus"",""106"",""436530""
""focus"",""127"",""501317""
","""event"",""trial"",""time""
""fullscreenenter"",""1"",""56780""
","""event"",""trial"",""time""
""fullscreenexit"",""96"",""374146""
","","","","","","31.19999998807907","images/sheep3.png","","","memory_trial","4","definitely_new",""
"html-keyboard-response","148","519594","0.0-18.0-0.52","4531","approach_avoid_sv1","""event"",""trial"",""time""
""blur"",""1"",""7740""
""focus"",""1"",""56635""
""fullscreenenter"",""1"",""56780""
""fullscreenexit"",""96"",""374146""
""blur"",""96"",""381130""
""focus"",""106"",""436530""
""blur"",""127"",""486987""
""focus"",""127"",""501317""
","""event"",""trial"",""time""
""blur"",""1"",""7740""
""blur"",""96"",""381130""
""blur"",""127"",""486987""
","""event"",""trial"",""time""
""focus"",""1"",""56635""
""focus"",""106"",""436530""
""focus"",""127"",""501317""
","""event"",""trial"",""time""
""fullscreenenter"",""1"",""56780""
","""event"",""trial"",""time""
""fullscreenexit"",""96"",""374146""
","","","","","","null","<div style=""font-size:60px;"">+</div>","null","","fixation","","",""
"memory-trial","149","520652","0.0-18.0-1.52","4531","approach_avoid_sv1","""event"",""trial"",""time""
""blur"",""1"",""7740""
""focus"",""1"",""56635""
""fullscreenenter"",""1"",""56780""
""fullscreenexit"",""96"",""374146""
""blur"",""96"",""381130""
""focus"",""106"",""436530""
""blur"",""127"",""486987""
""focus"",""127"",""501317""
","""event"",""trial"",""time""
""blur"",""1"",""7740""
""blur"",""96"",""381130""
""blur"",""127"",""486987""
","""event"",""trial"",""time""
""focus"",""1"",""56635""
""focus"",""106"",""436530""
""focus"",""127"",""501317""
","""event"",""trial"",""time""
""fullscreenenter"",""1"",""56780""
","""event"",""trial"",""time""
""fullscreenexit"",""96"",""374146""
","","","","","","35","images/table3.png","","","memory_trial","4","definitely_new",""
"html-keyboard-response","150","521158","0.0-18.0-0.53","4531","approach_avoid_sv1","""event"",""trial"",""time""
""blur"",""1"",""7740""
""focus"",""1"",""56635""
""fullscreenenter"",""1"",""56780""
""fullscreenexit"",""96"",""374146""
""blur"",""96"",""381130""
""focus"",""106"",""436530""
""blur"",""127"",""486987""
""focus"",""127"",""501317""
","""event"",""trial"",""time""
""blur"",""1"",""7740""
""blur"",""96"",""381130""
""blur"",""127"",""486987""
","""event"",""trial"",""time""
""focus"",""1"",""56635""
""focus"",""106"",""436530""
""focus"",""127"",""501317""
","""event"",""trial"",""time""
""fullscreenenter"",""1"",""56780""
","""event"",""trial"",""time""
""fullscreenexit"",""96"",""374146""
","","","","","","null","<div style=""font-size:60px;"">+</div>","null","","fixation","","",""
"memory-trial","151","522576","0.0-18.0-1.53","4531","approach_avoid_sv1","""event"",""trial"",""time""
""blur"",""1"",""7740""
""focus"",""1"",""56635""
""fullscreenenter"",""1"",""56780""
""fullscreenexit"",""96"",""374146""
""blur"",""96"",""381130""
""focus"",""106"",""436530""
""blur"",""127"",""486987""
""focus"",""127"",""501317""
","""event"",""trial"",""time""
""blur"",""1"",""7740""
""blur"",""96"",""381130""
""blur"",""127"",""486987""
","""event"",""trial"",""time""
""focus"",""1"",""56635""
""focus"",""106"",""436530""
""focus"",""127"",""501317""
","""event"",""trial"",""time""
""fullscreenenter"",""1"",""56780""
","""event"",""trial"",""time""
""fullscreenexit"",""96"",""374146""
","","","","","","399.10000002384186","images/cow1.png","","","memory_trial","1","definitely_old",""
"html-keyboard-response","152","523087","0.0-18.0-0.54","4531","approach_avoid_sv1","""event"",""trial"",""time""
""blur"",""1"",""7740""
""focus"",""1"",""56635""
""fullscreenenter"",""1"",""56780""
""fullscreenexit"",""96"",""374146""
""blur"",""96"",""381130""
""focus"",""106"",""436530""
""blur"",""127"",""486987""
""focus"",""127"",""501317""
","""event"",""trial"",""time""
""blur"",""1"",""7740""
""blur"",""96"",""381130""
""blur"",""127"",""486987""
","""event"",""trial"",""time""
""focus"",""1"",""56635""
""focus"",""106"",""436530""
""focus"",""127"",""501317""
","""event"",""trial"",""time""
""fullscreenenter"",""1"",""56780""
","""event"",""trial"",""time""
""fullscreenexit"",""96"",""374146""
","","","","","","null","<div style=""font-size:60px;"">+</div>","null","","fixation","","",""
"memory-trial","153","524540","0.0-18.0-1.54","4531","approach_avoid_sv1","""event"",""trial"",""time""
""blur"",""1"",""7740""
""focus"",""1"",""56635""
""fullscreenenter"",""1"",""56780""
""fullscreenexit"",""96"",""374146""
""blur"",""96"",""381130""
""focus"",""106"",""436530""
""blur"",""127"",""486987""
""focus"",""127"",""501317""
","""event"",""trial"",""time""
""blur"",""1"",""7740""
""blur"",""96"",""381130""
""blur"",""127"",""486987""
","""event"",""trial"",""time""
""focus"",""1"",""56635""
""focus"",""106"",""436530""
""focus"",""127"",""501317""
","""event"",""trial"",""time""
""fullscreenenter"",""1"",""56780""
","""event"",""trial"",""time""
""fullscreenexit"",""96"",""374146""
","","","","","","437.60000002384186","images/plane2.png","","","memory_trial","3","maybe_new",""
"html-keyboard-response","154","525054","0.0-18.0-0.55","4531","approach_avoid_sv1","""event"",""trial"",""time""
""blur"",""1"",""7740""
""focus"",""1"",""56635""
""fullscreenenter"",""1"",""56780""
""fullscreenexit"",""96"",""374146""
""blur"",""96"",""381130""
""focus"",""106"",""436530""
""blur"",""127"",""486987""
""focus"",""127"",""501317""
","""event"",""trial"",""time""
""blur"",""1"",""7740""
""blur"",""96"",""381130""
""blur"",""127"",""486987""
","""event"",""trial"",""time""
""focus"",""1"",""56635""
""focus"",""106"",""436530""
""focus"",""127"",""501317""
","""event"",""trial"",""time""
""fullscreenenter"",""1"",""56780""
","""event"",""trial"",""time""
""fullscreenexit"",""96"",""374146""
","","","","","","null","<div style=""font-size:60px;"">+</div>","null","","fixation","","",""
"memory-trial","155","526624","0.0-18.0-1.55","4531","approach_avoid_sv1","""event"",""trial"",""time""
""blur"",""1"",""7740""
""focus"",""1"",""56635""
""fullscreenenter"",""1"",""56780""
""fullscreenexit"",""96"",""374146""
""blur"",""96"",""381130""
""focus"",""106"",""436530""
""blur"",""127"",""486987""
""focus"",""127"",""501317""
","""event"",""trial"",""time""
""blur"",""1"",""7740""
""blur"",""96"",""381130""
""blur"",""127"",""486987""
","""event"",""trial"",""time""
""focus"",""1"",""56635""
""focus"",""106"",""436530""
""focus"",""127"",""501317""
","""event"",""trial"",""time""
""fullscreenenter"",""1"",""56780""
","""event"",""trial"",""time""
""fullscreenexit"",""96"",""374146""
","","","","","","550.1000000238419","images/horse3.png","","","memory_trial","3","maybe_new",""
"html-keyboard-response","156","527141","0.0-18.0-0.56","4531","approach_avoid_sv1","""event"",""trial"",""time""
""blur"",""1"",""7740""
""focus"",""1"",""56635""
""fullscreenenter"",""1"",""56780""
""fullscreenexit"",""96"",""374146""
""blur"",""96"",""381130""
""focus"",""106"",""436530""
""blur"",""127"",""486987""
""focus"",""127"",""501317""
","""event"",""trial"",""time""
""blur"",""1"",""7740""
""blur"",""96"",""381130""
""blur"",""127"",""486987""
","""event"",""trial"",""time""
""focus"",""1"",""56635""
""focus"",""106"",""436530""
""focus"",""127"",""501317""
","""event"",""trial"",""time""
""fullscreenenter"",""1"",""56780""
","""event"",""trial"",""time""
""fullscreenexit"",""96"",""374146""
","","","","","","null","<div style=""font-size:60px;"">+</div>","null","","fixation","","",""
"memory-trial","157","528498","0.0-18.0-1.56","4531","approach_avoid_sv1","""event"",""trial"",""time""
""blur"",""1"",""7740""
""focus"",""1"",""56635""
""fullscreenenter"",""1"",""56780""
""fullscreenexit"",""96"",""374146""
""blur"",""96"",""381130""
""focus"",""106"",""436530""
""blur"",""127"",""486987""
""focus"",""127"",""501317""
","""event"",""trial"",""time""
""blur"",""1"",""7740""
""blur"",""96"",""381130""
""blur"",""127"",""486987""
","""event"",""trial"",""time""
""focus"",""1"",""56635""
""focus"",""106"",""436530""
""focus"",""127"",""501317""
","""event"",""trial"",""time""
""fullscreenenter"",""1"",""56780""
","""event"",""trial"",""time""
""fullscreenexit"",""96"",""374146""
","","","","","","336.80000001192093","images/horse8.png","","","memory_trial","2","maybe_old",""
"html-keyboard-response","158","529005","0.0-18.0-0.57","4531","approach_avoid_sv1","""event"",""trial"",""time""
""blur"",""1"",""7740""
""focus"",""1"",""56635""
""fullscreenenter"",""1"",""56780""
""fullscreenexit"",""96"",""374146""
""blur"",""96"",""381130""
""focus"",""106"",""436530""
""blur"",""127"",""486987""
""focus"",""127"",""501317""
","""event"",""trial"",""time""
""blur"",""1"",""7740""
""blur"",""96"",""381130""
""blur"",""127"",""486987""
","""event"",""trial"",""time""
""focus"",""1"",""56635""
""focus"",""106"",""436530""
""focus"",""127"",""501317""
","""event"",""trial"",""time""
""fullscreenenter"",""1"",""56780""
","""event"",""trial"",""time""
""fullscreenexit"",""96"",""374146""
","","","","","","null","<div style=""font-size:60px;"">+</div>","null","","fixation","","",""
"memory-trial","159","530063","0.0-18.0-1.57","4531","approach_avoid_sv1","""event"",""trial"",""time""
""blur"",""1"",""7740""
""focus"",""1"",""56635""
""fullscreenenter"",""1"",""56780""
""fullscreenexit"",""96"",""374146""
""blur"",""96"",""381130""
""focus"",""106"",""436530""
""blur"",""127"",""486987""
""focus"",""127"",""501317""
","""event"",""trial"",""time""
""blur"",""1"",""7740""
""blur"",""96"",""381130""
""blur"",""127"",""486987""
","""event"",""trial"",""time""
""focus"",""1"",""56635""
""focus"",""106"",""436530""
""focus"",""127"",""501317""
","""event"",""trial"",""time""
""fullscreenenter"",""1"",""56780""
","""event"",""trial"",""time""
""fullscreenexit"",""96"",""374146""
","","","","","","28.69999998807907","images/cow5.png","","","memory_trial","4","definitely_new",""
"html-keyboard-response","160","530580","0.0-18.0-0.58","4531","approach_avoid_sv1","""event"",""trial"",""time""
""blur"",""1"",""7740""
""focus"",""1"",""56635""
""fullscreenenter"",""1"",""56780""
""fullscreenexit"",""96"",""374146""
""blur"",""96"",""381130""
""focus"",""106"",""436530""
""blur"",""127"",""486987""
""focus"",""127"",""501317""
","""event"",""trial"",""time""
""blur"",""1"",""7740""
""blur"",""96"",""381130""
""blur"",""127"",""486987""
","""event"",""trial"",""time""
""focus"",""1"",""56635""
""focus"",""106"",""436530""
""focus"",""127"",""501317""
","""event"",""trial"",""time""
""fullscreenenter"",""1"",""56780""
","""event"",""trial"",""time""
""fullscreenexit"",""96"",""374146""
","","","","","","null","<div style=""font-size:60px;"">+</div>","null","","fixation","","",""
"memory-trial","161","531642","0.0-18.0-1.58","4531","approach_avoid_sv1","""event"",""trial"",""time""
""blur"",""1"",""7740""
""focus"",""1"",""56635""
""fullscreenenter"",""1"",""56780""
""fullscreenexit"",""96"",""374146""
""blur"",""96"",""381130""
""focus"",""106"",""436530""
""blur"",""127"",""486987""
""focus"",""127"",""501317""
","""event"",""trial"",""time""
""blur"",""1"",""7740""
""blur"",""96"",""381130""
""blur"",""127"",""486987""
","""event"",""trial"",""time""
""focus"",""1"",""56635""
""focus"",""106"",""436530""
""focus"",""127"",""501317""
","""event"",""trial"",""time""
""fullscreenenter"",""1"",""56780""
","""event"",""trial"",""time""
""fullscreenexit"",""96"",""374146""
","","","","","","45.60000002384186","images/bush2.png","","","memory_trial","1","definitely_old",""
