"trial_type","trial_index","time_elapsed","internal_node_id","subject_id","task_version","interactions","blur_events","focus_events","fullscreenenter_events","fullscreenexit_events","success","timeout","failed_images","failed_audio","failed_video","rt","stimulus","response","button_pressed","task_part","key_press","answer","correct"
"pavlovia","0","10","0.0-0.0","6208","approach_avoid_sv1","""event"",""trial"",""time""
""focus"",""1"",""4260""
""fullscreenenter"",""1"",""7188""
","
","""event"",""trial"",""time""
""focus"",""1"",""4260""
","""event"",""trial"",""time""
""fullscreenenter"",""1"",""7188""
","
","","","","","","","","","","","","",""
"fullscreen","1","8166","0.0-1.0","6208","approach_avoid_sv1","""event"",""trial"",""time""
""focus"",""1"",""4260""
""fullscreenenter"",""1"",""7188""
","
","""event"",""trial"",""time""
""focus"",""1"",""4260""
","""event"",""trial"",""time""
""fullscreenenter"",""1"",""7188""
","
","true","","","","","","","","","","","",""
"preload","2","19390","0.0-2.0","6208","approach_avoid_sv1","""event"",""trial"",""time""
""focus"",""1"",""4260""
""fullscreenenter"",""1"",""7188""
","
","""event"",""trial"",""time""
""focus"",""1"",""4260""
","""event"",""trial"",""time""
""fullscreenenter"",""1"",""7188""
","
","true","false","[]","[]","[]","","","","","","","",""
"preload","3","28278","0.0-3.0","6208","approach_avoid_sv1","""event"",""trial"",""time""
""focus"",""1"",""4260""
""fullscreenenter"",""1"",""7188""
","
","""event"",""trial"",""time""
""focus"",""1"",""4260""
","""event"",""trial"",""time""
""fullscreenenter"",""1"",""7188""
","
","true","false","[]","[]","[]","","","","","","","",""
"preload","4","29476","0.0-4.0","6208","approach_avoid_sv1","""event"",""trial"",""time""
""focus"",""1"",""4260""
""fullscreenenter"",""1"",""7188""
","
","""event"",""trial"",""time""
""focus"",""1"",""4260""
","""event"",""trial"",""time""
""fullscreenenter"",""1"",""7188""
","
","true","false","[]","[]","[]","","","","","","","",""
"audio-keyboard-response","5","37084","0.0-5.0","6208","approach_avoid_sv1","""event"",""trial"",""time""
""focus"",""1"",""4260""
""fullscreenenter"",""1"",""7188""
","
","""event"",""trial"",""time""
""focus"",""1"",""4260""
","""event"",""trial"",""time""
""fullscreenenter"",""1"",""7188""
","
","","","","","","3719.9999999999995","audio/beep_loop.wav"," ","","","","",""
"audio-button-response","6","38814","0.0-6.0","6208","approach_avoid_sv1","""event"",""trial"",""time""
""focus"",""1"",""4260""
""fullscreenenter"",""1"",""7188""
","
","""event"",""trial"",""time""
""focus"",""1"",""4260""
","""event"",""trial"",""time""
""fullscreenenter"",""1"",""7188""
","
","","","","","","1731","audio/turtle.wav","3","","","","",""
"audio-button-response","7","41361","0.0-7.0","6208","approach_avoid_sv1","""event"",""trial"",""time""
""focus"",""1"",""4260""
""fullscreenenter"",""1"",""7188""
","
","""event"",""trial"",""time""
""focus"",""1"",""4260""
","""event"",""trial"",""time""
""fullscreenenter"",""1"",""7188""
","
","","","","","","1531","audio/shark.wav","2","","","","",""
"preload","8","53157","0.0-8.0","6208","approach_avoid_sv1","""event"",""trial"",""time""
""focus"",""1"",""4260""
""fullscreenenter"",""1"",""7188""
","
","""event"",""trial"",""time""
""focus"",""1"",""4260""
","""event"",""trial"",""time""
""fullscreenenter"",""1"",""7188""
","
","true","false","[]","[]","[]","","","","","","","",""
"learning-instructions","9","61158","0.0-9.0-0.0","6208","approach_avoid_sv1","""event"",""trial"",""time""
""focus"",""1"",""4260""
""fullscreenenter"",""1"",""7188""
","
","""event"",""trial"",""time""
""focus"",""1"",""4260""
","""event"",""trial"",""time""
""fullscreenenter"",""1"",""7188""
","
","","","","","","3515.899999976158","<p> Welcome back! </p><p> Last week, you had to make choices about lots of different items.  </p>","","0","instructions","","",""
"learning-instructions","10","69498","0.0-9.0-0.1","6208","approach_avoid_sv1","""event"",""trial"",""time""
""focus"",""1"",""4260""
""fullscreenenter"",""1"",""7188""
","
","""event"",""trial"",""time""
""focus"",""1"",""4260""
","""event"",""trial"",""time""
""fullscreenenter"",""1"",""7188""
","
","","","","","","4217.099999964237","<p> Today, we are going to ask you to try to remember all the items. </p>","","0","instructions","","",""
"learning-instructions","11","81036","0.0-9.0-0.2","6208","approach_avoid_sv1","""event"",""trial"",""time""
""focus"",""1"",""4260""
""fullscreenenter"",""1"",""7188""
","
","""event"",""trial"",""time""
""focus"",""1"",""4260""
","""event"",""trial"",""time""
""fullscreenenter"",""1"",""7188""
","
","","","","","","1391.199999988079","<p> On every trial, you will see an image. </p><p> The image may be an OLD image you saw during the games last week or it may be a NEW image that was not presented. </p>","","0","instructions","","",""
"learning-instructions","12","90637","0.0-9.0-0.3","6208","approach_avoid_sv1","""event"",""trial"",""time""
""focus"",""1"",""4260""
""fullscreenenter"",""1"",""7188""
","
","""event"",""trial"",""time""
""focus"",""1"",""4260""
","""event"",""trial"",""time""
""fullscreenenter"",""1"",""7188""
","
","","","","","","1104.8999999761581","<p> You need to select whether the image is:  </p><p>  'Definitely old', 'Maybe old', 'Maybe new', or 'Definitely new.'  </p><div class=""mem-choice-instructions-grid""><div class=""choice-option"" id=""choice-option-1"" ><img src=""images/definitely_old_1.png"" id=""choice-option-img-1"" class=""choice-option-img"" stage=""1""></div><div class=""choice-option"" id=""choice-option-2"" ><img src=""images/maybe_old_1.png"" id=""choice-option-img-2"" class=""choice-option-img"" stage=""1""></div><div class=""choice-option"" id=""choice-option-3"" ><img src=""images/maybe_new_1.png"" id=""choice-option-img-3"" class=""choice-option-img"" stage=""1""></div><div class=""choice-option"" id=""choice-option-4"" > <img src=""images/definitely_new_1.png"" id=""choice-option-img-4"" class=""choice-option-img"" stage=""1""></div></div>","","0","instructions","","",""
"learning-instructions","13","98228","0.0-9.0-0.4","6208","approach_avoid_sv1","""event"",""trial"",""time""
""focus"",""1"",""4260""
""fullscreenenter"",""1"",""7188""
","
","""event"",""trial"",""time""
""focus"",""1"",""4260""
","""event"",""trial"",""time""
""fullscreenenter"",""1"",""7188""
","
","","","","","","1076.3999999761581","<p> You should use the 1, 2, 3, and 4 keys to make your responses.  </p><div class=""mem-choice-instructions-grid""><div class=""choice-option"" id=""choice-option-1"" ><img src=""images/definitely_old.png"" id=""choice-option-img-1"" class=""choice-option-img"" stage=""1""></div><div class=""choice-option"" id=""choice-option-2"" ><img src=""images/maybe_old.png"" id=""choice-option-img-2"" class=""choice-option-img"" stage=""1""></div><div class=""choice-option"" id=""choice-option-3"" ><img src=""images/maybe_new.png"" id=""choice-option-img-3"" class=""choice-option-img"" stage=""1""></div><div class=""choice-option"" id=""choice-option-4"" > <img src=""images/definitely_new.png"" id=""choice-option-img-4"" class=""choice-option-img"" stage=""1""></div></div>","","0","instructions","","",""
"learning-instructions","14","108647","0.0-9.0-0.5","6208","approach_avoid_sv1","""event"",""trial"",""time""
""focus"",""1"",""4260""
""fullscreenenter"",""1"",""7188""
","
","""event"",""trial"",""time""
""focus"",""1"",""4260""
","""event"",""trial"",""time""
""fullscreenenter"",""1"",""7188""
","
","","","","","","4074.7999999523163","<p> You will have 10 seconds to make each response.  </p><p>  Make sure to respond before time runs out! </p>","","0","instructions","","",""
"learning-instructions","15","116796","0.0-9.0-0.6","6208","approach_avoid_sv1","""event"",""trial"",""time""
""focus"",""1"",""4260""
""fullscreenenter"",""1"",""7188""
","
","""event"",""trial"",""time""
""focus"",""1"",""4260""
","""event"",""trial"",""time""
""fullscreenenter"",""1"",""7188""
","
","","","","","","1081.5","<p> Today, you will see each image ONCE only.  </p><p>  That means none of the images will repeat. </p>","","0","instructions","","",""
"learning-instructions","16","130063","0.0-9.0-0.7","6208","approach_avoid_sv1","""event"",""trial"",""time""
""focus"",""1"",""4260""
""fullscreenenter"",""1"",""7188""
","
","""event"",""trial"",""time""
""focus"",""1"",""4260""
","""event"",""trial"",""time""
""fullscreenenter"",""1"",""7188""
","
","","","","","","589.0999999642372","<p> Before you play the real game, it is time to practice. </p><p>  Just like in the real game, some of the images in the practice will be ones you have seen before. </p><p>  Others will be entirely new. </p>","","0","instructions","","",""
"html-button-response","17","134516","0.0-10.0","6208","approach_avoid_sv1","""event"",""trial"",""time""
""focus"",""1"",""4260""
""fullscreenenter"",""1"",""7188""
","
","""event"",""trial"",""time""
""focus"",""1"",""4260""
","""event"",""trial"",""time""
""fullscreenenter"",""1"",""7188""
","
","","","","","","4341.199999988079","<p> Ready to practice? </p><p> Remember, use the 1, 2, 3, and 4 keys to make your responses. </p>","0","","instructions","","",""
"html-keyboard-response","18","135132","0.0-11.0-0.0","6208","approach_avoid_sv1","""event"",""trial"",""time""
""focus"",""1"",""4260""
""fullscreenenter"",""1"",""7188""
","
","""event"",""trial"",""time""
""focus"",""1"",""4260""
","""event"",""trial"",""time""
""fullscreenenter"",""1"",""7188""
","
","","","","","","null","<div style=""font-size:60px;"">+</div>","null","","fixation","","",""
"memory-trial","19","138708","0.0-11.0-1.0","6208","approach_avoid_sv1","""event"",""trial"",""time""
""focus"",""1"",""4260""
""fullscreenenter"",""1"",""7188""
","
","""event"",""trial"",""time""
""focus"",""1"",""4260""
","""event"",""trial"",""time""
""fullscreenenter"",""1"",""7188""
","
","","","","","","2548.199999988079","images/ball2.png","","","practice","4","definitely_new",""
"html-keyboard-response","20","139216","0.0-11.0-0.1","6208","approach_avoid_sv1","""event"",""trial"",""time""
""focus"",""1"",""4260""
""fullscreenenter"",""1"",""7188""
","
","""event"",""trial"",""time""
""focus"",""1"",""4260""
","""event"",""trial"",""time""
""fullscreenenter"",""1"",""7188""
","
","","","","","","null","<div style=""font-size:60px;"">+</div>","null","","fixation","","",""
"memory-trial","21","143242","0.0-11.0-1.1","6208","approach_avoid_sv1","""event"",""trial"",""time""
""focus"",""1"",""4260""
""fullscreenenter"",""1"",""7188""
","
","""event"",""trial"",""time""
""focus"",""1"",""4260""
","""event"",""trial"",""time""
""fullscreenenter"",""1"",""7188""
","
","","","","","","3019.399999976158","images/ball3.png","","","practice","1","definitely_old",""
"html-keyboard-response","22","143745","0.0-11.0-0.2","6208","approach_avoid_sv1","""event"",""trial"",""time""
""focus"",""1"",""4260""
""fullscreenenter"",""1"",""7188""
","
","""event"",""trial"",""time""
""focus"",""1"",""4260""
","""event"",""trial"",""time""
""fullscreenenter"",""1"",""7188""
","
","","","","","","null","<div style=""font-size:60px;"">+</div>","null","","fixation","","",""
"memory-trial","23","147612","0.0-11.0-1.2","6208","approach_avoid_sv1","""event"",""trial"",""time""
""focus"",""1"",""4260""
""fullscreenenter"",""1"",""7188""
","
","""event"",""trial"",""time""
""focus"",""1"",""4260""
","""event"",""trial"",""time""
""fullscreenenter"",""1"",""7188""
","
","","","","","","2848.599999964237","images/racket5.png","","","practice","3","maybe_new",""
"html-keyboard-response","24","148122","0.0-11.0-0.3","6208","approach_avoid_sv1","""event"",""trial"",""time""
""focus"",""1"",""4260""
""fullscreenenter"",""1"",""7188""
","
","""event"",""trial"",""time""
""focus"",""1"",""4260""
","""event"",""trial"",""time""
""fullscreenenter"",""1"",""7188""
","
","","","","","","null","<div style=""font-size:60px;"">+</div>","null","","fixation","","",""
"memory-trial","25","150072","0.0-11.0-1.3","6208","approach_avoid_sv1","""event"",""trial"",""time""
""focus"",""1"",""4260""
""fullscreenenter"",""1"",""7188""
","
","""event"",""trial"",""time""
""focus"",""1"",""4260""
","""event"",""trial"",""time""
""fullscreenenter"",""1"",""7188""
","
","","","","","","939.5","images/ball5.png","","","practice","1","definitely_old",""
"html-keyboard-response","26","150582","0.0-11.0-0.4","6208","approach_avoid_sv1","""event"",""trial"",""time""
""focus"",""1"",""4260""
""fullscreenenter"",""1"",""7188""
","
","""event"",""trial"",""time""
""focus"",""1"",""4260""
","""event"",""trial"",""time""
""fullscreenenter"",""1"",""7188""
","
","","","","","","null","<div style=""font-size:60px;"">+</div>","null","","fixation","","",""
"memory-trial","27","152760","0.0-11.0-1.4","6208","approach_avoid_sv1","""event"",""trial"",""time""
""focus"",""1"",""4260""
""fullscreenenter"",""1"",""7188""
","
","""event"",""trial"",""time""
""focus"",""1"",""4260""
","""event"",""trial"",""time""
""fullscreenenter"",""1"",""7188""
","
","","","","","","1171.5","images/racket3.png","","","practice","1","definitely_old",""
"html-keyboard-response","28","153270","0.0-11.0-0.5","6208","approach_avoid_sv1","""event"",""trial"",""time""
""focus"",""1"",""4260""
""fullscreenenter"",""1"",""7188""
","
","""event"",""trial"",""time""
""focus"",""1"",""4260""
","""event"",""trial"",""time""
""fullscreenenter"",""1"",""7188""
","
","","","","","","null","<div style=""font-size:60px;"">+</div>","null","","fixation","","",""
"memory-trial","29","156143","0.0-11.0-1.5","6208","approach_avoid_sv1","""event"",""trial"",""time""
""focus"",""1"",""4260""
""fullscreenenter"",""1"",""7188""
","
","""event"",""trial"",""time""
""focus"",""1"",""4260""
","""event"",""trial"",""time""
""fullscreenenter"",""1"",""7188""
","
","","","","","","1862.300000011921","images/racket2.png","","","practice","4","definitely_new",""
"html-keyboard-response","30","156662","0.0-11.0-0.6","6208","approach_avoid_sv1","""event"",""trial"",""time""
""focus"",""1"",""4260""
""fullscreenenter"",""1"",""7188""
","
","""event"",""trial"",""time""
""focus"",""1"",""4260""
","""event"",""trial"",""time""
""fullscreenenter"",""1"",""7188""
","
","","","","","","null","<div style=""font-size:60px;"">+</div>","null","","fixation","","",""
"memory-trial","31","159152","0.0-11.0-1.6","6208","approach_avoid_sv1","""event"",""trial"",""time""
""focus"",""1"",""4260""
""fullscreenenter"",""1"",""7188""
","
","""event"",""trial"",""time""
""focus"",""1"",""4260""
","""event"",""trial"",""time""
""fullscreenenter"",""1"",""7188""
","
","","","","","","1480.800000011921","images/racket1.png","","","practice","4","definitely_new",""
"html-keyboard-response","32","159672","0.0-11.0-0.7","6208","approach_avoid_sv1","""event"",""trial"",""time""
""focus"",""1"",""4260""
""fullscreenenter"",""1"",""7188""
","
","""event"",""trial"",""time""
""focus"",""1"",""4260""
","""event"",""trial"",""time""
""fullscreenenter"",""1"",""7188""
","
","","","","","","null","<div style=""font-size:60px;"">+</div>","null","","fixation","","",""
"memory-trial","33","162194","0.0-11.0-1.7","6208","approach_avoid_sv1","""event"",""trial"",""time""
""focus"",""1"",""4260""
""fullscreenenter"",""1"",""7188""
","
","""event"",""trial"",""time""
""focus"",""1"",""4260""
","""event"",""trial"",""time""
""fullscreenenter"",""1"",""7188""
","
","","","","","","1510.300000011921","images/ball1.png","","","practice","1","definitely_old",""
"learning-instructions","34","170557","0.0-12.0-0.0","6208","approach_avoid_sv1","""event"",""trial"",""time""
""focus"",""1"",""4260""
""fullscreenenter"",""1"",""7188""
","
","""event"",""trial"",""time""
""focus"",""1"",""4260""
","""event"",""trial"",""time""
""fullscreenenter"",""1"",""7188""
","
","","","","","","1042.5","<p> Great! You have completed the practice. </p><p> Before you start, we're going to ask you a few questions about how the game works.  </p>","","0","instructions","","",""
"preload","35","183518","0.0-13.0","6208","approach_avoid_sv1","""event"",""trial"",""time""
""focus"",""1"",""4260""
""fullscreenenter"",""1"",""7188""
","
","""event"",""trial"",""time""
""focus"",""1"",""4260""
","""event"",""trial"",""time""
""fullscreenenter"",""1"",""7188""
","
","true","false","[]","[]","[]","","","","","","","",""
"comp-q","36","190434","0.0-14.0-0.0","6208","approach_avoid_sv1","""event"",""trial"",""time""
""focus"",""1"",""4260""
""fullscreenenter"",""1"",""7188""
","
","""event"",""trial"",""time""
""focus"",""1"",""4260""
","""event"",""trial"",""time""
""fullscreenenter"",""1"",""7188""
","
","","","","","","1084.9000000357628","<p> <b> True or False? </b> </p><p> In this game, you will only see each image once. </p>","","0","comp_question","","","true"
"comp-q","37","197911","0.0-14.0-1.0","6208","approach_avoid_sv1","""event"",""trial"",""time""
""focus"",""1"",""4260""
""fullscreenenter"",""1"",""7188""
","
","""event"",""trial"",""time""
""focus"",""1"",""4260""
","""event"",""trial"",""time""
""fullscreenenter"",""1"",""7188""
","
","","","","","","1112.300000011921","<p> <b> That's right! </b> You will see many different images <i> one time each </i> in this game. </p>","","0","comp_answer","","",""
"comp-q","38","203834","0.0-15.0-0.0","6208","approach_avoid_sv1","""event"",""trial"",""time""
""focus"",""1"",""4260""
""fullscreenenter"",""1"",""7188""
","
","""event"",""trial"",""time""
""focus"",""1"",""4260""
","""event"",""trial"",""time""
""fullscreenenter"",""1"",""7188""
","
","","","","","","912.0999999642372","<p> <b> True or False? </b> </p><p> You should use the mouse and click to make your response. </p>","","1","comp_question","","","true"
"comp-q","39","211704","0.0-15.0-1.0","6208","approach_avoid_sv1","""event"",""trial"",""time""
""focus"",""1"",""4260""
""fullscreenenter"",""1"",""7188""
","
","""event"",""trial"",""time""
""focus"",""1"",""4260""
","""event"",""trial"",""time""
""fullscreenenter"",""1"",""7188""
","
","","","","","","1372","<p><b> That's right! </b> You should use the '1', '2', '3', and '4' keys to make your response. </p>","","0","comp_answer","","",""
"comp-q","40","218783","0.0-16.0-0.0","6208","approach_avoid_sv1","""event"",""trial"",""time""
""focus"",""1"",""4260""
""fullscreenenter"",""1"",""7188""
","
","""event"",""trial"",""time""
""focus"",""1"",""4260""
","""event"",""trial"",""time""
""fullscreenenter"",""1"",""7188""
","
","","","","","","1390.800000011921","<p> <b> True or False? </b> </p><p> You will have as much time as you want to make each choice. </p>","","1","comp_question","","","true"
"comp-q","41","224511","0.0-16.0-1.0","6208","approach_avoid_sv1","""event"",""trial"",""time""
""focus"",""1"",""4260""
""fullscreenenter"",""1"",""7188""
","
","""event"",""trial"",""time""
""focus"",""1"",""4260""
","""event"",""trial"",""time""
""fullscreenenter"",""1"",""7188""
","
","","","","","","1022","<p> <b> That's right! </b> You will only have 10 seconds to make each choice. </p>","","0","comp_answer","","",""
"learning-instructions","42","234453","0.0-17.0","6208","approach_avoid_sv1","""event"",""trial"",""time""
""focus"",""1"",""4260""
""fullscreenenter"",""1"",""7188""
","
","""event"",""trial"",""time""
""focus"",""1"",""4260""
","""event"",""trial"",""time""
""fullscreenenter"",""1"",""7188""
","
","","","","","","1261.5999999642372","<p> Great! You are now ready to begin the game. </p><p> Remember, use the 1, 2, 3, and 4 keys to make your responses. </p>","","0","instructions","","",""
"html-keyboard-response","43","235077","0.0-18.0-0.0","6208","approach_avoid_sv1","""event"",""trial"",""time""
""focus"",""1"",""4260""
""fullscreenenter"",""1"",""7188""
","
","""event"",""trial"",""time""
""focus"",""1"",""4260""
","""event"",""trial"",""time""
""fullscreenenter"",""1"",""7188""
","
","","","","","","null","<div style=""font-size:60px;"">+</div>","null","","fixation","","",""
"memory-trial","44","237559","0.0-18.0-1.0","6208","approach_avoid_sv1","""event"",""trial"",""time""
""focus"",""1"",""4260""
""fullscreenenter"",""1"",""7188""
","
","""event"",""trial"",""time""
""focus"",""1"",""4260""
","""event"",""trial"",""time""
""fullscreenenter"",""1"",""7188""
","
","","","","","","1473.300000011921","images/sofa3.png","","","memory_trial","4","definitely_new",""
"html-keyboard-response","45","238062","0.0-18.0-0.1","6208","approach_avoid_sv1","""event"",""trial"",""time""
""focus"",""1"",""4260""
""fullscreenenter"",""1"",""7188""
","
","""event"",""trial"",""time""
""focus"",""1"",""4260""
","""event"",""trial"",""time""
""fullscreenenter"",""1"",""7188""
","
","","","","","","null","<div style=""font-size:60px;"">+</div>","null","","fixation","","",""
"memory-trial","46","242060","0.0-18.0-1.1","6208","approach_avoid_sv1","""event"",""trial"",""time""
""focus"",""1"",""4260""
""fullscreenenter"",""1"",""7188""
","
","""event"",""trial"",""time""
""focus"",""1"",""4260""
","""event"",""trial"",""time""
""fullscreenenter"",""1"",""7188""
","
","","","","","","2980.199999988079","images/rodent5.png","","","memory_trial","4","definitely_new",""
"html-keyboard-response","47","242569","0.0-18.0-0.2","6208","approach_avoid_sv1","""event"",""trial"",""time""
""focus"",""1"",""4260""
""fullscreenenter"",""1"",""7188""
","
","""event"",""trial"",""time""
""focus"",""1"",""4260""
","""event"",""trial"",""time""
""fullscreenenter"",""1"",""7188""
","
","","","","","","null","<div style=""font-size:60px;"">+</div>","null","","fixation","","",""
"memory-trial","48","245056","0.0-18.0-1.2","6208","approach_avoid_sv1","""event"",""trial"",""time""
""focus"",""1"",""4260""
""fullscreenenter"",""1"",""7188""
","
","""event"",""trial"",""time""
""focus"",""1"",""4260""
","""event"",""trial"",""time""
""fullscreenenter"",""1"",""7188""
","
","","","","","","1481.3999999761581","images/banana3.png","","","memory_trial","1","definitely_old",""
"html-keyboard-response","49","245582","0.0-18.0-0.3","6208","approach_avoid_sv1","""event"",""trial"",""time""
""focus"",""1"",""4260""
""fullscreenenter"",""1"",""7188""
","
","""event"",""trial"",""time""
""focus"",""1"",""4260""
","""event"",""trial"",""time""
""fullscreenenter"",""1"",""7188""
","
","","","","","","null","<div style=""font-size:60px;"">+</div>","null","","fixation","","",""
"memory-trial","50","247672","0.0-18.0-1.3","6208","approach_avoid_sv1","""event"",""trial"",""time""
""focus"",""1"",""4260""
""fullscreenenter"",""1"",""7188""
","
","""event"",""trial"",""time""
""focus"",""1"",""4260""
","""event"",""trial"",""time""
""fullscreenenter"",""1"",""7188""
","
","","","","","","1062.199999988079","images/plane6.png","","","memory_trial","4","definitely_new",""
"html-keyboard-response","51","248182","0.0-18.0-0.4","6208","approach_avoid_sv1","""event"",""trial"",""time""
""focus"",""1"",""4260""
""fullscreenenter"",""1"",""7188""
","
","""event"",""trial"",""time""
""focus"",""1"",""4260""
","""event"",""trial"",""time""
""fullscreenenter"",""1"",""7188""
","
","","","","","","null","<div style=""font-size:60px;"">+</div>","null","","fixation","","",""
"memory-trial","52","253002","0.0-18.0-1.4","6208","approach_avoid_sv1","""event"",""trial"",""time""
""focus"",""1"",""4260""
""fullscreenenter"",""1"",""7188""
","
","""event"",""trial"",""time""
""focus"",""1"",""4260""
","""event"",""trial"",""time""
""fullscreenenter"",""1"",""7188""
","
","","","","","","3811.800000011921","images/bush8.png","","","memory_trial","1","definitely_old",""
"html-keyboard-response","53","253512","0.0-18.0-0.5","6208","approach_avoid_sv1","""event"",""trial"",""time""
""focus"",""1"",""4260""
""fullscreenenter"",""1"",""7188""
","
","""event"",""trial"",""time""
""focus"",""1"",""4260""
","""event"",""trial"",""time""
""fullscreenenter"",""1"",""7188""
","
","","","","","","null","<div style=""font-size:60px;"">+</div>","null","","fixation","","",""
"memory-trial","54","256592","0.0-18.0-1.5","6208","approach_avoid_sv1","""event"",""trial"",""time""
""focus"",""1"",""4260""
""fullscreenenter"",""1"",""7188""
","
","""event"",""trial"",""time""
""focus"",""1"",""4260""
","""event"",""trial"",""time""
""fullscreenenter"",""1"",""7188""
","
","","","","","","2051.599999964237","images/train3.png","","","memory_trial","1","definitely_old",""
"html-keyboard-response","55","257098","0.0-18.0-0.6","6208","approach_avoid_sv1","""event"",""trial"",""time""
""focus"",""1"",""4260""
""fullscreenenter"",""1"",""7188""
","
","""event"",""trial"",""time""
""focus"",""1"",""4260""
","""event"",""trial"",""time""
""fullscreenenter"",""1"",""7188""
","
","","","","","","null","<div style=""font-size:60px;"">+</div>","null","","fixation","","",""
"memory-trial","56","259152","0.0-18.0-1.6","6208","approach_avoid_sv1","""event"",""trial"",""time""
""focus"",""1"",""4260""
""fullscreenenter"",""1"",""7188""
","
","""event"",""trial"",""time""
""focus"",""1"",""4260""
","""event"",""trial"",""time""
""fullscreenenter"",""1"",""7188""
","
","","","","","","1037.300000011921","images/straw2.png","","","memory_trial","1","definitely_old",""
"html-keyboard-response","57","259662","0.0-18.0-0.7","6208","approach_avoid_sv1","""event"",""trial"",""time""
""focus"",""1"",""4260""
""fullscreenenter"",""1"",""7188""
","
","""event"",""trial"",""time""
""focus"",""1"",""4260""
","""event"",""trial"",""time""
""fullscreenenter"",""1"",""7188""
","
","","","","","","null","<div style=""font-size:60px;"">+</div>","null","","fixation","","",""
"memory-trial","58","261602","0.0-18.0-1.7","6208","approach_avoid_sv1","""event"",""trial"",""time""
""focus"",""1"",""4260""
""fullscreenenter"",""1"",""7188""
","
","""event"",""trial"",""time""
""focus"",""1"",""4260""
","""event"",""trial"",""time""
""fullscreenenter"",""1"",""7188""
","
","","","","","","922.0999999642372","images/orange8.png","","","memory_trial","4","definitely_new",""
"html-keyboard-response","59","262112","0.0-18.0-0.8","6208","approach_avoid_sv1","""event"",""trial"",""time""
""focus"",""1"",""4260""
""fullscreenenter"",""1"",""7188""
","
","""event"",""trial"",""time""
""focus"",""1"",""4260""
","""event"",""trial"",""time""
""fullscreenenter"",""1"",""7188""
","
","","","","","","null","<div style=""font-size:60px;"">+</div>","null","","fixation","","",""
"memory-trial","60","265864","0.0-18.0-1.8","6208","approach_avoid_sv1","""event"",""trial"",""time""
""focus"",""1"",""4260""
""fullscreenenter"",""1"",""7188""
","
","""event"",""trial"",""time""
""focus"",""1"",""4260""
","""event"",""trial"",""time""
""fullscreenenter"",""1"",""7188""
","
","","","","","","2742.5","images/train7.png","","","memory_trial","1","definitely_old",""
"html-keyboard-response","61","266378","0.0-18.0-0.9","6208","approach_avoid_sv1","""event"",""trial"",""time""
""focus"",""1"",""4260""
""fullscreenenter"",""1"",""7188""
","
","""event"",""trial"",""time""
""focus"",""1"",""4260""
","""event"",""trial"",""time""
""fullscreenenter"",""1"",""7188""
","
","","","","","","null","<div style=""font-size:60px;"">+</div>","null","","fixation","","",""
"memory-trial","62","268995","0.0-18.0-1.9","6208","approach_avoid_sv1","""event"",""trial"",""time""
""focus"",""1"",""4260""
""fullscreenenter"",""1"",""7188""
","
","""event"",""trial"",""time""
""focus"",""1"",""4260""
","""event"",""trial"",""time""
""fullscreenenter"",""1"",""7188""
","
","","","","","","1606.300000011921","images/cat3.png","","","memory_trial","1","definitely_old",""
"html-keyboard-response","63","269514","0.0-18.0-0.10","6208","approach_avoid_sv1","""event"",""trial"",""time""
""focus"",""1"",""4260""
""fullscreenenter"",""1"",""7188""
","
","""event"",""trial"",""time""
""focus"",""1"",""4260""
","""event"",""trial"",""time""
""fullscreenenter"",""1"",""7188""
","
","","","","","","null","<div style=""font-size:60px;"">+</div>","null","","fixation","","",""
"memory-trial","64","271333","0.0-18.0-1.10","6208","approach_avoid_sv1","""event"",""trial"",""time""
""focus"",""1"",""4260""
""fullscreenenter"",""1"",""7188""
","
","""event"",""trial"",""time""
""focus"",""1"",""4260""
","""event"",""trial"",""time""
""fullscreenenter"",""1"",""7188""
","
","","","","","","800.5999999642372","images/plane3.png","","","memory_trial","4","definitely_new",""
"html-keyboard-response","65","271839","0.0-18.0-0.11","6208","approach_avoid_sv1","""event"",""trial"",""time""
""focus"",""1"",""4260""
""fullscreenenter"",""1"",""7188""
","
","""event"",""trial"",""time""
""focus"",""1"",""4260""
","""event"",""trial"",""time""
""fullscreenenter"",""1"",""7188""
","
","","","","","","null","<div style=""font-size:60px;"">+</div>","null","","fixation","","",""
"memory-trial","66","274542","0.0-18.0-1.11","6208","approach_avoid_sv1","""event"",""trial"",""time""
""focus"",""1"",""4260""
""fullscreenenter"",""1"",""7188""
","
","""event"",""trial"",""time""
""focus"",""1"",""4260""
","""event"",""trial"",""time""
""fullscreenenter"",""1"",""7188""
","
","","","","","","1684.5999999642372","images/sheep2.png","","","memory_trial","1","definitely_old",""
"html-keyboard-response","67","275054","0.0-18.0-0.12","6208","approach_avoid_sv1","""event"",""trial"",""time""
""focus"",""1"",""4260""
""fullscreenenter"",""1"",""7188""
","
","""event"",""trial"",""time""
""focus"",""1"",""4260""
","""event"",""trial"",""time""
""fullscreenenter"",""1"",""7188""
","
","","","","","","null","<div style=""font-size:60px;"">+</div>","null","","fixation","","",""
"memory-trial","68","277594","0.0-18.0-1.12","6208","approach_avoid_sv1","""event"",""trial"",""time""
""focus"",""1"",""4260""
""fullscreenenter"",""1"",""7188""
","
","""event"",""trial"",""time""
""focus"",""1"",""4260""
","""event"",""trial"",""time""
""fullscreenenter"",""1"",""7188""
","
","","","","","","1531.5","images/cat8.png","","","memory_trial","1","definitely_old",""
"html-keyboard-response","69","278107","0.0-18.0-0.13","6208","approach_avoid_sv1","""event"",""trial"",""time""
""focus"",""1"",""4260""
""fullscreenenter"",""1"",""7188""
","
","""event"",""trial"",""time""
""focus"",""1"",""4260""
","""event"",""trial"",""time""
""fullscreenenter"",""1"",""7188""
","
","","","","","","null","<div style=""font-size:60px;"">+</div>","null","","fixation","","",""
"memory-trial","70","281746","0.0-18.0-1.13","6208","approach_avoid_sv1","""event"",""trial"",""time""
""focus"",""1"",""4260""
""fullscreenenter"",""1"",""7188""
","
","""event"",""trial"",""time""
""focus"",""1"",""4260""
","""event"",""trial"",""time""
""fullscreenenter"",""1"",""7188""
","
","","","","","","2628.5","images/rodent4.png","","","memory_trial","2","maybe_old",""
"html-keyboard-response","71","282254","0.0-18.0-0.14","6208","approach_avoid_sv1","""event"",""trial"",""time""
""focus"",""1"",""4260""
""fullscreenenter"",""1"",""7188""
","
","""event"",""trial"",""time""
""focus"",""1"",""4260""
","""event"",""trial"",""time""
""fullscreenenter"",""1"",""7188""
","
","","","","","","null","<div style=""font-size:60px;"">+</div>","null","","fixation","","",""
"memory-trial","72","284449","0.0-18.0-1.14","6208","approach_avoid_sv1","""event"",""trial"",""time""
""focus"",""1"",""4260""
""fullscreenenter"",""1"",""7188""
","
","""event"",""trial"",""time""
""focus"",""1"",""4260""
","""event"",""trial"",""time""
""fullscreenenter"",""1"",""7188""
","
","","","","","","1179.2000000476837","images/sofa4.png","","","memory_trial","4","definitely_new",""
"html-keyboard-response","73","284969","0.0-18.0-0.15","6208","approach_avoid_sv1","""event"",""trial"",""time""
""focus"",""1"",""4260""
""fullscreenenter"",""1"",""7188""
","
","""event"",""trial"",""time""
""focus"",""1"",""4260""
","""event"",""trial"",""time""
""fullscreenenter"",""1"",""7188""
","
","","","","","","null","<div style=""font-size:60px;"">+</div>","null","","fixation","","",""
"memory-trial","74","287238","0.0-18.0-1.15","6208","approach_avoid_sv1","""event"",""trial"",""time""
""focus"",""1"",""4260""
""fullscreenenter"",""1"",""7188""
","
","""event"",""trial"",""time""
""focus"",""1"",""4260""
","""event"",""trial"",""time""
""fullscreenenter"",""1"",""7188""
","
","","","","","","1256.5","images/tree6.png","","","memory_trial","1","definitely_old",""
"html-keyboard-response","75","287745","0.0-18.0-0.16","6208","approach_avoid_sv1","""event"",""trial"",""time""
""focus"",""1"",""4260""
""fullscreenenter"",""1"",""7188""
","
","""event"",""trial"",""time""
""focus"",""1"",""4260""
","""event"",""trial"",""time""
""fullscreenenter"",""1"",""7188""
","
","","","","","","null","<div style=""font-size:60px;"">+</div>","null","","fixation","","",""
"memory-trial","76","290430","0.0-18.0-1.16","6208","approach_avoid_sv1","""event"",""trial"",""time""
""focus"",""1"",""4260""
""fullscreenenter"",""1"",""7188""
","
","""event"",""trial"",""time""
""focus"",""1"",""4260""
","""event"",""trial"",""time""
""fullscreenenter"",""1"",""7188""
","
","","","","","","1668.8999999761581","images/table3.png","","","memory_trial","1","definitely_old",""
"html-keyboard-response","77","290950","0.0-18.0-0.17","6208","approach_avoid_sv1","""event"",""trial"",""time""
""focus"",""1"",""4260""
""fullscreenenter"",""1"",""7188""
","
","""event"",""trial"",""time""
""focus"",""1"",""4260""
","""event"",""trial"",""time""
""fullscreenenter"",""1"",""7188""
","
","","","","","","null","<div style=""font-size:60px;"">+</div>","null","","fixation","","",""
"memory-trial","78","293145","0.0-18.0-1.17","6208","approach_avoid_sv1","""event"",""trial"",""time""
""focus"",""1"",""4260""
""fullscreenenter"",""1"",""7188""
","
","""event"",""trial"",""time""
""focus"",""1"",""4260""
","""event"",""trial"",""time""
""fullscreenenter"",""1"",""7188""
","
","","","","","","1185.9000000357628","images/orange7.png","","","memory_trial","4","definitely_new",""
"html-keyboard-response","79","293659","0.0-18.0-0.18","6208","approach_avoid_sv1","""event"",""trial"",""time""
""focus"",""1"",""4260""
""fullscreenenter"",""1"",""7188""
","
","""event"",""trial"",""time""
""focus"",""1"",""4260""
","""event"",""trial"",""time""
""fullscreenenter"",""1"",""7188""
","
","","","","","","null","<div style=""font-size:60px;"">+</div>","null","","fixation","","",""
"memory-trial","80","295689","0.0-18.0-1.18","6208","approach_avoid_sv1","""event"",""trial"",""time""
""focus"",""1"",""4260""
""fullscreenenter"",""1"",""7188""
","
","""event"",""trial"",""time""
""focus"",""1"",""4260""
","""event"",""trial"",""time""
""fullscreenenter"",""1"",""7188""
","
","","","","","","1015.5","images/bed4.png","","","memory_trial","1","definitely_old",""
"html-keyboard-response","81","296203","0.0-18.0-0.19","6208","approach_avoid_sv1","""event"",""trial"",""time""
""focus"",""1"",""4260""
""fullscreenenter"",""1"",""7188""
","
","""event"",""trial"",""time""
""focus"",""1"",""4260""
","""event"",""trial"",""time""
""fullscreenenter"",""1"",""7188""
","
","","","","","","null","<div style=""font-size:60px;"">+</div>","null","","fixation","","",""
"memory-trial","82","298223","0.0-18.0-1.19","6208","approach_avoid_sv1","""event"",""trial"",""time""
""focus"",""1"",""4260""
""fullscreenenter"",""1"",""7188""
","
","""event"",""trial"",""time""
""focus"",""1"",""4260""
","""event"",""trial"",""time""
""fullscreenenter"",""1"",""7188""
","
","","","","","","1011.0999999642372","images/rabbit6.png","","","memory_trial","4","definitely_new",""
"html-keyboard-response","83","298727","0.0-18.0-0.20","6208","approach_avoid_sv1","""event"",""trial"",""time""
""focus"",""1"",""4260""
""fullscreenenter"",""1"",""7188""
","
","""event"",""trial"",""time""
""focus"",""1"",""4260""
","""event"",""trial"",""time""
""fullscreenenter"",""1"",""7188""
","
","","","","","","null","<div style=""font-size:60px;"">+</div>","null","","fixation","","",""
"memory-trial","84","300385","0.0-18.0-1.20","6208","approach_avoid_sv1","""event"",""trial"",""time""
""focus"",""1"",""4260""
""fullscreenenter"",""1"",""7188""
","
","""event"",""trial"",""time""
""focus"",""1"",""4260""
","""event"",""trial"",""time""
""fullscreenenter"",""1"",""7188""
","
","","","","","","648.3000000119209","images/cactus1.png","","","memory_trial","4","definitely_new",""
"html-keyboard-response","85","300905","0.0-18.0-0.21","6208","approach_avoid_sv1","""event"",""trial"",""time""
""focus"",""1"",""4260""
""fullscreenenter"",""1"",""7188""
","
","""event"",""trial"",""time""
""focus"",""1"",""4260""
","""event"",""trial"",""time""
""fullscreenenter"",""1"",""7188""
","
","","","","","","null","<div style=""font-size:60px;"">+</div>","null","","fixation","","",""
"memory-trial","86","304535","0.0-18.0-1.21","6208","approach_avoid_sv1","""event"",""trial"",""time""
""focus"",""1"",""4260""
""fullscreenenter"",""1"",""7188""
","
","""event"",""trial"",""time""
""focus"",""1"",""4260""
","""event"",""trial"",""time""
""fullscreenenter"",""1"",""7188""
","
","","","","","","2620.7999999523163","images/sheep1.png","","","memory_trial","1","definitely_old",""
"html-keyboard-response","87","305039","0.0-18.0-0.22","6208","approach_avoid_sv1","""event"",""trial"",""time""
""focus"",""1"",""4260""
""fullscreenenter"",""1"",""7188""
","
","""event"",""trial"",""time""
""focus"",""1"",""4260""
","""event"",""trial"",""time""
""fullscreenenter"",""1"",""7188""
","
","","","","","","null","<div style=""font-size:60px;"">+</div>","null","","fixation","","",""
"memory-trial","88","306915","0.0-18.0-1.22","6208","approach_avoid_sv1","""event"",""trial"",""time""
""focus"",""1"",""4260""
""fullscreenenter"",""1"",""7188""
","
","""event"",""trial"",""time""
""focus"",""1"",""4260""
","""event"",""trial"",""time""
""fullscreenenter"",""1"",""7188""
","
","","","","","","854.3000000119209","images/train4.png","","","memory_trial","1","definitely_old",""
"html-keyboard-response","89","307427","0.0-18.0-0.23","6208","approach_avoid_sv1","""event"",""trial"",""time""
""focus"",""1"",""4260""
""fullscreenenter"",""1"",""7188""
","
","""event"",""trial"",""time""
""focus"",""1"",""4260""
","""event"",""trial"",""time""
""fullscreenenter"",""1"",""7188""
","
","","","","","","null","<div style=""font-size:60px;"">+</div>","null","","fixation","","",""
"memory-trial","90","309755","0.0-18.0-1.23","6208","approach_avoid_sv1","""event"",""trial"",""time""
""focus"",""1"",""4260""
""fullscreenenter"",""1"",""7188""
","
","""event"",""trial"",""time""
""focus"",""1"",""4260""
","""event"",""trial"",""time""
""fullscreenenter"",""1"",""7188""
","
","","","","","","1317.199999988079","images/tree7.png","","","memory_trial","4","definitely_new",""
"html-keyboard-response","91","310269","0.0-18.0-0.24","6208","approach_avoid_sv1","""event"",""trial"",""time""
""focus"",""1"",""4260""
""fullscreenenter"",""1"",""7188""
","
","""event"",""trial"",""time""
""focus"",""1"",""4260""
","""event"",""trial"",""time""
""fullscreenenter"",""1"",""7188""
","
","","","","","","null","<div style=""font-size:60px;"">+</div>","null","","fixation","","",""
"memory-trial","92","312165","0.0-18.0-1.24","6208","approach_avoid_sv1","""event"",""trial"",""time""
""focus"",""1"",""4260""
""fullscreenenter"",""1"",""7188""
","
","""event"",""trial"",""time""
""focus"",""1"",""4260""
","""event"",""trial"",""time""
""fullscreenenter"",""1"",""7188""
","
","","","","","","885.3000000119209","images/chair8.png","","","memory_trial","1","definitely_old",""
"html-keyboard-response","93","312677","0.0-18.0-0.25","6208","approach_avoid_sv1","""event"",""trial"",""time""
""focus"",""1"",""4260""
""fullscreenenter"",""1"",""7188""
","
","""event"",""trial"",""time""
""focus"",""1"",""4260""
","""event"",""trial"",""time""
""fullscreenenter"",""1"",""7188""
","
","","","","","","null","<div style=""font-size:60px;"">+</div>","null","","fixation","","",""
"memory-trial","94","316673","0.0-18.0-1.25","6208","approach_avoid_sv1","""event"",""trial"",""time""
""focus"",""1"",""4260""
""fullscreenenter"",""1"",""7188""
","
","""event"",""trial"",""time""
""focus"",""1"",""4260""
","""event"",""trial"",""time""
""fullscreenenter"",""1"",""7188""
","
","","","","","","2988.199999988079","images/chair5.png","","","memory_trial","2","maybe_old",""
"html-keyboard-response","95","317186","0.0-18.0-0.26","6208","approach_avoid_sv1","""event"",""trial"",""time""
""focus"",""1"",""4260""
""fullscreenenter"",""1"",""7188""
","
","""event"",""trial"",""time""
""focus"",""1"",""4260""
","""event"",""trial"",""time""
""fullscreenenter"",""1"",""7188""
","
","","","","","","null","<div style=""font-size:60px;"">+</div>","null","","fixation","","",""
"memory-trial","96","320069","0.0-18.0-1.26","6208","approach_avoid_sv1","""event"",""trial"",""time""
""focus"",""1"",""4260""
""fullscreenenter"",""1"",""7188""
","
","""event"",""trial"",""time""
""focus"",""1"",""4260""
","""event"",""trial"",""time""
""fullscreenenter"",""1"",""7188""
","
","","","","","","1858.4000000357628","images/tree8.png","","","memory_trial","1","definitely_old",""
"html-keyboard-response","97","320574","0.0-18.0-0.27","6208","approach_avoid_sv1","""event"",""trial"",""time""
""focus"",""1"",""4260""
""fullscreenenter"",""1"",""7188""
","
","""event"",""trial"",""time""
""focus"",""1"",""4260""
","""event"",""trial"",""time""
""fullscreenenter"",""1"",""7188""
","
","","","","","","null","<div style=""font-size:60px;"">+</div>","null","","fixation","","",""
"memory-trial","98","322414","0.0-18.0-1.27","6208","approach_avoid_sv1","""event"",""trial"",""time""
""focus"",""1"",""4260""
""fullscreenenter"",""1"",""7188""
","
","""event"",""trial"",""time""
""focus"",""1"",""4260""
","""event"",""trial"",""time""
""fullscreenenter"",""1"",""7188""
","
","","","","","","829.8000000119209","images/orange1.png","","","memory_trial","4","definitely_new",""
"html-keyboard-response","99","322918","0.0-18.0-0.28","6208","approach_avoid_sv1","""event"",""trial"",""time""
""focus"",""1"",""4260""
""fullscreenenter"",""1"",""7188""
","
","""event"",""trial"",""time""
""focus"",""1"",""4260""
","""event"",""trial"",""time""
""fullscreenenter"",""1"",""7188""
","
","","","","","","null","<div style=""font-size:60px;"">+</div>","null","","fixation","","",""
"memory-trial","100","324893","0.0-18.0-1.28","6208","approach_avoid_sv1","""event"",""trial"",""time""
""focus"",""1"",""4260""
""fullscreenenter"",""1"",""7188""
","
","""event"",""trial"",""time""
""focus"",""1"",""4260""
","""event"",""trial"",""time""
""fullscreenenter"",""1"",""7188""
","
","","","","","","956.9000000357628","images/rodent2.png","","","memory_trial","4","definitely_new",""
"html-keyboard-response","101","325401","0.0-18.0-0.29","6208","approach_avoid_sv1","""event"",""trial"",""time""
""focus"",""1"",""4260""
""fullscreenenter"",""1"",""7188""
","
","""event"",""trial"",""time""
""focus"",""1"",""4260""
","""event"",""trial"",""time""
""fullscreenenter"",""1"",""7188""
","
","","","","","","null","<div style=""font-size:60px;"">+</div>","null","","fixation","","",""
"memory-trial","102","327133","0.0-18.0-1.29","6208","approach_avoid_sv1","""event"",""trial"",""time""
""focus"",""1"",""4260""
""fullscreenenter"",""1"",""7188""
","
","""event"",""trial"",""time""
""focus"",""1"",""4260""
","""event"",""trial"",""time""
""fullscreenenter"",""1"",""7188""
","
","","","","","","715.6000000238419","images/orange6.png","","","memory_trial","4","definitely_new",""
"html-keyboard-response","103","327643","0.0-18.0-0.30","6208","approach_avoid_sv1","""event"",""trial"",""time""
""focus"",""1"",""4260""
""fullscreenenter"",""1"",""7188""
","
","""event"",""trial"",""time""
""focus"",""1"",""4260""
","""event"",""trial"",""time""
""fullscreenenter"",""1"",""7188""
","
","","","","","","null","<div style=""font-size:60px;"">+</div>","null","","fixation","","",""
"memory-trial","104","329501","0.0-18.0-1.30","6208","approach_avoid_sv1","""event"",""trial"",""time""
""focus"",""1"",""4260""
""fullscreenenter"",""1"",""7188""
","
","""event"",""trial"",""time""
""focus"",""1"",""4260""
","""event"",""trial"",""time""
""fullscreenenter"",""1"",""7188""
","
","","","","","","841.6999999880791","images/sofa8.png","","","memory_trial","4","definitely_new",""
"html-keyboard-response","105","330020","0.0-18.0-0.31","6208","approach_avoid_sv1","""event"",""trial"",""time""
""focus"",""1"",""4260""
""fullscreenenter"",""1"",""7188""
","
","""event"",""trial"",""time""
""focus"",""1"",""4260""
","""event"",""trial"",""time""
""fullscreenenter"",""1"",""7188""
","
","","","","","","null","<div style=""font-size:60px;"">+</div>","null","","fixation","","",""
"memory-trial","106","332551","0.0-18.0-1.31","6208","approach_avoid_sv1","""event"",""trial"",""time""
""focus"",""1"",""4260""
""fullscreenenter"",""1"",""7188""
","
","""event"",""trial"",""time""
""focus"",""1"",""4260""
","""event"",""trial"",""time""
""fullscreenenter"",""1"",""7188""
","
","","","","","","1524.5","images/table6.png","","","memory_trial","2","maybe_old",""
"html-keyboard-response","107","333064","0.0-18.0-0.32","6208","approach_avoid_sv1","""event"",""trial"",""time""
""focus"",""1"",""4260""
""fullscreenenter"",""1"",""7188""
","
","""event"",""trial"",""time""
""focus"",""1"",""4260""
","""event"",""trial"",""time""
""fullscreenenter"",""1"",""7188""
","
","","","","","","null","<div style=""font-size:60px;"">+</div>","null","","fixation","","",""
"memory-trial","108","335161","0.0-18.0-1.32","6208","approach_avoid_sv1","""event"",""trial"",""time""
""focus"",""1"",""4260""
""fullscreenenter"",""1"",""7188""
","
","""event"",""trial"",""time""
""focus"",""1"",""4260""
","""event"",""trial"",""time""
""fullscreenenter"",""1"",""7188""
","
","","","","","","1089.699999988079","images/truck6.png","","","memory_trial","1","definitely_old",""
"html-keyboard-response","109","335675","0.0-18.0-0.33","6208","approach_avoid_sv1","""event"",""trial"",""time""
""focus"",""1"",""4260""
""fullscreenenter"",""1"",""7188""
","
","""event"",""trial"",""time""
""focus"",""1"",""4260""
","""event"",""trial"",""time""
""fullscreenenter"",""1"",""7188""
","
","","","","","","null","<div style=""font-size:60px;"">+</div>","null","","fixation","","",""
"memory-trial","110","337861","0.0-18.0-1.33","6208","approach_avoid_sv1","""event"",""trial"",""time""
""focus"",""1"",""4260""
""fullscreenenter"",""1"",""7188""
","
","""event"",""trial"",""time""
""focus"",""1"",""4260""
","""event"",""trial"",""time""
""fullscreenenter"",""1"",""7188""
","
","","","","","","1170.199999988079","images/apple3.png","","","memory_trial","1","definitely_old",""
"html-keyboard-response","111","338381","0.0-18.0-0.34","6208","approach_avoid_sv1","""event"",""trial"",""time""
""focus"",""1"",""4260""
""fullscreenenter"",""1"",""7188""
","
","""event"",""trial"",""time""
""focus"",""1"",""4260""
","""event"",""trial"",""time""
""fullscreenenter"",""1"",""7188""
","
","","","","","","null","<div style=""font-size:60px;"">+</div>","null","","fixation","","",""
"memory-trial","112","340525","0.0-18.0-1.34","6208","approach_avoid_sv1","""event"",""trial"",""time""
""focus"",""1"",""4260""
""fullscreenenter"",""1"",""7188""
","
","""event"",""trial"",""time""
""focus"",""1"",""4260""
","""event"",""trial"",""time""
""fullscreenenter"",""1"",""7188""
","
","","","","","","1134.1000000238419","images/flower5.png","","","memory_trial","1","definitely_old",""
"html-keyboard-response","113","341030","0.0-18.0-0.35","6208","approach_avoid_sv1","""event"",""trial"",""time""
""focus"",""1"",""4260""
""fullscreenenter"",""1"",""7188""
","
","""event"",""trial"",""time""
""focus"",""1"",""4260""
","""event"",""trial"",""time""
""fullscreenenter"",""1"",""7188""
","
","","","","","","null","<div style=""font-size:60px;"">+</div>","null","","fixation","","",""
"memory-trial","114","343247","0.0-18.0-1.35","6208","approach_avoid_sv1","""event"",""trial"",""time""
""focus"",""1"",""4260""
""fullscreenenter"",""1"",""7188""
","
","""event"",""trial"",""time""
""focus"",""1"",""4260""
","""event"",""trial"",""time""
""fullscreenenter"",""1"",""7188""
","
","","","","","","1205.5","images/bed8.png","","","memory_trial","4","definitely_new",""
"html-keyboard-response","115","343758","0.0-18.0-0.36","6208","approach_avoid_sv1","""event"",""trial"",""time""
""focus"",""1"",""4260""
""fullscreenenter"",""1"",""7188""
","
","""event"",""trial"",""time""
""focus"",""1"",""4260""
","""event"",""trial"",""time""
""fullscreenenter"",""1"",""7188""
","
","","","","","","null","<div style=""font-size:60px;"">+</div>","null","","fixation","","",""
"memory-trial","116","345642","0.0-18.0-1.36","6208","approach_avoid_sv1","""event"",""trial"",""time""
""focus"",""1"",""4260""
""fullscreenenter"",""1"",""7188""
","
","""event"",""trial"",""time""
""focus"",""1"",""4260""
","""event"",""trial"",""time""
""fullscreenenter"",""1"",""7188""
","
","","","","","","875.5999999642372","images/table2.png","","","memory_trial","1","definitely_old",""
"html-keyboard-response","117","346156","0.0-18.0-0.37","6208","approach_avoid_sv1","""event"",""trial"",""time""
""focus"",""1"",""4260""
""fullscreenenter"",""1"",""7188""
","
","""event"",""trial"",""time""
""focus"",""1"",""4260""
","""event"",""trial"",""time""
""fullscreenenter"",""1"",""7188""
","
","","","","","","null","<div style=""font-size:60px;"">+</div>","null","","fixation","","",""
"memory-trial","118","348662","0.0-18.0-1.37","6208","approach_avoid_sv1","""event"",""trial"",""time""
""focus"",""1"",""4260""
""fullscreenenter"",""1"",""7188""
","
","""event"",""trial"",""time""
""focus"",""1"",""4260""
","""event"",""trial"",""time""
""fullscreenenter"",""1"",""7188""
","
","","","","","","1491.699999988079","images/truck7.png","","","memory_trial","1","definitely_old",""
"html-keyboard-response","119","349183","0.0-18.0-0.38","6208","approach_avoid_sv1","""event"",""trial"",""time""
""focus"",""1"",""4260""
""fullscreenenter"",""1"",""7188""
","
","""event"",""trial"",""time""
""focus"",""1"",""4260""
","""event"",""trial"",""time""
""fullscreenenter"",""1"",""7188""
","
","","","","","","null","<div style=""font-size:60px;"">+</div>","null","","fixation","","",""
"memory-trial","120","351234","0.0-18.0-1.38","6208","approach_avoid_sv1","""event"",""trial"",""time""
""focus"",""1"",""4260""
""fullscreenenter"",""1"",""7188""
","
","""event"",""trial"",""time""
""focus"",""1"",""4260""
","""event"",""trial"",""time""
""fullscreenenter"",""1"",""7188""
","
","","","","","","1041.8999999761581","images/cow4.png","","","memory_trial","1","definitely_old",""
"html-keyboard-response","121","351743","0.0-18.0-0.39","6208","approach_avoid_sv1","""event"",""trial"",""time""
""focus"",""1"",""4260""
""fullscreenenter"",""1"",""7188""
","
","""event"",""trial"",""time""
""focus"",""1"",""4260""
","""event"",""trial"",""time""
""fullscreenenter"",""1"",""7188""
","
","","","","","","null","<div style=""font-size:60px;"">+</div>","null","","fixation","","",""
"memory-trial","122","353390","0.0-18.0-1.39","6208","approach_avoid_sv1","""event"",""trial"",""time""
""focus"",""1"",""4260""
""fullscreenenter"",""1"",""7188""
","
","""event"",""trial"",""time""
""focus"",""1"",""4260""
","""event"",""trial"",""time""
""fullscreenenter"",""1"",""7188""
","
","","","","","","641.1999999880791","images/flower8.png","","","memory_trial","1","definitely_old",""
"html-keyboard-response","123","353895","0.0-18.0-0.40","6208","approach_avoid_sv1","""event"",""trial"",""time""
""focus"",""1"",""4260""
""fullscreenenter"",""1"",""7188""
","
","""event"",""trial"",""time""
""focus"",""1"",""4260""
","""event"",""trial"",""time""
""fullscreenenter"",""1"",""7188""
","
","","","","","","null","<div style=""font-size:60px;"">+</div>","null","","fixation","","",""
"memory-trial","124","356269","0.0-18.0-1.40","6208","approach_avoid_sv1","""event"",""trial"",""time""
""focus"",""1"",""4260""
""fullscreenenter"",""1"",""7188""
","
","""event"",""trial"",""time""
""focus"",""1"",""4260""
","""event"",""trial"",""time""
""fullscreenenter"",""1"",""7188""
","
","","","","","","1360.199999988079","images/rabbit5.png","","","memory_trial","4","definitely_new",""
"html-keyboard-response","125","356771","0.0-18.0-0.41","6208","approach_avoid_sv1","""event"",""trial"",""time""
""focus"",""1"",""4260""
""fullscreenenter"",""1"",""7188""
","
","""event"",""trial"",""time""
""focus"",""1"",""4260""
","""event"",""trial"",""time""
""fullscreenenter"",""1"",""7188""
","
","","","","","","null","<div style=""font-size:60px;"">+</div>","null","","fixation","","",""
"memory-trial","126","359437","0.0-18.0-1.41","6208","approach_avoid_sv1","""event"",""trial"",""time""
""focus"",""1"",""4260""
""fullscreenenter"",""1"",""7188""
","
","""event"",""trial"",""time""
""focus"",""1"",""4260""
","""event"",""trial"",""time""
""fullscreenenter"",""1"",""7188""
","
","","","","","","1655.300000011921","images/sofa6.png","","","memory_trial","4","definitely_new",""
"html-button-response","127","365614","0.0-18.0-2.41-0.41","6208","approach_avoid_sv1","""event"",""trial"",""time""
""focus"",""1"",""4260""
""fullscreenenter"",""1"",""7188""
","
","""event"",""trial"",""time""
""focus"",""1"",""4260""
","""event"",""trial"",""time""
""fullscreenenter"",""1"",""7188""
","
","","","","","","6175","<p> Take a break! </p><p> Click the button to continue. </p>","0","","break","","",""
"html-keyboard-response","128","366125","0.0-18.0-0.42","6208","approach_avoid_sv1","""event"",""trial"",""time""
""focus"",""1"",""4260""
""fullscreenenter"",""1"",""7188""
","
","""event"",""trial"",""time""
""focus"",""1"",""4260""
","""event"",""trial"",""time""
""fullscreenenter"",""1"",""7188""
","
","","","","","","null","<div style=""font-size:60px;"">+</div>","null","","fixation","","",""
"memory-trial","129","369170","0.0-18.0-1.42","6208","approach_avoid_sv1","""event"",""trial"",""time""
""focus"",""1"",""4260""
""fullscreenenter"",""1"",""7188""
","
","""event"",""trial"",""time""
""focus"",""1"",""4260""
","""event"",""trial"",""time""
""fullscreenenter"",""1"",""7188""
","
","","","","","","2029.6000000238419","images/orange3.png","","","memory_trial","2","maybe_old",""
"html-keyboard-response","130","369690","0.0-18.0-0.43","6208","approach_avoid_sv1","""event"",""trial"",""time""
""focus"",""1"",""4260""
""fullscreenenter"",""1"",""7188""
","
","""event"",""trial"",""time""
""focus"",""1"",""4260""
","""event"",""trial"",""time""
""fullscreenenter"",""1"",""7188""
","
","","","","","","null","<div style=""font-size:60px;"">+</div>","null","","fixation","","",""
"memory-trial","131","372101","0.0-18.0-1.43","6208","approach_avoid_sv1","""event"",""trial"",""time""
""focus"",""1"",""4260""
""fullscreenenter"",""1"",""7188""
","
","""event"",""trial"",""time""
""focus"",""1"",""4260""
","""event"",""trial"",""time""
""fullscreenenter"",""1"",""7188""
","
","","","","","","1386.2999999523163","images/horse5.png","","","memory_trial","4","definitely_new",""
"html-keyboard-response","132","372621","0.0-18.0-0.44","6208","approach_avoid_sv1","""event"",""trial"",""time""
""focus"",""1"",""4260""
""fullscreenenter"",""1"",""7188""
","
","""event"",""trial"",""time""
""focus"",""1"",""4260""
","""event"",""trial"",""time""
""fullscreenenter"",""1"",""7188""
","
","","","","","","null","<div style=""font-size:60px;"">+</div>","null","","fixation","","",""
"memory-trial","133","375238","0.0-18.0-1.44","6208","approach_avoid_sv1","""event"",""trial"",""time""
""focus"",""1"",""4260""
""fullscreenenter"",""1"",""7188""
","
","""event"",""trial"",""time""
""focus"",""1"",""4260""
","""event"",""trial"",""time""
""fullscreenenter"",""1"",""7188""
","
","","","","","","1613.699999988079","images/straw7.png","","","memory_trial","1","definitely_old",""
"html-keyboard-response","134","375746","0.0-18.0-0.45","6208","approach_avoid_sv1","""event"",""trial"",""time""
""focus"",""1"",""4260""
""fullscreenenter"",""1"",""7188""
","
","""event"",""trial"",""time""
""focus"",""1"",""4260""
","""event"",""trial"",""time""
""fullscreenenter"",""1"",""7188""
","
","","","","","","null","<div style=""font-size:60px;"">+</div>","null","","fixation","","",""
"memory-trial","135","378188","0.0-18.0-1.45","6208","approach_avoid_sv1","""event"",""trial"",""time""
""focus"",""1"",""4260""
""fullscreenenter"",""1"",""7188""
","
","""event"",""trial"",""time""
""focus"",""1"",""4260""
","""event"",""trial"",""time""
""fullscreenenter"",""1"",""7188""
","
","","","","","","1430.0999999642372","images/orange5.png","","","memory_trial","2","maybe_old",""
"html-keyboard-response","136","378700","0.0-18.0-0.46","6208","approach_avoid_sv1","""event"",""trial"",""time""
""focus"",""1"",""4260""
""fullscreenenter"",""1"",""7188""
","
","""event"",""trial"",""time""
""focus"",""1"",""4260""
","""event"",""trial"",""time""
""fullscreenenter"",""1"",""7188""
","
","","","","","","null","<div style=""font-size:60px;"">+</div>","null","","fixation","","",""
"memory-trial","137","381277","0.0-18.0-1.46","6208","approach_avoid_sv1","""event"",""trial"",""time""
""focus"",""1"",""4260""
""fullscreenenter"",""1"",""7188""
","
","""event"",""trial"",""time""
""focus"",""1"",""4260""
","""event"",""trial"",""time""
""fullscreenenter"",""1"",""7188""
","
","","","","","","1565.1000000238419","images/goat3.png","","","memory_trial","4","definitely_new",""
"html-keyboard-response","138","381791","0.0-18.0-0.47","6208","approach_avoid_sv1","""event"",""trial"",""time""
""focus"",""1"",""4260""
""fullscreenenter"",""1"",""7188""
","
","""event"",""trial"",""time""
""focus"",""1"",""4260""
","""event"",""trial"",""time""
""fullscreenenter"",""1"",""7188""
","
","","","","","","null","<div style=""font-size:60px;"">+</div>","null","","fixation","","",""
"memory-trial","139","383673","0.0-18.0-1.47","6208","approach_avoid_sv1","""event"",""trial"",""time""
""focus"",""1"",""4260""
""fullscreenenter"",""1"",""7188""
","
","""event"",""trial"",""time""
""focus"",""1"",""4260""
","""event"",""trial"",""time""
""fullscreenenter"",""1"",""7188""
","
","","","","","","875.6999999880791","images/flower6.png","","","memory_trial","1","definitely_old",""
"html-keyboard-response","140","384195","0.0-18.0-0.48","6208","approach_avoid_sv1","""event"",""trial"",""time""
""focus"",""1"",""4260""
""fullscreenenter"",""1"",""7188""
","
","""event"",""trial"",""time""
""focus"",""1"",""4260""
","""event"",""trial"",""time""
""fullscreenenter"",""1"",""7188""
","
","","","","","","null","<div style=""font-size:60px;"">+</div>","null","","fixation","","",""
"memory-trial","141","386627","0.0-18.0-1.48","6208","approach_avoid_sv1","""event"",""trial"",""time""
""focus"",""1"",""4260""
""fullscreenenter"",""1"",""7188""
","
","""event"",""trial"",""time""
""focus"",""1"",""4260""
","""event"",""trial"",""time""
""fullscreenenter"",""1"",""7188""
","
","","","","","","1410.9000000357628","images/goat6.png","","","memory_trial","4","definitely_new",""
"html-keyboard-response","142","387143","0.0-18.0-0.49","6208","approach_avoid_sv1","""event"",""trial"",""time""
""focus"",""1"",""4260""
""fullscreenenter"",""1"",""7188""
","
","""event"",""trial"",""time""
""focus"",""1"",""4260""
","""event"",""trial"",""time""
""fullscreenenter"",""1"",""7188""
","
","","","","","","null","<div style=""font-size:60px;"">+</div>","null","","fixation","","",""
"memory-trial","143","390356","0.0-18.0-1.49","6208","approach_avoid_sv1","""event"",""trial"",""time""
""focus"",""1"",""4260""
""fullscreenenter"",""1"",""7188""
","
","""event"",""trial"",""time""
""focus"",""1"",""4260""
","""event"",""trial"",""time""
""fullscreenenter"",""1"",""7188""
","
","","","","","","2202.5","images/goat5.png","","","memory_trial","2","maybe_old",""
"html-keyboard-response","144","390869","0.0-18.0-0.50","6208","approach_avoid_sv1","""event"",""trial"",""time""
""focus"",""1"",""4260""
""fullscreenenter"",""1"",""7188""
","
","""event"",""trial"",""time""
""focus"",""1"",""4260""
","""event"",""trial"",""time""
""fullscreenenter"",""1"",""7188""
","
","","","","","","null","<div style=""font-size:60px;"">+</div>","null","","fixation","","",""
"memory-trial","145","394566","0.0-18.0-1.50","6208","approach_avoid_sv1","""event"",""trial"",""time""
""focus"",""1"",""4260""
""fullscreenenter"",""1"",""7188""
","
","""event"",""trial"",""time""
""focus"",""1"",""4260""
","""event"",""trial"",""time""
""fullscreenenter"",""1"",""7188""
","
","","","","","","2676.800000011921","images/train8.png","","","memory_trial","1","definitely_old",""
"html-keyboard-response","146","395094","0.0-18.0-0.51","6208","approach_avoid_sv1","""event"",""trial"",""time""
""focus"",""1"",""4260""
""fullscreenenter"",""1"",""7188""
","
","""event"",""trial"",""time""
""focus"",""1"",""4260""
","""event"",""trial"",""time""
""fullscreenenter"",""1"",""7188""
","
","","","","","","null","<div style=""font-size:60px;"">+</div>","null","","fixation","","",""
"memory-trial","147","399952","0.0-18.0-1.51","6208","approach_avoid_sv1","""event"",""trial"",""time""
""focus"",""1"",""4260""
""fullscreenenter"",""1"",""7188""
","
","""event"",""trial"",""time""
""focus"",""1"",""4260""
","""event"",""trial"",""time""
""fullscreenenter"",""1"",""7188""
","
","","","","","","3846.600000023842","images/cow6.png","","","memory_trial","3","maybe_new",""
"html-keyboard-response","148","400464","0.0-18.0-0.52","6208","approach_avoid_sv1","""event"",""trial"",""time""
""focus"",""1"",""4260""
""fullscreenenter"",""1"",""7188""
","
","""event"",""trial"",""time""
""focus"",""1"",""4260""
","""event"",""trial"",""time""
""fullscreenenter"",""1"",""7188""
","
","","","","","","null","<div style=""font-size:60px;"">+</div>","null","","fixation","","",""
"memory-trial","149","403322","0.0-18.0-1.52","6208","approach_avoid_sv1","""event"",""trial"",""time""
""focus"",""1"",""4260""
""fullscreenenter"",""1"",""7188""
","
","""event"",""trial"",""time""
""focus"",""1"",""4260""
","""event"",""trial"",""time""
""fullscreenenter"",""1"",""7188""
","
","","","","","","1841.9000000357628","images/table7.png","","","memory_trial","3","maybe_new",""
"html-keyboard-response","150","403835","0.0-18.0-0.53","6208","approach_avoid_sv1","""event"",""trial"",""time""
""focus"",""1"",""4260""
""fullscreenenter"",""1"",""7188""
","
","""event"",""trial"",""time""
""focus"",""1"",""4260""
","""event"",""trial"",""time""
""fullscreenenter"",""1"",""7188""
","
","","","","","","null","<div style=""font-size:60px;"">+</div>","null","","fixation","","",""
"memory-trial","151","406617","0.0-18.0-1.53","6208","approach_avoid_sv1","""event"",""trial"",""time""
""focus"",""1"",""4260""
""fullscreenenter"",""1"",""7188""
","
","""event"",""trial"",""time""
""focus"",""1"",""4260""
","""event"",""trial"",""time""
""fullscreenenter"",""1"",""7188""
","
","","","","","","1771.7999999523163","images/dog5.png","","","memory_trial","4","definitely_new",""
"html-keyboard-response","152","407127","0.0-18.0-0.54","6208","approach_avoid_sv1","""event"",""trial"",""time""
""focus"",""1"",""4260""
""fullscreenenter"",""1"",""7188""
","
","""event"",""trial"",""time""
""focus"",""1"",""4260""
","""event"",""trial"",""time""
""fullscreenenter"",""1"",""7188""
","
","","","","","","null","<div style=""font-size:60px;"">+</div>","null","","fixation","","",""
"memory-trial","153","409128","0.0-18.0-1.54","6208","approach_avoid_sv1","""event"",""trial"",""time""
""focus"",""1"",""4260""
""fullscreenenter"",""1"",""7188""
","
","""event"",""trial"",""time""
""focus"",""1"",""4260""
","""event"",""trial"",""time""
""fullscreenenter"",""1"",""7188""
","
","","","","","","988.9000000357628","images/boat4.png","","","memory_trial","1","definitely_old",""
"html-keyboard-response","154","409631","0.0-18.0-0.55","6208","approach_avoid_sv1","""event"",""trial"",""time""
""focus"",""1"",""4260""
""fullscreenenter"",""1"",""7188""
","
","""event"",""trial"",""time""
""focus"",""1"",""4260""
","""event"",""trial"",""time""
""fullscreenenter"",""1"",""7188""
","
","","","","","","null","<div style=""font-size:60px;"">+</div>","null","","fixation","","",""
"memory-trial","155","411576","0.0-18.0-1.55","6208","approach_avoid_sv1","""event"",""trial"",""time""
""focus"",""1"",""4260""
""fullscreenenter"",""1"",""7188""
","
","""event"",""trial"",""time""
""focus"",""1"",""4260""
","""event"",""trial"",""time""
""fullscreenenter"",""1"",""7188""
","
","","","","","","934.8999999761581","images/table1.png","","","memory_trial","4","definitely_new",""
"html-keyboard-response","156","412080","0.0-18.0-0.56","6208","approach_avoid_sv1","""event"",""trial"",""time""
""focus"",""1"",""4260""
""fullscreenenter"",""1"",""7188""
","
","""event"",""trial"",""time""
""focus"",""1"",""4260""
","""event"",""trial"",""time""
""fullscreenenter"",""1"",""7188""
","
","","","","","","null","<div style=""font-size:60px;"">+</div>","null","","fixation","","",""
"memory-trial","157","414598","0.0-18.0-1.56","6208","approach_avoid_sv1","""event"",""trial"",""time""
""focus"",""1"",""4260""
""fullscreenenter"",""1"",""7188""
","
","""event"",""trial"",""time""
""focus"",""1"",""4260""
","""event"",""trial"",""time""
""fullscreenenter"",""1"",""7188""
","
","","","","","","1505.199999988079","images/truck1.png","","","memory_trial","1","definitely_old",""
"html-keyboard-response","158","415109","0.0-18.0-0.57","6208","approach_avoid_sv1","""event"",""trial"",""time""
""focus"",""1"",""4260""
""fullscreenenter"",""1"",""7188""
","
","""event"",""trial"",""time""
""focus"",""1"",""4260""
","""event"",""trial"",""time""
""fullscreenenter"",""1"",""7188""
","
","","","","","","null","<div style=""font-size:60px;"">+</div>","null","","fixation","","",""
"memory-trial","159","417381","0.0-18.0-1.57","6208","approach_avoid_sv1","""event"",""trial"",""time""
""focus"",""1"",""4260""
""fullscreenenter"",""1"",""7188""
","
","""event"",""trial"",""time""
""focus"",""1"",""4260""
","""event"",""trial"",""time""
""fullscreenenter"",""1"",""7188""
","
","","","","","","1256.5999999642372","images/cow7.png","","","memory_trial","4","definitely_new",""
"html-keyboard-response","160","417892","0.0-18.0-0.58","6208","approach_avoid_sv1","""event"",""trial"",""time""
""focus"",""1"",""4260""
""fullscreenenter"",""1"",""7188""
","
","""event"",""trial"",""time""
""focus"",""1"",""4260""
","""event"",""trial"",""time""
""fullscreenenter"",""1"",""7188""
","
","","","","","","null","<div style=""font-size:60px;"">+</div>","null","","fixation","","",""
"memory-trial","161","419873","0.0-18.0-1.58","6208","approach_avoid_sv1","""event"",""trial"",""time""
""focus"",""1"",""4260""
""fullscreenenter"",""1"",""7188""
","
","""event"",""trial"",""time""
""focus"",""1"",""4260""
","""event"",""trial"",""time""
""fullscreenenter"",""1"",""7188""
","
","","","","","","974","images/straw1.png","","","memory_trial","1","definitely_old",""
"html-keyboard-response","162","420383","0.0-18.0-0.59","6208","approach_avoid_sv1","""event"",""trial"",""time""
""focus"",""1"",""4260""
""fullscreenenter"",""1"",""7188""
","
","""event"",""trial"",""time""
""focus"",""1"",""4260""
","""event"",""trial"",""time""
""fullscreenenter"",""1"",""7188""
","
","","","","","","null","<div style=""font-size:60px;"">+</div>","null","","fixation","","",""
"memory-trial","163","422346","0.0-18.0-1.59","6208","approach_avoid_sv1","""event"",""trial"",""time""
""focus"",""1"",""4260""
""fullscreenenter"",""1"",""7188""
","
","""event"",""trial"",""time""
""focus"",""1"",""4260""
","""event"",""trial"",""time""
""fullscreenenter"",""1"",""7188""
","
","","","","","","952.4000000357628","images/sheep8.png","","","memory_trial","1","definitely_old",""
"html-keyboard-response","164","422856","0.0-18.0-0.60","6208","approach_avoid_sv1","""event"",""trial"",""time""
""focus"",""1"",""4260""
""fullscreenenter"",""1"",""7188""
","
","""event"",""trial"",""time""
""focus"",""1"",""4260""
","""event"",""trial"",""time""
""fullscreenenter"",""1"",""7188""
","
","","","","","","null","<div style=""font-size:60px;"">+</div>","null","","fixation","","",""
"memory-trial","165","425193","0.0-18.0-1.60","6208","approach_avoid_sv1","""event"",""trial"",""time""
""focus"",""1"",""4260""
""fullscreenenter"",""1"",""7188""
","
","""event"",""trial"",""time""
""focus"",""1"",""4260""
","""event"",""trial"",""time""
""fullscreenenter"",""1"",""7188""
","
","","","","","","1319.6000000238419","images/chair7.png","","","memory_trial","2","maybe_old",""
"html-keyboard-response","166","425718","0.0-18.0-0.61","6208","approach_avoid_sv1","""event"",""trial"",""time""
""focus"",""1"",""4260""
""fullscreenenter"",""1"",""7188""
","
","""event"",""trial"",""time""
""focus"",""1"",""4260""
","""event"",""trial"",""time""
""fullscreenenter"",""1"",""7188""
","
","","","","","","null","<div style=""font-size:60px;"">+</div>","null","","fixation","","",""
"memory-trial","167","428194","0.0-18.0-1.61","6208","approach_avoid_sv1","""event"",""trial"",""time""
""focus"",""1"",""4260""
""fullscreenenter"",""1"",""7188""
","
","""event"",""trial"",""time""
""focus"",""1"",""4260""
","""event"",""trial"",""time""
""fullscreenenter"",""1"",""7188""
","
","","","","","","1458.800000011921","images/bush2.png","","","memory_trial","4","definitely_new",""
"html-keyboard-response","168","428709","0.0-18.0-0.62","6208","approach_avoid_sv1","""event"",""trial"",""time""
""focus"",""1"",""4260""
""fullscreenenter"",""1"",""7188""
","
","""event"",""trial"",""time""
""focus"",""1"",""4260""
","""event"",""trial"",""time""
""fullscreenenter"",""1"",""7188""
","
","","","","","","null","<div style=""font-size:60px;"">+</div>","null","","fixation","","",""
"memory-trial","169","431059","0.0-18.0-1.62","6208","approach_avoid_sv1","""event"",""trial"",""time""
""focus"",""1"",""4260""
""fullscreenenter"",""1"",""7188""
","
","""event"",""trial"",""time""
""focus"",""1"",""4260""
","""event"",""trial"",""time""
""fullscreenenter"",""1"",""7188""
","
","","","","","","1336.1000000238419","images/cat5.png","","","memory_trial","2","maybe_old",""
"html-keyboard-response","170","431569","0.0-18.0-0.63","6208","approach_avoid_sv1","""event"",""trial"",""time""
""focus"",""1"",""4260""
""fullscreenenter"",""1"",""7188""
","
","""event"",""trial"",""time""
""focus"",""1"",""4260""
","""event"",""trial"",""time""
""fullscreenenter"",""1"",""7188""
","
","","","","","","null","<div style=""font-size:60px;"">+</div>","null","","fixation","","",""
"memory-trial","171","433471","0.0-18.0-1.63","6208","approach_avoid_sv1","""event"",""trial"",""time""
""focus"",""1"",""4260""
""fullscreenenter"",""1"",""7188""
","
","""event"",""trial"",""time""
""focus"",""1"",""4260""
","""event"",""trial"",""time""
""fullscreenenter"",""1"",""7188""
","
","","","","","","897.1000000238419","images/bed5.png","","","memory_trial","1","definitely_old",""
"html-keyboard-response","172","433982","0.0-18.0-0.64","6208","approach_avoid_sv1","""event"",""trial"",""time""
""focus"",""1"",""4260""
""fullscreenenter"",""1"",""7188""
","
","""event"",""trial"",""time""
""focus"",""1"",""4260""
","""event"",""trial"",""time""
""fullscreenenter"",""1"",""7188""
","
","","","","","","null","<div style=""font-size:60px;"">+</div>","null","","fixation","","",""
"memory-trial","173","436676","0.0-18.0-1.64","6208","approach_avoid_sv1","""event"",""trial"",""time""
""focus"",""1"",""4260""
""fullscreenenter"",""1"",""7188""
","
","""event"",""trial"",""time""
""focus"",""1"",""4260""
","""event"",""trial"",""time""
""fullscreenenter"",""1"",""7188""
","
","","","","","","1673.8999999761581","images/rabbit7.png","","","memory_trial","4","definitely_new",""
"html-keyboard-response","174","437192","0.0-18.0-0.65","6208","approach_avoid_sv1","""event"",""trial"",""time""
""focus"",""1"",""4260""
""fullscreenenter"",""1"",""7188""
","
","""event"",""trial"",""time""
""focus"",""1"",""4260""
","""event"",""trial"",""time""
""fullscreenenter"",""1"",""7188""
","
","","","","","","null","<div style=""font-size:60px;"">+</div>","null","","fixation","","",""
"memory-trial","175","439456","0.0-18.0-1.65","6208","approach_avoid_sv1","""event"",""trial"",""time""
""focus"",""1"",""4260""
""fullscreenenter"",""1"",""7188""
","
","""event"",""trial"",""time""
""focus"",""1"",""4260""
","""event"",""trial"",""time""
""fullscreenenter"",""1"",""7188""
","
","","","","","","1254.5","images/sofa2.png","","","memory_trial","4","definitely_new",""
"html-keyboard-response","176","439958","0.0-18.0-0.66","6208","approach_avoid_sv1","""event"",""trial"",""time""
""focus"",""1"",""4260""
""fullscreenenter"",""1"",""7188""
","
","""event"",""trial"",""time""
""focus"",""1"",""4260""
","""event"",""trial"",""time""
""fullscreenenter"",""1"",""7188""
","
","","","","","","null","<div style=""font-size:60px;"">+</div>","null","","fixation","","",""
"memory-trial","177","441586","0.0-18.0-1.66","6208","approach_avoid_sv1","""event"",""trial"",""time""
""focus"",""1"",""4260""
""fullscreenenter"",""1"",""7188""
","
","""event"",""trial"",""time""
""focus"",""1"",""4260""
","""event"",""trial"",""time""
""fullscreenenter"",""1"",""7188""
","
","","","","","","608.3000000119209","images/sofa5.png","","","memory_trial","4","definitely_new",""
"html-keyboard-response","178","442096","0.0-18.0-0.67","6208","approach_avoid_sv1","""event"",""trial"",""time""
""focus"",""1"",""4260""
""fullscreenenter"",""1"",""7188""
","
","""event"",""trial"",""time""
""focus"",""1"",""4260""
","""event"",""trial"",""time""
""fullscreenenter"",""1"",""7188""
","
","","","","","","null","<div style=""font-size:60px;"">+</div>","null","","fixation","","",""
"memory-trial","179","444344","0.0-18.0-1.67","6208","approach_avoid_sv1","""event"",""trial"",""time""
""focus"",""1"",""4260""
""fullscreenenter"",""1"",""7188""
","
","""event"",""trial"",""time""
""focus"",""1"",""4260""
","""event"",""trial"",""time""
""fullscreenenter"",""1"",""7188""
","
","","","","","","1239.5999999642372","images/cow5.png","","","memory_trial","2","maybe_old",""
"html-keyboard-response","180","444855","0.0-18.0-0.68","6208","approach_avoid_sv1","""event"",""trial"",""time""
""focus"",""1"",""4260""
""fullscreenenter"",""1"",""7188""
","
","""event"",""trial"",""time""
""focus"",""1"",""4260""
","""event"",""trial"",""time""
""fullscreenenter"",""1"",""7188""
","
","","","","","","null","<div style=""font-size:60px;"">+</div>","null","","fixation","","",""
"memory-trial","181","447264","0.0-18.0-1.68","6208","approach_avoid_sv1","""event"",""trial"",""time""
""focus"",""1"",""4260""
""fullscreenenter"",""1"",""7188""
","
","""event"",""trial"",""time""
""focus"",""1"",""4260""
","""event"",""trial"",""time""
""fullscreenenter"",""1"",""7188""
","
","","","","","","1390.199999988079","images/apple8.png","","","memory_trial","2","maybe_old",""
"html-keyboard-response","182","447768","0.0-18.0-0.69","6208","approach_avoid_sv1","""event"",""trial"",""time""
""focus"",""1"",""4260""
""fullscreenenter"",""1"",""7188""
","
","""event"",""trial"",""time""
""focus"",""1"",""4260""
","""event"",""trial"",""time""
""fullscreenenter"",""1"",""7188""
","
","","","","","","null","<div style=""font-size:60px;"">+</div>","null","","fixation","","",""
"memory-trial","183","450850","0.0-18.0-1.69","6208","approach_avoid_sv1","""event"",""trial"",""time""
""focus"",""1"",""4260""
""fullscreenenter"",""1"",""7188""
","
","""event"",""trial"",""time""
""focus"",""1"",""4260""
","""event"",""trial"",""time""
""fullscreenenter"",""1"",""7188""
","
","","","","","","2069.100000023842","images/bush6.png","","","memory_trial","1","definitely_old",""
"html-keyboard-response","184","451362","0.0-18.0-0.70","6208","approach_avoid_sv1","""event"",""trial"",""time""
""focus"",""1"",""4260""
""fullscreenenter"",""1"",""7188""
","
","""event"",""trial"",""time""
""focus"",""1"",""4260""
","""event"",""trial"",""time""
""fullscreenenter"",""1"",""7188""
","
","","","","","","null","<div style=""font-size:60px;"">+</div>","null","","fixation","","",""
"memory-trial","185","453898","0.0-18.0-1.70","6208","approach_avoid_sv1","""event"",""trial"",""time""
""focus"",""1"",""4260""
""fullscreenenter"",""1"",""7188""
","
","""event"",""trial"",""time""
""focus"",""1"",""4260""
","""event"",""trial"",""time""
""fullscreenenter"",""1"",""7188""
","
","","","","","","1512.7999999523163","images/goat8.png","","","memory_trial","1","definitely_old",""
"html-keyboard-response","186","454412","0.0-18.0-0.71","6208","approach_avoid_sv1","""event"",""trial"",""time""
""focus"",""1"",""4260""
""fullscreenenter"",""1"",""7188""
","
","""event"",""trial"",""time""
""focus"",""1"",""4260""
","""event"",""trial"",""time""
""fullscreenenter"",""1"",""7188""
","
","","","","","","null","<div style=""font-size:60px;"">+</div>","null","","fixation","","",""
"memory-trial","187","457221","0.0-18.0-1.71","6208","approach_avoid_sv1","""event"",""trial"",""time""
""focus"",""1"",""4260""
""fullscreenenter"",""1"",""7188""
","
","""event"",""trial"",""time""
""focus"",""1"",""4260""
","""event"",""trial"",""time""
""fullscreenenter"",""1"",""7188""
","
","","","","","","1793.800000011921","images/dog8.png","","","memory_trial","2","maybe_old",""
"html-keyboard-response","188","457732","0.0-18.0-0.72","6208","approach_avoid_sv1","""event"",""trial"",""time""
""focus"",""1"",""4260""
""fullscreenenter"",""1"",""7188""
","
","""event"",""trial"",""time""
""focus"",""1"",""4260""
","""event"",""trial"",""time""
""fullscreenenter"",""1"",""7188""
","
","","","","","","null","<div style=""font-size:60px;"">+</div>","null","","fixation","","",""
"memory-trial","189","459992","0.0-18.0-1.72","6208","approach_avoid_sv1","""event"",""trial"",""time""
""focus"",""1"",""4260""
""fullscreenenter"",""1"",""7188""
","
","""event"",""trial"",""time""
""focus"",""1"",""4260""
","""event"",""trial"",""time""
""fullscreenenter"",""1"",""7188""
","
","","","","","","1253.300000011921","images/sofa7.png","","","memory_trial","4","definitely_new",""
"html-keyboard-response","190","460506","0.0-18.0-0.73","6208","approach_avoid_sv1","""event"",""trial"",""time""
""focus"",""1"",""4260""
""fullscreenenter"",""1"",""7188""
","
","""event"",""trial"",""time""
""focus"",""1"",""4260""
","""event"",""trial"",""time""
""fullscreenenter"",""1"",""7188""
","
","","","","","","null","<div style=""font-size:60px;"">+</div>","null","","fixation","","",""
"memory-trial","191","463299","0.0-18.0-1.73","6208","approach_avoid_sv1","""event"",""trial"",""time""
""focus"",""1"",""4260""
""fullscreenenter"",""1"",""7188""
","
","""event"",""trial"",""time""
""focus"",""1"",""4260""
","""event"",""trial"",""time""
""fullscreenenter"",""1"",""7188""
","
","","","","","","1781.300000011921","images/dog7.png","","","memory_trial","4","definitely_new",""
"html-keyboard-response","192","463807","0.0-18.0-0.74","6208","approach_avoid_sv1","""event"",""trial"",""time""
""focus"",""1"",""4260""
""fullscreenenter"",""1"",""7188""
","
","""event"",""trial"",""time""
""focus"",""1"",""4260""
","""event"",""trial"",""time""
""fullscreenenter"",""1"",""7188""
","
","","","","","","null","<div style=""font-size:60px;"">+</div>","null","","fixation","","",""
"memory-trial","193","466115","0.0-18.0-1.74","6208","approach_avoid_sv1","""event"",""trial"",""time""
""focus"",""1"",""4260""
""fullscreenenter"",""1"",""7188""
","
","""event"",""trial"",""time""
""focus"",""1"",""4260""
","""event"",""trial"",""time""
""fullscreenenter"",""1"",""7188""
","
","","","","","","1297.699999988079","images/cow2.png","","","memory_trial","2","maybe_old",""
"html-keyboard-response","194","466624","0.0-18.0-0.75","6208","approach_avoid_sv1","""event"",""trial"",""time""
""focus"",""1"",""4260""
""fullscreenenter"",""1"",""7188""
","
","""event"",""trial"",""time""
""focus"",""1"",""4260""
","""event"",""trial"",""time""
""fullscreenenter"",""1"",""7188""
","
","","","","","","null","<div style=""font-size:60px;"">+</div>","null","","fixation","","",""
"memory-trial","195","468936","0.0-18.0-1.75","6208","approach_avoid_sv1","""event"",""trial"",""time""
""focus"",""1"",""4260""
""fullscreenenter"",""1"",""7188""
","
","""event"",""trial"",""time""
""focus"",""1"",""4260""
","""event"",""trial"",""time""
""fullscreenenter"",""1"",""7188""
","
","","","","","","1292.300000011921","images/bed1.png","","","memory_trial","2","maybe_old",""
"html-keyboard-response","196","469444","0.0-18.0-0.76","6208","approach_avoid_sv1","""event"",""trial"",""time""
""focus"",""1"",""4260""
""fullscreenenter"",""1"",""7188""
","
","""event"",""trial"",""time""
""focus"",""1"",""4260""
","""event"",""trial"",""time""
""fullscreenenter"",""1"",""7188""
","
","","","","","","null","<div style=""font-size:60px;"">+</div>","null","","fixation","","",""
"memory-trial","197","471743","0.0-18.0-1.76","6208","approach_avoid_sv1","""event"",""trial"",""time""
""focus"",""1"",""4260""
""fullscreenenter"",""1"",""7188""
","
","""event"",""trial"",""time""
""focus"",""1"",""4260""
","""event"",""trial"",""time""
""fullscreenenter"",""1"",""7188""
","
","","","","","","1281.2000000476837","images/banana6.png","","","memory_trial","1","definitely_old",""
"html-keyboard-response","198","472256","0.0-18.0-0.77","6208","approach_avoid_sv1","""event"",""trial"",""time""
""focus"",""1"",""4260""
""fullscreenenter"",""1"",""7188""
","
","""event"",""trial"",""time""
""focus"",""1"",""4260""
","""event"",""trial"",""time""
""fullscreenenter"",""1"",""7188""
","
","","","","","","null","<div style=""font-size:60px;"">+</div>","null","","fixation","","",""
"memory-trial","199","474204","0.0-18.0-1.77","6208","approach_avoid_sv1","""event"",""trial"",""time""
""focus"",""1"",""4260""
""fullscreenenter"",""1"",""7188""
","
","""event"",""trial"",""time""
""focus"",""1"",""4260""
","""event"",""trial"",""time""
""fullscreenenter"",""1"",""7188""
","
","","","","","","930.6999999880791","images/horse6.png","","","memory_trial","4","definitely_new",""
"html-keyboard-response","200","474723","0.0-18.0-0.78","6208","approach_avoid_sv1","""event"",""trial"",""time""
""focus"",""1"",""4260""
""fullscreenenter"",""1"",""7188""
","
","""event"",""trial"",""time""
""focus"",""1"",""4260""
","""event"",""trial"",""time""
""fullscreenenter"",""1"",""7188""
","
","","","","","","null","<div style=""font-size:60px;"">+</div>","null","","fixation","","",""
"memory-trial","201","477049","0.0-18.0-1.78","6208","approach_avoid_sv1","""event"",""trial"",""time""
""focus"",""1"",""4260""
""fullscreenenter"",""1"",""7188""
","
","""event"",""trial"",""time""
""focus"",""1"",""4260""
","""event"",""trial"",""time""
""fullscreenenter"",""1"",""7188""
","
","","","","","","1312.300000011921","images/chair1.png","","","memory_trial","4","definitely_new",""
"html-keyboard-response","202","477562","0.0-18.0-0.79","6208","approach_avoid_sv1","""event"",""trial"",""time""
""focus"",""1"",""4260""
""fullscreenenter"",""1"",""7188""
","
","""event"",""trial"",""time""
""focus"",""1"",""4260""
","""event"",""trial"",""time""
""fullscreenenter"",""1"",""7188""
","
","","","","","","null","<div style=""font-size:60px;"">+</div>","null","","fixation","","",""
"memory-trial","203","479454","0.0-18.0-1.79","6208","approach_avoid_sv1","""event"",""trial"",""time""
""focus"",""1"",""4260""
""fullscreenenter"",""1"",""7188""
","
","""event"",""trial"",""time""
""focus"",""1"",""4260""
","""event"",""trial"",""time""
""fullscreenenter"",""1"",""7188""
","
","","","","","","873.9000000357628","images/horse8.png","","","memory_trial","4","definitely_new",""
"html-keyboard-response","204","479962","0.0-18.0-0.80","6208","approach_avoid_sv1","""event"",""trial"",""time""
""focus"",""1"",""4260""
""fullscreenenter"",""1"",""7188""
","
","""event"",""trial"",""time""
""focus"",""1"",""4260""
","""event"",""trial"",""time""
""fullscreenenter"",""1"",""7188""
","
","","","","","","null","<div style=""font-size:60px;"">+</div>","null","","fixation","","",""
"memory-trial","205","481704","0.0-18.0-1.80","6208","approach_avoid_sv1","""event"",""trial"",""time""
""focus"",""1"",""4260""
""fullscreenenter"",""1"",""7188""
","
","""event"",""trial"",""time""
""focus"",""1"",""4260""
","""event"",""trial"",""time""
""fullscreenenter"",""1"",""7188""
","
","","","","","","724","images/plane8.png","","","memory_trial","4","definitely_new",""
"html-keyboard-response","206","482208","0.0-18.0-0.81","6208","approach_avoid_sv1","""event"",""trial"",""time""
""focus"",""1"",""4260""
""fullscreenenter"",""1"",""7188""
","
","""event"",""trial"",""time""
""focus"",""1"",""4260""
","""event"",""trial"",""time""
""fullscreenenter"",""1"",""7188""
","
","","","","","","null","<div style=""font-size:60px;"">+</div>","null","","fixation","","",""
"memory-trial","207","484535","0.0-18.0-1.81","6208","approach_avoid_sv1","""event"",""trial"",""time""
""focus"",""1"",""4260""
""fullscreenenter"",""1"",""7188""
","
","""event"",""trial"",""time""
""focus"",""1"",""4260""
","""event"",""trial"",""time""
""fullscreenenter"",""1"",""7188""
","
","","","","","","1308.5","images/rabbit2.png","","","memory_trial","2","maybe_old",""
"html-keyboard-response","208","485049","0.0-18.0-0.82","6208","approach_avoid_sv1","""event"",""trial"",""time""
""focus"",""1"",""4260""
""fullscreenenter"",""1"",""7188""
","
","""event"",""trial"",""time""
""focus"",""1"",""4260""
","""event"",""trial"",""time""
""fullscreenenter"",""1"",""7188""
","
","","","","","","null","<div style=""font-size:60px;"">+</div>","null","","fixation","","",""
"memory-trial","209","487555","0.0-18.0-1.82","6208","approach_avoid_sv1","""event"",""trial"",""time""
""focus"",""1"",""4260""
""fullscreenenter"",""1"",""7188""
","
","""event"",""trial"",""time""
""focus"",""1"",""4260""
","""event"",""trial"",""time""
""fullscreenenter"",""1"",""7188""
","
","","","","","","1486","images/boat7.png","","","memory_trial","2","maybe_old",""
"html-keyboard-response","210","488070","0.0-18.0-0.83","6208","approach_avoid_sv1","""event"",""trial"",""time""
""focus"",""1"",""4260""
""fullscreenenter"",""1"",""7188""
","
","""event"",""trial"",""time""
""focus"",""1"",""4260""
","""event"",""trial"",""time""
""fullscreenenter"",""1"",""7188""
","
","","","","","","null","<div style=""font-size:60px;"">+</div>","null","","fixation","","",""
"memory-trial","211","490295","0.0-18.0-1.83","6208","approach_avoid_sv1","""event"",""trial"",""time""
""focus"",""1"",""4260""
""fullscreenenter"",""1"",""7188""
","
","""event"",""trial"",""time""
""focus"",""1"",""4260""
","""event"",""trial"",""time""
""fullscreenenter"",""1"",""7188""
","
","","","","","","1215.800000011921","images/train2.png","","","memory_trial","1","definitely_old",""
"html-keyboard-response","212","490805","0.0-18.0-0.84","6208","approach_avoid_sv1","""event"",""trial"",""time""
""focus"",""1"",""4260""
""fullscreenenter"",""1"",""7188""
","
","""event"",""trial"",""time""
""focus"",""1"",""4260""
","""event"",""trial"",""time""
""fullscreenenter"",""1"",""7188""
","
","","","","","","null","<div style=""font-size:60px;"">+</div>","null","","fixation","","",""
"memory-trial","213","492779","0.0-18.0-1.84","6208","approach_avoid_sv1","""event"",""trial"",""time""
""focus"",""1"",""4260""
""fullscreenenter"",""1"",""7188""
","
","""event"",""trial"",""time""
""focus"",""1"",""4260""
","""event"",""trial"",""time""
""fullscreenenter"",""1"",""7188""
","
","","","","","","960.3000000119209","images/dog6.png","","","memory_trial","1","definitely_old",""
"html-keyboard-response","214","493292","0.0-18.0-0.85","6208","approach_avoid_sv1","""event"",""trial"",""time""
""focus"",""1"",""4260""
""fullscreenenter"",""1"",""7188""
","
","""event"",""trial"",""time""
""focus"",""1"",""4260""
","""event"",""trial"",""time""
""fullscreenenter"",""1"",""7188""
","
","","","","","","null","<div style=""font-size:60px;"">+</div>","null","","fixation","","",""
"memory-trial","215","495427","0.0-18.0-1.85","6208","approach_avoid_sv1","""event"",""trial"",""time""
""focus"",""1"",""4260""
""fullscreenenter"",""1"",""7188""
","
","""event"",""trial"",""time""
""focus"",""1"",""4260""
","""event"",""trial"",""time""
""fullscreenenter"",""1"",""7188""
","
","","","","","","1125.5","images/dog3.png","","","memory_trial","1","definitely_old",""
"html-keyboard-response","216","495949","0.0-18.0-0.86","6208","approach_avoid_sv1","""event"",""trial"",""time""
""focus"",""1"",""4260""
""fullscreenenter"",""1"",""7188""
","
","""event"",""trial"",""time""
""focus"",""1"",""4260""
","""event"",""trial"",""time""
""fullscreenenter"",""1"",""7188""
","
","","","","","","null","<div style=""font-size:60px;"">+</div>","null","","fixation","","",""
"memory-trial","217","498410","0.0-18.0-1.86","6208","approach_avoid_sv1","""event"",""trial"",""time""
""focus"",""1"",""4260""
""fullscreenenter"",""1"",""7188""
","
","""event"",""trial"",""time""
""focus"",""1"",""4260""
","""event"",""trial"",""time""
""fullscreenenter"",""1"",""7188""
","
","","","","","","1447.699999988079","images/bush5.png","","","memory_trial","2","maybe_old",""
"html-keyboard-response","218","498934","0.0-18.0-0.87","6208","approach_avoid_sv1","""event"",""trial"",""time""
""focus"",""1"",""4260""
""fullscreenenter"",""1"",""7188""
","
","""event"",""trial"",""time""
""focus"",""1"",""4260""
","""event"",""trial"",""time""
""fullscreenenter"",""1"",""7188""
","
","","","","","","null","<div style=""font-size:60px;"">+</div>","null","","fixation","","",""
"memory-trial","219","501779","0.0-18.0-1.87","6208","approach_avoid_sv1","""event"",""trial"",""time""
""focus"",""1"",""4260""
""fullscreenenter"",""1"",""7188""
","
","""event"",""trial"",""time""
""focus"",""1"",""4260""
","""event"",""trial"",""time""
""fullscreenenter"",""1"",""7188""
","
","","","","","","1832.5","images/boat6.png","","","memory_trial","3","maybe_new",""
"html-keyboard-response","220","502294","0.0-18.0-0.88","6208","approach_avoid_sv1","""event"",""trial"",""time""
""focus"",""1"",""4260""
""fullscreenenter"",""1"",""7188""
","
","""event"",""trial"",""time""
""focus"",""1"",""4260""
","""event"",""trial"",""time""
""fullscreenenter"",""1"",""7188""
","
","","","","","","null","<div style=""font-size:60px;"">+</div>","null","","fixation","","",""
"memory-trial","221","504395","0.0-18.0-1.88","6208","approach_avoid_sv1","""event"",""trial"",""time""
""focus"",""1"",""4260""
""fullscreenenter"",""1"",""7188""
","
","""event"",""trial"",""time""
""focus"",""1"",""4260""
","""event"",""trial"",""time""
""fullscreenenter"",""1"",""7188""
","
","","","","","","1082.5","images/chair6.png","","","memory_trial","4","definitely_new",""
"html-keyboard-response","222","504908","0.0-18.0-0.89","6208","approach_avoid_sv1","""event"",""trial"",""time""
""focus"",""1"",""4260""
""fullscreenenter"",""1"",""7188""
","
","""event"",""trial"",""time""
""focus"",""1"",""4260""
","""event"",""trial"",""time""
""fullscreenenter"",""1"",""7188""
","
","","","","","","null","<div style=""font-size:60px;"">+</div>","null","","fixation","","",""
"memory-trial","223","507928","0.0-18.0-1.89","6208","approach_avoid_sv1","""event"",""trial"",""time""
""focus"",""1"",""4260""
""fullscreenenter"",""1"",""7188""
","
","""event"",""trial"",""time""
""focus"",""1"",""4260""
","""event"",""trial"",""time""
""fullscreenenter"",""1"",""7188""
","
","","","","","","1999.1000000238419","images/rodent3.png","","","memory_trial","2","maybe_old",""
"html-keyboard-response","224","508444","0.0-18.0-0.90","6208","approach_avoid_sv1","""event"",""trial"",""time""
""focus"",""1"",""4260""
""fullscreenenter"",""1"",""7188""
","
","""event"",""trial"",""time""
""focus"",""1"",""4260""
","""event"",""trial"",""time""
""fullscreenenter"",""1"",""7188""
","
","","","","","","null","<div style=""font-size:60px;"">+</div>","null","","fixation","","",""
"memory-trial","225","510328","0.0-18.0-1.90","6208","approach_avoid_sv1","""event"",""trial"",""time""
""focus"",""1"",""4260""
""fullscreenenter"",""1"",""7188""
","
","""event"",""trial"",""time""
""focus"",""1"",""4260""
","""event"",""trial"",""time""
""fullscreenenter"",""1"",""7188""
","
","","","","","","872.2000000476837","images/horse7.png","","","memory_trial","4","definitely_new",""
"html-keyboard-response","226","510831","0.0-18.0-0.91","6208","approach_avoid_sv1","""event"",""trial"",""time""
""focus"",""1"",""4260""
""fullscreenenter"",""1"",""7188""
","
","""event"",""trial"",""time""
""focus"",""1"",""4260""
","""event"",""trial"",""time""
""fullscreenenter"",""1"",""7188""
","
","","","","","","null","<div style=""font-size:60px;"">+</div>","null","","fixation","","",""
"memory-trial","227","513115","0.0-18.0-1.91","6208","approach_avoid_sv1","""event"",""trial"",""time""
""focus"",""1"",""4260""
""fullscreenenter"",""1"",""7188""
","
","""event"",""trial"",""time""
""focus"",""1"",""4260""
","""event"",""trial"",""time""
""fullscreenenter"",""1"",""7188""
","
","","","","","","1274.6000000238419","images/dog1.png","","","memory_trial","1","definitely_old",""
"html-button-response","228","531639","0.0-18.0-2.91-0.91","6208","approach_avoid_sv1","""event"",""trial"",""time""
""focus"",""1"",""4260""
""fullscreenenter"",""1"",""7188""
","
","""event"",""trial"",""time""
""focus"",""1"",""4260""
","""event"",""trial"",""time""
""fullscreenenter"",""1"",""7188""
","
","","","","","","18523.19999998808","<p> Take a break! </p><p> Click the button to continue. </p>","0","","break","","",""
"html-keyboard-response","229","532144","0.0-18.0-0.92","6208","approach_avoid_sv1","""event"",""trial"",""time""
""focus"",""1"",""4260""
""fullscreenenter"",""1"",""7188""
","
","""event"",""trial"",""time""
""focus"",""1"",""4260""
","""event"",""trial"",""time""
""fullscreenenter"",""1"",""7188""
","
","","","","","","null","<div style=""font-size:60px;"">+</div>","null","","fixation","","",""
"memory-trial","230","536090","0.0-18.0-1.92","6208","approach_avoid_sv1","""event"",""trial"",""time""
""focus"",""1"",""4260""
""fullscreenenter"",""1"",""7188""
","
","""event"",""trial"",""time""
""focus"",""1"",""4260""
","""event"",""trial"",""time""
""fullscreenenter"",""1"",""7188""
","
","","","","","","2931.199999988079","images/cactus2.png","","","memory_trial","3","maybe_new",""
"html-keyboard-response","231","536604","0.0-18.0-0.93","6208","approach_avoid_sv1","""event"",""trial"",""time""
""focus"",""1"",""4260""
""fullscreenenter"",""1"",""7188""
","
","""event"",""trial"",""time""
""focus"",""1"",""4260""
","""event"",""trial"",""time""
""fullscreenenter"",""1"",""7188""
","
","","","","","","null","<div style=""font-size:60px;"">+</div>","null","","fixation","","",""
"memory-trial","232","538990","0.0-18.0-1.93","6208","approach_avoid_sv1","""event"",""trial"",""time""
""focus"",""1"",""4260""
""fullscreenenter"",""1"",""7188""
","
","""event"",""trial"",""time""
""focus"",""1"",""4260""
","""event"",""trial"",""time""
""fullscreenenter"",""1"",""7188""
","
","","","","","","1372.6000000238419","images/goat4.png","","","memory_trial","2","maybe_old",""
"html-keyboard-response","233","539509","0.0-18.0-0.94","6208","approach_avoid_sv1","""event"",""trial"",""time""
""focus"",""1"",""4260""
""fullscreenenter"",""1"",""7188""
","
","""event"",""trial"",""time""
""focus"",""1"",""4260""
","""event"",""trial"",""time""
""fullscreenenter"",""1"",""7188""
","
","","","","","","null","<div style=""font-size:60px;"">+</div>","null","","fixation","","",""
"memory-trial","234","542521","0.0-18.0-1.94","6208","approach_avoid_sv1","""event"",""trial"",""time""
""focus"",""1"",""4260""
""fullscreenenter"",""1"",""7188""
","
","""event"",""trial"",""time""
""focus"",""1"",""4260""
","""event"",""trial"",""time""
""fullscreenenter"",""1"",""7188""
","
","","","","","","1999.0999999642372","images/dog2.png","","","memory_trial","1","definitely_old",""
"html-keyboard-response","235","543040","0.0-18.0-0.95","6208","approach_avoid_sv1","""event"",""trial"",""time""
""focus"",""1"",""4260""
""fullscreenenter"",""1"",""7188""
","
","""event"",""trial"",""time""
""focus"",""1"",""4260""
","""event"",""trial"",""time""
""fullscreenenter"",""1"",""7188""
","
","","","","","","null","<div style=""font-size:60px;"">+</div>","null","","fixation","","",""
"memory-trial","236","545757","0.0-18.0-1.95","6208","approach_avoid_sv1","""event"",""trial"",""time""
""focus"",""1"",""4260""
""fullscreenenter"",""1"",""7188""
","
","""event"",""trial"",""time""
""focus"",""1"",""4260""
","""event"",""trial"",""time""
""fullscreenenter"",""1"",""7188""
","
","","","","","","1696","images/bush1.png","","","memory_trial","3","maybe_new",""
"html-keyboard-response","237","546264","0.0-18.0-0.96","6208","approach_avoid_sv1","""event"",""trial"",""time""
""focus"",""1"",""4260""
""fullscreenenter"",""1"",""7188""
","
","""event"",""trial"",""time""
""focus"",""1"",""4260""
","""event"",""trial"",""time""
""fullscreenenter"",""1"",""7188""
","
","","","","","","null","<div style=""font-size:60px;"">+</div>","null","","fixation","","",""
"memory-trial","238","549929","0.0-18.0-1.96","6208","approach_avoid_sv1","""event"",""trial"",""time""
""focus"",""1"",""4260""
""fullscreenenter"",""1"",""7188""
","
","""event"",""trial"",""time""
""focus"",""1"",""4260""
","""event"",""trial"",""time""
""fullscreenenter"",""1"",""7188""
","
","","","","","","2652.899999976158","images/rodent1.png","","","memory_trial","2","maybe_old",""
