"trial_type","trial_index","time_elapsed","internal_node_id","subject_id","task_version","interactions","blur_events","focus_events","fullscreenenter_events","fullscreenexit_events","success","timeout","failed_images","failed_audio","failed_video","rt","stimulus","response","button_pressed","task_part","key_press","answer","correct"
"pavlovia","0","9","0.0-0.0","5258","approach_avoid_sv1","""event"",""trial"",""time""
""fullscreenenter"",""1"",""13119""
","
","
","""event"",""trial"",""time""
""fullscreenenter"",""1"",""13119""
","
","","","","","","","","","","","","",""
"fullscreen","1","14107","0.0-1.0","5258","approach_avoid_sv1","""event"",""trial"",""time""
""fullscreenenter"",""1"",""13119""
","
","
","""event"",""trial"",""time""
""fullscreenenter"",""1"",""13119""
","
","true","","","","","","","","","","","",""
"preload","2","15460","0.0-2.0","5258","approach_avoid_sv1","""event"",""trial"",""time""
""fullscreenenter"",""1"",""13119""
","
","
","""event"",""trial"",""time""
""fullscreenenter"",""1"",""13119""
","
","true","false","[]","[]","[]","","","","","","","",""
"preload","3","15980","0.0-3.0","5258","approach_avoid_sv1","""event"",""trial"",""time""
""fullscreenenter"",""1"",""13119""
","
","
","""event"",""trial"",""time""
""fullscreenenter"",""1"",""13119""
","
","true","false","[]","[]","[]","","","","","","","",""
"preload","4","16228","0.0-4.0","5258","approach_avoid_sv1","""event"",""trial"",""time""
""fullscreenenter"",""1"",""13119""
""fullscreenexit"",""5"",""39919""
","
","
","""event"",""trial"",""time""
""fullscreenenter"",""1"",""13119""
","""event"",""trial"",""time""
""fullscreenexit"",""5"",""39919""
","true","false","[]","[]","[]","","","","","","","",""
"audio-keyboard-response","5","42322","0.0-5.0","5258","approach_avoid_sv1","""event"",""trial"",""time""
""fullscreenenter"",""1"",""13119""
""fullscreenexit"",""5"",""39919""
""blur"",""6"",""47191""
""focus"",""6"",""111028""
","""event"",""trial"",""time""
""blur"",""6"",""47191""
","""event"",""trial"",""time""
""focus"",""6"",""111028""
","""event"",""trial"",""time""
""fullscreenenter"",""1"",""13119""
","""event"",""trial"",""time""
""fullscreenexit"",""5"",""39919""
","","","","","","26069.333333333332","audio/beep_loop.wav"," ","","","","",""
"audio-button-response","6","111147","0.0-6.0","5258","approach_avoid_sv1","""event"",""trial"",""time""
""fullscreenenter"",""1"",""13119""
""fullscreenexit"",""5"",""39919""
""blur"",""6"",""47191""
""focus"",""6"",""111028""
","""event"",""trial"",""time""
""blur"",""6"",""47191""
","""event"",""trial"",""time""
""focus"",""6"",""111028""
","""event"",""trial"",""time""
""fullscreenenter"",""1"",""13119""
","""event"",""trial"",""time""
""fullscreenexit"",""5"",""39919""
","","","","","","68811","audio/turtle.wav","0","","","","",""
"audio-button-response","7","113514","0.0-7.0","5258","approach_avoid_sv1","""event"",""trial"",""time""
""fullscreenenter"",""1"",""13119""
""fullscreenexit"",""5"",""39919""
""blur"",""6"",""47191""
""focus"",""6"",""111028""
","""event"",""trial"",""time""
""blur"",""6"",""47191""
","""event"",""trial"",""time""
""focus"",""6"",""111028""
","""event"",""trial"",""time""
""fullscreenenter"",""1"",""13119""
","""event"",""trial"",""time""
""fullscreenexit"",""5"",""39919""
","","","","","","1131","audio/shark.wav","2","","","","",""
"preload","8","115982","0.0-8.0","5258","approach_avoid_sv1","""event"",""trial"",""time""
""fullscreenenter"",""1"",""13119""
""fullscreenexit"",""5"",""39919""
""blur"",""6"",""47191""
""focus"",""6"",""111028""
""blur"",""9"",""117569""
""focus"",""9"",""136489""
","""event"",""trial"",""time""
""blur"",""6"",""47191""
""blur"",""9"",""117569""
","""event"",""trial"",""time""
""focus"",""6"",""111028""
""focus"",""9"",""136489""
","""event"",""trial"",""time""
""fullscreenenter"",""1"",""13119""
","""event"",""trial"",""time""
""fullscreenexit"",""5"",""39919""
","true","false","[]","[]","[]","","","","","","","",""
"learning-instructions","9","136657","0.0-9.0-0.0","5258","approach_avoid_sv1","""event"",""trial"",""time""
""fullscreenenter"",""1"",""13119""
""fullscreenexit"",""5"",""39919""
""blur"",""6"",""47191""
""focus"",""6"",""111028""
""blur"",""9"",""117569""
""focus"",""9"",""136489""
","""event"",""trial"",""time""
""blur"",""6"",""47191""
""blur"",""9"",""117569""
","""event"",""trial"",""time""
""focus"",""6"",""111028""
""focus"",""9"",""136489""
","""event"",""trial"",""time""
""fullscreenenter"",""1"",""13119""
","""event"",""trial"",""time""
""fullscreenexit"",""5"",""39919""
","","","","","","16198.90000000596","<p> Welcome back! </p><p> Last week, you had to make choices about lots of different items.  </p>","","0","instructions","","",""
"learning-instructions","10","141287","0.0-9.0-0.1","5258","approach_avoid_sv1","""event"",""trial"",""time""
""fullscreenenter"",""1"",""13119""
""fullscreenexit"",""5"",""39919""
""blur"",""6"",""47191""
""focus"",""6"",""111028""
""blur"",""9"",""117569""
""focus"",""9"",""136489""
","""event"",""trial"",""time""
""blur"",""6"",""47191""
""blur"",""9"",""117569""
","""event"",""trial"",""time""
""focus"",""6"",""111028""
""focus"",""9"",""136489""
","""event"",""trial"",""time""
""fullscreenenter"",""1"",""13119""
","""event"",""trial"",""time""
""fullscreenexit"",""5"",""39919""
","","","","","","508.30000001192093","<p> Today, we are going to ask you to try to remember all the items. </p>","","0","instructions","","",""
"learning-instructions","11","154406","0.0-9.0-0.2","5258","approach_avoid_sv1","""event"",""trial"",""time""
""fullscreenenter"",""1"",""13119""
""fullscreenexit"",""5"",""39919""
""blur"",""6"",""47191""
""focus"",""6"",""111028""
""blur"",""9"",""117569""
""focus"",""9"",""136489""
","""event"",""trial"",""time""
""blur"",""6"",""47191""
""blur"",""9"",""117569""
","""event"",""trial"",""time""
""focus"",""6"",""111028""
""focus"",""9"",""136489""
","""event"",""trial"",""time""
""fullscreenenter"",""1"",""13119""
","""event"",""trial"",""time""
""fullscreenexit"",""5"",""39919""
","","","","","","2978.0999999940395","<p> On every trial, you will see an image. </p><p> The image may be an OLD image you saw during the games last week or it may be a NEW image that was not presented. </p>","","0","instructions","","",""
"learning-instructions","12","209666","0.0-9.0-0.3","5258","approach_avoid_sv1","""event"",""trial"",""time""
""fullscreenenter"",""1"",""13119""
""fullscreenexit"",""5"",""39919""
""blur"",""6"",""47191""
""focus"",""6"",""111028""
""blur"",""9"",""117569""
""focus"",""9"",""136489""
","""event"",""trial"",""time""
""blur"",""6"",""47191""
""blur"",""9"",""117569""
","""event"",""trial"",""time""
""focus"",""6"",""111028""
""focus"",""9"",""136489""
","""event"",""trial"",""time""
""fullscreenenter"",""1"",""13119""
","""event"",""trial"",""time""
""fullscreenexit"",""5"",""39919""
","","","","","","46748","<p> You need to select whether the image is:  </p><p>  'Definitely old', 'Maybe old', 'Maybe new', or 'Definitely new.'  </p><div class=""mem-choice-instructions-grid""><div class=""choice-option"" id=""choice-option-1"" ><img src=""images/definitely_old_1.png"" id=""choice-option-img-1"" class=""choice-option-img"" stage=""1""></div><div class=""choice-option"" id=""choice-option-2"" ><img src=""images/maybe_old_1.png"" id=""choice-option-img-2"" class=""choice-option-img"" stage=""1""></div><div class=""choice-option"" id=""choice-option-3"" ><img src=""images/maybe_new_1.png"" id=""choice-option-img-3"" class=""choice-option-img"" stage=""1""></div><div class=""choice-option"" id=""choice-option-4"" > <img src=""images/definitely_new_1.png"" id=""choice-option-img-4"" class=""choice-option-img"" stage=""1""></div></div>","","0","instructions","","",""
"learning-instructions","13","227940","0.0-9.0-0.4","5258","approach_avoid_sv1","""event"",""trial"",""time""
""fullscreenenter"",""1"",""13119""
""fullscreenexit"",""5"",""39919""
""blur"",""6"",""47191""
""focus"",""6"",""111028""
""blur"",""9"",""117569""
""focus"",""9"",""136489""
","""event"",""trial"",""time""
""blur"",""6"",""47191""
""blur"",""9"",""117569""
","""event"",""trial"",""time""
""focus"",""6"",""111028""
""focus"",""9"",""136489""
","""event"",""trial"",""time""
""fullscreenenter"",""1"",""13119""
","""event"",""trial"",""time""
""fullscreenexit"",""5"",""39919""
","","","","","","11516.59999999404","<p> You should use the 1, 2, 3, and 4 keys to make your responses.  </p><div class=""mem-choice-instructions-grid""><div class=""choice-option"" id=""choice-option-1"" ><img src=""images/definitely_old.png"" id=""choice-option-img-1"" class=""choice-option-img"" stage=""1""></div><div class=""choice-option"" id=""choice-option-2"" ><img src=""images/maybe_old.png"" id=""choice-option-img-2"" class=""choice-option-img"" stage=""1""></div><div class=""choice-option"" id=""choice-option-3"" ><img src=""images/maybe_new.png"" id=""choice-option-img-3"" class=""choice-option-img"" stage=""1""></div><div class=""choice-option"" id=""choice-option-4"" > <img src=""images/definitely_new.png"" id=""choice-option-img-4"" class=""choice-option-img"" stage=""1""></div></div>","","0","instructions","","",""
"learning-instructions","14","246550","0.0-9.0-0.5","5258","approach_avoid_sv1","""event"",""trial"",""time""
""fullscreenenter"",""1"",""13119""
""fullscreenexit"",""5"",""39919""
""blur"",""6"",""47191""
""focus"",""6"",""111028""
""blur"",""9"",""117569""
""focus"",""9"",""136489""
","""event"",""trial"",""time""
""blur"",""6"",""47191""
""blur"",""9"",""117569""
","""event"",""trial"",""time""
""focus"",""6"",""111028""
""focus"",""9"",""136489""
","""event"",""trial"",""time""
""fullscreenenter"",""1"",""13119""
","""event"",""trial"",""time""
""fullscreenexit"",""5"",""39919""
","","","","","","12258.699999988079","<p> You will have 10 seconds to make each response.  </p><p>  Make sure to respond before time runs out! </p>","","0","instructions","","",""
"learning-instructions","15","282585","0.0-9.0-0.6","5258","approach_avoid_sv1","""event"",""trial"",""time""
""fullscreenenter"",""1"",""13119""
""fullscreenexit"",""5"",""39919""
""blur"",""6"",""47191""
""focus"",""6"",""111028""
""blur"",""9"",""117569""
""focus"",""9"",""136489""
","""event"",""trial"",""time""
""blur"",""6"",""47191""
""blur"",""9"",""117569""
","""event"",""trial"",""time""
""focus"",""6"",""111028""
""focus"",""9"",""136489""
","""event"",""trial"",""time""
""fullscreenenter"",""1"",""13119""
","""event"",""trial"",""time""
""fullscreenexit"",""5"",""39919""
","","","","","","28957.29999999702","<p> Today, you will see each image ONCE only.  </p><p>  That means none of the images will repeat. </p>","","0","instructions","","",""
"learning-instructions","16","297631","0.0-9.0-0.7","5258","approach_avoid_sv1","""event"",""trial"",""time""
""fullscreenenter"",""1"",""13119""
""fullscreenexit"",""5"",""39919""
""blur"",""6"",""47191""
""focus"",""6"",""111028""
""blur"",""9"",""117569""
""focus"",""9"",""136489""
","""event"",""trial"",""time""
""blur"",""6"",""47191""
""blur"",""9"",""117569""
","""event"",""trial"",""time""
""focus"",""6"",""111028""
""focus"",""9"",""136489""
","""event"",""trial"",""time""
""fullscreenenter"",""1"",""13119""
","""event"",""trial"",""time""
""fullscreenexit"",""5"",""39919""
","","","","","","2374.5999999940395","<p> Before you play the real game, it is time to practice. </p><p>  Just like in the real game, some of the images in the practice will be ones you have seen before. </p><p>  Others will be entirely new. </p>","","0","instructions","","",""
"html-button-response","17","299961","0.0-10.0","5258","approach_avoid_sv1","""event"",""trial"",""time""
""fullscreenenter"",""1"",""13119""
""fullscreenexit"",""5"",""39919""
""blur"",""6"",""47191""
""focus"",""6"",""111028""
""blur"",""9"",""117569""
""focus"",""9"",""136489""
","""event"",""trial"",""time""
""blur"",""6"",""47191""
""blur"",""9"",""117569""
","""event"",""trial"",""time""
""focus"",""6"",""111028""
""focus"",""9"",""136489""
","""event"",""trial"",""time""
""fullscreenenter"",""1"",""13119""
","""event"",""trial"",""time""
""fullscreenexit"",""5"",""39919""
","","","","","","2204.4000000059605","<p> Ready to practice? </p><p> Remember, use the 1, 2, 3, and 4 keys to make your responses. </p>","0","","instructions","","",""
"html-keyboard-response","18","300604","0.0-11.0-0.0","5258","approach_avoid_sv1","""event"",""trial"",""time""
""fullscreenenter"",""1"",""13119""
""fullscreenexit"",""5"",""39919""
""blur"",""6"",""47191""
""focus"",""6"",""111028""
""blur"",""9"",""117569""
""focus"",""9"",""136489""
","""event"",""trial"",""time""
""blur"",""6"",""47191""
""blur"",""9"",""117569""
","""event"",""trial"",""time""
""focus"",""6"",""111028""
""focus"",""9"",""136489""
","""event"",""trial"",""time""
""fullscreenenter"",""1"",""13119""
","""event"",""trial"",""time""
""fullscreenexit"",""5"",""39919""
","","","","","","null","<div style=""font-size:60px;"">+</div>","null","","fixation","","",""
"memory-trial","19","304516","0.0-11.0-1.0","5258","approach_avoid_sv1","""event"",""trial"",""time""
""fullscreenenter"",""1"",""13119""
""fullscreenexit"",""5"",""39919""
""blur"",""6"",""47191""
""focus"",""6"",""111028""
""blur"",""9"",""117569""
""focus"",""9"",""136489""
","""event"",""trial"",""time""
""blur"",""6"",""47191""
""blur"",""9"",""117569""
","""event"",""trial"",""time""
""focus"",""6"",""111028""
""focus"",""9"",""136489""
","""event"",""trial"",""time""
""fullscreenenter"",""1"",""13119""
","""event"",""trial"",""time""
""fullscreenexit"",""5"",""39919""
","","","","","","2894.6000000089407","images/racket5.png","","","practice","1","definitely_old",""
"html-keyboard-response","20","305025","0.0-11.0-0.1","5258","approach_avoid_sv1","""event"",""trial"",""time""
""fullscreenenter"",""1"",""13119""
""fullscreenexit"",""5"",""39919""
""blur"",""6"",""47191""
""focus"",""6"",""111028""
""blur"",""9"",""117569""
""focus"",""9"",""136489""
","""event"",""trial"",""time""
""blur"",""6"",""47191""
""blur"",""9"",""117569""
","""event"",""trial"",""time""
""focus"",""6"",""111028""
""focus"",""9"",""136489""
","""event"",""trial"",""time""
""fullscreenenter"",""1"",""13119""
","""event"",""trial"",""time""
""fullscreenexit"",""5"",""39919""
","","","","","","null","<div style=""font-size:60px;"">+</div>","null","","fixation","","",""
"memory-trial","21","308564","0.0-11.0-1.1","5258","approach_avoid_sv1","""event"",""trial"",""time""
""fullscreenenter"",""1"",""13119""
""fullscreenexit"",""5"",""39919""
""blur"",""6"",""47191""
""focus"",""6"",""111028""
""blur"",""9"",""117569""
""focus"",""9"",""136489""
","""event"",""trial"",""time""
""blur"",""6"",""47191""
""blur"",""9"",""117569""
","""event"",""trial"",""time""
""focus"",""6"",""111028""
""focus"",""9"",""136489""
","""event"",""trial"",""time""
""fullscreenenter"",""1"",""13119""
","""event"",""trial"",""time""
""fullscreenexit"",""5"",""39919""
","","","","","","2509.9000000059605","images/racket3.png","","","practice","1","definitely_old",""
"html-keyboard-response","22","309084","0.0-11.0-0.2","5258","approach_avoid_sv1","""event"",""trial"",""time""
""fullscreenenter"",""1"",""13119""
""fullscreenexit"",""5"",""39919""
""blur"",""6"",""47191""
""focus"",""6"",""111028""
""blur"",""9"",""117569""
""focus"",""9"",""136489""
","""event"",""trial"",""time""
""blur"",""6"",""47191""
""blur"",""9"",""117569""
","""event"",""trial"",""time""
""focus"",""6"",""111028""
""focus"",""9"",""136489""
","""event"",""trial"",""time""
""fullscreenenter"",""1"",""13119""
","""event"",""trial"",""time""
""fullscreenexit"",""5"",""39919""
","","","","","","null","<div style=""font-size:60px;"">+</div>","null","","fixation","","",""
"memory-trial","23","311935","0.0-11.0-1.2","5258","approach_avoid_sv1","""event"",""trial"",""time""
""fullscreenenter"",""1"",""13119""
""fullscreenexit"",""5"",""39919""
""blur"",""6"",""47191""
""focus"",""6"",""111028""
""blur"",""9"",""117569""
""focus"",""9"",""136489""
","""event"",""trial"",""time""
""blur"",""6"",""47191""
""blur"",""9"",""117569""
","""event"",""trial"",""time""
""focus"",""6"",""111028""
""focus"",""9"",""136489""
","""event"",""trial"",""time""
""fullscreenenter"",""1"",""13119""
","""event"",""trial"",""time""
""fullscreenexit"",""5"",""39919""
","","","","","","1829.2000000029802","images/ball2.png","","","practice","1","definitely_old",""
"html-keyboard-response","24","312455","0.0-11.0-0.3","5258","approach_avoid_sv1","""event"",""trial"",""time""
""fullscreenenter"",""1"",""13119""
""fullscreenexit"",""5"",""39919""
""blur"",""6"",""47191""
""focus"",""6"",""111028""
""blur"",""9"",""117569""
""focus"",""9"",""136489""
","""event"",""trial"",""time""
""blur"",""6"",""47191""
""blur"",""9"",""117569""
","""event"",""trial"",""time""
""focus"",""6"",""111028""
""focus"",""9"",""136489""
","""event"",""trial"",""time""
""fullscreenenter"",""1"",""13119""
","""event"",""trial"",""time""
""fullscreenexit"",""5"",""39919""
","","","","","","null","<div style=""font-size:60px;"">+</div>","null","","fixation","","",""
"memory-trial","25","316055","0.0-11.0-1.3","5258","approach_avoid_sv1","""event"",""trial"",""time""
""fullscreenenter"",""1"",""13119""
""fullscreenexit"",""5"",""39919""
""blur"",""6"",""47191""
""focus"",""6"",""111028""
""blur"",""9"",""117569""
""focus"",""9"",""136489""
","""event"",""trial"",""time""
""blur"",""6"",""47191""
""blur"",""9"",""117569""
","""event"",""trial"",""time""
""focus"",""6"",""111028""
""focus"",""9"",""136489""
","""event"",""trial"",""time""
""fullscreenenter"",""1"",""13119""
","""event"",""trial"",""time""
""fullscreenexit"",""5"",""39919""
","","","","","","2579.7999999970198","images/ball3.png","","","practice","3","maybe_new",""
"html-keyboard-response","26","316565","0.0-11.0-0.4","5258","approach_avoid_sv1","""event"",""trial"",""time""
""fullscreenenter"",""1"",""13119""
""fullscreenexit"",""5"",""39919""
""blur"",""6"",""47191""
""focus"",""6"",""111028""
""blur"",""9"",""117569""
""focus"",""9"",""136489""
","""event"",""trial"",""time""
""blur"",""6"",""47191""
""blur"",""9"",""117569""
","""event"",""trial"",""time""
""focus"",""6"",""111028""
""focus"",""9"",""136489""
","""event"",""trial"",""time""
""fullscreenenter"",""1"",""13119""
","""event"",""trial"",""time""
""fullscreenexit"",""5"",""39919""
","","","","","","null","<div style=""font-size:60px;"">+</div>","null","","fixation","","",""
"memory-trial","27","319635","0.0-11.0-1.4","5258","approach_avoid_sv1","""event"",""trial"",""time""
""fullscreenenter"",""1"",""13119""
""fullscreenexit"",""5"",""39919""
""blur"",""6"",""47191""
""focus"",""6"",""111028""
""blur"",""9"",""117569""
""focus"",""9"",""136489""
","""event"",""trial"",""time""
""blur"",""6"",""47191""
""blur"",""9"",""117569""
","""event"",""trial"",""time""
""focus"",""6"",""111028""
""focus"",""9"",""136489""
","""event"",""trial"",""time""
""fullscreenenter"",""1"",""13119""
","""event"",""trial"",""time""
""fullscreenexit"",""5"",""39919""
","","","","","","2065.0999999940395","images/ball5.png","","","practice","1","definitely_old",""
"html-keyboard-response","28","320155","0.0-11.0-0.5","5258","approach_avoid_sv1","""event"",""trial"",""time""
""fullscreenenter"",""1"",""13119""
""fullscreenexit"",""5"",""39919""
""blur"",""6"",""47191""
""focus"",""6"",""111028""
""blur"",""9"",""117569""
""focus"",""9"",""136489""
","""event"",""trial"",""time""
""blur"",""6"",""47191""
""blur"",""9"",""117569""
","""event"",""trial"",""time""
""focus"",""6"",""111028""
""focus"",""9"",""136489""
","""event"",""trial"",""time""
""fullscreenenter"",""1"",""13119""
","""event"",""trial"",""time""
""fullscreenexit"",""5"",""39919""
","","","","","","null","<div style=""font-size:60px;"">+</div>","null","","fixation","","",""
"memory-trial","29","324654","0.0-11.0-1.5","5258","approach_avoid_sv1","""event"",""trial"",""time""
""fullscreenenter"",""1"",""13119""
""fullscreenexit"",""5"",""39919""
""blur"",""6"",""47191""
""focus"",""6"",""111028""
""blur"",""9"",""117569""
""focus"",""9"",""136489""
","""event"",""trial"",""time""
""blur"",""6"",""47191""
""blur"",""9"",""117569""
","""event"",""trial"",""time""
""focus"",""6"",""111028""
""focus"",""9"",""136489""
","""event"",""trial"",""time""
""fullscreenenter"",""1"",""13119""
","""event"",""trial"",""time""
""fullscreenexit"",""5"",""39919""
","","","","","","3486.2999999970198","images/racket1.png","","","practice","2","maybe_old",""
"html-keyboard-response","30","325165","0.0-11.0-0.6","5258","approach_avoid_sv1","""event"",""trial"",""time""
""fullscreenenter"",""1"",""13119""
""fullscreenexit"",""5"",""39919""
""blur"",""6"",""47191""
""focus"",""6"",""111028""
""blur"",""9"",""117569""
""focus"",""9"",""136489""
","""event"",""trial"",""time""
""blur"",""6"",""47191""
""blur"",""9"",""117569""
","""event"",""trial"",""time""
""focus"",""6"",""111028""
""focus"",""9"",""136489""
","""event"",""trial"",""time""
""fullscreenenter"",""1"",""13119""
","""event"",""trial"",""time""
""fullscreenexit"",""5"",""39919""
","","","","","","null","<div style=""font-size:60px;"">+</div>","null","","fixation","","",""
"memory-trial","31","327182","0.0-11.0-1.6","5258","approach_avoid_sv1","""event"",""trial"",""time""
""fullscreenenter"",""1"",""13119""
""fullscreenexit"",""5"",""39919""
""blur"",""6"",""47191""
""focus"",""6"",""111028""
""blur"",""9"",""117569""
""focus"",""9"",""136489""
","""event"",""trial"",""time""
""blur"",""6"",""47191""
""blur"",""9"",""117569""
","""event"",""trial"",""time""
""focus"",""6"",""111028""
""focus"",""9"",""136489""
","""event"",""trial"",""time""
""fullscreenenter"",""1"",""13119""
","""event"",""trial"",""time""
""fullscreenexit"",""5"",""39919""
","","","","","","1006.4000000059605","images/racket2.png","","","practice","2","maybe_old",""
"html-keyboard-response","32","327698","0.0-11.0-0.7","5258","approach_avoid_sv1","""event"",""trial"",""time""
""fullscreenenter"",""1"",""13119""
""fullscreenexit"",""5"",""39919""
""blur"",""6"",""47191""
""focus"",""6"",""111028""
""blur"",""9"",""117569""
""focus"",""9"",""136489""
","""event"",""trial"",""time""
""blur"",""6"",""47191""
""blur"",""9"",""117569""
","""event"",""trial"",""time""
""focus"",""6"",""111028""
""focus"",""9"",""136489""
","""event"",""trial"",""time""
""fullscreenenter"",""1"",""13119""
","""event"",""trial"",""time""
""fullscreenexit"",""5"",""39919""
","","","","","","null","<div style=""font-size:60px;"">+</div>","null","","fixation","","",""
"memory-trial","33","331212","0.0-11.0-1.7","5258","approach_avoid_sv1","""event"",""trial"",""time""
""fullscreenenter"",""1"",""13119""
""fullscreenexit"",""5"",""39919""
""blur"",""6"",""47191""
""focus"",""6"",""111028""
""blur"",""9"",""117569""
""focus"",""9"",""136489""
","""event"",""trial"",""time""
""blur"",""6"",""47191""
""blur"",""9"",""117569""
","""event"",""trial"",""time""
""focus"",""6"",""111028""
""focus"",""9"",""136489""
","""event"",""trial"",""time""
""fullscreenenter"",""1"",""13119""
","""event"",""trial"",""time""
""fullscreenexit"",""5"",""39919""
","","","","","","2502.2999999970198","images/ball1.png","","","practice","2","maybe_old",""
"learning-instructions","34","340149","0.0-12.0-0.0","5258","approach_avoid_sv1","""event"",""trial"",""time""
""fullscreenenter"",""1"",""13119""
""fullscreenexit"",""5"",""39919""
""blur"",""6"",""47191""
""focus"",""6"",""111028""
""blur"",""9"",""117569""
""focus"",""9"",""136489""
","""event"",""trial"",""time""
""blur"",""6"",""47191""
""blur"",""9"",""117569""
","""event"",""trial"",""time""
""focus"",""6"",""111028""
""focus"",""9"",""136489""
","""event"",""trial"",""time""
""fullscreenenter"",""1"",""13119""
","""event"",""trial"",""time""
""fullscreenexit"",""5"",""39919""
","","","","","","1569","<p> Great! You have completed the practice. </p><p> Before you start, we're going to ask you a few questions about how the game works.  </p>","","0","instructions","","",""
"preload","35","342049","0.0-13.0","5258","approach_avoid_sv1","""event"",""trial"",""time""
""fullscreenenter"",""1"",""13119""
""fullscreenexit"",""5"",""39919""
""blur"",""6"",""47191""
""focus"",""6"",""111028""
""blur"",""9"",""117569""
""focus"",""9"",""136489""
","""event"",""trial"",""time""
""blur"",""6"",""47191""
""blur"",""9"",""117569""
","""event"",""trial"",""time""
""focus"",""6"",""111028""
""focus"",""9"",""136489""
","""event"",""trial"",""time""
""fullscreenenter"",""1"",""13119""
","""event"",""trial"",""time""
""fullscreenexit"",""5"",""39919""
","true","false","[]","[]","[]","","","","","","","",""
"comp-q","36","349407","0.0-14.0-0.0","5258","approach_avoid_sv1","""event"",""trial"",""time""
""fullscreenenter"",""1"",""13119""
""fullscreenexit"",""5"",""39919""
""blur"",""6"",""47191""
""focus"",""6"",""111028""
""blur"",""9"",""117569""
""focus"",""9"",""136489""
","""event"",""trial"",""time""
""blur"",""6"",""47191""
""blur"",""9"",""117569""
","""event"",""trial"",""time""
""focus"",""6"",""111028""
""focus"",""9"",""136489""
","""event"",""trial"",""time""
""fullscreenenter"",""1"",""13119""
","""event"",""trial"",""time""
""fullscreenexit"",""5"",""39919""
","","","","","","1526.1000000089407","<p> <b> True or False? </b> </p><p> In this game, you will only see each image once. </p>","","0","comp_question","","","true"
"comp-q","37","358292","0.0-14.0-1.0","5258","approach_avoid_sv1","""event"",""trial"",""time""
""fullscreenenter"",""1"",""13119""
""fullscreenexit"",""5"",""39919""
""blur"",""6"",""47191""
""focus"",""6"",""111028""
""blur"",""9"",""117569""
""focus"",""9"",""136489""
","""event"",""trial"",""time""
""blur"",""6"",""47191""
""blur"",""9"",""117569""
","""event"",""trial"",""time""
""focus"",""6"",""111028""
""focus"",""9"",""136489""
","""event"",""trial"",""time""
""fullscreenenter"",""1"",""13119""
","""event"",""trial"",""time""
""fullscreenexit"",""5"",""39919""
","","","","","","2530.4000000059605","<p> <b> That's right! </b> You will see many different images <i> one time each </i> in this game. </p>","","0","comp_answer","","",""
"comp-q","38","364917","0.0-15.0-0.0","5258","approach_avoid_sv1","""event"",""trial"",""time""
""fullscreenenter"",""1"",""13119""
""fullscreenexit"",""5"",""39919""
""blur"",""6"",""47191""
""focus"",""6"",""111028""
""blur"",""9"",""117569""
""focus"",""9"",""136489""
","""event"",""trial"",""time""
""blur"",""6"",""47191""
""blur"",""9"",""117569""
","""event"",""trial"",""time""
""focus"",""6"",""111028""
""focus"",""9"",""136489""
","""event"",""trial"",""time""
""fullscreenenter"",""1"",""13119""
","""event"",""trial"",""time""
""fullscreenexit"",""5"",""39919""
","","","","","","1616.5999999940395","<p> <b> True or False? </b> </p><p> You should use the mouse and click to make your response. </p>","","0","comp_question","","","false"
"comp-q","39","372446","0.0-15.0-1.0","5258","approach_avoid_sv1","""event"",""trial"",""time""
""fullscreenenter"",""1"",""13119""
""fullscreenexit"",""5"",""39919""
""blur"",""6"",""47191""
""focus"",""6"",""111028""
""blur"",""9"",""117569""
""focus"",""9"",""136489""
","""event"",""trial"",""time""
""blur"",""6"",""47191""
""blur"",""9"",""117569""
","""event"",""trial"",""time""
""focus"",""6"",""111028""
""focus"",""9"",""136489""
","""event"",""trial"",""time""
""fullscreenenter"",""1"",""13119""
","""event"",""trial"",""time""
""fullscreenexit"",""5"",""39919""
","","","","","","994.7000000029802","<p><b> Incorrect. </b> You should use the '1', '2', '3', and '4' keys to make your response. </p>","","0","comp_answer","","",""
"comp-q","40","378576","0.0-15.1-0.1","5258","approach_avoid_sv1","""event"",""trial"",""time""
""fullscreenenter"",""1"",""13119""
""fullscreenexit"",""5"",""39919""
""blur"",""6"",""47191""
""focus"",""6"",""111028""
""blur"",""9"",""117569""
""focus"",""9"",""136489""
","""event"",""trial"",""time""
""blur"",""6"",""47191""
""blur"",""9"",""117569""
","""event"",""trial"",""time""
""focus"",""6"",""111028""
""focus"",""9"",""136489""
","""event"",""trial"",""time""
""fullscreenenter"",""1"",""13119""
","""event"",""trial"",""time""
""fullscreenexit"",""5"",""39919""
","","","","","","1125.2000000029802","<p> <b> True or False? </b> </p><p> You should use the mouse and click to make your response. </p>","","1","comp_question","","","true"
"comp-q","41","387831","0.0-15.1-1.1","5258","approach_avoid_sv1","""event"",""trial"",""time""
""fullscreenenter"",""1"",""13119""
""fullscreenexit"",""5"",""39919""
""blur"",""6"",""47191""
""focus"",""6"",""111028""
""blur"",""9"",""117569""
""focus"",""9"",""136489""
","""event"",""trial"",""time""
""blur"",""6"",""47191""
""blur"",""9"",""117569""
","""event"",""trial"",""time""
""focus"",""6"",""111028""
""focus"",""9"",""136489""
","""event"",""trial"",""time""
""fullscreenenter"",""1"",""13119""
","""event"",""trial"",""time""
""fullscreenexit"",""5"",""39919""
","","","","","","2740.4000000059605","<p><b> That's right! </b> You should use the '1', '2', '3', and '4' keys to make your response. </p>","","0","comp_answer","","",""
"comp-q","42","394474","0.0-16.0-0.0","5258","approach_avoid_sv1","""event"",""trial"",""time""
""fullscreenenter"",""1"",""13119""
""fullscreenexit"",""5"",""39919""
""blur"",""6"",""47191""
""focus"",""6"",""111028""
""blur"",""9"",""117569""
""focus"",""9"",""136489""
","""event"",""trial"",""time""
""blur"",""6"",""47191""
""blur"",""9"",""117569""
","""event"",""trial"",""time""
""focus"",""6"",""111028""
""focus"",""9"",""136489""
","""event"",""trial"",""time""
""fullscreenenter"",""1"",""13119""
","""event"",""trial"",""time""
""fullscreenexit"",""5"",""39919""
","","","","","","973.2999999970198","<p> <b> True or False? </b> </p><p> You will have as much time as you want to make each choice. </p>","","1","comp_question","","","true"
"comp-q","43","400476","0.0-16.0-1.0","5258","approach_avoid_sv1","""event"",""trial"",""time""
""fullscreenenter"",""1"",""13119""
""fullscreenexit"",""5"",""39919""
""blur"",""6"",""47191""
""focus"",""6"",""111028""
""blur"",""9"",""117569""
""focus"",""9"",""136489""
","""event"",""trial"",""time""
""blur"",""6"",""47191""
""blur"",""9"",""117569""
","""event"",""trial"",""time""
""focus"",""6"",""111028""
""focus"",""9"",""136489""
","""event"",""trial"",""time""
""fullscreenenter"",""1"",""13119""
","""event"",""trial"",""time""
""fullscreenexit"",""5"",""39919""
","","","","","","1304.199999988079","<p> <b> That's right! </b> You will only have 10 seconds to make each choice. </p>","","0","comp_answer","","",""
"learning-instructions","44","411242","0.0-17.0","5258","approach_avoid_sv1","""event"",""trial"",""time""
""fullscreenenter"",""1"",""13119""
""fullscreenexit"",""5"",""39919""
""blur"",""6"",""47191""
""focus"",""6"",""111028""
""blur"",""9"",""117569""
""focus"",""9"",""136489""
","""event"",""trial"",""time""
""blur"",""6"",""47191""
""blur"",""9"",""117569""
","""event"",""trial"",""time""
""focus"",""6"",""111028""
""focus"",""9"",""136489""
","""event"",""trial"",""time""
""fullscreenenter"",""1"",""13119""
","""event"",""trial"",""time""
""fullscreenexit"",""5"",""39919""
","","","","","","2080.4000000059605","<p> Great! You are now ready to begin the game. </p><p> Remember, use the 1, 2, 3, and 4 keys to make your responses. </p>","","0","instructions","","",""
"html-keyboard-response","45","411859","0.0-18.0-0.0","5258","approach_avoid_sv1","""event"",""trial"",""time""
""fullscreenenter"",""1"",""13119""
""fullscreenexit"",""5"",""39919""
""blur"",""6"",""47191""
""focus"",""6"",""111028""
""blur"",""9"",""117569""
""focus"",""9"",""136489""
","""event"",""trial"",""time""
""blur"",""6"",""47191""
""blur"",""9"",""117569""
","""event"",""trial"",""time""
""focus"",""6"",""111028""
""focus"",""9"",""136489""
","""event"",""trial"",""time""
""fullscreenenter"",""1"",""13119""
","""event"",""trial"",""time""
""fullscreenexit"",""5"",""39919""
","","","","","","null","<div style=""font-size:60px;"">+</div>","null","","fixation","","",""
"memory-trial","46","414609","0.0-18.0-1.0","5258","approach_avoid_sv1","""event"",""trial"",""time""
""fullscreenenter"",""1"",""13119""
""fullscreenexit"",""5"",""39919""
""blur"",""6"",""47191""
""focus"",""6"",""111028""
""blur"",""9"",""117569""
""focus"",""9"",""136489""
","""event"",""trial"",""time""
""blur"",""6"",""47191""
""blur"",""9"",""117569""
","""event"",""trial"",""time""
""focus"",""6"",""111028""
""focus"",""9"",""136489""
","""event"",""trial"",""time""
""fullscreenenter"",""1"",""13119""
","""event"",""trial"",""time""
""fullscreenexit"",""5"",""39919""
","","","","","","1728.1000000089407","images/flower4.png","","","memory_trial","4","definitely_new",""
"html-keyboard-response","47","415119","0.0-18.0-0.1","5258","approach_avoid_sv1","""event"",""trial"",""time""
""fullscreenenter"",""1"",""13119""
""fullscreenexit"",""5"",""39919""
""blur"",""6"",""47191""
""focus"",""6"",""111028""
""blur"",""9"",""117569""
""focus"",""9"",""136489""
","""event"",""trial"",""time""
""blur"",""6"",""47191""
""blur"",""9"",""117569""
","""event"",""trial"",""time""
""focus"",""6"",""111028""
""focus"",""9"",""136489""
","""event"",""trial"",""time""
""fullscreenenter"",""1"",""13119""
","""event"",""trial"",""time""
""fullscreenexit"",""5"",""39919""
","","","","","","null","<div style=""font-size:60px;"">+</div>","null","","fixation","","",""
"memory-trial","48","417869","0.0-18.0-1.1","5258","approach_avoid_sv1","""event"",""trial"",""time""
""fullscreenenter"",""1"",""13119""
""fullscreenexit"",""5"",""39919""
""blur"",""6"",""47191""
""focus"",""6"",""111028""
""blur"",""9"",""117569""
""focus"",""9"",""136489""
","""event"",""trial"",""time""
""blur"",""6"",""47191""
""blur"",""9"",""117569""
","""event"",""trial"",""time""
""focus"",""6"",""111028""
""focus"",""9"",""136489""
","""event"",""trial"",""time""
""fullscreenenter"",""1"",""13119""
","""event"",""trial"",""time""
""fullscreenexit"",""5"",""39919""
","","","","","","1726.800000011921","images/sofa7.png","","","memory_trial","1","definitely_old",""
"html-keyboard-response","49","418388","0.0-18.0-0.2","5258","approach_avoid_sv1","""event"",""trial"",""time""
""fullscreenenter"",""1"",""13119""
""fullscreenexit"",""5"",""39919""
""blur"",""6"",""47191""
""focus"",""6"",""111028""
""blur"",""9"",""117569""
""focus"",""9"",""136489""
","""event"",""trial"",""time""
""blur"",""6"",""47191""
""blur"",""9"",""117569""
","""event"",""trial"",""time""
""focus"",""6"",""111028""
""focus"",""9"",""136489""
","""event"",""trial"",""time""
""fullscreenenter"",""1"",""13119""
","""event"",""trial"",""time""
""fullscreenexit"",""5"",""39919""
","","","","","","null","<div style=""font-size:60px;"">+</div>","null","","fixation","","",""
"memory-trial","50","420999","0.0-18.0-1.2","5258","approach_avoid_sv1","""event"",""trial"",""time""
""fullscreenenter"",""1"",""13119""
""fullscreenexit"",""5"",""39919""
""blur"",""6"",""47191""
""focus"",""6"",""111028""
""blur"",""9"",""117569""
""focus"",""9"",""136489""
","""event"",""trial"",""time""
""blur"",""6"",""47191""
""blur"",""9"",""117569""
","""event"",""trial"",""time""
""focus"",""6"",""111028""
""focus"",""9"",""136489""
","""event"",""trial"",""time""
""fullscreenenter"",""1"",""13119""
","""event"",""trial"",""time""
""fullscreenexit"",""5"",""39919""
","","","","","","1592.199999988079","images/banana1.png","","","memory_trial","2","maybe_old",""
"html-keyboard-response","51","421509","0.0-18.0-0.3","5258","approach_avoid_sv1","""event"",""trial"",""time""
""fullscreenenter"",""1"",""13119""
""fullscreenexit"",""5"",""39919""
""blur"",""6"",""47191""
""focus"",""6"",""111028""
""blur"",""9"",""117569""
""focus"",""9"",""136489""
","""event"",""trial"",""time""
""blur"",""6"",""47191""
""blur"",""9"",""117569""
","""event"",""trial"",""time""
""focus"",""6"",""111028""
""focus"",""9"",""136489""
","""event"",""trial"",""time""
""fullscreenenter"",""1"",""13119""
","""event"",""trial"",""time""
""fullscreenexit"",""5"",""39919""
","","","","","","null","<div style=""font-size:60px;"">+</div>","null","","fixation","","",""
"memory-trial","52","425139","0.0-18.0-1.3","5258","approach_avoid_sv1","""event"",""trial"",""time""
""fullscreenenter"",""1"",""13119""
""fullscreenexit"",""5"",""39919""
""blur"",""6"",""47191""
""focus"",""6"",""111028""
""blur"",""9"",""117569""
""focus"",""9"",""136489""
","""event"",""trial"",""time""
""blur"",""6"",""47191""
""blur"",""9"",""117569""
","""event"",""trial"",""time""
""focus"",""6"",""111028""
""focus"",""9"",""136489""
","""event"",""trial"",""time""
""fullscreenenter"",""1"",""13119""
","""event"",""trial"",""time""
""fullscreenexit"",""5"",""39919""
","","","","","","2626.5","images/truck8.png","","","memory_trial","2","maybe_old",""
"html-keyboard-response","53","425649","0.0-18.0-0.4","5258","approach_avoid_sv1","""event"",""trial"",""time""
""fullscreenenter"",""1"",""13119""
""fullscreenexit"",""5"",""39919""
""blur"",""6"",""47191""
""focus"",""6"",""111028""
""blur"",""9"",""117569""
""focus"",""9"",""136489""
","""event"",""trial"",""time""
""blur"",""6"",""47191""
""blur"",""9"",""117569""
","""event"",""trial"",""time""
""focus"",""6"",""111028""
""focus"",""9"",""136489""
","""event"",""trial"",""time""
""fullscreenenter"",""1"",""13119""
","""event"",""trial"",""time""
""fullscreenexit"",""5"",""39919""
","","","","","","null","<div style=""font-size:60px;"">+</div>","null","","fixation","","",""
"memory-trial","54","428539","0.0-18.0-1.4","5258","approach_avoid_sv1","""event"",""trial"",""time""
""fullscreenenter"",""1"",""13119""
""fullscreenexit"",""5"",""39919""
""blur"",""6"",""47191""
""focus"",""6"",""111028""
""blur"",""9"",""117569""
""focus"",""9"",""136489""
","""event"",""trial"",""time""
""blur"",""6"",""47191""
""blur"",""9"",""117569""
","""event"",""trial"",""time""
""focus"",""6"",""111028""
""focus"",""9"",""136489""
","""event"",""trial"",""time""
""fullscreenenter"",""1"",""13119""
","""event"",""trial"",""time""
""fullscreenexit"",""5"",""39919""
","","","","","","1877.5","images/plane3.png","","","memory_trial","4","definitely_new",""
"html-keyboard-response","55","429047","0.0-18.0-0.5","5258","approach_avoid_sv1","""event"",""trial"",""time""
""fullscreenenter"",""1"",""13119""
""fullscreenexit"",""5"",""39919""
""blur"",""6"",""47191""
""focus"",""6"",""111028""
""blur"",""9"",""117569""
""focus"",""9"",""136489""
","""event"",""trial"",""time""
""blur"",""6"",""47191""
""blur"",""9"",""117569""
","""event"",""trial"",""time""
""focus"",""6"",""111028""
""focus"",""9"",""136489""
","""event"",""trial"",""time""
""fullscreenenter"",""1"",""13119""
","""event"",""trial"",""time""
""fullscreenexit"",""5"",""39919""
","","","","","","null","<div style=""font-size:60px;"">+</div>","null","","fixation","","",""
"memory-trial","56","431439","0.0-18.0-1.5","5258","approach_avoid_sv1","""event"",""trial"",""time""
""fullscreenenter"",""1"",""13119""
""fullscreenexit"",""5"",""39919""
""blur"",""6"",""47191""
""focus"",""6"",""111028""
""blur"",""9"",""117569""
""focus"",""9"",""136489""
","""event"",""trial"",""time""
""blur"",""6"",""47191""
""blur"",""9"",""117569""
","""event"",""trial"",""time""
""focus"",""6"",""111028""
""focus"",""9"",""136489""
","""event"",""trial"",""time""
""fullscreenenter"",""1"",""13119""
","""event"",""trial"",""time""
""fullscreenexit"",""5"",""39919""
","","","","","","1375.7999999970198","images/boat6.png","","","memory_trial","1","definitely_old",""
"html-keyboard-response","57","431949","0.0-18.0-0.6","5258","approach_avoid_sv1","""event"",""trial"",""time""
""fullscreenenter"",""1"",""13119""
""fullscreenexit"",""5"",""39919""
""blur"",""6"",""47191""
""focus"",""6"",""111028""
""blur"",""9"",""117569""
""focus"",""9"",""136489""
","""event"",""trial"",""time""
""blur"",""6"",""47191""
""blur"",""9"",""117569""
","""event"",""trial"",""time""
""focus"",""6"",""111028""
""focus"",""9"",""136489""
","""event"",""trial"",""time""
""fullscreenenter"",""1"",""13119""
","""event"",""trial"",""time""
""fullscreenexit"",""5"",""39919""
","","","","","","null","<div style=""font-size:60px;"">+</div>","null","","fixation","","",""
"memory-trial","58","434618","0.0-18.0-1.6","5258","approach_avoid_sv1","""event"",""trial"",""time""
""fullscreenenter"",""1"",""13119""
""fullscreenexit"",""5"",""39919""
""blur"",""6"",""47191""
""focus"",""6"",""111028""
""blur"",""9"",""117569""
""focus"",""9"",""136489""
","""event"",""trial"",""time""
""blur"",""6"",""47191""
""blur"",""9"",""117569""
","""event"",""trial"",""time""
""focus"",""6"",""111028""
""focus"",""9"",""136489""
","""event"",""trial"",""time""
""fullscreenenter"",""1"",""13119""
","""event"",""trial"",""time""
""fullscreenexit"",""5"",""39919""
","","","","","","1643.5999999940395","images/banana3.png","","","memory_trial","4","definitely_new",""
"html-keyboard-response","59","435129","0.0-18.0-0.7","5258","approach_avoid_sv1","""event"",""trial"",""time""
""fullscreenenter"",""1"",""13119""
""fullscreenexit"",""5"",""39919""
""blur"",""6"",""47191""
""focus"",""6"",""111028""
""blur"",""9"",""117569""
""focus"",""9"",""136489""
","""event"",""trial"",""time""
""blur"",""6"",""47191""
""blur"",""9"",""117569""
","""event"",""trial"",""time""
""focus"",""6"",""111028""
""focus"",""9"",""136489""
","""event"",""trial"",""time""
""fullscreenenter"",""1"",""13119""
","""event"",""trial"",""time""
""fullscreenexit"",""5"",""39919""
","","","","","","null","<div style=""font-size:60px;"">+</div>","null","","fixation","","",""
"memory-trial","60","437739","0.0-18.0-1.7","5258","approach_avoid_sv1","""event"",""trial"",""time""
""fullscreenenter"",""1"",""13119""
""fullscreenexit"",""5"",""39919""
""blur"",""6"",""47191""
""focus"",""6"",""111028""
""blur"",""9"",""117569""
""focus"",""9"",""136489""
","""event"",""trial"",""time""
""blur"",""6"",""47191""
""blur"",""9"",""117569""
","""event"",""trial"",""time""
""focus"",""6"",""111028""
""focus"",""9"",""136489""
","""event"",""trial"",""time""
""fullscreenenter"",""1"",""13119""
","""event"",""trial"",""time""
""fullscreenexit"",""5"",""39919""
","","","","","","1600.5999999940395","images/cactus7.png","","","memory_trial","1","definitely_old",""
"html-keyboard-response","61","438259","0.0-18.0-0.8","5258","approach_avoid_sv1","""event"",""trial"",""time""
""fullscreenenter"",""1"",""13119""
""fullscreenexit"",""5"",""39919""
""blur"",""6"",""47191""
""focus"",""6"",""111028""
""blur"",""9"",""117569""
""focus"",""9"",""136489""
","""event"",""trial"",""time""
""blur"",""6"",""47191""
""blur"",""9"",""117569""
","""event"",""trial"",""time""
""focus"",""6"",""111028""
""focus"",""9"",""136489""
","""event"",""trial"",""time""
""fullscreenenter"",""1"",""13119""
","""event"",""trial"",""time""
""fullscreenexit"",""5"",""39919""
","","","","","","null","<div style=""font-size:60px;"">+</div>","null","","fixation","","",""
"memory-trial","62","440631","0.0-18.0-1.8","5258","approach_avoid_sv1","""event"",""trial"",""time""
""fullscreenenter"",""1"",""13119""
""fullscreenexit"",""5"",""39919""
""blur"",""6"",""47191""
""focus"",""6"",""111028""
""blur"",""9"",""117569""
""focus"",""9"",""136489""
","""event"",""trial"",""time""
""blur"",""6"",""47191""
""blur"",""9"",""117569""
","""event"",""trial"",""time""
""focus"",""6"",""111028""
""focus"",""9"",""136489""
","""event"",""trial"",""time""
""fullscreenenter"",""1"",""13119""
","""event"",""trial"",""time""
""fullscreenexit"",""5"",""39919""
","","","","","","1362.800000011921","images/goat3.png","","","memory_trial","1","definitely_old",""
"html-keyboard-response","63","441141","0.0-18.0-0.9","5258","approach_avoid_sv1","""event"",""trial"",""time""
""fullscreenenter"",""1"",""13119""
""fullscreenexit"",""5"",""39919""
""blur"",""6"",""47191""
""focus"",""6"",""111028""
""blur"",""9"",""117569""
""focus"",""9"",""136489""
","""event"",""trial"",""time""
""blur"",""6"",""47191""
""blur"",""9"",""117569""
","""event"",""trial"",""time""
""focus"",""6"",""111028""
""focus"",""9"",""136489""
","""event"",""trial"",""time""
""fullscreenenter"",""1"",""13119""
","""event"",""trial"",""time""
""fullscreenexit"",""5"",""39919""
","","","","","","null","<div style=""font-size:60px;"">+</div>","null","","fixation","","",""
"memory-trial","64","443874","0.0-18.0-1.9","5258","approach_avoid_sv1","""event"",""trial"",""time""
""fullscreenenter"",""1"",""13119""
""fullscreenexit"",""5"",""39919""
""blur"",""6"",""47191""
""focus"",""6"",""111028""
""blur"",""9"",""117569""
""focus"",""9"",""136489""
","""event"",""trial"",""time""
""blur"",""6"",""47191""
""blur"",""9"",""117569""
","""event"",""trial"",""time""
""focus"",""6"",""111028""
""focus"",""9"",""136489""
","""event"",""trial"",""time""
""fullscreenenter"",""1"",""13119""
","""event"",""trial"",""time""
""fullscreenexit"",""5"",""39919""
","","","","","","1720.800000011921","images/cat6.png","","","memory_trial","3","maybe_new",""
"html-keyboard-response","65","444393","0.0-18.0-0.10","5258","approach_avoid_sv1","""event"",""trial"",""time""
""fullscreenenter"",""1"",""13119""
""fullscreenexit"",""5"",""39919""
""blur"",""6"",""47191""
""focus"",""6"",""111028""
""blur"",""9"",""117569""
""focus"",""9"",""136489""
","""event"",""trial"",""time""
""blur"",""6"",""47191""
""blur"",""9"",""117569""
","""event"",""trial"",""time""
""focus"",""6"",""111028""
""focus"",""9"",""136489""
","""event"",""trial"",""time""
""fullscreenenter"",""1"",""13119""
","""event"",""trial"",""time""
""fullscreenexit"",""5"",""39919""
","","","","","","null","<div style=""font-size:60px;"">+</div>","null","","fixation","","",""
"memory-trial","66","446964","0.0-18.0-1.10","5258","approach_avoid_sv1","""event"",""trial"",""time""
""fullscreenenter"",""1"",""13119""
""fullscreenexit"",""5"",""39919""
""blur"",""6"",""47191""
""focus"",""6"",""111028""
""blur"",""9"",""117569""
""focus"",""9"",""136489""
","""event"",""trial"",""time""
""blur"",""6"",""47191""
""blur"",""9"",""117569""
","""event"",""trial"",""time""
""focus"",""6"",""111028""
""focus"",""9"",""136489""
","""event"",""trial"",""time""
""fullscreenenter"",""1"",""13119""
","""event"",""trial"",""time""
""fullscreenexit"",""5"",""39919""
","","","","","","1563.7999999970198","images/bush1.png","","","memory_trial","1","definitely_old",""
"html-keyboard-response","67","447468","0.0-18.0-0.11","5258","approach_avoid_sv1","""event"",""trial"",""time""
""fullscreenenter"",""1"",""13119""
""fullscreenexit"",""5"",""39919""
""blur"",""6"",""47191""
""focus"",""6"",""111028""
""blur"",""9"",""117569""
""focus"",""9"",""136489""
","""event"",""trial"",""time""
""blur"",""6"",""47191""
""blur"",""9"",""117569""
","""event"",""trial"",""time""
""focus"",""6"",""111028""
""focus"",""9"",""136489""
","""event"",""trial"",""time""
""fullscreenenter"",""1"",""13119""
","""event"",""trial"",""time""
""fullscreenexit"",""5"",""39919""
","","","","","","null","<div style=""font-size:60px;"">+</div>","null","","fixation","","",""
"memory-trial","68","450417","0.0-18.0-1.11","5258","approach_avoid_sv1","""event"",""trial"",""time""
""fullscreenenter"",""1"",""13119""
""fullscreenexit"",""5"",""39919""
""blur"",""6"",""47191""
""focus"",""6"",""111028""
""blur"",""9"",""117569""
""focus"",""9"",""136489""
","""event"",""trial"",""time""
""blur"",""6"",""47191""
""blur"",""9"",""117569""
","""event"",""trial"",""time""
""focus"",""6"",""111028""
""focus"",""9"",""136489""
","""event"",""trial"",""time""
""fullscreenenter"",""1"",""13119""
","""event"",""trial"",""time""
""fullscreenexit"",""5"",""39919""
","","","","","","1933","images/straw8.png","","","memory_trial","1","definitely_old",""
"html-keyboard-response","69","450927","0.0-18.0-0.12","5258","approach_avoid_sv1","""event"",""trial"",""time""
""fullscreenenter"",""1"",""13119""
""fullscreenexit"",""5"",""39919""
""blur"",""6"",""47191""
""focus"",""6"",""111028""
""blur"",""9"",""117569""
""focus"",""9"",""136489""
","""event"",""trial"",""time""
""blur"",""6"",""47191""
""blur"",""9"",""117569""
","""event"",""trial"",""time""
""focus"",""6"",""111028""
""focus"",""9"",""136489""
","""event"",""trial"",""time""
""fullscreenenter"",""1"",""13119""
","""event"",""trial"",""time""
""fullscreenexit"",""5"",""39919""
","","","","","","null","<div style=""font-size:60px;"">+</div>","null","","fixation","","",""
"memory-trial","70","453390","0.0-18.0-1.12","5258","approach_avoid_sv1","""event"",""trial"",""time""
""fullscreenenter"",""1"",""13119""
""fullscreenexit"",""5"",""39919""
""blur"",""6"",""47191""
""focus"",""6"",""111028""
""blur"",""9"",""117569""
""focus"",""9"",""136489""
","""event"",""trial"",""time""
""blur"",""6"",""47191""
""blur"",""9"",""117569""
","""event"",""trial"",""time""
""focus"",""6"",""111028""
""focus"",""9"",""136489""
","""event"",""trial"",""time""
""fullscreenenter"",""1"",""13119""
","""event"",""trial"",""time""
""fullscreenexit"",""5"",""39919""
","","","","","","1450.1000000089407","images/cactus4.png","","","memory_trial","1","definitely_old",""
"html-keyboard-response","71","453903","0.0-18.0-0.13","5258","approach_avoid_sv1","""event"",""trial"",""time""
""fullscreenenter"",""1"",""13119""
""fullscreenexit"",""5"",""39919""
""blur"",""6"",""47191""
""focus"",""6"",""111028""
""blur"",""9"",""117569""
""focus"",""9"",""136489""
","""event"",""trial"",""time""
""blur"",""6"",""47191""
""blur"",""9"",""117569""
","""event"",""trial"",""time""
""focus"",""6"",""111028""
""focus"",""9"",""136489""
","""event"",""trial"",""time""
""fullscreenenter"",""1"",""13119""
","""event"",""trial"",""time""
""fullscreenexit"",""5"",""39919""
","","","","","","null","<div style=""font-size:60px;"">+</div>","null","","fixation","","",""
"memory-trial","72","456430","0.0-18.0-1.13","5258","approach_avoid_sv1","""event"",""trial"",""time""
""fullscreenenter"",""1"",""13119""
""fullscreenexit"",""5"",""39919""
""blur"",""6"",""47191""
""focus"",""6"",""111028""
""blur"",""9"",""117569""
""focus"",""9"",""136489""
","""event"",""trial"",""time""
""blur"",""6"",""47191""
""blur"",""9"",""117569""
","""event"",""trial"",""time""
""focus"",""6"",""111028""
""focus"",""9"",""136489""
","""event"",""trial"",""time""
""fullscreenenter"",""1"",""13119""
","""event"",""trial"",""time""
""fullscreenexit"",""5"",""39919""
","","","","","","1513.2999999970198","images/goat7.png","","","memory_trial","1","definitely_old",""
"html-keyboard-response","73","456950","0.0-18.0-0.14","5258","approach_avoid_sv1","""event"",""trial"",""time""
""fullscreenenter"",""1"",""13119""
""fullscreenexit"",""5"",""39919""
""blur"",""6"",""47191""
""focus"",""6"",""111028""
""blur"",""9"",""117569""
""focus"",""9"",""136489""
","""event"",""trial"",""time""
""blur"",""6"",""47191""
""blur"",""9"",""117569""
","""event"",""trial"",""time""
""focus"",""6"",""111028""
""focus"",""9"",""136489""
","""event"",""trial"",""time""
""fullscreenenter"",""1"",""13119""
","""event"",""trial"",""time""
""fullscreenexit"",""5"",""39919""
","","","","","","null","<div style=""font-size:60px;"">+</div>","null","","fixation","","",""
"memory-trial","74","459532","0.0-18.0-1.14","5258","approach_avoid_sv1","""event"",""trial"",""time""
""fullscreenenter"",""1"",""13119""
""fullscreenexit"",""5"",""39919""
""blur"",""6"",""47191""
""focus"",""6"",""111028""
""blur"",""9"",""117569""
""focus"",""9"",""136489""
","""event"",""trial"",""time""
""blur"",""6"",""47191""
""blur"",""9"",""117569""
","""event"",""trial"",""time""
""focus"",""6"",""111028""
""focus"",""9"",""136489""
","""event"",""trial"",""time""
""fullscreenenter"",""1"",""13119""
","""event"",""trial"",""time""
""fullscreenexit"",""5"",""39919""
","","","","","","1570.2999999970198","images/banana2.png","","","memory_trial","4","definitely_new",""
"html-keyboard-response","75","460037","0.0-18.0-0.15","5258","approach_avoid_sv1","""event"",""trial"",""time""
""fullscreenenter"",""1"",""13119""
""fullscreenexit"",""5"",""39919""
""blur"",""6"",""47191""
""focus"",""6"",""111028""
""blur"",""9"",""117569""
""focus"",""9"",""136489""
","""event"",""trial"",""time""
""blur"",""6"",""47191""
""blur"",""9"",""117569""
","""event"",""trial"",""time""
""focus"",""6"",""111028""
""focus"",""9"",""136489""
","""event"",""trial"",""time""
""fullscreenenter"",""1"",""13119""
","""event"",""trial"",""time""
""fullscreenexit"",""5"",""39919""
","","","","","","null","<div style=""font-size:60px;"">+</div>","null","","fixation","","",""
"memory-trial","76","462585","0.0-18.0-1.15","5258","approach_avoid_sv1","""event"",""trial"",""time""
""fullscreenenter"",""1"",""13119""
""fullscreenexit"",""5"",""39919""
""blur"",""6"",""47191""
""focus"",""6"",""111028""
""blur"",""9"",""117569""
""focus"",""9"",""136489""
","""event"",""trial"",""time""
""blur"",""6"",""47191""
""blur"",""9"",""117569""
","""event"",""trial"",""time""
""focus"",""6"",""111028""
""focus"",""9"",""136489""
","""event"",""trial"",""time""
""fullscreenenter"",""1"",""13119""
","""event"",""trial"",""time""
""fullscreenexit"",""5"",""39919""
","","","","","","1531.4000000059605","images/cow4.png","","","memory_trial","3","maybe_new",""
"html-keyboard-response","77","463097","0.0-18.0-0.16","5258","approach_avoid_sv1","""event"",""trial"",""time""
""fullscreenenter"",""1"",""13119""
""fullscreenexit"",""5"",""39919""
""blur"",""6"",""47191""
""focus"",""6"",""111028""
""blur"",""9"",""117569""
""focus"",""9"",""136489""
","""event"",""trial"",""time""
""blur"",""6"",""47191""
""blur"",""9"",""117569""
","""event"",""trial"",""time""
""focus"",""6"",""111028""
""focus"",""9"",""136489""
","""event"",""trial"",""time""
""fullscreenenter"",""1"",""13119""
","""event"",""trial"",""time""
""fullscreenexit"",""5"",""39919""
","","","","","","null","<div style=""font-size:60px;"">+</div>","null","","fixation","","",""
"memory-trial","78","465080","0.0-18.0-1.16","5258","approach_avoid_sv1","""event"",""trial"",""time""
""fullscreenenter"",""1"",""13119""
""fullscreenexit"",""5"",""39919""
""blur"",""6"",""47191""
""focus"",""6"",""111028""
""blur"",""9"",""117569""
""focus"",""9"",""136489""
","""event"",""trial"",""time""
""blur"",""6"",""47191""
""blur"",""9"",""117569""
","""event"",""trial"",""time""
""focus"",""6"",""111028""
""focus"",""9"",""136489""
","""event"",""trial"",""time""
""fullscreenenter"",""1"",""13119""
","""event"",""trial"",""time""
""fullscreenexit"",""5"",""39919""
","","","","","","977.8000000119209","images/tree6.png","","","memory_trial","3","maybe_new",""
"html-keyboard-response","79","465586","0.0-18.0-0.17","5258","approach_avoid_sv1","""event"",""trial"",""time""
""fullscreenenter"",""1"",""13119""
""fullscreenexit"",""5"",""39919""
""blur"",""6"",""47191""
""focus"",""6"",""111028""
""blur"",""9"",""117569""
""focus"",""9"",""136489""
","""event"",""trial"",""time""
""blur"",""6"",""47191""
""blur"",""9"",""117569""
","""event"",""trial"",""time""
""focus"",""6"",""111028""
""focus"",""9"",""136489""
","""event"",""trial"",""time""
""fullscreenenter"",""1"",""13119""
","""event"",""trial"",""time""
""fullscreenexit"",""5"",""39919""
","","","","","","null","<div style=""font-size:60px;"">+</div>","null","","fixation","","",""
"memory-trial","80","467788","0.0-18.0-1.17","5258","approach_avoid_sv1","""event"",""trial"",""time""
""fullscreenenter"",""1"",""13119""
""fullscreenexit"",""5"",""39919""
""blur"",""6"",""47191""
""focus"",""6"",""111028""
""blur"",""9"",""117569""
""focus"",""9"",""136489""
","""event"",""trial"",""time""
""blur"",""6"",""47191""
""blur"",""9"",""117569""
","""event"",""trial"",""time""
""focus"",""6"",""111028""
""focus"",""9"",""136489""
","""event"",""trial"",""time""
""fullscreenenter"",""1"",""13119""
","""event"",""trial"",""time""
""fullscreenexit"",""5"",""39919""
","","","","","","1186.5999999940395","images/train5.png","","","memory_trial","3","maybe_new",""
"html-keyboard-response","81","468296","0.0-18.0-0.18","5258","approach_avoid_sv1","""event"",""trial"",""time""
""fullscreenenter"",""1"",""13119""
""fullscreenexit"",""5"",""39919""
""blur"",""6"",""47191""
""focus"",""6"",""111028""
""blur"",""9"",""117569""
""focus"",""9"",""136489""
","""event"",""trial"",""time""
""blur"",""6"",""47191""
""blur"",""9"",""117569""
","""event"",""trial"",""time""
""focus"",""6"",""111028""
""focus"",""9"",""136489""
","""event"",""trial"",""time""
""fullscreenenter"",""1"",""13119""
","""event"",""trial"",""time""
""fullscreenexit"",""5"",""39919""
","","","","","","null","<div style=""font-size:60px;"">+</div>","null","","fixation","","",""
"memory-trial","82","470310","0.0-18.0-1.18","5258","approach_avoid_sv1","""event"",""trial"",""time""
""fullscreenenter"",""1"",""13119""
""fullscreenexit"",""5"",""39919""
""blur"",""6"",""47191""
""focus"",""6"",""111028""
""blur"",""9"",""117569""
""focus"",""9"",""136489""
","""event"",""trial"",""time""
""blur"",""6"",""47191""
""blur"",""9"",""117569""
","""event"",""trial"",""time""
""focus"",""6"",""111028""
""focus"",""9"",""136489""
","""event"",""trial"",""time""
""fullscreenenter"",""1"",""13119""
","""event"",""trial"",""time""
""fullscreenexit"",""5"",""39919""
","","","","","","985.7999999970198","images/rabbit1.png","","","memory_trial","3","maybe_new",""
"html-keyboard-response","83","470822","0.0-18.0-0.19","5258","approach_avoid_sv1","""event"",""trial"",""time""
""fullscreenenter"",""1"",""13119""
""fullscreenexit"",""5"",""39919""
""blur"",""6"",""47191""
""focus"",""6"",""111028""
""blur"",""9"",""117569""
""focus"",""9"",""136489""
","""event"",""trial"",""time""
""blur"",""6"",""47191""
""blur"",""9"",""117569""
","""event"",""trial"",""time""
""focus"",""6"",""111028""
""focus"",""9"",""136489""
","""event"",""trial"",""time""
""fullscreenenter"",""1"",""13119""
","""event"",""trial"",""time""
""fullscreenexit"",""5"",""39919""
","","","","","","null","<div style=""font-size:60px;"">+</div>","null","","fixation","","",""
"memory-trial","84","472888","0.0-18.0-1.19","5258","approach_avoid_sv1","""event"",""trial"",""time""
""fullscreenenter"",""1"",""13119""
""fullscreenexit"",""5"",""39919""
""blur"",""6"",""47191""
""focus"",""6"",""111028""
""blur"",""9"",""117569""
""focus"",""9"",""136489""
","""event"",""trial"",""time""
""blur"",""6"",""47191""
""blur"",""9"",""117569""
","""event"",""trial"",""time""
""focus"",""6"",""111028""
""focus"",""9"",""136489""
","""event"",""trial"",""time""
""fullscreenenter"",""1"",""13119""
","""event"",""trial"",""time""
""fullscreenexit"",""5"",""39919""
","","","","","","1059.7000000029802","images/sofa6.png","","","memory_trial","2","maybe_old",""
"html-keyboard-response","85","473404","0.0-18.0-0.20","5258","approach_avoid_sv1","""event"",""trial"",""time""
""fullscreenenter"",""1"",""13119""
""fullscreenexit"",""5"",""39919""
""blur"",""6"",""47191""
""focus"",""6"",""111028""
""blur"",""9"",""117569""
""focus"",""9"",""136489""
","""event"",""trial"",""time""
""blur"",""6"",""47191""
""blur"",""9"",""117569""
","""event"",""trial"",""time""
""focus"",""6"",""111028""
""focus"",""9"",""136489""
","""event"",""trial"",""time""
""fullscreenenter"",""1"",""13119""
","""event"",""trial"",""time""
""fullscreenexit"",""5"",""39919""
","","","","","","null","<div style=""font-size:60px;"">+</div>","null","","fixation","","",""
"memory-trial","86","477278","0.0-18.0-1.20","5258","approach_avoid_sv1","""event"",""trial"",""time""
""fullscreenenter"",""1"",""13119""
""fullscreenexit"",""5"",""39919""
""blur"",""6"",""47191""
""focus"",""6"",""111028""
""blur"",""9"",""117569""
""focus"",""9"",""136489""
","""event"",""trial"",""time""
""blur"",""6"",""47191""
""blur"",""9"",""117569""
","""event"",""trial"",""time""
""focus"",""6"",""111028""
""focus"",""9"",""136489""
","""event"",""trial"",""time""
""fullscreenenter"",""1"",""13119""
","""event"",""trial"",""time""
""fullscreenexit"",""5"",""39919""
","","","","","","2856.7000000029802","images/table8.png","","","memory_trial","2","maybe_old",""
"html-keyboard-response","87","477789","0.0-18.0-0.21","5258","approach_avoid_sv1","""event"",""trial"",""time""
""fullscreenenter"",""1"",""13119""
""fullscreenexit"",""5"",""39919""
""blur"",""6"",""47191""
""focus"",""6"",""111028""
""blur"",""9"",""117569""
""focus"",""9"",""136489""
","""event"",""trial"",""time""
""blur"",""6"",""47191""
""blur"",""9"",""117569""
","""event"",""trial"",""time""
""focus"",""6"",""111028""
""focus"",""9"",""136489""
","""event"",""trial"",""time""
""fullscreenenter"",""1"",""13119""
","""event"",""trial"",""time""
""fullscreenexit"",""5"",""39919""
","","","","","","null","<div style=""font-size:60px;"">+</div>","null","","fixation","","",""
"memory-trial","88","480032","0.0-18.0-1.21","5258","approach_avoid_sv1","""event"",""trial"",""time""
""fullscreenenter"",""1"",""13119""
""fullscreenexit"",""5"",""39919""
""blur"",""6"",""47191""
""focus"",""6"",""111028""
""blur"",""9"",""117569""
""focus"",""9"",""136489""
","""event"",""trial"",""time""
""blur"",""6"",""47191""
""blur"",""9"",""117569""
","""event"",""trial"",""time""
""focus"",""6"",""111028""
""focus"",""9"",""136489""
","""event"",""trial"",""time""
""fullscreenenter"",""1"",""13119""
","""event"",""trial"",""time""
""fullscreenexit"",""5"",""39919""
","","","","","","1229.7999999970198","images/train6.png","","","memory_trial","1","definitely_old",""
"html-keyboard-response","89","480543","0.0-18.0-0.22","5258","approach_avoid_sv1","""event"",""trial"",""time""
""fullscreenenter"",""1"",""13119""
""fullscreenexit"",""5"",""39919""
""blur"",""6"",""47191""
""focus"",""6"",""111028""
""blur"",""9"",""117569""
""focus"",""9"",""136489""
","""event"",""trial"",""time""
""blur"",""6"",""47191""
""blur"",""9"",""117569""
","""event"",""trial"",""time""
""focus"",""6"",""111028""
""focus"",""9"",""136489""
","""event"",""trial"",""time""
""fullscreenenter"",""1"",""13119""
","""event"",""trial"",""time""
""fullscreenexit"",""5"",""39919""
","","","","","","null","<div style=""font-size:60px;"">+</div>","null","","fixation","","",""
"memory-trial","90","482963","0.0-18.0-1.22","5258","approach_avoid_sv1","""event"",""trial"",""time""
""fullscreenenter"",""1"",""13119""
""fullscreenexit"",""5"",""39919""
""blur"",""6"",""47191""
""focus"",""6"",""111028""
""blur"",""9"",""117569""
""focus"",""9"",""136489""
","""event"",""trial"",""time""
""blur"",""6"",""47191""
""blur"",""9"",""117569""
","""event"",""trial"",""time""
""focus"",""6"",""111028""
""focus"",""9"",""136489""
","""event"",""trial"",""time""
""fullscreenenter"",""1"",""13119""
","""event"",""trial"",""time""
""fullscreenexit"",""5"",""39919""
","","","","","","1402.9000000059605","images/chair3.png","","","memory_trial","3","maybe_new",""
"html-keyboard-response","91","483475","0.0-18.0-0.23","5258","approach_avoid_sv1","""event"",""trial"",""time""
""fullscreenenter"",""1"",""13119""
""fullscreenexit"",""5"",""39919""
""blur"",""6"",""47191""
""focus"",""6"",""111028""
""blur"",""9"",""117569""
""focus"",""9"",""136489""
","""event"",""trial"",""time""
""blur"",""6"",""47191""
""blur"",""9"",""117569""
","""event"",""trial"",""time""
""focus"",""6"",""111028""
""focus"",""9"",""136489""
","""event"",""trial"",""time""
""fullscreenenter"",""1"",""13119""
","""event"",""trial"",""time""
""fullscreenexit"",""5"",""39919""
","","","","","","null","<div style=""font-size:60px;"">+</div>","null","","fixation","","",""
"memory-trial","92","485389","0.0-18.0-1.23","5258","approach_avoid_sv1","""event"",""trial"",""time""
""fullscreenenter"",""1"",""13119""
""fullscreenexit"",""5"",""39919""
""blur"",""6"",""47191""
""focus"",""6"",""111028""
""blur"",""9"",""117569""
""focus"",""9"",""136489""
","""event"",""trial"",""time""
""blur"",""6"",""47191""
""blur"",""9"",""117569""
","""event"",""trial"",""time""
""focus"",""6"",""111028""
""focus"",""9"",""136489""
","""event"",""trial"",""time""
""fullscreenenter"",""1"",""13119""
","""event"",""trial"",""time""
""fullscreenexit"",""5"",""39919""
","","","","","","889.3999999910593","images/sheep1.png","","","memory_trial","3","maybe_new",""
"html-keyboard-response","93","485896","0.0-18.0-0.24","5258","approach_avoid_sv1","""event"",""trial"",""time""
""fullscreenenter"",""1"",""13119""
""fullscreenexit"",""5"",""39919""
""blur"",""6"",""47191""
""focus"",""6"",""111028""
""blur"",""9"",""117569""
""focus"",""9"",""136489""
","""event"",""trial"",""time""
""blur"",""6"",""47191""
""blur"",""9"",""117569""
","""event"",""trial"",""time""
""focus"",""6"",""111028""
""focus"",""9"",""136489""
","""event"",""trial"",""time""
""fullscreenenter"",""1"",""13119""
","""event"",""trial"",""time""
""fullscreenexit"",""5"",""39919""
","","","","","","null","<div style=""font-size:60px;"">+</div>","null","","fixation","","",""
"memory-trial","94","488129","0.0-18.0-1.24","5258","approach_avoid_sv1","""event"",""trial"",""time""
""fullscreenenter"",""1"",""13119""
""fullscreenexit"",""5"",""39919""
""blur"",""6"",""47191""
""focus"",""6"",""111028""
""blur"",""9"",""117569""
""focus"",""9"",""136489""
","""event"",""trial"",""time""
""blur"",""6"",""47191""
""blur"",""9"",""117569""
","""event"",""trial"",""time""
""focus"",""6"",""111028""
""focus"",""9"",""136489""
","""event"",""trial"",""time""
""fullscreenenter"",""1"",""13119""
","""event"",""trial"",""time""
""fullscreenexit"",""5"",""39919""
","","","","","","1219","images/cactus6.png","","","memory_trial","3","maybe_new",""
"html-keyboard-response","95","488643","0.0-18.0-0.25","5258","approach_avoid_sv1","""event"",""trial"",""time""
""fullscreenenter"",""1"",""13119""
""fullscreenexit"",""5"",""39919""
""blur"",""6"",""47191""
""focus"",""6"",""111028""
""blur"",""9"",""117569""
""focus"",""9"",""136489""
","""event"",""trial"",""time""
""blur"",""6"",""47191""
""blur"",""9"",""117569""
","""event"",""trial"",""time""
""focus"",""6"",""111028""
""focus"",""9"",""136489""
","""event"",""trial"",""time""
""fullscreenenter"",""1"",""13119""
","""event"",""trial"",""time""
""fullscreenexit"",""5"",""39919""
","","","","","","null","<div style=""font-size:60px;"">+</div>","null","","fixation","","",""
"memory-trial","96","490787","0.0-18.0-1.25","5258","approach_avoid_sv1","""event"",""trial"",""time""
""fullscreenenter"",""1"",""13119""
""fullscreenexit"",""5"",""39919""
""blur"",""6"",""47191""
""focus"",""6"",""111028""
""blur"",""9"",""117569""
""focus"",""9"",""136489""
","""event"",""trial"",""time""
""blur"",""6"",""47191""
""blur"",""9"",""117569""
","""event"",""trial"",""time""
""focus"",""6"",""111028""
""focus"",""9"",""136489""
","""event"",""trial"",""time""
""fullscreenenter"",""1"",""13119""
","""event"",""trial"",""time""
""fullscreenexit"",""5"",""39919""
","","","","","","1129.5","images/sheep5.png","","","memory_trial","3","maybe_new",""
"html-keyboard-response","97","491310","0.0-18.0-0.26","5258","approach_avoid_sv1","""event"",""trial"",""time""
""fullscreenenter"",""1"",""13119""
""fullscreenexit"",""5"",""39919""
""blur"",""6"",""47191""
""focus"",""6"",""111028""
""blur"",""9"",""117569""
""focus"",""9"",""136489""
","""event"",""trial"",""time""
""blur"",""6"",""47191""
""blur"",""9"",""117569""
","""event"",""trial"",""time""
""focus"",""6"",""111028""
""focus"",""9"",""136489""
","""event"",""trial"",""time""
""fullscreenenter"",""1"",""13119""
","""event"",""trial"",""time""
""fullscreenexit"",""5"",""39919""
","","","","","","null","<div style=""font-size:60px;"">+</div>","null","","fixation","","",""
"memory-trial","98","494072","0.0-18.0-1.26","5258","approach_avoid_sv1","""event"",""trial"",""time""
""fullscreenenter"",""1"",""13119""
""fullscreenexit"",""5"",""39919""
""blur"",""6"",""47191""
""focus"",""6"",""111028""
""blur"",""9"",""117569""
""focus"",""9"",""136489""
","""event"",""trial"",""time""
""blur"",""6"",""47191""
""blur"",""9"",""117569""
","""event"",""trial"",""time""
""focus"",""6"",""111028""
""focus"",""9"",""136489""
","""event"",""trial"",""time""
""fullscreenenter"",""1"",""13119""
","""event"",""trial"",""time""
""fullscreenexit"",""5"",""39919""
","","","","","","1744.0999999940395","images/cactus5.png","","","memory_trial","3","maybe_new",""
"html-keyboard-response","99","494575","0.0-18.0-0.27","5258","approach_avoid_sv1","""event"",""trial"",""time""
""fullscreenenter"",""1"",""13119""
""fullscreenexit"",""5"",""39919""
""blur"",""6"",""47191""
""focus"",""6"",""111028""
""blur"",""9"",""117569""
""focus"",""9"",""136489""
","""event"",""trial"",""time""
""blur"",""6"",""47191""
""blur"",""9"",""117569""
","""event"",""trial"",""time""
""focus"",""6"",""111028""
""focus"",""9"",""136489""
","""event"",""trial"",""time""
""fullscreenenter"",""1"",""13119""
","""event"",""trial"",""time""
""fullscreenexit"",""5"",""39919""
","","","","","","null","<div style=""font-size:60px;"">+</div>","null","","fixation","","",""
"memory-trial","100","498070","0.0-18.0-1.27","5258","approach_avoid_sv1","""event"",""trial"",""time""
""fullscreenenter"",""1"",""13119""
""fullscreenexit"",""5"",""39919""
""blur"",""6"",""47191""
""focus"",""6"",""111028""
""blur"",""9"",""117569""
""focus"",""9"",""136489""
","""event"",""trial"",""time""
""blur"",""6"",""47191""
""blur"",""9"",""117569""
","""event"",""trial"",""time""
""focus"",""6"",""111028""
""focus"",""9"",""136489""
","""event"",""trial"",""time""
""fullscreenenter"",""1"",""13119""
","""event"",""trial"",""time""
""fullscreenexit"",""5"",""39919""
","","","","","","2470.9000000059605","images/goat1.png","","","memory_trial","3","maybe_new",""
"html-keyboard-response","101","498582","0.0-18.0-0.28","5258","approach_avoid_sv1","""event"",""trial"",""time""
""fullscreenenter"",""1"",""13119""
""fullscreenexit"",""5"",""39919""
""blur"",""6"",""47191""
""focus"",""6"",""111028""
""blur"",""9"",""117569""
""focus"",""9"",""136489""
","""event"",""trial"",""time""
""blur"",""6"",""47191""
""blur"",""9"",""117569""
","""event"",""trial"",""time""
""focus"",""6"",""111028""
""focus"",""9"",""136489""
","""event"",""trial"",""time""
""fullscreenenter"",""1"",""13119""
","""event"",""trial"",""time""
""fullscreenexit"",""5"",""39919""
","","","","","","null","<div style=""font-size:60px;"">+</div>","null","","fixation","","",""
"memory-trial","102","501336","0.0-18.0-1.28","5258","approach_avoid_sv1","""event"",""trial"",""time""
""fullscreenenter"",""1"",""13119""
""fullscreenexit"",""5"",""39919""
""blur"",""6"",""47191""
""focus"",""6"",""111028""
""blur"",""9"",""117569""
""focus"",""9"",""136489""
","""event"",""trial"",""time""
""blur"",""6"",""47191""
""blur"",""9"",""117569""
","""event"",""trial"",""time""
""focus"",""6"",""111028""
""focus"",""9"",""136489""
","""event"",""trial"",""time""
""fullscreenenter"",""1"",""13119""
","""event"",""trial"",""time""
""fullscreenexit"",""5"",""39919""
","","","","","","1740.9000000059605","images/cow5.png","","","memory_trial","2","maybe_old",""
"html-keyboard-response","103","501849","0.0-18.0-0.29","5258","approach_avoid_sv1","""event"",""trial"",""time""
""fullscreenenter"",""1"",""13119""
""fullscreenexit"",""5"",""39919""
""blur"",""6"",""47191""
""focus"",""6"",""111028""
""blur"",""9"",""117569""
""focus"",""9"",""136489""
","""event"",""trial"",""time""
""blur"",""6"",""47191""
""blur"",""9"",""117569""
","""event"",""trial"",""time""
""focus"",""6"",""111028""
""focus"",""9"",""136489""
","""event"",""trial"",""time""
""fullscreenenter"",""1"",""13119""
","""event"",""trial"",""time""
""fullscreenexit"",""5"",""39919""
","","","","","","null","<div style=""font-size:60px;"">+</div>","null","","fixation","","",""
"memory-trial","104","504743","0.0-18.0-1.29","5258","approach_avoid_sv1","""event"",""trial"",""time""
""fullscreenenter"",""1"",""13119""
""fullscreenexit"",""5"",""39919""
""blur"",""6"",""47191""
""focus"",""6"",""111028""
""blur"",""9"",""117569""
""focus"",""9"",""136489""
","""event"",""trial"",""time""
""blur"",""6"",""47191""
""blur"",""9"",""117569""
","""event"",""trial"",""time""
""focus"",""6"",""111028""
""focus"",""9"",""136489""
","""event"",""trial"",""time""
""fullscreenenter"",""1"",""13119""
","""event"",""trial"",""time""
""fullscreenexit"",""5"",""39919""
","","","","","","1877.9000000059605","images/goat5.png","","","memory_trial","4","definitely_new",""
"html-keyboard-response","105","505248","0.0-18.0-0.30","5258","approach_avoid_sv1","""event"",""trial"",""time""
""fullscreenenter"",""1"",""13119""
""fullscreenexit"",""5"",""39919""
""blur"",""6"",""47191""
""focus"",""6"",""111028""
""blur"",""9"",""117569""
""focus"",""9"",""136489""
","""event"",""trial"",""time""
""blur"",""6"",""47191""
""blur"",""9"",""117569""
","""event"",""trial"",""time""
""focus"",""6"",""111028""
""focus"",""9"",""136489""
","""event"",""trial"",""time""
""fullscreenenter"",""1"",""13119""
","""event"",""trial"",""time""
""fullscreenexit"",""5"",""39919""
","","","","","","null","<div style=""font-size:60px;"">+</div>","null","","fixation","","",""
"memory-trial","106","507339","0.0-18.0-1.30","5258","approach_avoid_sv1","""event"",""trial"",""time""
""fullscreenenter"",""1"",""13119""
""fullscreenexit"",""5"",""39919""
""blur"",""6"",""47191""
""focus"",""6"",""111028""
""blur"",""9"",""117569""
""focus"",""9"",""136489""
","""event"",""trial"",""time""
""blur"",""6"",""47191""
""blur"",""9"",""117569""
","""event"",""trial"",""time""
""focus"",""6"",""111028""
""focus"",""9"",""136489""
","""event"",""trial"",""time""
""fullscreenenter"",""1"",""13119""
","""event"",""trial"",""time""
""fullscreenexit"",""5"",""39919""
","","","","","","1078.2999999970198","images/sofa5.png","","","memory_trial","2","maybe_old",""
"html-keyboard-response","107","507846","0.0-18.0-0.31","5258","approach_avoid_sv1","""event"",""trial"",""time""
""fullscreenenter"",""1"",""13119""
""fullscreenexit"",""5"",""39919""
""blur"",""6"",""47191""
""focus"",""6"",""111028""
""blur"",""9"",""117569""
""focus"",""9"",""136489""
","""event"",""trial"",""time""
""blur"",""6"",""47191""
""blur"",""9"",""117569""
","""event"",""trial"",""time""
""focus"",""6"",""111028""
""focus"",""9"",""136489""
","""event"",""trial"",""time""
""fullscreenenter"",""1"",""13119""
","""event"",""trial"",""time""
""fullscreenexit"",""5"",""39919""
","","","","","","null","<div style=""font-size:60px;"">+</div>","null","","fixation","","",""
"memory-trial","108","509900","0.0-18.0-1.31","5258","approach_avoid_sv1","""event"",""trial"",""time""
""fullscreenenter"",""1"",""13119""
""fullscreenexit"",""5"",""39919""
""blur"",""6"",""47191""
""focus"",""6"",""111028""
""blur"",""9"",""117569""
""focus"",""9"",""136489""
","""event"",""trial"",""time""
""blur"",""6"",""47191""
""blur"",""9"",""117569""
","""event"",""trial"",""time""
""focus"",""6"",""111028""
""focus"",""9"",""136489""
","""event"",""trial"",""time""
""fullscreenenter"",""1"",""13119""
","""event"",""trial"",""time""
""fullscreenexit"",""5"",""39919""
","","","","","","1040.5","images/table2.png","","","memory_trial","1","definitely_old",""
"html-keyboard-response","109","510406","0.0-18.0-0.32","5258","approach_avoid_sv1","""event"",""trial"",""time""
""fullscreenenter"",""1"",""13119""
""fullscreenexit"",""5"",""39919""
""blur"",""6"",""47191""
""focus"",""6"",""111028""
""blur"",""9"",""117569""
""focus"",""9"",""136489""
","""event"",""trial"",""time""
""blur"",""6"",""47191""
""blur"",""9"",""117569""
","""event"",""trial"",""time""
""focus"",""6"",""111028""
""focus"",""9"",""136489""
","""event"",""trial"",""time""
""fullscreenenter"",""1"",""13119""
","""event"",""trial"",""time""
""fullscreenexit"",""5"",""39919""
","","","","","","null","<div style=""font-size:60px;"">+</div>","null","","fixation","","",""
"memory-trial","110","512336","0.0-18.0-1.32","5258","approach_avoid_sv1","""event"",""trial"",""time""
""fullscreenenter"",""1"",""13119""
""fullscreenexit"",""5"",""39919""
""blur"",""6"",""47191""
""focus"",""6"",""111028""
""blur"",""9"",""117569""
""focus"",""9"",""136489""
","""event"",""trial"",""time""
""blur"",""6"",""47191""
""blur"",""9"",""117569""
","""event"",""trial"",""time""
""focus"",""6"",""111028""
""focus"",""9"",""136489""
","""event"",""trial"",""time""
""fullscreenenter"",""1"",""13119""
","""event"",""trial"",""time""
""fullscreenexit"",""5"",""39919""
","","","","","","916.3999999910593","images/goat4.png","","","memory_trial","3","maybe_new",""
"html-keyboard-response","111","512839","0.0-18.0-0.33","5258","approach_avoid_sv1","""event"",""trial"",""time""
""fullscreenenter"",""1"",""13119""
""fullscreenexit"",""5"",""39919""
""blur"",""6"",""47191""
""focus"",""6"",""111028""
""blur"",""9"",""117569""
""focus"",""9"",""136489""
","""event"",""trial"",""time""
""blur"",""6"",""47191""
""blur"",""9"",""117569""
","""event"",""trial"",""time""
""focus"",""6"",""111028""
""focus"",""9"",""136489""
","""event"",""trial"",""time""
""fullscreenenter"",""1"",""13119""
","""event"",""trial"",""time""
""fullscreenexit"",""5"",""39919""
","","","","","","null","<div style=""font-size:60px;"">+</div>","null","","fixation","","",""
"memory-trial","112","514733","0.0-18.0-1.33","5258","approach_avoid_sv1","""event"",""trial"",""time""
""fullscreenenter"",""1"",""13119""
""fullscreenexit"",""5"",""39919""
""blur"",""6"",""47191""
""focus"",""6"",""111028""
""blur"",""9"",""117569""
""focus"",""9"",""136489""
","""event"",""trial"",""time""
""blur"",""6"",""47191""
""blur"",""9"",""117569""
","""event"",""trial"",""time""
""focus"",""6"",""111028""
""focus"",""9"",""136489""
","""event"",""trial"",""time""
""fullscreenenter"",""1"",""13119""
","""event"",""trial"",""time""
""fullscreenexit"",""5"",""39919""
","","","","","","870.5","images/rodent4.png","","","memory_trial","3","maybe_new",""
"html-keyboard-response","113","515246","0.0-18.0-0.34","5258","approach_avoid_sv1","""event"",""trial"",""time""
""fullscreenenter"",""1"",""13119""
""fullscreenexit"",""5"",""39919""
""blur"",""6"",""47191""
""focus"",""6"",""111028""
""blur"",""9"",""117569""
""focus"",""9"",""136489""
","""event"",""trial"",""time""
""blur"",""6"",""47191""
""blur"",""9"",""117569""
","""event"",""trial"",""time""
""focus"",""6"",""111028""
""focus"",""9"",""136489""
","""event"",""trial"",""time""
""fullscreenenter"",""1"",""13119""
","""event"",""trial"",""time""
""fullscreenexit"",""5"",""39919""
","","","","","","null","<div style=""font-size:60px;"">+</div>","null","","fixation","","",""
"memory-trial","114","517218","0.0-18.0-1.34","5258","approach_avoid_sv1","""event"",""trial"",""time""
""fullscreenenter"",""1"",""13119""
""fullscreenexit"",""5"",""39919""
""blur"",""6"",""47191""
""focus"",""6"",""111028""
""blur"",""9"",""117569""
""focus"",""9"",""136489""
","""event"",""trial"",""time""
""blur"",""6"",""47191""
""blur"",""9"",""117569""
","""event"",""trial"",""time""
""focus"",""6"",""111028""
""focus"",""9"",""136489""
","""event"",""trial"",""time""
""fullscreenenter"",""1"",""13119""
","""event"",""trial"",""time""
""fullscreenexit"",""5"",""39919""
","","","","","","961","images/apple4.png","","","memory_trial","3","maybe_new",""
"html-keyboard-response","115","517736","0.0-18.0-0.35","5258","approach_avoid_sv1","""event"",""trial"",""time""
""fullscreenenter"",""1"",""13119""
""fullscreenexit"",""5"",""39919""
""blur"",""6"",""47191""
""focus"",""6"",""111028""
""blur"",""9"",""117569""
""focus"",""9"",""136489""
","""event"",""trial"",""time""
""blur"",""6"",""47191""
""blur"",""9"",""117569""
","""event"",""trial"",""time""
""focus"",""6"",""111028""
""focus"",""9"",""136489""
","""event"",""trial"",""time""
""fullscreenenter"",""1"",""13119""
","""event"",""trial"",""time""
""fullscreenexit"",""5"",""39919""
","","","","","","null","<div style=""font-size:60px;"">+</div>","null","","fixation","","",""
"memory-trial","116","520307","0.0-18.0-1.35","5258","approach_avoid_sv1","""event"",""trial"",""time""
""fullscreenenter"",""1"",""13119""
""fullscreenexit"",""5"",""39919""
""blur"",""6"",""47191""
""focus"",""6"",""111028""
""blur"",""9"",""117569""
""focus"",""9"",""136489""
","""event"",""trial"",""time""
""blur"",""6"",""47191""
""blur"",""9"",""117569""
","""event"",""trial"",""time""
""focus"",""6"",""111028""
""focus"",""9"",""136489""
","""event"",""trial"",""time""
""fullscreenenter"",""1"",""13119""
","""event"",""trial"",""time""
""fullscreenexit"",""5"",""39919""
","","","","","","1557.199999988079","images/straw5.png","","","memory_trial","3","maybe_new",""
"html-keyboard-response","117","520816","0.0-18.0-0.36","5258","approach_avoid_sv1","""event"",""trial"",""time""
""fullscreenenter"",""1"",""13119""
""fullscreenexit"",""5"",""39919""
""blur"",""6"",""47191""
""focus"",""6"",""111028""
""blur"",""9"",""117569""
""focus"",""9"",""136489""
","""event"",""trial"",""time""
""blur"",""6"",""47191""
""blur"",""9"",""117569""
","""event"",""trial"",""time""
""focus"",""6"",""111028""
""focus"",""9"",""136489""
","""event"",""trial"",""time""
""fullscreenenter"",""1"",""13119""
","""event"",""trial"",""time""
""fullscreenexit"",""5"",""39919""
","","","","","","null","<div style=""font-size:60px;"">+</div>","null","","fixation","","",""
"memory-trial","118","522770","0.0-18.0-1.36","5258","approach_avoid_sv1","""event"",""trial"",""time""
""fullscreenenter"",""1"",""13119""
""fullscreenexit"",""5"",""39919""
""blur"",""6"",""47191""
""focus"",""6"",""111028""
""blur"",""9"",""117569""
""focus"",""9"",""136489""
","""event"",""trial"",""time""
""blur"",""6"",""47191""
""blur"",""9"",""117569""
","""event"",""trial"",""time""
""focus"",""6"",""111028""
""focus"",""9"",""136489""
","""event"",""trial"",""time""
""fullscreenenter"",""1"",""13119""
","""event"",""trial"",""time""
""fullscreenexit"",""5"",""39919""
","","","","","","935.9000000059605","images/bush5.png","","","memory_trial","3","maybe_new",""
"html-keyboard-response","119","523279","0.0-18.0-0.37","5258","approach_avoid_sv1","""event"",""trial"",""time""
""fullscreenenter"",""1"",""13119""
""fullscreenexit"",""5"",""39919""
""blur"",""6"",""47191""
""focus"",""6"",""111028""
""blur"",""9"",""117569""
""focus"",""9"",""136489""
","""event"",""trial"",""time""
""blur"",""6"",""47191""
""blur"",""9"",""117569""
","""event"",""trial"",""time""
""focus"",""6"",""111028""
""focus"",""9"",""136489""
","""event"",""trial"",""time""
""fullscreenenter"",""1"",""13119""
","""event"",""trial"",""time""
""fullscreenexit"",""5"",""39919""
","","","","","","null","<div style=""font-size:60px;"">+</div>","null","","fixation","","",""
"memory-trial","120","525225","0.0-18.0-1.37","5258","approach_avoid_sv1","""event"",""trial"",""time""
""fullscreenenter"",""1"",""13119""
""fullscreenexit"",""5"",""39919""
""blur"",""6"",""47191""
""focus"",""6"",""111028""
""blur"",""9"",""117569""
""focus"",""9"",""136489""
","""event"",""trial"",""time""
""blur"",""6"",""47191""
""blur"",""9"",""117569""
","""event"",""trial"",""time""
""focus"",""6"",""111028""
""focus"",""9"",""136489""
","""event"",""trial"",""time""
""fullscreenenter"",""1"",""13119""
","""event"",""trial"",""time""
""fullscreenexit"",""5"",""39919""
","","","","","","930.7000000029802","images/truck6.png","","","memory_trial","2","maybe_old",""
"html-keyboard-response","121","525736","0.0-18.0-0.38","5258","approach_avoid_sv1","""event"",""trial"",""time""
""fullscreenenter"",""1"",""13119""
""fullscreenexit"",""5"",""39919""
""blur"",""6"",""47191""
""focus"",""6"",""111028""
""blur"",""9"",""117569""
""focus"",""9"",""136489""
","""event"",""trial"",""time""
""blur"",""6"",""47191""
""blur"",""9"",""117569""
","""event"",""trial"",""time""
""focus"",""6"",""111028""
""focus"",""9"",""136489""
","""event"",""trial"",""time""
""fullscreenenter"",""1"",""13119""
","""event"",""trial"",""time""
""fullscreenexit"",""5"",""39919""
","","","","","","null","<div style=""font-size:60px;"">+</div>","null","","fixation","","",""
"memory-trial","122","527681","0.0-18.0-1.38","5258","approach_avoid_sv1","""event"",""trial"",""time""
""fullscreenenter"",""1"",""13119""
""fullscreenexit"",""5"",""39919""
""blur"",""6"",""47191""
""focus"",""6"",""111028""
""blur"",""9"",""117569""
""focus"",""9"",""136489""
","""event"",""trial"",""time""
""blur"",""6"",""47191""
""blur"",""9"",""117569""
","""event"",""trial"",""time""
""focus"",""6"",""111028""
""focus"",""9"",""136489""
","""event"",""trial"",""time""
""fullscreenenter"",""1"",""13119""
","""event"",""trial"",""time""
""fullscreenexit"",""5"",""39919""
","","","","","","933.3999999910593","images/cow3.png","","","memory_trial","1","definitely_old",""
"html-keyboard-response","123","528196","0.0-18.0-0.39","5258","approach_avoid_sv1","""event"",""trial"",""time""
""fullscreenenter"",""1"",""13119""
""fullscreenexit"",""5"",""39919""
""blur"",""6"",""47191""
""focus"",""6"",""111028""
""blur"",""9"",""117569""
""focus"",""9"",""136489""
","""event"",""trial"",""time""
""blur"",""6"",""47191""
""blur"",""9"",""117569""
","""event"",""trial"",""time""
""focus"",""6"",""111028""
""focus"",""9"",""136489""
","""event"",""trial"",""time""
""fullscreenenter"",""1"",""13119""
","""event"",""trial"",""time""
""fullscreenexit"",""5"",""39919""
","","","","","","null","<div style=""font-size:60px;"">+</div>","null","","fixation","","",""
"memory-trial","124","530081","0.0-18.0-1.39","5258","approach_avoid_sv1","""event"",""trial"",""time""
""fullscreenenter"",""1"",""13119""
""fullscreenexit"",""5"",""39919""
""blur"",""6"",""47191""
""focus"",""6"",""111028""
""blur"",""9"",""117569""
""focus"",""9"",""136489""
","""event"",""trial"",""time""
""blur"",""6"",""47191""
""blur"",""9"",""117569""
","""event"",""trial"",""time""
""focus"",""6"",""111028""
""focus"",""9"",""136489""
","""event"",""trial"",""time""
""fullscreenenter"",""1"",""13119""
","""event"",""trial"",""time""
""fullscreenexit"",""5"",""39919""
","","","","","","870.9000000059605","images/banana5.png","","","memory_trial","3","maybe_new",""
"html-keyboard-response","125","530589","0.0-18.0-0.40","5258","approach_avoid_sv1","""event"",""trial"",""time""
""fullscreenenter"",""1"",""13119""
""fullscreenexit"",""5"",""39919""
""blur"",""6"",""47191""
""focus"",""6"",""111028""
""blur"",""9"",""117569""
""focus"",""9"",""136489""
","""event"",""trial"",""time""
""blur"",""6"",""47191""
""blur"",""9"",""117569""
","""event"",""trial"",""time""
""focus"",""6"",""111028""
""focus"",""9"",""136489""
","""event"",""trial"",""time""
""fullscreenenter"",""1"",""13119""
","""event"",""trial"",""time""
""fullscreenexit"",""5"",""39919""
","","","","","","null","<div style=""font-size:60px;"">+</div>","null","","fixation","","",""
"memory-trial","126","533334","0.0-18.0-1.40","5258","approach_avoid_sv1","""event"",""trial"",""time""
""fullscreenenter"",""1"",""13119""
""fullscreenexit"",""5"",""39919""
""blur"",""6"",""47191""
""focus"",""6"",""111028""
""blur"",""9"",""117569""
""focus"",""9"",""136489""
","""event"",""trial"",""time""
""blur"",""6"",""47191""
""blur"",""9"",""117569""
","""event"",""trial"",""time""
""focus"",""6"",""111028""
""focus"",""9"",""136489""
","""event"",""trial"",""time""
""fullscreenenter"",""1"",""13119""
","""event"",""trial"",""time""
""fullscreenexit"",""5"",""39919""
","","","","","","1734.5","images/chair2.png","","","memory_trial","3","maybe_new",""
"html-keyboard-response","127","533848","0.0-18.0-0.41","5258","approach_avoid_sv1","""event"",""trial"",""time""
""fullscreenenter"",""1"",""13119""
""fullscreenexit"",""5"",""39919""
""blur"",""6"",""47191""
""focus"",""6"",""111028""
""blur"",""9"",""117569""
""focus"",""9"",""136489""
","""event"",""trial"",""time""
""blur"",""6"",""47191""
""blur"",""9"",""117569""
","""event"",""trial"",""time""
""focus"",""6"",""111028""
""focus"",""9"",""136489""
","""event"",""trial"",""time""
""fullscreenenter"",""1"",""13119""
","""event"",""trial"",""time""
""fullscreenexit"",""5"",""39919""
","","","","","","null","<div style=""font-size:60px;"">+</div>","null","","fixation","","",""
"memory-trial","128","535722","0.0-18.0-1.41","5258","approach_avoid_sv1","""event"",""trial"",""time""
""fullscreenenter"",""1"",""13119""
""fullscreenexit"",""5"",""39919""
""blur"",""6"",""47191""
""focus"",""6"",""111028""
""blur"",""9"",""117569""
""focus"",""9"",""136489""
","""event"",""trial"",""time""
""blur"",""6"",""47191""
""blur"",""9"",""117569""
","""event"",""trial"",""time""
""focus"",""6"",""111028""
""focus"",""9"",""136489""
","""event"",""trial"",""time""
""fullscreenenter"",""1"",""13119""
","""event"",""trial"",""time""
""fullscreenexit"",""5"",""39919""
","","","","","","865.2999999970198","images/orange3.png","","","memory_trial","3","maybe_new",""
"html-button-response","129","537652","0.0-18.0-2.41-0.41","5258","approach_avoid_sv1","""event"",""trial"",""time""
""fullscreenenter"",""1"",""13119""
""fullscreenexit"",""5"",""39919""
""blur"",""6"",""47191""
""focus"",""6"",""111028""
""blur"",""9"",""117569""
""focus"",""9"",""136489""
","""event"",""trial"",""time""
""blur"",""6"",""47191""
""blur"",""9"",""117569""
","""event"",""trial"",""time""
""focus"",""6"",""111028""
""focus"",""9"",""136489""
","""event"",""trial"",""time""
""fullscreenenter"",""1"",""13119""
","""event"",""trial"",""time""
""fullscreenexit"",""5"",""39919""
","","","","","","1928.5999999940395","<p> Take a break! </p><p> Click the button to continue. </p>","0","","break","","",""
"html-keyboard-response","130","538162","0.0-18.0-0.42","5258","approach_avoid_sv1","""event"",""trial"",""time""
""fullscreenenter"",""1"",""13119""
""fullscreenexit"",""5"",""39919""
""blur"",""6"",""47191""
""focus"",""6"",""111028""
""blur"",""9"",""117569""
""focus"",""9"",""136489""
","""event"",""trial"",""time""
""blur"",""6"",""47191""
""blur"",""9"",""117569""
","""event"",""trial"",""time""
""focus"",""6"",""111028""
""focus"",""9"",""136489""
","""event"",""trial"",""time""
""fullscreenenter"",""1"",""13119""
","""event"",""trial"",""time""
""fullscreenexit"",""5"",""39919""
","","","","","","null","<div style=""font-size:60px;"">+</div>","null","","fixation","","",""
"memory-trial","131","539865","0.0-18.0-1.42","5258","approach_avoid_sv1","""event"",""trial"",""time""
""fullscreenenter"",""1"",""13119""
""fullscreenexit"",""5"",""39919""
""blur"",""6"",""47191""
""focus"",""6"",""111028""
""blur"",""9"",""117569""
""focus"",""9"",""136489""
","""event"",""trial"",""time""
""blur"",""6"",""47191""
""blur"",""9"",""117569""
","""event"",""trial"",""time""
""focus"",""6"",""111028""
""focus"",""9"",""136489""
","""event"",""trial"",""time""
""fullscreenenter"",""1"",""13119""
","""event"",""trial"",""time""
""fullscreenexit"",""5"",""39919""
","","","","","","683.7000000029802","images/sheep3.png","","","memory_trial","3","maybe_new",""
"html-keyboard-response","132","540373","0.0-18.0-0.43","5258","approach_avoid_sv1","""event"",""trial"",""time""
""fullscreenenter"",""1"",""13119""
""fullscreenexit"",""5"",""39919""
""blur"",""6"",""47191""
""focus"",""6"",""111028""
""blur"",""9"",""117569""
""focus"",""9"",""136489""
","""event"",""trial"",""time""
""blur"",""6"",""47191""
""blur"",""9"",""117569""
","""event"",""trial"",""time""
""focus"",""6"",""111028""
""focus"",""9"",""136489""
","""event"",""trial"",""time""
""fullscreenenter"",""1"",""13119""
","""event"",""trial"",""time""
""fullscreenexit"",""5"",""39919""
","","","","","","null","<div style=""font-size:60px;"">+</div>","null","","fixation","","",""
"memory-trial","133","542217","0.0-18.0-1.43","5258","approach_avoid_sv1","""event"",""trial"",""time""
""fullscreenenter"",""1"",""13119""
""fullscreenexit"",""5"",""39919""
""blur"",""6"",""47191""
""focus"",""6"",""111028""
""blur"",""9"",""117569""
""focus"",""9"",""136489""
","""event"",""trial"",""time""
""blur"",""6"",""47191""
""blur"",""9"",""117569""
","""event"",""trial"",""time""
""focus"",""6"",""111028""
""focus"",""9"",""136489""
","""event"",""trial"",""time""
""fullscreenenter"",""1"",""13119""
","""event"",""trial"",""time""
""fullscreenexit"",""5"",""39919""
","","","","","","831.2000000029802","images/dog7.png","","","memory_trial","3","maybe_new",""
"html-keyboard-response","134","542729","0.0-18.0-0.44","5258","approach_avoid_sv1","""event"",""trial"",""time""
""fullscreenenter"",""1"",""13119""
""fullscreenexit"",""5"",""39919""
""blur"",""6"",""47191""
""focus"",""6"",""111028""
""blur"",""9"",""117569""
""focus"",""9"",""136489""
","""event"",""trial"",""time""
""blur"",""6"",""47191""
""blur"",""9"",""117569""
","""event"",""trial"",""time""
""focus"",""6"",""111028""
""focus"",""9"",""136489""
","""event"",""trial"",""time""
""fullscreenenter"",""1"",""13119""
","""event"",""trial"",""time""
""fullscreenexit"",""5"",""39919""
","","","","","","null","<div style=""font-size:60px;"">+</div>","null","","fixation","","",""
"memory-trial","135","544609","0.0-18.0-1.44","5258","approach_avoid_sv1","""event"",""trial"",""time""
""fullscreenenter"",""1"",""13119""
""fullscreenexit"",""5"",""39919""
""blur"",""6"",""47191""
""focus"",""6"",""111028""
""blur"",""9"",""117569""
""focus"",""9"",""136489""
","""event"",""trial"",""time""
""blur"",""6"",""47191""
""blur"",""9"",""117569""
","""event"",""trial"",""time""
""focus"",""6"",""111028""
""focus"",""9"",""136489""
","""event"",""trial"",""time""
""fullscreenenter"",""1"",""13119""
","""event"",""trial"",""time""
""fullscreenexit"",""5"",""39919""
","","","","","","871.1999999880791","images/chair7.png","","","memory_trial","3","maybe_new",""
"html-keyboard-response","136","545120","0.0-18.0-0.45","5258","approach_avoid_sv1","""event"",""trial"",""time""
""fullscreenenter"",""1"",""13119""
""fullscreenexit"",""5"",""39919""
""blur"",""6"",""47191""
""focus"",""6"",""111028""
""blur"",""9"",""117569""
""focus"",""9"",""136489""
","""event"",""trial"",""time""
""blur"",""6"",""47191""
""blur"",""9"",""117569""
","""event"",""trial"",""time""
""focus"",""6"",""111028""
""focus"",""9"",""136489""
","""event"",""trial"",""time""
""fullscreenenter"",""1"",""13119""
","""event"",""trial"",""time""
""fullscreenexit"",""5"",""39919""
","","","","","","null","<div style=""font-size:60px;"">+</div>","null","","fixation","","",""
"memory-trial","137","546871","0.0-18.0-1.45","5258","approach_avoid_sv1","""event"",""trial"",""time""
""fullscreenenter"",""1"",""13119""
""fullscreenexit"",""5"",""39919""
""blur"",""6"",""47191""
""focus"",""6"",""111028""
""blur"",""9"",""117569""
""focus"",""9"",""136489""
","""event"",""trial"",""time""
""blur"",""6"",""47191""
""blur"",""9"",""117569""
","""event"",""trial"",""time""
""focus"",""6"",""111028""
""focus"",""9"",""136489""
","""event"",""trial"",""time""
""fullscreenenter"",""1"",""13119""
","""event"",""trial"",""time""
""fullscreenexit"",""5"",""39919""
","","","","","","733.7999999970198","images/cat1.png","","","memory_trial","3","maybe_new",""
"html-keyboard-response","138","547380","0.0-18.0-0.46","5258","approach_avoid_sv1","""event"",""trial"",""time""
""fullscreenenter"",""1"",""13119""
""fullscreenexit"",""5"",""39919""
""blur"",""6"",""47191""
""focus"",""6"",""111028""
""blur"",""9"",""117569""
""focus"",""9"",""136489""
","""event"",""trial"",""time""
""blur"",""6"",""47191""
""blur"",""9"",""117569""
","""event"",""trial"",""time""
""focus"",""6"",""111028""
""focus"",""9"",""136489""
","""event"",""trial"",""time""
""fullscreenenter"",""1"",""13119""
","""event"",""trial"",""time""
""fullscreenexit"",""5"",""39919""
","","","","","","null","<div style=""font-size:60px;"">+</div>","null","","fixation","","",""
"memory-trial","139","549488","0.0-18.0-1.46","5258","approach_avoid_sv1","""event"",""trial"",""time""
""fullscreenenter"",""1"",""13119""
""fullscreenexit"",""5"",""39919""
""blur"",""6"",""47191""
""focus"",""6"",""111028""
""blur"",""9"",""117569""
""focus"",""9"",""136489""
","""event"",""trial"",""time""
""blur"",""6"",""47191""
""blur"",""9"",""117569""
","""event"",""trial"",""time""
""focus"",""6"",""111028""
""focus"",""9"",""136489""
","""event"",""trial"",""time""
""fullscreenenter"",""1"",""13119""
","""event"",""trial"",""time""
""fullscreenexit"",""5"",""39919""
","","","","","","1097.0999999940395","images/bush3.png","","","memory_trial","2","maybe_old",""
"html-keyboard-response","140","549993","0.0-18.0-0.47","5258","approach_avoid_sv1","""event"",""trial"",""time""
""fullscreenenter"",""1"",""13119""
""fullscreenexit"",""5"",""39919""
""blur"",""6"",""47191""
""focus"",""6"",""111028""
""blur"",""9"",""117569""
""focus"",""9"",""136489""
","""event"",""trial"",""time""
""blur"",""6"",""47191""
""blur"",""9"",""117569""
","""event"",""trial"",""time""
""focus"",""6"",""111028""
""focus"",""9"",""136489""
","""event"",""trial"",""time""
""fullscreenenter"",""1"",""13119""
","""event"",""trial"",""time""
""fullscreenexit"",""5"",""39919""
","","","","","","null","<div style=""font-size:60px;"">+</div>","null","","fixation","","",""
"memory-trial","141","551599","0.0-18.0-1.47","5258","approach_avoid_sv1","""event"",""trial"",""time""
""fullscreenenter"",""1"",""13119""
""fullscreenexit"",""5"",""39919""
""blur"",""6"",""47191""
""focus"",""6"",""111028""
""blur"",""9"",""117569""
""focus"",""9"",""136489""
","""event"",""trial"",""time""
