"trial_type","trial_index","time_elapsed","internal_node_id","subject_id","task_version","interactions","blur_events","focus_events","fullscreenenter_events","fullscreenexit_events","success","timeout","failed_images","failed_audio","failed_video","rt","stimulus","response","button_pressed","task_part","key_press","answer","correct"
"pavlovia","0","1","0.0-0.0","4326","approach_avoid_sv1","
","
","
","
","
","","","","","","","","","","","","",""
"fullscreen","1","10136","0.0-1.0","4326","approach_avoid_sv1","
","
","
","
","
","true","","","","","","","","","","","",""
"preload","2","11839","0.0-2.0","4326","approach_avoid_sv1","
","
","
","
","
","true","false","[]","[]","[]","","","","","","","",""
"preload","3","13273","0.0-3.0","4326","approach_avoid_sv1","
","
","
","
","
","true","false","[]","[]","[]","","","","","","","",""
"preload","4","13442","0.0-4.0","4326","approach_avoid_sv1","
","
","
","
","
","true","false","[]","[]","[]","","","","","","","",""
"audio-keyboard-response","5","17807","0.0-5.0","4326","approach_avoid_sv1","
","
","
","
","
","","","","","","3984","audio/beep_loop.wav"," ","","","","",""
"audio-button-response","6","20083","0.0-6.0","4326","approach_avoid_sv1","
","
","
","
","
","","","","","","2277","audio/turtle.wav","3","","","","",""
"audio-button-response","7","29055","0.0-7.0","4326","approach_avoid_sv1","
","
","
","
","
","","","","","","7968","audio/shark.wav","2","","","","",""
"preload","8","31965","0.0-8.0","4326","approach_avoid_sv1","
","
","
","
","
","true","false","[]","[]","[]","","","","","","","",""
"learning-instructions","9","37577","0.0-9.0-0.0","4326","approach_avoid_sv1","
","
","
","
","
","","","","","","1129.8999998569489","<p> Welcome back! </p><p> Last week, you had to make choices about lots of different items.  </p>","","0","instructions","","",""
"learning-instructions","10","42610","0.0-9.0-0.1","4326","approach_avoid_sv1","
","
","
","
","
","","","","","","915.7000000476837","<p> Today, we are going to ask you to try to remember all the items. </p>","","0","instructions","","",""
"learning-instructions","11","53691","0.0-9.0-0.2","4326","approach_avoid_sv1","
","
","
","
","
","","","","","","945.7000000476837","<p> On every trial, you will see an image. </p><p> The image may be an OLD image you saw during the games last week or it may be a NEW image that was not presented. </p>","","0","instructions","","",""
"learning-instructions","12","62591","0.0-9.0-0.3","4326","approach_avoid_sv1","
","
","
","
","
","","","","","","399.5","<p> You need to select whether the image is:  </p><p>  'Definitely old', 'Maybe old', 'Maybe new', or 'Definitely new.'  </p><div class=""mem-choice-instructions-grid""><div class=""choice-option"" id=""choice-option-1"" ><img src=""images/definitely_old_1.png"" id=""choice-option-img-1"" class=""choice-option-img"" stage=""1""></div><div class=""choice-option"" id=""choice-option-2"" ><img src=""images/maybe_old_1.png"" id=""choice-option-img-2"" class=""choice-option-img"" stage=""1""></div><div class=""choice-option"" id=""choice-option-3"" ><img src=""images/maybe_new_1.png"" id=""choice-option-img-3"" class=""choice-option-img"" stage=""1""></div><div class=""choice-option"" id=""choice-option-4"" > <img src=""images/definitely_new_1.png"" id=""choice-option-img-4"" class=""choice-option-img"" stage=""1""></div></div>","","0","instructions","","",""
"learning-instructions","13","70477","0.0-9.0-0.4","4326","approach_avoid_sv1","
","
","
","
","
","","","","","","1373.9000000953674","<p> You should use the 1, 2, 3, and 4 keys to make your responses.  </p><div class=""mem-choice-instructions-grid""><div class=""choice-option"" id=""choice-option-1"" ><img src=""images/definitely_old.png"" id=""choice-option-img-1"" class=""choice-option-img"" stage=""1""></div><div class=""choice-option"" id=""choice-option-2"" ><img src=""images/maybe_old.png"" id=""choice-option-img-2"" class=""choice-option-img"" stage=""1""></div><div class=""choice-option"" id=""choice-option-3"" ><img src=""images/maybe_new.png"" id=""choice-option-img-3"" class=""choice-option-img"" stage=""1""></div><div class=""choice-option"" id=""choice-option-4"" > <img src=""images/definitely_new.png"" id=""choice-option-img-4"" class=""choice-option-img"" stage=""1""></div></div>","","0","instructions","","",""
"learning-instructions","14","80647","0.0-9.0-0.5","4326","approach_avoid_sv1","
","
","
","
","
","","","","","","3843.2999999523163","<p> You will have 10 seconds to make each response.  </p><p>  Make sure to respond before time runs out! </p>","","0","instructions","","",""
"learning-instructions","15","88255","0.0-9.0-0.6","4326","approach_avoid_sv1","
","
","
","
","
","","","","","","533.4000000953674","<p> Today, you will see each image ONCE only.  </p><p>  That means none of the images will repeat. </p>","","0","instructions","","",""
"learning-instructions","16","101376","0.0-9.0-0.7","4326","approach_avoid_sv1","
","
","
","
","
","","","","","","454.5","<p> Before you play the real game, it is time to practice. </p><p>  Just like in the real game, some of the images in the practice will be ones you have seen before. </p><p>  Others will be entirely new. </p>","","0","instructions","","",""
"html-button-response","17","103173","0.0-10.0","4326","approach_avoid_sv1","
","
","
","
","
","","","","","","1691.1999998092651","<p> Ready to practice? </p><p> Remember, use the 1, 2, 3, and 4 keys to make your responses. </p>","0","","instructions","","",""
"html-keyboard-response","18","103780","0.0-11.0-0.0","4326","approach_avoid_sv1","
","
","
","
","
","","","","","","null","<div style=""font-size:60px;"">+</div>","null","","fixation","","",""
"memory-trial","19","106707","0.0-11.0-1.0","4326","approach_avoid_sv1","
","
","
","
","
","","","","","","1919.2999999523163","images/ball2.png","","","practice","1","definitely_old",""
"html-keyboard-response","20","107214","0.0-11.0-0.1","4326","approach_avoid_sv1","
","
","
","
","
","","","","","","null","<div style=""font-size:60px;"">+</div>","null","","fixation","","",""
"memory-trial","21","111016","0.0-11.0-1.1","4326","approach_avoid_sv1","
","
","
","
","
","","","","","","2796.7999999523163","images/racket5.png","","","practice","2","maybe_old",""
"html-keyboard-response","22","111517","0.0-11.0-0.2","4326","approach_avoid_sv1","
","
","
","
","
","","","","","","null","<div style=""font-size:60px;"">+</div>","null","","fixation","","",""
"memory-trial","23","117379","0.0-11.0-1.2","4326","approach_avoid_sv1","
","
","
","
","
","","","","","","4854.099999904633","images/racket3.png","","","practice","3","maybe_new",""
"html-keyboard-response","24","117885","0.0-11.0-0.3","4326","approach_avoid_sv1","
","
","
","
","
","","","","","","null","<div style=""font-size:60px;"">+</div>","null","","fixation","","",""
"memory-trial","25","121262","0.0-11.0-1.3","4326","approach_avoid_sv1","
","
","
","
","
","","","","","","2369.0999999046326","images/racket1.png","","","practice","1","definitely_old",""
"html-keyboard-response","26","121763","0.0-11.0-0.4","4326","approach_avoid_sv1","
","
","
","
","
","","","","","","null","<div style=""font-size:60px;"">+</div>","null","","fixation","","",""
"memory-trial","27","123950","0.0-11.0-1.4","4326","approach_avoid_sv1","
","
","
","
","
","","","","","","1181.7000000476837","images/ball1.png","","","practice","1","definitely_old",""
"html-keyboard-response","28","124456","0.0-11.0-0.5","4326","approach_avoid_sv1","
","
","
","
","
","","","","","","null","<div style=""font-size:60px;"">+</div>","null","","fixation","","",""
"memory-trial","29","127422","0.0-11.0-1.5","4326","approach_avoid_sv1","
","
","
","
","
","","","","","","1958.2000000476837","images/ball3.png","","","practice","4","definitely_new",""
"html-keyboard-response","30","127928","0.0-11.0-0.6","4326","approach_avoid_sv1","
","
","
","
","
","","","","","","null","<div style=""font-size:60px;"">+</div>","null","","fixation","","",""
"memory-trial","31","132638","0.0-11.0-1.6","4326","approach_avoid_sv1","
","
","
","
","
","","","","","","3701.5","images/racket2.png","","","practice","3","maybe_new",""
"html-keyboard-response","32","133140","0.0-11.0-0.7","4326","approach_avoid_sv1","
","
","
","
","
","","","","","","null","<div style=""font-size:60px;"">+</div>","null","","fixation","","",""
"memory-trial","33","137022","0.0-11.0-1.7","4326","approach_avoid_sv1","
","
","
","
","
","","","","","","2876.5","images/ball5.png","","","practice","2","maybe_old",""
"learning-instructions","34","145545","0.0-12.0-0.0","4326","approach_avoid_sv1","
","
","
","
","
","","","","","","833.4000000953674","<p> Great! You have completed the practice. </p><p> Before you start, we're going to ask you a few questions about how the game works.  </p>","","0","instructions","","",""
"preload","35","147026","0.0-13.0","4326","approach_avoid_sv1","
","
","
","
","
","true","false","[]","[]","[]","","","","","","","",""
"comp-q","36","153974","0.0-14.0-0.0","4326","approach_avoid_sv1","
","
","
","
","
","","","","","","1118.8999998569489","<p> <b> True or False? </b> </p><p> In this game, you will only see each image once. </p>","","0","comp_question","","","true"
"comp-q","37","162291","0.0-14.0-1.0","4326","approach_avoid_sv1","
","
","
","
","
","","","","","","1974.5","<p> <b> That's right! </b> You will see many different images <i> one time each </i> in this game. </p>","","0","comp_answer","","",""
"comp-q","38","168170","0.0-15.0-0.0","4326","approach_avoid_sv1","
","
","
","
","
","","","","","","871.8999998569489","<p> <b> True or False? </b> </p><p> You should use the mouse and click to make your response. </p>","","1","comp_question","","","true"
"comp-q","39","176878","0.0-15.0-1.0","4326","approach_avoid_sv1","
","
","
","
","
","","","","","","2210.5","<p><b> That's right! </b> You should use the '1', '2', '3', and '4' keys to make your response. </p>","","0","comp_answer","","",""
"comp-q","40","183399","0.0-16.0-0.0","4326","approach_avoid_sv1","
","
","
","
","
","","","","","","843","<p> <b> True or False? </b> </p><p> You will have as much time as you want to make each choice. </p>","","1","comp_question","","","true"
"comp-q","41","188899","0.0-16.0-1.0","4326","approach_avoid_sv1","
","
","
","
","
","","","","","","807.2000000476837","<p> <b> That's right! </b> You will only have 10 seconds to make each choice. </p>","","0","comp_answer","","",""
"learning-instructions","42","198748","0.0-17.0","4326","approach_avoid_sv1","
","
","
","
","
","","","","","","1184","<p> Great! You are now ready to begin the game. </p><p> Remember, use the 1, 2, 3, and 4 keys to make your responses. </p>","","0","instructions","","",""
"html-keyboard-response","43","199354","0.0-18.0-0.0","4326","approach_avoid_sv1","
","
","
","
","
","","","","","","null","<div style=""font-size:60px;"">+</div>","null","","fixation","","",""
"memory-trial","44","202824","0.0-18.0-1.0","4326","approach_avoid_sv1","
","
","
","
","
","","","","","","2462.300000190735","images/bush6.png","","","memory_trial","4","definitely_new",""
"html-keyboard-response","45","203331","0.0-18.0-0.1","4326","approach_avoid_sv1","
","
","
","
","
","","","","","","null","<div style=""font-size:60px;"">+</div>","null","","fixation","","",""
"memory-trial","46","208684","0.0-18.0-1.1","4326","approach_avoid_sv1","
","
","
","
","
","","","","","","4346.600000143051","images/plane5.png","","","memory_trial","3","maybe_new",""
"html-keyboard-response","47","209187","0.0-18.0-0.2","4326","approach_avoid_sv1","
","
","
","
","
","","","","","","null","<div style=""font-size:60px;"">+</div>","null","","fixation","","",""
"memory-trial","48","211704","0.0-18.0-1.2","4326","approach_avoid_sv1","
","
","
","
","
","","","","","","1510.8999998569489","images/cow6.png","","","memory_trial","1","definitely_old",""
"html-keyboard-response","49","212206","0.0-18.0-0.3","4326","approach_avoid_sv1","
","
","
","
","
","","","","","","null","<div style=""font-size:60px;"">+</div>","null","","fixation","","",""
"memory-trial","50","215688","0.0-18.0-1.3","4326","approach_avoid_sv1","
","
","
","
","
","","","","","","2474.5999999046326","images/banana3.png","","","memory_trial","1","definitely_old",""
"html-keyboard-response","51","216191","0.0-18.0-0.4","4326","approach_avoid_sv1","
","
","
","
","
","","","","","","null","<div style=""font-size:60px;"">+</div>","null","","fixation","","",""
"memory-trial","52","219048","0.0-18.0-1.4","4326","approach_avoid_sv1","
","
","
","
","
","","","","","","1850.2999999523163","images/boat7.png","","","memory_trial","1","definitely_old",""
"html-keyboard-response","53","219553","0.0-18.0-0.5","4326","approach_avoid_sv1","
","
","
","
","
","","","","","","null","<div style=""font-size:60px;"">+</div>","null","","fixation","","",""
"memory-trial","54","222696","0.0-18.0-1.5","4326","approach_avoid_sv1","
","
","
","
","
","","","","","","2135.4000000953674","images/sheep1.png","","","memory_trial","2","maybe_old",""
"html-keyboard-response","55","223198","0.0-18.0-0.6","4326","approach_avoid_sv1","
","
","
","
","
","","","","","","null","<div style=""font-size:60px;"">+</div>","null","","fixation","","",""
"memory-trial","56","226351","0.0-18.0-1.6","4326","approach_avoid_sv1","
","
","
","
","
","","","","","","2149.2000000476837","images/boat6.png","","","memory_trial","1","definitely_old",""
"html-keyboard-response","57","226856","0.0-18.0-0.7","4326","approach_avoid_sv1","
","
","
","
","
","","","","","","null","<div style=""font-size:60px;"">+</div>","null","","fixation","","",""
"memory-trial","58","231422","0.0-18.0-1.7","4326","approach_avoid_sv1","
","
","
","
","
","","","","","","3558.5","images/sheep8.png","","","memory_trial","2","maybe_old",""
"html-keyboard-response","59","231927","0.0-18.0-0.8","4326","approach_avoid_sv1","
","
","
","
","
","","","","","","null","<div style=""font-size:60px;"">+</div>","null","","fixation","","",""
"memory-trial","60","236465","0.0-18.0-1.8","4326","approach_avoid_sv1","
","
","
","
","
","","","","","","3530.7000000476837","images/boat8.png","","","memory_trial","4","definitely_new",""
"html-keyboard-response","61","236972","0.0-18.0-0.9","4326","approach_avoid_sv1","
","
","
","
","
","","","","","","null","<div style=""font-size:60px;"">+</div>","null","","fixation","","",""
"memory-trial","62","240814","0.0-18.0-1.9","4326","approach_avoid_sv1","
","
","
","
","
","","","","","","2835.600000143051","images/sofa5.png","","","memory_trial","3","maybe_new",""
"html-keyboard-response","63","241319","0.0-18.0-0.10","4326","approach_avoid_sv1","
","
","
","
","
","","","","","","null","<div style=""font-size:60px;"">+</div>","null","","fixation","","",""
"memory-trial","64","244078","0.0-18.0-1.10","4326","approach_avoid_sv1","
","
","
","
","
","","","","","","1752.1999998092651","images/banana5.png","","","memory_trial","1","definitely_old",""
"html-keyboard-response","65","244583","0.0-18.0-0.11","4326","approach_avoid_sv1","
","
","
","
","
","","","","","","null","<div style=""font-size:60px;"">+</div>","null","","fixation","","",""
"memory-trial","66","249799","0.0-18.0-1.11","4326","approach_avoid_sv1","
","
","
","
","
","","","","","","4208.800000190735","images/orange3.png","","","memory_trial","3","maybe_new",""
"html-keyboard-response","67","250305","0.0-18.0-0.12","4326","approach_avoid_sv1","
","
","
","
","
","","","","","","null","<div style=""font-size:60px;"">+</div>","null","","fixation","","",""
"memory-trial","68","252748","0.0-18.0-1.12","4326","approach_avoid_sv1","
","
","
","
","
","","","","","","1435.6999998092651","images/apple7.png","","","memory_trial","1","definitely_old",""
"html-keyboard-response","69","253251","0.0-18.0-0.13","4326","approach_avoid_sv1","
","
","
","
","
","","","","","","null","<div style=""font-size:60px;"">+</div>","null","","fixation","","",""
"memory-trial","70","257955","0.0-18.0-1.13","4326","approach_avoid_sv1","
","
","
","
","
","","","","","","3696.699999809265","images/tree5.png","","","memory_trial","3","maybe_new",""
"html-keyboard-response","71","258460","0.0-18.0-0.14","4326","approach_avoid_sv1","
","
","
","
","
","","","","","","null","<div style=""font-size:60px;"">+</div>","null","","fixation","","",""
"memory-trial","72","261886","0.0-18.0-1.14","4326","approach_avoid_sv1","
","
","
","
","
","","","","","","2419.899999856949","images/chair8.png","","","memory_trial","4","definitely_new",""
"html-keyboard-response","73","262391","0.0-18.0-0.15","4326","approach_avoid_sv1","
","
","
","
","
","","","","","","null","<div style=""font-size:60px;"">+</div>","null","","fixation","","",""
"memory-trial","74","264524","0.0-18.0-1.15","4326","approach_avoid_sv1","
","
","
","
","
","","","","","","1126.3000001907349","images/bed1.png","","","memory_trial","1","definitely_old",""
"html-keyboard-response","75","265027","0.0-18.0-0.16","4326","approach_avoid_sv1","
","
","
","
","
","","","","","","null","<div style=""font-size:60px;"">+</div>","null","","fixation","","",""
"memory-trial","76","267278","0.0-18.0-1.16","4326","approach_avoid_sv1","
","
","
","
","
","","","","","","1245.5999999046326","images/boat1.png","","","memory_trial","1","definitely_old",""
"html-keyboard-response","77","267783","0.0-18.0-0.17","4326","approach_avoid_sv1","
","
","
","
","
","","","","","","null","<div style=""font-size:60px;"">+</div>","null","","fixation","","",""
"memory-trial","78","271068","0.0-18.0-1.17","4326","approach_avoid_sv1","
","
","
","
","
","","","","","","2278.5","images/bush5.png","","","memory_trial","4","definitely_new",""
"html-keyboard-response","79","271571","0.0-18.0-0.18","4326","approach_avoid_sv1","
","
","
","
","
","","","","","","null","<div style=""font-size:60px;"">+</div>","null","","fixation","","",""
"memory-trial","80","273518","0.0-18.0-1.18","4326","approach_avoid_sv1","
","
","
","
","
","","","","","","941.3000001907349","images/train6.png","","","memory_trial","1","definitely_old",""
"html-keyboard-response","81","274023","0.0-18.0-0.19","4326","approach_avoid_sv1","
","
","
","
","
","","","","","","null","<div style=""font-size:60px;"">+</div>","null","","fixation","","",""
"memory-trial","82","275959","0.0-18.0-1.19","4326","approach_avoid_sv1","
","
","
","
","
","","","","","","929.6999998092651","images/horse1.png","","","memory_trial","1","definitely_old",""
"html-keyboard-response","83","276462","0.0-18.0-0.20","4326","approach_avoid_sv1","
","
","
","
","
","","","","","","null","<div style=""font-size:60px;"">+</div>","null","","fixation","","",""
"memory-trial","84","280321","0.0-18.0-1.20","4326","approach_avoid_sv1","
","
","
","
","
","","","","","","2852.699999809265","images/bed2.png","","","memory_trial","2","maybe_old",""
"html-keyboard-response","85","280824","0.0-18.0-0.21","4326","approach_avoid_sv1","
","
","
","
","
","","","","","","null","<div style=""font-size:60px;"">+</div>","null","","fixation","","",""
"memory-trial","86","282622","0.0-18.0-1.21","4326","approach_avoid_sv1","
","
","
","
","
","","","","","","790.5999999046326","images/table2.png","","","memory_trial","1","definitely_old",""
"html-keyboard-response","87","283127","0.0-18.0-0.22","4326","approach_avoid_sv1","
","
","
","
","
","","","","","","null","<div style=""font-size:60px;"">+</div>","null","","fixation","","",""
"memory-trial","88","284999","0.0-18.0-1.22","4326","approach_avoid_sv1","
","
","
","
","
","","","","","","864.8999998569489","images/table1.png","","","memory_trial","1","definitely_old",""
"html-keyboard-response","89","285502","0.0-18.0-0.23","4326","approach_avoid_sv1","
","
","
","
","
","","","","","","null","<div style=""font-size:60px;"">+</div>","null","","fixation","","",""
"memory-trial","90","289628","0.0-18.0-1.23","4326","approach_avoid_sv1","
","
","
","
","
","","","","","","3118.7000000476837","images/straw1.png","","","memory_trial","3","maybe_new",""
"html-keyboard-response","91","290132","0.0-18.0-0.24","4326","approach_avoid_sv1","
","
","
","
","
","","","","","","null","<div style=""font-size:60px;"">+</div>","null","","fixation","","",""
"memory-trial","92","293191","0.0-18.0-1.24","4326","approach_avoid_sv1","
","
","
","
","
","","","","","","2051.899999856949","images/plane2.png","","","memory_trial","2","maybe_old",""
"html-keyboard-response","93","293694","0.0-18.0-0.25","4326","approach_avoid_sv1","
","
","
","
","
","","","","","","null","<div style=""font-size:60px;"">+</div>","null","","fixation","","",""
"memory-trial","94","299233","0.0-18.0-1.25","4326","approach_avoid_sv1","
","
","
","
","
","","","","","","4531.899999856949","images/banana4.png","","","memory_trial","3","maybe_new",""
"html-keyboard-response","95","299736","0.0-18.0-0.26","4326","approach_avoid_sv1","
","
","
","
","
","","","","","","null","<div style=""font-size:60px;"">+</div>","null","","fixation","","",""
"memory-trial","96","304300","0.0-18.0-1.26","4326","approach_avoid_sv1","
","
","
","
","
","","","","","","3556.2000000476837","images/straw7.png","","","memory_trial","3","maybe_new",""
"html-keyboard-response","97","304803","0.0-18.0-0.27","4326","approach_avoid_sv1","
","
","
","
","
","","","","","","null","<div style=""font-size:60px;"">+</div>","null","","fixation","","",""
"memory-trial","98","308067","0.0-18.0-1.27","4326","approach_avoid_sv1","
","
","
","
","
","","","","","","2257.300000190735","images/sofa4.png","","","memory_trial","4","definitely_new",""
"html-keyboard-response","99","308572","0.0-18.0-0.28","4326","approach_avoid_sv1","
","
","
","
","
","","","","","","null","<div style=""font-size:60px;"">+</div>","null","","fixation","","",""
"memory-trial","100","313932","0.0-18.0-1.28","4326","approach_avoid_sv1","
","
","
","
","
","","","","","","4352.200000047684","images/rabbit5.png","","","memory_trial","3","maybe_new",""
"html-keyboard-response","101","314435","0.0-18.0-0.29","4326","approach_avoid_sv1","
","
","
","
","
","","","","","","null","<div style=""font-size:60px;"">+</div>","null","","fixation","","",""
"memory-trial","102","318625","0.0-18.0-1.29","4326","approach_avoid_sv1","
","
","
","
","
","","","","","","3182.100000143051","images/flower8.png","","","memory_trial","2","maybe_old",""
"html-keyboard-response","103","319128","0.0-18.0-0.30","4326","approach_avoid_sv1","
","
","
","
","
","","","","","","null","<div style=""font-size:60px;"">+</div>","null","","fixation","","",""
"memory-trial","104","322515","0.0-18.0-1.30","4326","approach_avoid_sv1","
","
","
","
","
","","","","","","2381.2999999523163","images/cactus6.png","","","memory_trial","2","maybe_old",""
"html-keyboard-response","105","323020","0.0-18.0-0.31","4326","approach_avoid_sv1","
","
","
","
","
","","","","","","null","<div style=""font-size:60px;"">+</div>","null","","fixation","","",""
"memory-trial","106","326420","0.0-18.0-1.31","4326","approach_avoid_sv1","
","
","
","
","
","","","","","","2393","images/apple4.png","","","memory_trial","2","maybe_old",""
"html-keyboard-response","107","326926","0.0-18.0-0.32","4326","approach_avoid_sv1","
","
","
","
","
","","","","","","null","<div style=""font-size:60px;"">+</div>","null","","fixation","","",""
"memory-trial","108","330002","0.0-18.0-1.32","4326","approach_avoid_sv1","
","
","
","
","
","","","","","","2069.5999999046326","images/cat8.png","","","memory_trial","3","maybe_new",""
"html-keyboard-response","109","330504","0.0-18.0-0.33","4326","approach_avoid_sv1","
","
","
","
","
","","","","","","null","<div style=""font-size:60px;"">+</div>","null","","fixation","","",""
"memory-trial","110","332745","0.0-18.0-1.33","4326","approach_avoid_sv1","
","
","
","
","
","","","","","","1235.2000000476837","images/straw6.png","","","memory_trial","4","definitely_new",""
"html-keyboard-response","111","333249","0.0-18.0-0.34","4326","approach_avoid_sv1","
","
","
","
","
","","","","","","null","<div style=""font-size:60px;"">+</div>","null","","fixation","","",""
"memory-trial","112","335923","0.0-18.0-1.34","4326","approach_avoid_sv1","
","
","
","
","
","","","","","","1666.7000000476837","images/train2.png","","","memory_trial","2","maybe_old",""
"html-keyboard-response","113","336428","0.0-18.0-0.35","4326","approach_avoid_sv1","
","
","
","
","
","","","","","","null","<div style=""font-size:60px;"">+</div>","null","","fixation","","",""
"memory-trial","114","340606","0.0-18.0-1.35","4326","approach_avoid_sv1","
","
","
","
","
","","","","","","3169.899999856949","images/bed3.png","","","memory_trial","2","maybe_old",""
"html-keyboard-response","115","341111","0.0-18.0-0.36","4326","approach_avoid_sv1","
","
","
","
","
","","","","","","null","<div style=""font-size:60px;"">+</div>","null","","fixation","","",""
"memory-trial","116","345678","0.0-18.0-1.36","4326","approach_avoid_sv1","
","
","
","
","
","","","","","","3560.7000000476837","images/train8.png","","","memory_trial","2","maybe_old",""
"html-keyboard-response","117","346183","0.0-18.0-0.37","4326","approach_avoid_sv1","
","
","
","
","
","","","","","","null","<div style=""font-size:60px;"">+</div>","null","","fixation","","",""
"memory-trial","118","348361","0.0-18.0-1.37","4326","approach_avoid_sv1","
","
","
","
","
","","","","","","1172.6999998092651","images/truck6.png","","","memory_trial","4","definitely_new",""
"html-keyboard-response","119","348865","0.0-18.0-0.38","4326","approach_avoid_sv1","
","
","
","
","
","","","","","","null","<div style=""font-size:60px;"">+</div>","null","","fixation","","",""
"memory-trial","120","352323","0.0-18.0-1.38","4326","approach_avoid_sv1","
","
","
","
","
","","","","","","2452.800000190735","images/cactus2.png","","","memory_trial","4","definitely_new",""
"html-keyboard-response","121","352828","0.0-18.0-0.39","4326","approach_avoid_sv1","
","
","
","
","
","","","","","","null","<div style=""font-size:60px;"">+</div>","null","","fixation","","",""
"memory-trial","122","356839","0.0-18.0-1.39","4326","approach_avoid_sv1","
","
","
","
","
","","","","","","3005.100000143051","images/banana6.png","","","memory_trial","4","definitely_new",""
"html-keyboard-response","123","357342","0.0-18.0-0.40","4326","approach_avoid_sv1","
","
","
","
","
","","","","","","null","<div style=""font-size:60px;"">+</div>","null","","fixation","","",""
"memory-trial","124","363057","0.0-18.0-1.40","4326","approach_avoid_sv1","
","
","
","
","
","","","","","","4708.100000143051","images/chair2.png","","","memory_trial","4","definitely_new",""
"html-keyboard-response","125","363560","0.0-18.0-0.41","4326","approach_avoid_sv1","
","
","
","
","
","","","","","","null","<div style=""font-size:60px;"">+</div>","null","","fixation","","",""
"memory-trial","126","368878","0.0-18.0-1.41","4326","approach_avoid_sv1","
","
","
","
","
","","","","","","4310.700000047684","images/cactus7.png","","","memory_trial","2","maybe_old",""
"html-button-response","127","370719","0.0-18.0-2.41-0.41","4326","approach_avoid_sv1","
","
","
","
","
","","","","","","1839.2000000476837","<p> Take a break! </p><p> Click the button to continue. </p>","0","","break","","",""
"html-keyboard-response","128","371223","0.0-18.0-0.42","4326","approach_avoid_sv1","
","
","
","
","
","","","","","","null","<div style=""font-size:60px;"">+</div>","null","","fixation","","",""
"memory-trial","129","374201","0.0-18.0-1.42","4326","approach_avoid_sv1","
","
","
","
","
","","","","","","1972.7999999523163","images/bush7.png","","","memory_trial","2","maybe_old",""
"html-keyboard-response","130","374705","0.0-18.0-0.43","4326","approach_avoid_sv1","
","
","
","
","
","","","","","","null","<div style=""font-size:60px;"">+</div>","null","","fixation","","",""
"memory-trial","131","378139","0.0-18.0-1.43","4326","approach_avoid_sv1","
","
","
","
","
","","","","","","2426.0999999046326","images/plane4.png","","","memory_trial","1","definitely_old",""
"html-keyboard-response","132","378643","0.0-18.0-0.44","4326","approach_avoid_sv1","
","
","
","
","
","","","","","","null","<div style=""font-size:60px;"">+</div>","null","","fixation","","",""
"memory-trial","133","380588","0.0-18.0-1.44","4326","approach_avoid_sv1","
","
","
","
","
","","","","","","937.8999998569489","images/bed8.png","","","memory_trial","1","definitely_old",""
"html-keyboard-response","134","381092","0.0-18.0-0.45","4326","approach_avoid_sv1","
","
","
","
","
","","","","","","null","<div style=""font-size:60px;"">+</div>","null","","fixation","","",""
"memory-trial","135","385507","0.0-18.0-1.45","4326","approach_avoid_sv1","
","
","
","
","
","","","","","","3409.5999999046326","images/bush3.png","","","memory_trial","4","definitely_new",""
"html-keyboard-response","136","386008","0.0-18.0-0.46","4326","approach_avoid_sv1","
","
","
","
","
","","","","","","null","<div style=""font-size:60px;"">+</div>","null","","fixation","","",""
"memory-trial","137","390963","0.0-18.0-1.46","4326","approach_avoid_sv1","
","
","
","
","
","","","","","","3948.5999999046326","images/rabbit8.png","","","memory_trial","3","maybe_new",""
"html-keyboard-response","138","391468","0.0-18.0-0.47","4326","approach_avoid_sv1","
","
","
","
","
","","","","","","null","<div style=""font-size:60px;"">+</div>","null","","fixation","","",""
"memory-trial","139","395463","0.0-18.0-1.47","4326","approach_avoid_sv1","
","
","
","
","
","","","","","","2988.4000000953674","images/straw8.png","","","memory_trial","3","maybe_new",""
"html-keyboard-response","140","395966","0.0-18.0-0.48","4326","approach_avoid_sv1","
","
","
","
","
","","","","","","null","<div style=""font-size:60px;"">+</div>","null","","fixation","","",""
"memory-trial","141","398894","0.0-18.0-1.48","4326","approach_avoid_sv1","
","
","
","
","
","","","","","","1921.2999999523163","images/sofa8.png","","","memory_trial","2","maybe_old",""
"html-keyboard-response","142","399399","0.0-18.0-0.49","4326","approach_avoid_sv1","
","
","
","
","
","","","","","","null","<div style=""font-size:60px;"">+</div>","null","","fixation","","",""
"memory-trial","143","401694","0.0-18.0-1.49","4326","approach_avoid_sv1","
","
","
","
","
","","","","","","1290.9000000953674","images/chair7.png","","","memory_trial","4","definitely_new",""
"html-keyboard-response","144","402199","0.0-18.0-0.50","4326","approach_avoid_sv1","
","
","
","
","
","","","","","","null","<div style=""font-size:60px;"">+</div>","null","","fixation","","",""
"memory-trial","145","405401","0.0-18.0-1.50","4326","approach_avoid_sv1","
","
","
","
","
","","","","","","2195.5","images/apple8.png","","","memory_trial","2","maybe_old",""
"html-keyboard-response","146","405905","0.0-18.0-0.51","4326","approach_avoid_sv1","
","
","
","
","
","","","","","","null","<div style=""font-size:60px;"">+</div>","null","","fixation","","",""
"memory-trial","147","408137","0.0-18.0-1.51","4326","approach_avoid_sv1","
","
","
","
","
","","","","","","1223.8000001907349","images/goat4.png","","","memory_trial","1","definitely_old",""
"html-keyboard-response","148","408641","0.0-18.0-0.52","4326","approach_avoid_sv1","
","
","
","
","
","","","","","","null","<div style=""font-size:60px;"">+</div>","null","","fixation","","",""
"memory-trial","149","412786","0.0-18.0-1.52","4326","approach_avoid_sv1","
","
","
","
","
","","","","","","3137.4000000953674","images/chair5.png","","","memory_trial","3","maybe_new",""
"html-keyboard-response","150","413289","0.0-18.0-0.53","4326","approach_avoid_sv1","
","
","
","
","
","","","","","","null","<div style=""font-size:60px;"">+</div>","null","","fixation","","",""
"memory-trial","151","419287","0.0-18.0-1.53","4326","approach_avoid_sv1","
","
","
","
","
","","","","","","4990.100000143051","images/goat1.png","","","memory_trial","3","maybe_new",""
"html-keyboard-response","152","419790","0.0-18.0-0.54","4326","approach_avoid_sv1","
","
","
","
","
","","","","","","null","<div style=""font-size:60px;"">+</div>","null","","fixation","","",""
"memory-trial","153","424412","0.0-18.0-1.54","4326","approach_avoid_sv1","
","
","
","
","
","","","","","","3614.100000143051","images/dog2.png","","","memory_trial","2","maybe_old",""
"html-keyboard-response","154","424915","0.0-18.0-0.55","4326","approach_avoid_sv1","
","
","
","
","
","","","","","","null","<div style=""font-size:60px;"">+</div>","null","","fixation","","",""
"memory-trial","155","429031","0.0-18.0-1.55","4326","approach_avoid_sv1","
","
","
","
","
","","","","","","3109","images/truck2.png","","","memory_trial","3","maybe_new",""
"html-keyboard-response","156","429534","0.0-18.0-0.56","4326","approach_avoid_sv1","
","
","
","
","
","","","","","","null","<div style=""font-size:60px;"">+</div>","null","","fixation","","",""
"memory-trial","157","431641","0.0-18.0-1.56","4326","approach_avoid_sv1","
","
","
","
","
","","","","","","1100.3999998569489","images/truck1.png","","","memory_trial","4","definitely_new",""
"html-keyboard-response","158","432145","0.0-18.0-0.57","4326","approach_avoid_sv1","
","
","
","
","
","","","","","","null","<div style=""font-size:60px;"">+</div>","null","","fixation","","",""
"memory-trial","159","437955","0.0-18.0-1.57","4326","approach_avoid_sv1","
","
","
","
","
","","","","","","4804.5","images/orange7.png","","","memory_trial","2","maybe_old",""
"html-keyboard-response","160","438462","0.0-18.0-0.58","4326","approach_avoid_sv1","
","
","
","
","
","","","","","","null","<div style=""font-size:60px;"">+</div>","null","","fixation","","",""
"memory-trial","161","443257","0.0-18.0-1.58","4326","approach_avoid_sv1","
","
","
","
","
","","","","","","3786.7000000476837","images/flower1.png","","","memory_trial","3","maybe_new",""
"html-keyboard-response","162","443761","0.0-18.0-0.59","4326","approach_avoid_sv1","
","
","
","
","
","","","","","","null","<div style=""font-size:60px;"">+</div>","null","","fixation","","",""
"memory-trial","163","448115","0.0-18.0-1.59","4326","approach_avoid_sv1","
","
","
","
","
","","","","","","3346.7999999523163","images/cat3.png","","","memory_trial","3","maybe_new",""
"html-keyboard-response","164","448620","0.0-18.0-0.60","4326","approach_avoid_sv1","
","
","
","
","
","","","","","","null","<div style=""font-size:60px;"">+</div>","null","","fixation","","",""
"memory-trial","165","452051","0.0-18.0-1.60","4326","approach_avoid_sv1","
","
","
","
","
","","","","","","2425","images/banana8.png","","","memory_trial","4","definitely_new",""
"html-keyboard-response","166","452556","0.0-18.0-0.61","4326","approach_avoid_sv1","
","
","
","
","
","","","","","","null","<div style=""font-size:60px;"">+</div>","null","","fixation","","",""
"memory-trial","167","455795","0.0-18.0-1.61","4326","approach_avoid_sv1","
","
","
","
","
","","","","","","2233.0999999046326","images/horse6.png","","","memory_trial","2","maybe_old",""
"html-keyboard-response","168","456300","0.0-18.0-0.62","4326","approach_avoid_sv1","
","
","
","
","
","","","","","","null","<div style=""font-size:60px;"">+</div>","null","","fixation","","",""
"memory-trial","169","462307","0.0-18.0-1.62","4326","approach_avoid_sv1","
","
","
","
","
","","","","","","5000.5","images/bed4.png","","","memory_trial","3","maybe_new",""
"html-keyboard-response","170","462812","0.0-18.0-0.63","4326","approach_avoid_sv1","
","
","
","
","
","","","","","","null","<div style=""font-size:60px;"">+</div>","null","","fixation","","",""
"memory-trial","171","465129","0.0-18.0-1.63","4326","approach_avoid_sv1","
","
","
","
","
","","","","","","1310.6000001430511","images/cat4.png","","","memory_trial","4","definitely_new",""
"html-keyboard-response","172","465634","0.0-18.0-0.64","4326","approach_avoid_sv1","
","
","
","
","
","","","","","","null","<div style=""font-size:60px;"">+</div>","null","","fixation","","",""
"memory-trial","173","468147","0.0-18.0-1.64","4326","approach_avoid_sv1","
","
","
","
","
","","","","","","1507.0999999046326","images/rodent7.png","","","memory_trial","1","definitely_old",""
"html-keyboard-response","174","468652","0.0-18.0-0.65","4326","approach_avoid_sv1","
","
","
","
","
","","","","","","null","<div style=""font-size:60px;"">+</div>","null","","fixation","","",""
"memory-trial","175","473406","0.0-18.0-1.65","4326","approach_avoid_sv1","
","
","
","
","
","","","","","","3746.7999999523163","images/rabbit2.png","","","memory_trial","2","maybe_old",""
"html-keyboard-response","176","473911","0.0-18.0-0.66","4326","approach_avoid_sv1","
","
","
","
","
","","","","","","null","<div style=""font-size:60px;"">+</div>","null","","fixation","","",""
"memory-trial","177","477721","0.0-18.0-1.66","4326","approach_avoid_sv1","
","
","
","
","
","","","","","","2804.5999999046326","images/tree4.png","","","memory_trial","1","definitely_old",""
"html-keyboard-response","178","478226","0.0-18.0-0.67","4326","approach_avoid_sv1","
","
","
","
","
","","","","","","null","<div style=""font-size:60px;"">+</div>","null","","fixation","","",""
"memory-trial","179","483427","0.0-18.0-1.67","4326","approach_avoid_sv1","
","
","
","
","
","","","","","","4194.200000047684","images/cow5.png","","","memory_trial","3","maybe_new",""
"html-keyboard-response","180","483932","0.0-18.0-0.68","4326","approach_avoid_sv1","
","
","
","
","
","","","","","","null","<div style=""font-size:60px;"">+</div>","null","","fixation","","",""
"memory-trial","181","486130","0.0-18.0-1.68","4326","approach_avoid_sv1","
","
","
","
","
","","","","","","1189.3999998569489","images/apple2.png","","","memory_trial","1","definitely_old",""
"html-keyboard-response","182","486633","0.0-18.0-0.69","4326","approach_avoid_sv1","
","
","
","
","
","","","","","","null","<div style=""font-size:60px;"">+</div>","null","","fixation","","",""
"memory-trial","183","489111","0.0-18.0-1.69","4326","approach_avoid_sv1","
","
","
","
","
","","","","","","1471.7999999523163","images/rabbit3.png","","","memory_trial","2","maybe_old",""
"html-keyboard-response","184","489614","0.0-18.0-0.70","4326","approach_avoid_sv1","
","
","
","
","
","","","","","","null","<div style=""font-size:60px;"">+</div>","null","","fixation","","",""
"memory-trial","185","492679","0.0-18.0-1.70","4326","approach_avoid_sv1","
","
","
","
","
","","","","","","2058.7999999523163","images/rodent8.png","","","memory_trial","4","definitely_new",""
"html-keyboard-response","186","493182","0.0-18.0-0.71","4326","approach_avoid_sv1","
","
","
","
","
","","","","","","null","<div style=""font-size:60px;"">+</div>","null","","fixation","","",""
"memory-trial","187","495171","0.0-18.0-1.71","4326","approach_avoid_sv1","
","
","
","
","
","","","","","","984.2999999523163","images/dog7.png","","","memory_trial","1","definitely_old",""
"html-keyboard-response","188","495676","0.0-18.0-0.72","4326","approach_avoid_sv1","
","
","
","
","
","","","","","","null","<div style=""font-size:60px;"">+</div>","null","","fixation","","",""
"memory-trial","189","497795","0.0-18.0-1.72","4326","approach_avoid_sv1","
","
","
","
","
","","","","","","1113.4000000953674","images/tree3.png","","","memory_trial","1","definitely_old",""
"html-keyboard-response","190","498300","0.0-18.0-0.73","4326","approach_avoid_sv1","
","
","
","
","
","","","","","","null","<div style=""font-size:60px;"">+</div>","null","","fixation","","",""
"memory-trial","191","502636","0.0-18.0-1.73","4326","approach_avoid_sv1","
","
","
","
","
","","","","","","3329.300000190735","images/bed7.png","","","memory_trial","2","maybe_old",""
"html-keyboard-response","192","503139","0.0-18.0-0.74","4326","approach_avoid_sv1","
","
","
","
","
","","","","","","null","<div style=""font-size:60px;"">+</div>","null","","fixation","","",""
"memory-trial","193","507251","0.0-18.0-1.74","4326","approach_avoid_sv1","
","
","
","
","
","","","","","","3104.899999856949","images/cat6.png","","","memory_trial","3","maybe_new",""
"html-keyboard-response","194","507756","0.0-18.0-0.75","4326","approach_avoid_sv1","
","
","
","
","
","","","","","","null","<div style=""font-size:60px;"">+</div>","null","","fixation","","",""
"memory-trial","195","509959","0.0-18.0-1.75","4326","approach_avoid_sv1","
","
","
","
","
","","","","","","1196.2000000476837","images/rodent5.png","","","memory_trial","1","definitely_old",""
"html-keyboard-response","196","510462","0.0-18.0-0.76","4326","approach_avoid_sv1","
","
","
","
","
","","","","","","null","<div style=""font-size:60px;"">+</div>","null","","fixation","","",""
"memory-trial","197","512408","0.0-18.0-1.76","4326","approach_avoid_sv1","
","
","
","
","
","","","","","","941.7000000476837","images/dog5.png","","","memory_trial","1","definitely_old",""
"html-keyboard-response","198","512914","0.0-18.0-0.77","4326","approach_avoid_sv1","
","
","
","
","
","","","","","","null","<div style=""font-size:60px;"">+</div>","null","","fixation","","",""
"memory-trial","199","516707","0.0-18.0-1.77","4326","approach_avoid_sv1","
","
","
","
","
","","","","","","2788.7000000476837","images/straw5.png","","","memory_trial","4","definitely_new",""
"html-keyboard-response","200","517212","0.0-18.0-0.78","4326","approach_avoid_sv1","
","
","
","
","
","","","","","","null","<div style=""font-size:60px;"">+</div>","null","","fixation","","",""
"memory-trial","201","520771","0.0-18.0-1.78","4326","approach_avoid_sv1","
","
","
","
","
","","","","","","2553.199999809265","images/orange6.png","","","memory_trial","1","definitely_old",""
"html-keyboard-response","202","521276","0.0-18.0-0.79","4326","approach_avoid_sv1","
","
","
","
","
","","","","","","null","<div style=""font-size:60px;"">+</div>","null","","fixation","","",""
"memory-trial","203","523351","0.0-18.0-1.79","4326","approach_avoid_sv1","
","
","
","
","
","","","","","","1067.4000000953674","images/orange1.png","","","memory_trial","1","definitely_old",""
"html-keyboard-response","204","523854","0.0-18.0-0.80","4326","approach_avoid_sv1","
","
","
","
","
","","","","","","null","<div style=""font-size:60px;"">+</div>","null","","fixation","","",""
"memory-trial","205","525598","0.0-18.0-1.80","4326","approach_avoid_sv1","
","
","
","
","
","","","","","","736.5","images/train3.png","","","memory_trial","1","definitely_old",""
"html-keyboard-response","206","526103","0.0-18.0-0.81","4326","approach_avoid_sv1","
","
","
","
","
","","","","","","null","<div style=""font-size:60px;"">+</div>","null","","fixation","","",""
"memory-trial","207","529395","0.0-18.0-1.81","4326","approach_avoid_sv1","
","
","
","
","
","","","","","","2287.2999999523163","images/chair1.png","","","memory_trial","3","maybe_new",""
"html-keyboard-response","208","529900","0.0-18.0-0.82","4326","approach_avoid_sv1","
","
","
","
","
","","","","","","null","<div style=""font-size:60px;"">+</div>","null","","fixation","","",""
"memory-trial","209","534238","0.0-18.0-1.82","4326","approach_avoid_sv1","
","
","
","
","
","","","","","","3332.5","images/horse5.png","","","memory_trial","3","maybe_new",""
"html-keyboard-response","210","534743","0.0-18.0-0.83","4326","approach_avoid_sv1","
","
","
","
","
","","","","","","null","<div style=""font-size:60px;"">+</div>","null","","fixation","","",""
"memory-trial","211","539593","0.0-18.0-1.83","4326","approach_avoid_sv1","
","
","
","
","
","","","","","","3843.2000000476837","images/boat2.png","","","memory_trial","4","definitely_new",""
"html-keyboard-response","212","540098","0.0-18.0-0.84","4326","approach_avoid_sv1","
","
","
","
","
","","","","","","null","<div style=""font-size:60px;"">+</div>","null","","fixation","","",""
"memory-trial","213","542308","0.0-18.0-1.84","4326","approach_avoid_sv1","
","
","
","
","
","","","","","","1201.7000000476837","images/train1.png","","","memory_trial","1","definitely_old",""
"html-keyboard-response","214","542812","0.0-18.0-0.85","4326","approach_avoid_sv1","
","
","
","
","
","","","","","","null","<div style=""font-size:60px;"">+</div>","null","","fixation","","",""
"memory-trial","215","546302","0.0-18.0-1.85","4326","approach_avoid_sv1","
","
","
","
","
","","","","","","2482.5","images/tree8.png","","","memory_trial","1","definitely_old",""
"html-keyboard-response","216","546807","0.0-18.0-0.86","4326","approach_avoid_sv1","
","
","
","
","
","","","","","","null","<div style=""font-size:60px;"">+</div>","null","","fixation","","",""
"memory-trial","217","550578","0.0-18.0-1.86","4326","approach_avoid_sv1","
","
","
","
","
","","","","","","2762.600000143051","images/cactus8.png","","","memory_trial","2","maybe_old",""
"html-keyboard-response","218","551081","0.0-18.0-0.87","4326","approach_avoid_sv1","
","
","
","
","
","","","","","","null","<div style=""font-size:60px;"">+</div>","null","","fixation","","",""
"memory-trial","219","553123","0.0-18.0-1.87","4326","approach_avoid_sv1","
","
","
","
","
","","","","","","1035","images/cat1.png","","","memory_trial","4","definitely_new",""
"html-keyboard-response","220","553628","0.0-18.0-0.88","4326","approach_avoid_sv1","
","
","
","
","
","","","","","","null","<div style=""font-size:60px;"">+</div>","null","","fixation","","",""
"memory-trial","221","556089","0.0-18.0-1.88","4326","approach_avoid_sv1","
","
","
","
","
","","","","","","1451.7000000476837","images/boat4.png","","","memory_trial","4","definitely_new",""
"html-keyboard-response","222","556594","0.0-18.0-0.89","4326","approach_avoid_sv1","
","
","
","
","
","","","","","","null","<div style=""font-size:60px;"">+</div>","null","","fixation","","",""
"memory-trial","223","559180","0.0-18.0-1.89","4326","approach_avoid_sv1","
","
","
","
","
","","","","","","1579.5","images/flower6.png","","","memory_trial","4","definitely_new",""
"html-keyboard-response","224","559683","0.0-18.0-0.90","4326","approach_avoid_sv1","
","
","
","
","
","","","","","","null","<div style=""font-size:60px;"">+</div>","null","","fixation","","",""
"memory-trial","225","561820","0.0-18.0-1.90","4326","approach_avoid_sv1","
","
","
","
","
","","","","","","1131.0999999046326","images/sofa3.png","","","memory_trial","1","definitely_old",""
"html-keyboard-response","226","562323","0.0-18.0-0.91","4326","approach_avoid_sv1","
","
","
","
","
","","","","","","null","<div style=""font-size:60px;"">+</div>","null","","fixation","","",""
"memory-trial","227","566772","0.0-18.0-1.91","4326","approach_avoid_sv1","
","
","
","
","
","","","","","","3440.7999999523163","images/cat2.png","","","memory_trial","4","definitely_new",""
"html-button-response","228","568906","0.0-18.0-2.91-0.91","4326","approach_avoid_sv1","
","
","
","
","
","","","","","","2132.5","<p> Take a break! </p><p> Click the button to continue. </p>","0","","break","","",""
"html-keyboard-response","229","569410","0.0-18.0-0.92","4326","approach_avoid_sv1","
","
","
","
","
","","","","","","null","<div style=""font-size:60px;"">+</div>","null","","fixation","","",""
"memory-trial","230","572302","0.0-18.0-1.92","4326","approach_avoid_sv1","
","
","
","
","
","","","","","","1885.2999999523163","images/apple3.png","","","memory_trial","3","maybe_new",""
"html-keyboard-response","231","572807","0.0-18.0-0.93","4326","approach_avoid_sv1","
","
","
","
","
","","","","","","null","<div style=""font-size:60px;"">+</div>","null","","fixation","","",""
"memory-trial","232","576468","0.0-18.0-1.93","4326","approach_avoid_sv1","
","
","
","
","
","","","","","","2655.5","images/cow2.png","","","memory_trial","3","maybe_new",""
"html-keyboard-response","233","576972","0.0-18.0-0.94","4326","approach_avoid_sv1","
","
","
","
","
","","","","","","null","<div style=""font-size:60px;"">+</div>","null","","fixation","","",""
"memory-trial","234","580244","0.0-18.0-1.94","4326","approach_avoid_sv1","
","
","
","
","
","","","","","","2262.9000000953674","images/train7.png","","","memory_trial","2","maybe_old",""
"html-keyboard-response","235","580748","0.0-18.0-0.95","4326","approach_avoid_sv1","
","
","
","
","
","","","","","","null","<div style=""font-size:60px;"">+</div>","null","","fixation","","",""
"memory-trial","236","587417","0.0-18.0-1.95","4326","approach_avoid_sv1","
","
","
","
","
","","","","","","5661.299999952316","images/cow8.png","","","memory_trial","3","maybe_new",""
"html-keyboard-response","237","587922","0.0-18.0-0.96","4326","approach_avoid_sv1","
","
","
","
","
","","","","","","null","<div style=""font-size:60px;"">+</div>","null","","fixation","","",""
"memory-trial","238","592990","0.0-18.0-1.96","4326","approach_avoid_sv1","
","
","
","
","
","","","","","","4061","images/cow3.png","","","memory_trial","3","maybe_new",""
"html-keyboard-response","239","593495","0.0-18.0-0.97","4326","approach_avoid_sv1","
","
","
","
","
","","","","","","null","<div style=""font-size:60px;"">+</div>","null","","fixation","","",""
"memory-trial","240","597001","0.0-18.0-1.97","4326","approach_avoid_sv1","
","
","
","
","
","","","","","","2498.399999856949","images/tree2.png","","","memory_trial","1","definitely_old",""
"html-keyboard-response","241","597505","0.0-18.0-0.98","4326","approach_avoid_sv1","
","
","
","
","
","","","","","","null","<div style=""font-size:60px;"">+</div>","null","","fixation","","",""
"memory-trial","242","599390","0.0-18.0-1.98","4326","approach_avoid_sv1","
","
","
","
","
","","","","","","878.2000000476837","images/rabbit4.png","","","memory_trial","1","definitely_old",""
"html-keyboard-response","243","599895","0.0-18.0-0.99","4326","approach_avoid_sv1","
","
","
","
","
","","","","","","null","<div style=""font-size:60px;"">+</div>","null","","fixation","","",""
"memory-trial","244","602324","0.0-18.0-1.99","4326","approach_avoid_sv1","
","
","
","
","
","","","","","","1423.6000001430511","images/goat8.png","","","memory_trial","1","definitely_old",""
"html-keyboard-response","245","602828","0.0-18.0-0.100","4326","approach_avoid_sv1","
","
","
","
","
","","","","","","null","<div style=""font-size:60px;"">+</div>","null","","fixation","","",""
"memory-trial","246","605369","0.0-18.0-1.100","4326","approach_avoid_sv1","
","
","
","
","
","","","","","","1535.2999999523163","images/sofa6.png","","","memory_trial","1","definitely_old",""
"html-keyboard-response","247","605874","0.0-18.0-0.101","4326","approach_avoid_sv1","
","
","
","
","
","","","","","","null","<div style=""font-size:60px;"">+</div>","null","","fixation","","",""
"memory-trial","248","607705","0.0-18.0-1.101","4326","approach_avoid_sv1","
","
","
","
","
","","","","","","826.3999998569489","images/rabbit7.png","","","memory_trial","1","definitely_old",""
"html-keyboard-response","249","608210","0.0-18.0-0.102","4326","approach_avoid_sv1","
","
","
","
","
","","","","","","null","<div style=""font-size:60px;"">+</div>","null","","fixation","","",""
"memory-trial","250","611049","0.0-18.0-1.102","4326","approach_avoid_sv1","
","
","
","
","
","","","","","","1832","images/plane8.png","","","memory_trial","1","definitely_old",""
"html-keyboard-response","251","611554","0.0-18.0-0.103","4326","approach_avoid_sv1","
","
","
","
","
","","","","","","null","<div style=""font-size:60px;"">+</div>","null","","fixation","","",""
"memory-trial","252","614567","0.0-18.0-1.103","4326","approach_avoid_sv1","
","
","
","
","
","","","","","","2006.5999999046326","images/straw2.png","","","memory_trial","2","maybe_old",""
"html-keyboard-response","253","615070","0.0-18.0-0.104","4326","approach_avoid_sv1","
","
","
","
","
","","","","","","null","<div style=""font-size:60px;"">+</div>","null","","fixation","","",""
"memory-trial","254","618365","0.0-18.0-1.104","4326","approach_avoid_sv1","
","
","
","
","
","","","","","","2286.100000143051","images/orange8.png","","","memory_trial","2","maybe_old",""
"html-keyboard-response","255","618868","0.0-18.0-0.105","4326","approach_avoid_sv1","
","
","
","
","
","","","","","","null","<div style=""font-size:60px;"">+</div>","null","","fixation","","",""
"memory-trial","256","623097","0.0-18.0-1.105","4326","approach_avoid_sv1","
","
","
","
","
","","","","","","3221.2999999523163","images/cactus1.png","","","memory_trial","3","maybe_new",""
"html-keyboard-response","257","623602","0.0-18.0-0.106","4326","approach_avoid_sv1","
","
","
","
","
","","","","","","null","<div style=""font-size:60px;"">+</div>","null","","fixation","","",""
"memory-trial","258","628589","0.0-18.0-1.106","4326","approach_avoid_sv1","
","
","
","
","
","","","","","","3978.600000143051","images/plane1.png","","","memory_trial","2","maybe_old",""
"html-keyboard-response","259","629092","0.0-18.0-0.107","4326","approach_avoid_sv1","
","
","
","
","
","","","","","","null","<div style=""font-size:60px;"">+</div>","null","","fixation","","",""
"memory-trial","260","631716","0.0-18.0-1.107","4326","approach_avoid_sv1","
","
","
","
","
","","","","","","1617.4000000953674","images/rabbit1.png","","","memory_trial","2","maybe_old",""
"html-keyboard-response","261","632220","0.0-18.0-0.108","4326","approach_avoid_sv1","
","
","
","
","
","","","","","","null","<div style=""font-size:60px;"">+</div>","null","","fixation","","",""
"memory-trial","262","636850","0.0-18.0-1.108","4326","approach_avoid_sv1","
","
","
","
","
","","","","","","3621.2000000476837","images/cow4.png","","","memory_trial","2","maybe_old",""
"html-keyboard-response","263","637353","0.0-18.0-0.109","4326","approach_avoid_sv1","
","
","
","
","
","","","","","","null","<div style=""font-size:60px;"">+</div>","null","","fixation","","",""
"memory-trial","264","639495","0.0-18.0-1.109","4326","approach_avoid_sv1","
","
","
","
","
","","","","","","1134.4000000953674","images/horse4.png","","","memory_trial","1","definitely_old",""
"html-keyboard-response","265","639998","0.0-18.0-0.110","4326","approach_avoid_sv1","
","
","
","
","
","","","","","","null","<div style=""font-size:60px;"">+</div>","null","","fixation","","",""
"memory-trial","266","643204","0.0-18.0-1.110","4326","approach_avoid_sv1","
","
","
","
","
","","","","","","2200.5999999046326","images/straw4.png","","","memory_trial","3","maybe_new",""
"html-keyboard-response","267","643709","0.0-18.0-0.111","4326","approach_avoid_sv1","
","
","
","
","
","","","","","","null","<div style=""font-size:60px;"">+</div>","null","","fixation","","",""
"memory-trial","268","646164","0.0-18.0-1.111","4326","approach_avoid_sv1","
","
","
","
","
","","","","","","1447.6999998092651","images/train4.png","","","memory_trial","1","definitely_old",""
"html-keyboard-response","269","646668","0.0-18.0-0.112","4326","approach_avoid_sv1","
","
","
","
","
","","","","","","null","<div style=""font-size:60px;"">+</div>","null","","fixation","","",""
"memory-trial","270","653821","0.0-18.0-1.112","4326","approach_avoid_sv1","
","
","
","
","
","","","","","","6144.5","images/flower4.png","","","memory_trial","3","maybe_new",""
"html-keyboard-response","271","654324","0.0-18.0-0.113","4326","approach_avoid_sv1","
","
","
","
","
","","","","","","null","<div style=""font-size:60px;"">+</div>","null","","fixation","","",""
"memory-trial","272","657351","0.0-18.0-1.113","4326","approach_avoid_sv1","
","
","
","
","
","","","","","","2019.5","images/dog8.png","","","memory_trial","4","definitely_new",""
"html-keyboard-response","273","657854","0.0-18.0-0.114","4326","approach_avoid_sv1","
","
","
","
","
","","","","","","null","<div style=""font-size:60px;"">+</div>","null","","fixation","","",""
"memory-trial","274","660999","0.0-18.0-1.114","4326","approach_avoid_sv1","
","
","
","
","
","","","","","","2137.7999999523163","images/sheep6.png","","","memory_trial","2","maybe_old",""
"html-keyboard-response","275","661502","0.0-18.0-0.115","4326","approach_avoid_sv1","
","
","
","
","
","","","","","","null","<div style=""font-size:60px;"">+</div>","null","","fixation","","",""
"memory-trial","276","666189","0.0-18.0-1.115","4326","approach_avoid_sv1","
","
","
","
","
","","","","","","3678.0999999046326","images/banana1.png","","","memory_trial","3","maybe_new",""
"html-keyboard-response","277","666695","0.0-18.0-0.116","4326","approach_avoid_sv1","
","
","
","
","
","","","","","","null","<div style=""font-size:60px;"">+</div>","null","","fixation","","",""
"memory-trial","278","668708","0.0-18.0-1.116","4326","approach_avoid_sv1","
","
","
","
","
","","","","","","1004.8999998569489","images/bed6.png","","","memory_trial","1","definitely_old",""
"html-keyboard-response","279","669210","0.0-18.0-0.117","4326","approach_avoid_sv1","
","
","
","
","
","","","","","","null","<div style=""font-size:60px;"">+</div>","null","","fixation","","",""
"memory-trial","280","671906","0.0-18.0-1.117","4326","approach_avoid_sv1","
","
","
","
","
","","","","","","1689.5999999046326","images/boat5.png","","","memory_trial","4","definitely_new",""
"html-keyboard-response","281","672409","0.0-18.0-0.118","4326","approach_avoid_sv1","
","
","
","
","
","","","","","","null","<div style=""font-size:60px;"">+</div>","null","","fixation","","",""
"memory-trial","282","675961","0.0-18.0-1.118","4326","approach_avoid_sv1","
","
","
","
","
","","","","","","2545","images/cactus3.png","","","memory_trial","3","maybe_new",""
"html-keyboard-response","283","676466","0.0-18.0-0.119","4326","approach_avoid_sv1","
","
","
","
","
","","","","","","null","<div style=""font-size:60px;"">+</div>","null","","fixation","","",""
"memory-trial","284","681097","0.0-18.0-1.119","4326","approach_avoid_sv1","
","
","
","
","
","","","","","","3623","images/orange4.png","","","memory_trial","2","maybe_old",""
"html-keyboard-response","285","681602","0.0-18.0-0.120","4326","approach_avoid_sv1","
","
","
","
","
","","","","","","null","<div style=""font-size:60px;"">+</div>","null","","fixation","","",""
"memory-trial","286","683609","0.0-18.0-1.120","4326","approach_avoid_sv1","
","
","
","
","
","","","","","","1001.7000000476837","images/rodent3.png","","","memory_trial","1","definitely_old",""
"html-keyboard-response","287","684110","0.0-18.0-0.121","4326","approach_avoid_sv1","
","
","
","
","
","","","","","","null","<div style=""font-size:60px;"">+</div>","null","","fixation","","",""
"memory-trial","288","687426","0.0-18.0-1.121","4326","approach_avoid_sv1","
","
","
","
","
","","","","","","2308.0999999046326","images/flower7.png","","","memory_trial","4","definitely_new",""
"html-keyboard-response","289","687930","0.0-18.0-0.122","4326","approach_avoid_sv1","
","
","
","
","
","","","","","","null","<div style=""font-size:60px;"">+</div>","null","","fixation","","",""
"memory-trial","290","690567","0.0-18.0-1.122","4326","approach_avoid_sv1","
","
","
","
","
","","","","","","1630.1000001430511","images/table8.png","","","memory_trial","4","definitely_new",""
"html-keyboard-response","291","691070","0.0-18.0-0.123","4326","approach_avoid_sv1","
","
","
","
","
","","","","","","null","<div style=""font-size:60px;"">+</div>","null","","fixation","","",""
"memory-trial","292","693209","0.0-18.0-1.123","4326","approach_avoid_sv1","
","
","
","
","
","","","","","","1133.6000001430511","images/tree1.png","","","memory_trial","1","definitely_old",""
"html-keyboard-response","293","693714","0.0-18.0-0.124","4326","approach_avoid_sv1","
","
","
","
","
","","","","","","null","<div style=""font-size:60px;"">+</div>","null","","fixation","","",""
"memory-trial","294","695630","0.0-18.0-1.124","4326","approach_avoid_sv1","
","
","
","
","
","","","","","","911.2000000476837","images/banana2.png","","","memory_trial","1","definitely_old",""
"html-keyboard-response","295","696135","0.0-18.0-0.125","4326","approach_avoid_sv1","
","
","
","
","
","","","","","","null","<div style=""font-size:60px;"">+</div>","null","","fixation","","",""
"memory-trial","296","699081","0.0-18.0-1.125","4326","approach_avoid_sv1","
","
","
","
","
","","","","","","1940.3000001907349","images/sofa1.png","","","memory_trial","3","maybe_new",""
"html-keyboard-response","297","699586","0.0-18.0-0.126","4326","approach_avoid_sv1","
","
","
","
","
","","","","","","null","<div style=""font-size:60px;"">+</div>","null","","fixation","","",""
"memory-trial","298","703892","0.0-18.0-1.126","4326","approach_avoid_sv1","
","
","
","
","
","","","","","","3300.600000143051","images/tree6.png","","","memory_trial","3","maybe_new",""
"html-keyboard-response","299","704397","0.0-18.0-0.127","4326","approach_avoid_sv1","
","
","
","
","
","","","","","","null","<div style=""font-size:60px;"">+</div>","null","","fixation","","",""
"memory-trial","300","709418","0.0-18.0-1.127","4326","approach_avoid_sv1","
","
","
","
","
","","","","","","4013.2000000476837","images/truck8.png","","","memory_trial","2","maybe_old",""
"html-keyboard-response","301","709924","0.0-18.0-0.128","4326","approach_avoid_sv1","
","
","
","
","
","","","","","","null","<div style=""font-size:60px;"">+</div>","null","","fixation","","",""
"memory-trial","302","712409","0.0-18.0-1.128","4326","approach_avoid_sv1","
","
","
","
","
","","","","","","1480","images/goat3.png","","","memory_trial","1","definitely_old",""
"html-keyboard-response","303","712914","0.0-18.0-0.129","4326","approach_avoid_sv1","
","
","
","
","
","","","","","","null","<div style=""font-size:60px;"">+</div>","null","","fixation","","",""
"memory-trial","304","716830","0.0-18.0-1.129","4326","approach_avoid_sv1","
","
","
","
","
","","","","","","2908.2000000476837","images/apple6.png","","","memory_trial","3","maybe_new",""
"html-keyboard-response","305","717335","0.0-18.0-0.130","4326","approach_avoid_sv1","
","
","
","
","
","","","","","","null","<div style=""font-size:60px;"">+</div>","null","","fixation","","",""
"memory-trial","306","720158","0.0-18.0-1.130","4326","approach_avoid_sv1","
","
","
","
","
","","","","","","1818.0999999046326","images/orange2.png","","","memory_trial","1","definitely_old",""
"html-keyboard-response","307","720663","0.0-18.0-0.131","4326","approach_avoid_sv1","
","
","
","
","
","","","","","","null","<div style=""font-size:60px;"">+</div>","null","","fixation","","",""
"memory-trial","308","723753","0.0-18.0-1.131","4326","approach_avoid_sv1","
","
","
","
","
","","","","","","2084.7999999523163","images/rodent4.png","","","memory_trial","1","definitely_old",""
"html-keyboard-response","309","724258","0.0-18.0-0.132","4326","approach_avoid_sv1","
","
","
","
","
","","","","","","null","<div style=""font-size:60px;"">+</div>","null","","fixation","","",""
"memory-trial","310","728585","0.0-18.0-1.132","4326","approach_avoid_sv1","
","
","
","
","
","","","","","","3321.7999999523163","images/sheep5.png","","","memory_trial","3","maybe_new",""
"html-keyboard-response","311","729090","0.0-18.0-0.133","4326","approach_avoid_sv1","
","
","
","
","
","","","","","","null","<div style=""font-size:60px;"">+</div>","null","","fixation","","",""
"memory-trial","312","732861","0.0-18.0-1.133","4326","approach_avoid_sv1","
","
","
","
","
","","","","","","2763.9000000953674","images/cow1.png","","","memory_trial","4","definitely_new",""
"html-keyboard-response","313","733364","0.0-18.0-0.134","4326","approach_avoid_sv1","
","
","
","
","
","","","","","","null","<div style=""font-size:60px;"">+</div>","null","","fixation","","",""
"memory-trial","314","737364","0.0-18.0-1.134","4326","approach_avoid_sv1","
","
","
","
","
","","","","","","2993.0999999046326","images/plane3.png","","","memory_trial","2","maybe_old",""
"html-keyboard-response","315","737869","0.0-18.0-0.135","4326","approach_avoid_sv1","
","
","
","
","
","","","","","","null","<div style=""font-size:60px;"">+</div>","null","","fixation","","",""
"memory-trial","316","744239","0.0-18.0-1.135","4326","approach_avoid_sv1","
","
","
","
","
","","","","","","5365.200000047684","images/table5.png","","","memory_trial","3","maybe_new",""
"html-keyboard-response","317","744743","0.0-18.0-0.136","4326","approach_avoid_sv1","
","
","
","
","
","","","","","","null","<div style=""font-size:60px;"">+</div>","null","","fixation","","",""
"memory-trial","318","749337","0.0-18.0-1.136","4326","approach_avoid_sv1","
","
","
","
","
","","","","","","3585.2999999523163","images/truck5.png","","","memory_trial","4","definitely_new",""
"html-keyboard-response","319","749842","0.0-18.0-0.137","4326","approach_avoid_sv1","
","
","
","
","
","","","","","","null","<div style=""font-size:60px;"">+</div>","null","","fixation","","",""
"memory-trial","320","755172","0.0-18.0-1.137","4326","approach_avoid_sv1","
","
","
","
","
","","","","","","4323.400000095367","images/horse2.png","","","memory_trial","3","maybe_new",""
"html-keyboard-response","321","755677","0.0-18.0-0.138","4326","approach_avoid_sv1","
","
","
","
","
","","","","","","null","<div style=""font-size:60px;"">+</div>","null","","fixation","","",""
"memory-trial","322","757951","0.0-18.0-1.138","4326","approach_avoid_sv1","
","
","
","
","
","","","","","","1266.2000000476837","images/rodent1.png","","","memory_trial","1","definitely_old",""
"html-keyboard-response","323","758456","0.0-18.0-0.139","4326","approach_avoid_sv1","
","
","
","
","
","","","","","","null","<div style=""font-size:60px;"">+</div>","null","","fixation","","",""
"memory-trial","324","760546","0.0-18.0-1.139","4326","approach_avoid_sv1","
","
","
","
","
","","","","","","1083","images/sheep4.png","","","memory_trial","1","definitely_old",""
"html-keyboard-response","325","761049","0.0-18.0-0.140","4326","approach_avoid_sv1","
","
","
","
","
","","","","","","null","<div style=""font-size:60px;"">+</div>","null","","fixation","","",""
"memory-trial","326","765220","0.0-18.0-1.140","4326","approach_avoid_sv1","
","
","
","
","
","","","","","","3166.300000190735","images/bush4.png","","","memory_trial","3","maybe_new",""
"html-keyboard-response","327","765725","0.0-18.0-0.141","4326","approach_avoid_sv1","
","
","
","
","
","","","","","","null","<div style=""font-size:60px;"">+</div>","null","","fixation","","",""
"memory-trial","328","770959","0.0-18.0-1.141","4326","approach_avoid_sv1","
","
","
","
","
","","","","","","4226","images/bush1.png","","","memory_trial","2","maybe_old",""
"html-button-response","329","773290","0.0-18.0-2.141-0.141","4326","approach_avoid_sv1","
","
","
","
","
","","","","","","2329.2999999523163","<p> Take a break! </p><p> Click the button to continue. </p>","0","","break","","",""
"html-keyboard-response","330","773792","0.0-18.0-0.142","4326","approach_avoid_sv1","
","
","
","
","
","","","","","","null","<div style=""font-size:60px;"">+</div>","null","","fixation","","",""
"memory-trial","331","776601","0.0-18.0-1.142","4326","approach_avoid_sv1","
","
","
","
","
","","","","","","1804.1000001430511","images/flower5.png","","","memory_trial","2","maybe_old",""
"html-keyboard-response","332","777106","0.0-18.0-0.143","4326","approach_avoid_sv1","
","
","
","
","
","","","","","","null","<div style=""font-size:60px;"">+</div>","null","","fixation","","",""
"memory-trial","333","780148","0.0-18.0-1.143","4326","approach_avoid_sv1","
","
","
","
","
","","","","","","2034","images/bush8.png","","","memory_trial","3","maybe_new",""
"html-keyboard-response","334","780653","0.0-18.0-0.144","4326","approach_avoid_sv1","
","
","
","
","
","","","","","","null","<div style=""font-size:60px;"">+</div>","null","","fixation","","",""
"memory-trial","335","784521","0.0-18.0-1.144","4326","approach_avoid_sv1","
","
","
","
","
","","","","","","2863","images/sofa2.png","","","memory_trial","3","maybe_new",""
"html-keyboard-response","336","785026","0.0-18.0-0.145","4326","approach_avoid_sv1","
","
","
","
","
","","","","","","null","<div style=""font-size:60px;"">+</div>","null","","fixation","","",""
"memory-trial","337","787284","0.0-18.0-1.145","4326","approach_avoid_sv1","
","
","
","
","
","","","","","","1250.5","images/cat5.png","","","memory_trial","4","definitely_new",""
"html-keyboard-response","338","787789","0.0-18.0-0.146","4326","approach_avoid_sv1","
","
","
","
","
","","","","","","null","<div style=""font-size:60px;"">+</div>","null","","fixation","","",""
"memory-trial","339","793581","0.0-18.0-1.146","4326","approach_avoid_sv1","
","
","
","
","
","","","","","","4785.700000047684","images/cactus5.png","","","memory_trial","3","maybe_new",""
"html-keyboard-response","340","794084","0.0-18.0-0.147","4326","approach_avoid_sv1","
","
","
","
","
","","","","","","null","<div style=""font-size:60px;"">+</div>","null","","fixation","","",""
"memory-trial","341","797588","0.0-18.0-1.147","4326","approach_avoid_sv1","
","
","
","
","
","","","","","","2497.7999999523163","images/tree7.png","","","memory_trial","2","maybe_old",""
"html-keyboard-response","342","798093","0.0-18.0-0.148","4326","approach_avoid_sv1","
","
","
","
","
","","","","","","null","<div style=""font-size:60px;"">+</div>","null","","fixation","","",""
"memory-trial","343","801673","0.0-18.0-1.148","4326","approach_avoid_sv1","
","
","
","
","
","","","","","","2572.300000190735","images/dog4.png","","","memory_trial","3","maybe_new",""
"html-keyboard-response","344","802178","0.0-18.0-0.149","4326","approach_avoid_sv1","
","
","
","
","
","","","","","","null","<div style=""font-size:60px;"">+</div>","null","","fixation","","",""
"memory-trial","345","805252","0.0-18.0-1.149","4326","approach_avoid_sv1","
","
","
","
","
","","","","","","2066.0999999046326","images/straw3.png","","","memory_trial","4","definitely_new",""
"html-keyboard-response","346","805757","0.0-18.0-0.150","4326","approach_avoid_sv1","
","
","
","
","
","","","","","","null","<div style=""font-size:60px;"">+</div>","null","","fixation","","",""
"memory-trial","347","811869","0.0-18.0-1.150","4326","approach_avoid_sv1","
","
","
","
","
","","","","","","5106.200000047684","images/boat3.png","","","memory_trial","2","maybe_old",""
"html-keyboard-response","348","812372","0.0-18.0-0.151","4326","approach_avoid_sv1","
","
","
","
","
","","","","","","null","<div style=""font-size:60px;"">+</div>","null","","fixation","","",""
"memory-trial","349","815759","0.0-18.0-1.151","4326","approach_avoid_sv1","
","
","
","
","
","","","","","","2378.9000000953674","images/goat5.png","","","memory_trial","4","definitely_new",""
"html-keyboard-response","350","816263","0.0-18.0-0.152","4326","approach_avoid_sv1","
","
","
","
","
","","","","","","null","<div style=""font-size:60px;"">+</div>","null","","fixation","","",""
"memory-trial","351","820029","0.0-18.0-1.152","4326","approach_avoid_sv1","
","
","
","
","
","","","","","","2758.4000000953674","images/table7.png","","","memory_trial","2","maybe_old",""
"html-keyboard-response","352","820532","0.0-18.0-0.153","4326","approach_avoid_sv1","
","
","
","
","
","","","","","","null","<div style=""font-size:60px;"">+</div>","null","","fixation","","",""
"memory-trial","353","824367","0.0-18.0-1.153","4326","approach_avoid_sv1","
","
","
","
","
","","","","","","2829.5999999046326","images/flower2.png","","","memory_trial","3","maybe_new",""
"html-keyboard-response","354","824871","0.0-18.0-0.154","4326","approach_avoid_sv1","
","
","
","
","
","","","","","","null","<div style=""font-size:60px;"">+</div>","null","","fixation","","",""
"memory-trial","355","828025","0.0-18.0-1.154","4326","approach_avoid_sv1","
","
","
","
","
","","","","","","2146.399999856949","images/cow7.png","","","memory_trial","3","maybe_new",""
"html-keyboard-response","356","828530","0.0-18.0-0.155","4326","approach_avoid_sv1","
","
","
","
","
","","","","","","null","<div style=""font-size:60px;"">+</div>","null","","fixation","","",""
"memory-trial","357","832772","0.0-18.0-1.155","4326","approach_avoid_sv1","
","
","
","
","
","","","","","","3234.699999809265","images/plane6.png","","","memory_trial","4","definitely_new",""
"html-keyboard-response","358","833277","0.0-18.0-0.156","4326","approach_avoid_sv1","
","
","
","
","
","","","","","","null","<div style=""font-size:60px;"">+</div>","null","","fixation","","",""
"memory-trial","359","835298","0.0-18.0-1.156","4326","approach_avoid_sv1","
","
","
","
","
","","","","","","1013.1000001430511","images/chair3.png","","","memory_trial","4","definitely_new",""
"html-keyboard-response","360","835801","0.0-18.0-0.157","4326","approach_avoid_sv1","
","
","
","
","
","","","","","","null","<div style=""font-size:60px;"">+</div>","null","","fixation","","",""
"memory-trial","361","837887","0.0-18.0-1.157","4326","approach_avoid_sv1","
","
","
","
","
","","","","","","1080.8000001907349","images/sheep3.png","","","memory_trial","4","definitely_new",""
"html-keyboard-response","362","838391","0.0-18.0-0.158","4326","approach_avoid_sv1","
","
","
","
","
","","","","","","null","<div style=""font-size:60px;"">+</div>","null","","fixation","","",""
"memory-trial","363","842521","0.0-18.0-1.158","4326","approach_avoid_sv1","
","
","
","
","
","","","","","","3120.7000000476837","images/sheep2.png","","","memory_trial","4","definitely_new",""
"html-keyboard-response","364","843026","0.0-18.0-0.159","4326","approach_avoid_sv1","
","
","
","
","
","","","","","","null","<div style=""font-size:60px;"">+</div>","null","","fixation","","",""
"memory-trial","365","846754","0.0-18.0-1.159","4326","approach_avoid_sv1","
","
","
","
","
","","","","","","2720.199999809265","images/goat6.png","","","memory_trial","4","definitely_new",""
"html-keyboard-response","366","847257","0.0-18.0-0.160","4326","approach_avoid_sv1","
","
","
","
","
","","","","","","null","<div style=""font-size:60px;"">+</div>","null","","fixation","","",""
"memory-trial","367","850553","0.0-18.0-1.160","4326","approach_avoid_sv1","
","
","
","
","
","","","","","","2291","images/truck7.png","","","memory_trial","2","maybe_old",""
"html-keyboard-response","368","851058","0.0-18.0-0.161","4326","approach_avoid_sv1","
","
","
","
","
","","","","","","null","<div style=""font-size:60px;"">+</div>","null","","fixation","","",""
"memory-trial","369","855305","0.0-18.0-1.161","4326","approach_avoid_sv1","
","
","
","
","
","","","","","","3240.5999999046326","images/cactus4.png","","","memory_trial","3","maybe_new",""
"html-keyboard-response","370","855810","0.0-18.0-0.162","4326","approach_avoid_sv1","
","
","
","
","
","","","","","","null","<div style=""font-size:60px;"">+</div>","null","","fixation","","",""
"memory-trial","371","862173","0.0-18.0-1.162","4326","approach_avoid_sv1","
","
","
","
","
","","","","","","5354.799999952316","images/train5.png","","","memory_trial","2","maybe_old",""
"html-keyboard-response","372","862676","0.0-18.0-0.163","4326","approach_avoid_sv1","
","
","
","
","
","","","","","","null","<div style=""font-size:60px;"">+</div>","null","","fixation","","",""
"memory-trial","373","865353","0.0-18.0-1.163","4326","approach_avoid_sv1","
","
","
","
","
","","","","","","1668.7999999523163","images/apple1.png","","","memory_trial","3","maybe_new",""
"html-keyboard-response","374","865858","0.0-18.0-0.164","4326","approach_avoid_sv1","
","
","
","
","
","","","","","","null","<div style=""font-size:60px;"">+</div>","null","","fixation","","",""
"memory-trial","375","867780","0.0-18.0-1.164","4326","approach_avoid_sv1","
","
","
","
","
","","","","","","914.7999999523163","images/rabbit6.png","","","memory_trial","1","definitely_old",""
"html-keyboard-response","376","868285","0.0-18.0-0.165","4326","approach_avoid_sv1","
","
","
","
","
","","","","","","null","<div style=""font-size:60px;"">+</div>","null","","fixation","","",""
"memory-trial","377","870367","0.0-18.0-1.165","4326","approach_avoid_sv1","
","
","
","
","
","","","","","","1075.5","images/table3.png","","","memory_trial","1","definitely_old",""
"html-keyboard-response","378","870872","0.0-18.0-0.166","4326","approach_avoid_sv1","
","
","
","
","
","","","","","","null","<div style=""font-size:60px;"">+</div>","null","","fixation","","",""
"memory-trial","379","875684","0.0-18.0-1.166","4326","approach_avoid_sv1","
","
","
","
","
","","","","","","3807","images/rodent6.png","","","memory_trial","2","maybe_old",""
"html-keyboard-response","380","876189","0.0-18.0-0.167","4326","approach_avoid_sv1","
","
","
","
","
","","","","","","null","<div style=""font-size:60px;"">+</div>","null","","fixation","","",""
"memory-trial","381","878628","0.0-18.0-1.167","4326","approach_avoid_sv1","
","
","
","
","
","","","","","","1432.8999998569489","images/goat7.png","","","memory_trial","2","maybe_old",""
"html-keyboard-response","382","879133","0.0-18.0-0.168","4326","approach_avoid_sv1","
","
","
","
","
","","","","","","null","<div style=""font-size:60px;"">+</div>","null","","fixation","","",""
"memory-trial","383","881225","0.0-18.0-1.168","4326","approach_avoid_sv1","
","
","
","
","
","","","","","","1085.2999999523163","images/dog6.png","","","memory_trial","1","definitely_old",""
"html-keyboard-response","384","881730","0.0-18.0-0.169","4326","approach_avoid_sv1","
","
","
","
","
","","","","","","null","<div style=""font-size:60px;"">+</div>","null","","fixation","","",""
"memory-trial","385","885992","0.0-18.0-1.169","4326","approach_avoid_sv1","
","
","
","
","
","","","","","","3255.100000143051","images/flower3.png","","","memory_trial","2","maybe_old",""
"html-keyboard-response","386","886495","0.0-18.0-0.170","4326","approach_avoid_sv1","
","
","
","
","
","","","","","","null","<div style=""font-size:60px;"">+</div>","null","","fixation","","",""
"memory-trial","387","892255","0.0-18.0-1.170","4326","approach_avoid_sv1","
","
","
","
","
","","","","","","4756.899999856949","images/horse7.png","","","memory_trial","3","maybe_new",""
"html-keyboard-response","388","892761","0.0-18.0-0.171","4326","approach_avoid_sv1","
","
","
","
","
","","","","","","null","<div style=""font-size:60px;"">+</div>","null","","fixation","","",""
"memory-trial","389","895402","0.0-18.0-1.171","4326","approach_avoid_sv1","
","
","
","
","
","","","","","","1632.5","images/dog1.png","","","memory_trial","1","definitely_old",""
"html-keyboard-response","390","895906","0.0-18.0-0.172","4326","approach_avoid_sv1","
","
","
","
","
","","","","","","null","<div style=""font-size:60px;"">+</div>","null","","fixation","","",""
"memory-trial","391","898589","0.0-18.0-1.172","4326","approach_avoid_sv1","
","
","
","
","
","","","","","","1676.3999998569489","images/horse8.png","","","memory_trial","1","definitely_old",""
"html-keyboard-response","392","899092","0.0-18.0-0.173","4326","approach_avoid_sv1","
","
","
","
","
","","","","","","null","<div style=""font-size:60px;"">+</div>","null","","fixation","","",""
"memory-trial","393","905375","0.0-18.0-1.173","4326","approach_avoid_sv1","
","
","
","
","
","","","","","","5277.100000143051","images/table4.png","","","memory_trial","3","maybe_new",""
"html-keyboard-response","394","905880","0.0-18.0-0.174","4326","approach_avoid_sv1","
","
","
","
","
","","","","","","null","<div style=""font-size:60px;"">+</div>","null","","fixation","","",""
"memory-trial","395","909460","0.0-18.0-1.174","4326","approach_avoid_sv1","
","
","
","
","
","","","","","","2574.7999999523163","images/sofa7.png","","","memory_trial","4","definitely_new",""
"html-keyboard-response","396","909965","0.0-18.0-0.175","4326","approach_avoid_sv1","
","
","
","
","
","","","","","","null","<div style=""font-size:60px;"">+</div>","null","","fixation","","",""
"memory-trial","397","911842","0.0-18.0-1.175","4326","approach_avoid_sv1","
","
","
","
","
","","","","","","869.7000000476837","images/chair4.png","","","memory_trial","4","definitely_new",""
"html-keyboard-response","398","912345","0.0-18.0-0.176","4326","approach_avoid_sv1","
","
","
","
","
","","","","","","null","<div style=""font-size:60px;"">+</div>","null","","fixation","","",""
"memory-trial","399","915293","0.0-18.0-1.176","4326","approach_avoid_sv1","
","
","
","
","
","","","","","","1939.7000000476837","images/horse3.png","","","memory_trial","2","maybe_old",""
"html-keyboard-response","400","915796","0.0-18.0-0.177","4326","approach_avoid_sv1","
","
","
","
","
","","","","","","null","<div style=""font-size:60px;"">+</div>","null","","fixation","","",""
"memory-trial","401","918740","0.0-18.0-1.177","4326","approach_avoid_sv1","
","
","
","
","
","","","","","","1937.0999999046326","images/truck3.png","","","memory_trial","4","definitely_new",""
"html-keyboard-response","402","919245","0.0-18.0-0.178","4326","approach_avoid_sv1","
","
","
","
","
","","","","","","null","<div style=""font-size:60px;"">+</div>","null","","fixation","","",""
"memory-trial","403","922952","0.0-18.0-1.178","4326","approach_avoid_sv1","
","
","
","
","
","","","","","","2698.399999856949","images/truck4.png","","","memory_trial","4","definitely_new",""
"html-keyboard-response","404","923457","0.0-18.0-0.179","4326","approach_avoid_sv1","
","
","
","
","
","","","","","","null","<div style=""font-size:60px;"">+</div>","null","","fixation","","",""
"memory-trial","405","925679","0.0-18.0-1.179","4326","approach_avoid_sv1","
","
","
","
","
","","","","","","1213.7999999523163","images/banana7.png","","","memory_trial","1","definitely_old",""
"html-keyboard-response","406","926184","0.0-18.0-0.180","4326","approach_avoid_sv1","
","
","
","
","
","","","","","","null","<div style=""font-size:60px;"">+</div>","null","","fixation","","",""
"memory-trial","407","929944","0.0-18.0-1.180","4326","approach_avoid_sv1","
","
","
","
","
","","","","","","2754.2000000476837","images/orange5.png","","","memory_trial","3","maybe_new",""
"html-keyboard-response","408","930450","0.0-18.0-0.181","4326","approach_avoid_sv1","
","
","
","
","
","","","","","","null","<div style=""font-size:60px;"">+</div>","null","","fixation","","",""
"memory-trial","409","938200","0.0-18.0-1.181","4326","approach_avoid_sv1","
","
","
","
","
","","","","","","6742.599999904633","images/dog3.png","","","memory_trial","3","maybe_new",""
"html-keyboard-response","410","938703","0.0-18.0-0.182","4326","approach_avoid_sv1","
","
","
","
","
","","","","","","null","<div style=""font-size:60px;"">+</div>","null","","fixation","","",""
"memory-trial","411","943711","0.0-18.0-1.182","4326","approach_avoid_sv1","
","
","
","
","
","","","","","","4002.5","images/goat2.png","","","memory_trial","2","maybe_old",""
"html-keyboard-response","412","944216","0.0-18.0-0.183","4326","approach_avoid_sv1","
","
","
","
","
","","","","","","null","<div style=""font-size:60px;"">+</div>","null","","fixation","","",""
"memory-trial","413","948052","0.0-18.0-1.183","4326","approach_avoid_sv1","
","
","
","
","
","","","","","","2828.399999856949","images/chair6.png","","","memory_trial","1","definitely_old",""
"html-keyboard-response","414","948557","0.0-18.0-0.184","4326","approach_avoid_sv1","
","
","
","
","
","","","","","","null","<div style=""font-size:60px;"">+</div>","null","","fixation","","",""
"memory-trial","415","953928","0.0-18.0-1.184","4326","approach_avoid_sv1","
","
","
","
","
","","","","","","4363.599999904633","images/cat7.png","","","memory_trial","4","definitely_new",""
"html-keyboard-response","416","954431","0.0-18.0-0.185","4326","approach_avoid_sv1","
","
","
","
","
","","","","","","null","<div style=""font-size:60px;"">+</div>","null","","fixation","","",""
"memory-trial","417","959087","0.0-18.0-1.185","4326","approach_avoid_sv1","
","
","
","
","
","","","","","","3650.0999999046326","images/rodent2.png","","","memory_trial","1","definitely_old",""
"html-keyboard-response","418","959592","0.0-18.0-0.186","4326","approach_avoid_sv1","
","
","
","
","
","","","","","","null","<div style=""font-size:60px;"">+</div>","null","","fixation","","",""
"memory-trial","419","963097","0.0-18.0-1.186","4326","approach_avoid_sv1","
","
","
","
","
","","","","","","2500.2999999523163","images/table6.png","","","memory_trial","2","maybe_old",""
"html-keyboard-response","420","963602","0.0-18.0-0.187","4326","approach_avoid_sv1","
","
","
","
","
","","","","","","null","<div style=""font-size:60px;"">+</div>","null","","fixation","","",""
"memory-trial","421","969780","0.0-18.0-1.187","4326","approach_avoid_sv1","
","
","
","
","
","","","","","","5169.799999952316","images/plane7.png","","","memory_trial","2","maybe_old",""
"html-keyboard-response","422","970285","0.0-18.0-0.188","4326","approach_avoid_sv1","
","
","
","
","
","","","","","","null","<div style=""font-size:60px;"">+</div>","null","","fixation","","",""
"memory-trial","423","975951","0.0-18.0-1.188","4326","approach_avoid_sv1","
","
","
","
","
","","","","","","4658.700000047684","images/bush2.png","","","memory_trial","4","definitely_new",""
"html-keyboard-response","424","976457","0.0-18.0-0.189","4326","approach_avoid_sv1","
","
","
","
","
","","","","","","null","<div style=""font-size:60px;"">+</div>","null","","fixation","","",""
"memory-trial","425","982058","0.0-18.0-1.189","4326","approach_avoid_sv1","
","
","
","
","
","","","","","","4593.599999904633","images/apple5.png","","","memory_trial","3","maybe_new",""
"html-keyboard-response","426","982562","0.0-18.0-0.190","4326","approach_avoid_sv1","
","
","
","
","
","","","","","","null","<div style=""font-size:60px;"">+</div>","null","","fixation","","",""
"memory-trial","427","984674","0.0-18.0-1.190","4326","approach_avoid_sv1","
","
","
","
","
","","","","","","1103.2000000476837","images/sheep7.png","","","memory_trial","1","definitely_old",""
"html-keyboard-response","428","985180","0.0-18.0-0.191","4326","approach_avoid_sv1","
","
","
","
","
","","","","","","null","<div style=""font-size:60px;"">+</div>","null","","fixation","","",""
"memory-trial","429","993162","0.0-18.0-1.191","4326","approach_avoid_sv1","
","
","
","
","
","","","","","","6975","images/bed5.png","","","memory_trial","3","maybe_new",""
"html-button-response","430","995323","0.0-18.0-2.191-0.191","4326","approach_avoid_sv1","
","
","
","
","
","","","","","","2159.5999999046326","<p> Take a break! </p><p> Click the button to continue. </p>","0","","break","","",""
