"trial_type","trial_index","time_elapsed","internal_node_id","subject_id","task_version","interactions","blur_events","focus_events","fullscreenenter_events","fullscreenexit_events","success","timeout","failed_images","failed_audio","failed_video","rt","stimulus","response","button_pressed","task_part","key_press","answer","correct"
"pavlovia","0","4","0.0-0.0","4661","approach_avoid_sv1","""event"",""trial"",""time""
""fullscreenenter"",""1"",""1975""
","
","
","""event"",""trial"",""time""
""fullscreenenter"",""1"",""1975""
","
","","","","","","","","","","","","",""
"fullscreen","1","2927","0.0-1.0","4661","approach_avoid_sv1","""event"",""trial"",""time""
""fullscreenenter"",""1"",""1975""
","
","
","""event"",""trial"",""time""
""fullscreenenter"",""1"",""1975""
","
","true","","","","","","","","","","","",""
"preload","2","4090","0.0-2.0","4661","approach_avoid_sv1","""event"",""trial"",""time""
""fullscreenenter"",""1"",""1975""
","
","
","""event"",""trial"",""time""
""fullscreenenter"",""1"",""1975""
","
","true","false","[]","[]","[]","","","","","","","",""
"preload","3","4599","0.0-3.0","4661","approach_avoid_sv1","""event"",""trial"",""time""
""fullscreenenter"",""1"",""1975""
","
","
","""event"",""trial"",""time""
""fullscreenenter"",""1"",""1975""
","
","true","false","[]","[]","[]","","","","","","","",""
"preload","4","5038","0.0-4.0","4661","approach_avoid_sv1","""event"",""trial"",""time""
""fullscreenenter"",""1"",""1975""
","
","
","""event"",""trial"",""time""
""fullscreenenter"",""1"",""1975""
","
","true","false","[]","[]","[]","","","","","","","",""
"audio-keyboard-response","5","7997","0.0-5.0","4661","approach_avoid_sv1","""event"",""trial"",""time""
""fullscreenenter"",""1"",""1975""
","
","
","""event"",""trial"",""time""
""fullscreenenter"",""1"",""1975""
","
","","","","","","0","audio/beep_loop.wav"," ","","","","",""
"audio-button-response","6","11145","0.0-6.0","4661","approach_avoid_sv1","""event"",""trial"",""time""
""fullscreenenter"",""1"",""1975""
","
","
","""event"",""trial"",""time""
""fullscreenenter"",""1"",""1975""
","
","","","","","","3008","audio/turtle.wav","3","","","","",""
"audio-button-response","7","13711","0.0-7.0","4661","approach_avoid_sv1","""event"",""trial"",""time""
""fullscreenenter"",""1"",""1975""
","
","
","""event"",""trial"",""time""
""fullscreenenter"",""1"",""1975""
","
","","","","","","1560","audio/shark.wav","2","","","","",""
"preload","8","16176","0.0-8.0","4661","approach_avoid_sv1","""event"",""trial"",""time""
""fullscreenenter"",""1"",""1975""
","
","
","""event"",""trial"",""time""
""fullscreenenter"",""1"",""1975""
","
","true","false","[]","[]","[]","","","","","","","",""
"learning-instructions","9","23561","0.0-9.0-0.0","4661","approach_avoid_sv1","""event"",""trial"",""time""
""fullscreenenter"",""1"",""1975""
","
","
","""event"",""trial"",""time""
""fullscreenenter"",""1"",""1975""
","
","","","","","","2903","<p> Welcome back! </p><p> Last week, you had to make choices about lots of different items.  </p>","","0","instructions","","",""
"learning-instructions","10","28130","0.0-9.0-0.1","4661","approach_avoid_sv1","""event"",""trial"",""time""
""fullscreenenter"",""1"",""1975""
","
","
","""event"",""trial"",""time""
""fullscreenenter"",""1"",""1975""
","
","","","","","","454.99999999999636","<p> Today, we are going to ask you to try to remember all the items. </p>","","0","instructions","","",""
"learning-instructions","11","40747","0.0-9.0-0.2","4661","approach_avoid_sv1","""event"",""trial"",""time""
""fullscreenenter"",""1"",""1975""
","
","
","""event"",""trial"",""time""
""fullscreenenter"",""1"",""1975""
","
","","","","","","2485","<p> On every trial, you will see an image. </p><p> The image may be an OLD image you saw during the games last week or it may be a NEW image that was not presented. </p>","","0","instructions","","",""
"learning-instructions","12","50628","0.0-9.0-0.3","4661","approach_avoid_sv1","""event"",""trial"",""time""
""fullscreenenter"",""1"",""1975""
","
","
","""event"",""trial"",""time""
""fullscreenenter"",""1"",""1975""
","
","","","","","","1384","<p> You need to select whether the image is:  </p><p>  'Definitely old', 'Maybe old', 'Maybe new', or 'Definitely new.'  </p><div class=""mem-choice-instructions-grid""><div class=""choice-option"" id=""choice-option-1"" ><img src=""images/definitely_old_1.png"" id=""choice-option-img-1"" class=""choice-option-img"" stage=""1""></div><div class=""choice-option"" id=""choice-option-2"" ><img src=""images/maybe_old_1.png"" id=""choice-option-img-2"" class=""choice-option-img"" stage=""1""></div><div class=""choice-option"" id=""choice-option-3"" ><img src=""images/maybe_new_1.png"" id=""choice-option-img-3"" class=""choice-option-img"" stage=""1""></div><div class=""choice-option"" id=""choice-option-4"" > <img src=""images/definitely_new_1.png"" id=""choice-option-img-4"" class=""choice-option-img"" stage=""1""></div></div>","","0","instructions","","",""
"learning-instructions","13","57844","0.0-9.0-0.4","4661","approach_avoid_sv1","""event"",""trial"",""time""
""fullscreenenter"",""1"",""1975""
","
","
","""event"",""trial"",""time""
""fullscreenenter"",""1"",""1975""
","
","","","","","","704","<p> You should use the 1, 2, 3, and 4 keys to make your responses.  </p><div class=""mem-choice-instructions-grid""><div class=""choice-option"" id=""choice-option-1"" ><img src=""images/definitely_old.png"" id=""choice-option-img-1"" class=""choice-option-img"" stage=""1""></div><div class=""choice-option"" id=""choice-option-2"" ><img src=""images/maybe_old.png"" id=""choice-option-img-2"" class=""choice-option-img"" stage=""1""></div><div class=""choice-option"" id=""choice-option-3"" ><img src=""images/maybe_new.png"" id=""choice-option-img-3"" class=""choice-option-img"" stage=""1""></div><div class=""choice-option"" id=""choice-option-4"" > <img src=""images/definitely_new.png"" id=""choice-option-img-4"" class=""choice-option-img"" stage=""1""></div></div>","","0","instructions","","",""
"learning-instructions","14","65997","0.0-9.0-0.5","4661","approach_avoid_sv1","""event"",""trial"",""time""
""fullscreenenter"",""1"",""1975""
","
","
","""event"",""trial"",""time""
""fullscreenenter"",""1"",""1975""
","
","","","","","","1823","<p> You will have 10 seconds to make each response.  </p><p>  Make sure to respond before time runs out! </p>","","0","instructions","","",""
"learning-instructions","15","75144","0.0-9.0-0.6","4661","approach_avoid_sv1","""event"",""trial"",""time""
""fullscreenenter"",""1"",""1975""
","
","
","""event"",""trial"",""time""
""fullscreenenter"",""1"",""1975""
","
","","","","","","2071","<p> Today, you will see each image ONCE only.  </p><p>  That means none of the images will repeat. </p>","","0","instructions","","",""
"learning-instructions","16","89013","0.0-9.0-0.7","4661","approach_avoid_sv1","""event"",""trial"",""time""
""fullscreenenter"",""1"",""1975""
","
","
","""event"",""trial"",""time""
""fullscreenenter"",""1"",""1975""
","
","","","","","","1205","<p> Before you play the real game, it is time to practice. </p><p>  Just like in the real game, some of the images in the practice will be ones you have seen before. </p><p>  Others will be entirely new. </p>","","0","instructions","","",""
"html-button-response","17","94294","0.0-10.0","4661","approach_avoid_sv1","""event"",""trial"",""time""
""fullscreenenter"",""1"",""1975""
","
","
","""event"",""trial"",""time""
""fullscreenenter"",""1"",""1975""
","
","","","","","","5177","<p> Ready to practice? </p><p> Remember, use the 1, 2, 3, and 4 keys to make your responses. </p>","0","","instructions","","",""
"html-keyboard-response","18","94897","0.0-11.0-0.0","4661","approach_avoid_sv1","""event"",""trial"",""time""
""fullscreenenter"",""1"",""1975""
","
","
","""event"",""trial"",""time""
""fullscreenenter"",""1"",""1975""
","
","","","","","","null","<div style=""font-size:60px;"">+</div>","null","","fixation","","",""
"memory-trial","19","100295","0.0-11.0-1.0","4661","approach_avoid_sv1","""event"",""trial"",""time""
""fullscreenenter"",""1"",""1975""
","
","
","""event"",""trial"",""time""
""fullscreenenter"",""1"",""1975""
","
","","","","","","4393","images/racket1.png","","","practice","1","definitely_old",""
"html-keyboard-response","20","100797","0.0-11.0-0.1","4661","approach_avoid_sv1","""event"",""trial"",""time""
""fullscreenenter"",""1"",""1975""
","
","
","""event"",""trial"",""time""
""fullscreenenter"",""1"",""1975""
","
","","","","","","null","<div style=""font-size:60px;"">+</div>","null","","fixation","","",""
"memory-trial","21","103226","0.0-11.0-1.1","4661","approach_avoid_sv1","""event"",""trial"",""time""
""fullscreenenter"",""1"",""1975""
","
","
","""event"",""trial"",""time""
""fullscreenenter"",""1"",""1975""
","
","","","","","","1424","images/ball2.png","","","practice","1","definitely_old",""
"html-keyboard-response","22","103728","0.0-11.0-0.2","4661","approach_avoid_sv1","""event"",""trial"",""time""
""fullscreenenter"",""1"",""1975""
","
","
","""event"",""trial"",""time""
""fullscreenenter"",""1"",""1975""
","
","","","","","","null","<div style=""font-size:60px;"">+</div>","null","","fixation","","",""
"memory-trial","23","106376","0.0-11.0-1.2","4661","approach_avoid_sv1","""event"",""trial"",""time""
""fullscreenenter"",""1"",""1975""
","
","
","""event"",""trial"",""time""
""fullscreenenter"",""1"",""1975""
","
","","","","","","1643.9999999999854","images/ball5.png","","","practice","1","definitely_old",""
"html-keyboard-response","24","106877","0.0-11.0-0.3","4661","approach_avoid_sv1","""event"",""trial"",""time""
""fullscreenenter"",""1"",""1975""
","
","
","""event"",""trial"",""time""
""fullscreenenter"",""1"",""1975""
","
","","","","","","null","<div style=""font-size:60px;"">+</div>","null","","fixation","","",""
"memory-trial","25","109257","0.0-11.0-1.3","4661","approach_avoid_sv1","""event"",""trial"",""time""
""fullscreenenter"",""1"",""1975""
","
","
","""event"",""trial"",""time""
""fullscreenenter"",""1"",""1975""
","
","","","","","","1375.9999999999854","images/ball1.png","","","practice","1","definitely_old",""
"html-keyboard-response","26","109760","0.0-11.0-0.4","4661","approach_avoid_sv1","""event"",""trial"",""time""
""fullscreenenter"",""1"",""1975""
","
","
","""event"",""trial"",""time""
""fullscreenenter"",""1"",""1975""
","
","","","","","","null","<div style=""font-size:60px;"">+</div>","null","","fixation","","",""
"memory-trial","27","113724","0.0-11.0-1.4","4661","approach_avoid_sv1","""event"",""trial"",""time""
""fullscreenenter"",""1"",""1975""
","
","
","""event"",""trial"",""time""
""fullscreenenter"",""1"",""1975""
","
","","","","","","2961","images/racket2.png","","","practice","3","maybe_new",""
"html-keyboard-response","28","114227","0.0-11.0-0.5","4661","approach_avoid_sv1","""event"",""trial"",""time""
""fullscreenenter"",""1"",""1975""
","
","
","""event"",""trial"",""time""
""fullscreenenter"",""1"",""1975""
","
","","","","","","null","<div style=""font-size:60px;"">+</div>","null","","fixation","","",""
"memory-trial","29","119452","0.0-11.0-1.5","4661","approach_avoid_sv1","""event"",""trial"",""time""
""fullscreenenter"",""1"",""1975""
","
","
","""event"",""trial"",""time""
""fullscreenenter"",""1"",""1975""
","
","","","","","","4223","images/racket5.png","","","practice","2","maybe_old",""
"html-keyboard-response","30","119954","0.0-11.0-0.6","4661","approach_avoid_sv1","""event"",""trial"",""time""
""fullscreenenter"",""1"",""1975""
","
","
","""event"",""trial"",""time""
""fullscreenenter"",""1"",""1975""
","
","","","","","","null","<div style=""font-size:60px;"">+</div>","null","","fixation","","",""
"memory-trial","31","123824","0.0-11.0-1.6","4661","approach_avoid_sv1","""event"",""trial"",""time""
""fullscreenenter"",""1"",""1975""
","
","
","""event"",""trial"",""time""
""fullscreenenter"",""1"",""1975""
","
","","","","","","2866","images/ball3.png","","","practice","4","definitely_new",""
"html-keyboard-response","32","124326","0.0-11.0-0.7","4661","approach_avoid_sv1","""event"",""trial"",""time""
""fullscreenenter"",""1"",""1975""
","
","
","""event"",""trial"",""time""
""fullscreenenter"",""1"",""1975""
","
","","","","","","null","<div style=""font-size:60px;"">+</div>","null","","fixation","","",""
"memory-trial","33","127447","0.0-11.0-1.7","4661","approach_avoid_sv1","""event"",""trial"",""time""
""fullscreenenter"",""1"",""1975""
","
","
","""event"",""trial"",""time""
""fullscreenenter"",""1"",""1975""
","
","","","","","","2117.0000000000146","images/racket3.png","","","practice","4","definitely_new",""
"learning-instructions","34","137460","0.0-12.0-0.0","4661","approach_avoid_sv1","""event"",""trial"",""time""
""fullscreenenter"",""1"",""1975""
","
","
","""event"",""trial"",""time""
""fullscreenenter"",""1"",""1975""
","
","","","","","","2706","<p> Great! You have completed the practice. </p><p> Before you start, we're going to ask you a few questions about how the game works.  </p>","","0","instructions","","",""
"preload","35","138663","0.0-13.0","4661","approach_avoid_sv1","""event"",""trial"",""time""
""fullscreenenter"",""1"",""1975""
","
","
","""event"",""trial"",""time""
""fullscreenenter"",""1"",""1975""
","
","true","false","[]","[]","[]","","","","","","","",""
"comp-q","36","145478","0.0-14.0-0.0","4661","approach_avoid_sv1","""event"",""trial"",""time""
""fullscreenenter"",""1"",""1975""
","
","
","""event"",""trial"",""time""
""fullscreenenter"",""1"",""1975""
","
","","","","","","983","<p> <b> True or False? </b> </p><p> In this game, you will only see each image once. </p>","","0","comp_question","","","true"
"comp-q","37","153278","0.0-14.0-1.0","4661","approach_avoid_sv1","""event"",""trial"",""time""
""fullscreenenter"",""1"",""1975""
","
","
","""event"",""trial"",""time""
""fullscreenenter"",""1"",""1975""
","
","","","","","","1460","<p> <b> That's right! </b> You will see many different images <i> one time each </i> in this game. </p>","","0","comp_answer","","",""
"comp-q","38","159444","0.0-15.0-0.0","4661","approach_avoid_sv1","""event"",""trial"",""time""
""fullscreenenter"",""1"",""1975""
","
","
","""event"",""trial"",""time""
""fullscreenenter"",""1"",""1975""
","
","","","","","","1161","<p> <b> True or False? </b> </p><p> You should use the mouse and click to make your response. </p>","","1","comp_question","","","true"
"comp-q","39","167794","0.0-15.0-1.0","4661","approach_avoid_sv1","""event"",""trial"",""time""
""fullscreenenter"",""1"",""1975""
","
","
","""event"",""trial"",""time""
""fullscreenenter"",""1"",""1975""
","
","","","","","","1850","<p><b> That's right! </b> You should use the '1', '2', '3', and '4' keys to make your response. </p>","","0","comp_answer","","",""
"comp-q","40","174176","0.0-16.0-0.0","4661","approach_avoid_sv1","""event"",""trial"",""time""
""fullscreenenter"",""1"",""1975""
","
","
","""event"",""trial"",""time""
""fullscreenenter"",""1"",""1975""
","
","","","","","","709","<p> <b> True or False? </b> </p><p> You will have as much time as you want to make each choice. </p>","","1","comp_question","","","true"
"comp-q","41","179426","0.0-16.0-1.0","4661","approach_avoid_sv1","""event"",""trial"",""time""
""fullscreenenter"",""1"",""1975""
","
","
","""event"",""trial"",""time""
""fullscreenenter"",""1"",""1975""
","
","","","","","","557.9999999999709","<p> <b> That's right! </b> You will only have 10 seconds to make each choice. </p>","","0","comp_answer","","",""
"learning-instructions","42","189146","0.0-17.0","4661","approach_avoid_sv1","""event"",""trial"",""time""
""fullscreenenter"",""1"",""1975""
","
","
","""event"",""trial"",""time""
""fullscreenenter"",""1"",""1975""
","
","","","","","","1052","<p> Great! You are now ready to begin the game. </p><p> Remember, use the 1, 2, 3, and 4 keys to make your responses. </p>","","0","instructions","","",""
"html-keyboard-response","43","189749","0.0-18.0-0.0","4661","approach_avoid_sv1","""event"",""trial"",""time""
""fullscreenenter"",""1"",""1975""
","
","
","""event"",""trial"",""time""
""fullscreenenter"",""1"",""1975""
","
","","","","","","null","<div style=""font-size:60px;"">+</div>","null","","fixation","","",""
"memory-trial","44","193012","0.0-18.0-1.0","4661","approach_avoid_sv1","""event"",""trial"",""time""
""fullscreenenter"",""1"",""1975""
","
","
","""event"",""trial"",""time""
""fullscreenenter"",""1"",""1975""
","
","","","","","","2259","images/cat3.png","","","memory_trial","1","definitely_old",""
"html-keyboard-response","45","193514","0.0-18.0-0.1","4661","approach_avoid_sv1","""event"",""trial"",""time""
""fullscreenenter"",""1"",""1975""
","
","
","""event"",""trial"",""time""
""fullscreenenter"",""1"",""1975""
","
","","","","","","null","<div style=""font-size:60px;"">+</div>","null","","fixation","","",""
"memory-trial","46","196003","0.0-18.0-1.1","4661","approach_avoid_sv1","""event"",""trial"",""time""
""fullscreenenter"",""1"",""1975""
","
","
","""event"",""trial"",""time""
""fullscreenenter"",""1"",""1975""
","
","","","","","","1485","images/horse2.png","","","memory_trial","1","definitely_old",""
"html-keyboard-response","47","196505","0.0-18.0-0.2","4661","approach_avoid_sv1","""event"",""trial"",""time""
""fullscreenenter"",""1"",""1975""
","
","
","""event"",""trial"",""time""
""fullscreenenter"",""1"",""1975""
","
","","","","","","null","<div style=""font-size:60px;"">+</div>","null","","fixation","","",""
"memory-trial","48","198818","0.0-18.0-1.2","4661","approach_avoid_sv1","""event"",""trial"",""time""
""fullscreenenter"",""1"",""1975""
","
","
","""event"",""trial"",""time""
""fullscreenenter"",""1"",""1975""
","
","","","","","","1311","images/dog3.png","","","memory_trial","1","definitely_old",""
"html-keyboard-response","49","199321","0.0-18.0-0.3","4661","approach_avoid_sv1","""event"",""trial"",""time""
""fullscreenenter"",""1"",""1975""
","
","
","""event"",""trial"",""time""
""fullscreenenter"",""1"",""1975""
","
","","","","","","null","<div style=""font-size:60px;"">+</div>","null","","fixation","","",""
"memory-trial","50","202158","0.0-18.0-1.3","4661","approach_avoid_sv1","""event"",""trial"",""time""
""fullscreenenter"",""1"",""1975""
","
","
","""event"",""trial"",""time""
""fullscreenenter"",""1"",""1975""
","
","","","","","","1834","images/bush4.png","","","memory_trial","4","definitely_new",""
"html-keyboard-response","51","202661","0.0-18.0-0.4","4661","approach_avoid_sv1","""event"",""trial"",""time""
""fullscreenenter"",""1"",""1975""
","
","
","""event"",""trial"",""time""
""fullscreenenter"",""1"",""1975""
","
","","","","","","null","<div style=""font-size:60px;"">+</div>","null","","fixation","","",""
"memory-trial","52","205990","0.0-18.0-1.4","4661","approach_avoid_sv1","""event"",""trial"",""time""
""fullscreenenter"",""1"",""1975""
","
","
","""event"",""trial"",""time""
""fullscreenenter"",""1"",""1975""
","
","","","","","","2327","images/boat3.png","","","memory_trial","1","definitely_old",""
"html-keyboard-response","53","206492","0.0-18.0-0.5","4661","approach_avoid_sv1","""event"",""trial"",""time""
""fullscreenenter"",""1"",""1975""
","
","
","""event"",""trial"",""time""
""fullscreenenter"",""1"",""1975""
","
","","","","","","null","<div style=""font-size:60px;"">+</div>","null","","fixation","","",""
"memory-trial","54","208889","0.0-18.0-1.5","4661","approach_avoid_sv1","""event"",""trial"",""time""
""fullscreenenter"",""1"",""1975""
","
","
","""event"",""trial"",""time""
""fullscreenenter"",""1"",""1975""
","
","","","","","","1393","images/train5.png","","","memory_trial","4","definitely_new",""
"html-keyboard-response","55","209391","0.0-18.0-0.6","4661","approach_avoid_sv1","""event"",""trial"",""time""
""fullscreenenter"",""1"",""1975""
","
","
","""event"",""trial"",""time""
""fullscreenenter"",""1"",""1975""
","
","","","","","","null","<div style=""font-size:60px;"">+</div>","null","","fixation","","",""
"memory-trial","56","211663","0.0-18.0-1.6","4661","approach_avoid_sv1","""event"",""trial"",""time""
""fullscreenenter"",""1"",""1975""
","
","
","""event"",""trial"",""time""
""fullscreenenter"",""1"",""1975""
","
","","","","","","1269","images/apple6.png","","","memory_trial","4","definitely_new",""
"html-keyboard-response","57","212165","0.0-18.0-0.7","4661","approach_avoid_sv1","""event"",""trial"",""time""
""fullscreenenter"",""1"",""1975""
","
","
","""event"",""trial"",""time""
""fullscreenenter"",""1"",""1975""
","
","","","","","","null","<div style=""font-size:60px;"">+</div>","null","","fixation","","",""
"memory-trial","58","214579","0.0-18.0-1.7","4661","approach_avoid_sv1","""event"",""trial"",""time""
""fullscreenenter"",""1"",""1975""
","
","
","""event"",""trial"",""time""
""fullscreenenter"",""1"",""1975""
","
","","","","","","1409","images/dog2.png","","","memory_trial","1","definitely_old",""
"html-keyboard-response","59","215082","0.0-18.0-0.8","4661","approach_avoid_sv1","""event"",""trial"",""time""
""fullscreenenter"",""1"",""1975""
","
","
","""event"",""trial"",""time""
""fullscreenenter"",""1"",""1975""
","
","","","","","","null","<div style=""font-size:60px;"">+</div>","null","","fixation","","",""
"memory-trial","60","217546","0.0-18.0-1.8","4661","approach_avoid_sv1","""event"",""trial"",""time""
""fullscreenenter"",""1"",""1975""
","
","
","""event"",""trial"",""time""
""fullscreenenter"",""1"",""1975""
","
","","","","","","1460","images/dog5.png","","","memory_trial","1","definitely_old",""
"html-keyboard-response","61","218048","0.0-18.0-0.9","4661","approach_avoid_sv1","""event"",""trial"",""time""
""fullscreenenter"",""1"",""1975""
","
","
","""event"",""trial"",""time""
""fullscreenenter"",""1"",""1975""
","
","","","","","","null","<div style=""font-size:60px;"">+</div>","null","","fixation","","",""
"memory-trial","62","220105","0.0-18.0-1.9","4661","approach_avoid_sv1","""event"",""trial"",""time""
""fullscreenenter"",""1"",""1975""
","
","
","""event"",""trial"",""time""
""fullscreenenter"",""1"",""1975""
","
","","","","","","1054","images/orange6.png","","","memory_trial","1","definitely_old",""
"html-keyboard-response","63","220608","0.0-18.0-0.10","4661","approach_avoid_sv1","""event"",""trial"",""time""
""fullscreenenter"",""1"",""1975""
","
","
","""event"",""trial"",""time""
""fullscreenenter"",""1"",""1975""
","
","","","","","","null","<div style=""font-size:60px;"">+</div>","null","","fixation","","",""
"memory-trial","64","223613","0.0-18.0-1.10","4661","approach_avoid_sv1","""event"",""trial"",""time""
""fullscreenenter"",""1"",""1975""
","
","
","""event"",""trial"",""time""
""fullscreenenter"",""1"",""1975""
","
","","","","","","2002.000000000029","images/horse7.png","","","memory_trial","2","maybe_old",""
"html-keyboard-response","65","224116","0.0-18.0-0.11","4661","approach_avoid_sv1","""event"",""trial"",""time""
""fullscreenenter"",""1"",""1975""
","
","
","""event"",""trial"",""time""
""fullscreenenter"",""1"",""1975""
","
","","","","","","null","<div style=""font-size:60px;"">+</div>","null","","fixation","","",""
"memory-trial","66","226877","0.0-18.0-1.11","4661","approach_avoid_sv1","""event"",""trial"",""time""
""fullscreenenter"",""1"",""1975""
","
","
","""event"",""trial"",""time""
""fullscreenenter"",""1"",""1975""
","
","","","","","","1757.999999999971","images/goat1.png","","","memory_trial","2","maybe_old",""
"html-keyboard-response","67","227380","0.0-18.0-0.12","4661","approach_avoid_sv1","""event"",""trial"",""time""
""fullscreenenter"",""1"",""1975""
","
","
","""event"",""trial"",""time""
""fullscreenenter"",""1"",""1975""
","
","","","","","","null","<div style=""font-size:60px;"">+</div>","null","","fixation","","",""
"memory-trial","68","230786","0.0-18.0-1.12","4661","approach_avoid_sv1","""event"",""trial"",""time""
""fullscreenenter"",""1"",""1975""
","
","
","""event"",""trial"",""time""
""fullscreenenter"",""1"",""1975""
","
","","","","","","2402.000000000029","images/sofa5.png","","","memory_trial","1","definitely_old",""
"html-keyboard-response","69","231288","0.0-18.0-0.13","4661","approach_avoid_sv1","""event"",""trial"",""time""
""fullscreenenter"",""1"",""1975""
","
","
","""event"",""trial"",""time""
""fullscreenenter"",""1"",""1975""
","
","","","","","","null","<div style=""font-size:60px;"">+</div>","null","","fixation","","",""
"memory-trial","70","235434","0.0-18.0-1.13","4661","approach_avoid_sv1","""event"",""trial"",""time""
""fullscreenenter"",""1"",""1975""
","
","
","""event"",""trial"",""time""
""fullscreenenter"",""1"",""1975""
","
","","","","","","3143","images/rodent6.png","","","memory_trial","4","definitely_new",""
"html-keyboard-response","71","235937","0.0-18.0-0.14","4661","approach_avoid_sv1","""event"",""trial"",""time""
""fullscreenenter"",""1"",""1975""
","
","
","""event"",""trial"",""time""
""fullscreenenter"",""1"",""1975""
","
","","","","","","null","<div style=""font-size:60px;"">+</div>","null","","fixation","","",""
"memory-trial","72","238358","0.0-18.0-1.14","4661","approach_avoid_sv1","""event"",""trial"",""time""
""fullscreenenter"",""1"",""1975""
","
","
","""event"",""trial"",""time""
""fullscreenenter"",""1"",""1975""
","
","","","","","","1417.999999999971","images/sheep1.png","","","memory_trial","1","definitely_old",""
"html-keyboard-response","73","238861","0.0-18.0-0.15","4661","approach_avoid_sv1","""event"",""trial"",""time""
""fullscreenenter"",""1"",""1975""
","
","
","""event"",""trial"",""time""
""fullscreenenter"",""1"",""1975""
","
","","","","","","null","<div style=""font-size:60px;"">+</div>","null","","fixation","","",""
"memory-trial","74","241341","0.0-18.0-1.15","4661","approach_avoid_sv1","""event"",""trial"",""time""
""fullscreenenter"",""1"",""1975""
","
","
","""event"",""trial"",""time""
""fullscreenenter"",""1"",""1975""
","
","","","","","","1478","images/truck3.png","","","memory_trial","4","definitely_new",""
"html-keyboard-response","75","241843","0.0-18.0-0.16","4661","approach_avoid_sv1","""event"",""trial"",""time""
""fullscreenenter"",""1"",""1975""
","
","
","""event"",""trial"",""time""
""fullscreenenter"",""1"",""1975""
","
","","","","","","null","<div style=""font-size:60px;"">+</div>","null","","fixation","","",""
"memory-trial","76","244613","0.0-18.0-1.16","4661","approach_avoid_sv1","""event"",""trial"",""time""
""fullscreenenter"",""1"",""1975""
","
","
","""event"",""trial"",""time""
""fullscreenenter"",""1"",""1975""
","
","","","","","","1768","images/boat5.png","","","memory_trial","2","maybe_old",""
"html-keyboard-response","77","245115","0.0-18.0-0.17","4661","approach_avoid_sv1","""event"",""trial"",""time""
""fullscreenenter"",""1"",""1975""
","
","
","""event"",""trial"",""time""
""fullscreenenter"",""1"",""1975""
","
","","","","","","null","<div style=""font-size:60px;"">+</div>","null","","fixation","","",""
"memory-trial","78","249636","0.0-18.0-1.17","4661","approach_avoid_sv1","""event"",""trial"",""time""
""fullscreenenter"",""1"",""1975""
","
","
","""event"",""trial"",""time""
""fullscreenenter"",""1"",""1975""
","
","","","","","","3518","images/cat8.png","","","memory_trial","2","maybe_old",""
"html-keyboard-response","79","250139","0.0-18.0-0.18","4661","approach_avoid_sv1","""event"",""trial"",""time""
""fullscreenenter"",""1"",""1975""
","
","
","""event"",""trial"",""time""
""fullscreenenter"",""1"",""1975""
","
","","","","","","null","<div style=""font-size:60px;"">+</div>","null","","fixation","","",""
"memory-trial","80","254172","0.0-18.0-1.18","4661","approach_avoid_sv1","""event"",""trial"",""time""
""fullscreenenter"",""1"",""1975""
","
","
","""event"",""trial"",""time""
""fullscreenenter"",""1"",""1975""
","
","","","","","","3030.000000000029","images/tree2.png","","","memory_trial","3","maybe_new",""
"html-keyboard-response","81","254675","0.0-18.0-0.19","4661","approach_avoid_sv1","""event"",""trial"",""time""
""fullscreenenter"",""1"",""1975""
","
","
","""event"",""trial"",""time""
""fullscreenenter"",""1"",""1975""
","
","","","","","","null","<div style=""font-size:60px;"">+</div>","null","","fixation","","",""
"memory-trial","82","257121","0.0-18.0-1.19","4661","approach_avoid_sv1","""event"",""trial"",""time""
""fullscreenenter"",""1"",""1975""
","
","
","""event"",""trial"",""time""
""fullscreenenter"",""1"",""1975""
","
","","","","","","1442.999999999971","images/orange8.png","","","memory_trial","1","definitely_old",""
"html-keyboard-response","83","257623","0.0-18.0-0.20","4661","approach_avoid_sv1","""event"",""trial"",""time""
""fullscreenenter"",""1"",""1975""
","
","
","""event"",""trial"",""time""
""fullscreenenter"",""1"",""1975""
","
","","","","","","null","<div style=""font-size:60px;"">+</div>","null","","fixation","","",""
"memory-trial","84","259734","0.0-18.0-1.20","4661","approach_avoid_sv1","""event"",""trial"",""time""
""fullscreenenter"",""1"",""1975""
","
","
","""event"",""trial"",""time""
""fullscreenenter"",""1"",""1975""
","
","","","","","","1109.000000000029","images/plane2.png","","","memory_trial","1","definitely_old",""
"html-keyboard-response","85","260237","0.0-18.0-0.21","4661","approach_avoid_sv1","""event"",""trial"",""time""
""fullscreenenter"",""1"",""1975""
","
","
","""event"",""trial"",""time""
""fullscreenenter"",""1"",""1975""
","
","","","","","","null","<div style=""font-size:60px;"">+</div>","null","","fixation","","",""
"memory-trial","86","262682","0.0-18.0-1.21","4661","approach_avoid_sv1","""event"",""trial"",""time""
""fullscreenenter"",""1"",""1975""
","
","
","""event"",""trial"",""time""
""fullscreenenter"",""1"",""1975""
","
","","","","","","1441","images/cactus1.png","","","memory_trial","1","definitely_old",""
"html-keyboard-response","87","263184","0.0-18.0-0.22","4661","approach_avoid_sv1","""event"",""trial"",""time""
""fullscreenenter"",""1"",""1975""
","
","
","""event"",""trial"",""time""
""fullscreenenter"",""1"",""1975""
","
","","","","","","null","<div style=""font-size:60px;"">+</div>","null","","fixation","","",""
"memory-trial","88","265204","0.0-18.0-1.22","4661","approach_avoid_sv1","""event"",""trial"",""time""
""fullscreenenter"",""1"",""1975""
","
","
","""event"",""trial"",""time""
""fullscreenenter"",""1"",""1975""
","
","","","","","","1016.9999999999418","images/straw7.png","","","memory_trial","1","definitely_old",""
"html-keyboard-response","89","265706","0.0-18.0-0.23","4661","approach_avoid_sv1","""event"",""trial"",""time""
""fullscreenenter"",""1"",""1975""
","
","
","""event"",""trial"",""time""
""fullscreenenter"",""1"",""1975""
","
","","","","","","null","<div style=""font-size:60px;"">+</div>","null","","fixation","","",""
"memory-trial","90","268801","0.0-18.0-1.23","4661","approach_avoid_sv1","""event"",""trial"",""time""
""fullscreenenter"",""1"",""1975""
","
","
","""event"",""trial"",""time""
""fullscreenenter"",""1"",""1975""
","
","","","","","","2091","images/train1.png","","","memory_trial","4","definitely_new",""
"html-keyboard-response","91","269304","0.0-18.0-0.24","4661","approach_avoid_sv1","""event"",""trial"",""time""
""fullscreenenter"",""1"",""1975""
","
","
","""event"",""trial"",""time""
""fullscreenenter"",""1"",""1975""
","
","","","","","","null","<div style=""font-size:60px;"">+</div>","null","","fixation","","",""
"memory-trial","92","271573","0.0-18.0-1.24","4661","approach_avoid_sv1","""event"",""trial"",""time""
""fullscreenenter"",""1"",""1975""
","
","
","""event"",""trial"",""time""
""fullscreenenter"",""1"",""1975""
","
","","","","","","1266","images/table3.png","","","memory_trial","4","definitely_new",""
"html-keyboard-response","93","272076","0.0-18.0-0.25","4661","approach_avoid_sv1","""event"",""trial"",""time""
""fullscreenenter"",""1"",""1975""
","
","
","""event"",""trial"",""time""
""fullscreenenter"",""1"",""1975""
","
","","","","","","null","<div style=""font-size:60px;"">+</div>","null","","fixation","","",""
"memory-trial","94","276393","0.0-18.0-1.25","4661","approach_avoid_sv1","""event"",""trial"",""time""
""fullscreenenter"",""1"",""1975""
","
","
","""event"",""trial"",""time""
""fullscreenenter"",""1"",""1975""
","
","","","","","","3313","images/flower2.png","","","memory_trial","3","maybe_new",""
"html-keyboard-response","95","276896","0.0-18.0-0.26","4661","approach_avoid_sv1","""event"",""trial"",""time""
""fullscreenenter"",""1"",""1975""
","
","
","""event"",""trial"",""time""
""fullscreenenter"",""1"",""1975""
","
","","","","","","null","<div style=""font-size:60px;"">+</div>","null","","fixation","","",""
"memory-trial","96","279662","0.0-18.0-1.26","4661","approach_avoid_sv1","""event"",""trial"",""time""
""fullscreenenter"",""1"",""1975""
","
","
","""event"",""trial"",""time""
""fullscreenenter"",""1"",""1975""
","
","","","","","","1762","images/chair8.png","","","memory_trial","2","maybe_old",""
"html-keyboard-response","97","280165","0.0-18.0-0.27","4661","approach_avoid_sv1","""event"",""trial"",""time""
""fullscreenenter"",""1"",""1975""
","
","
","""event"",""trial"",""time""
""fullscreenenter"",""1"",""1975""
","
","","","","","","null","<div style=""font-size:60px;"">+</div>","null","","fixation","","",""
"memory-trial","98","282328","0.0-18.0-1.27","4661","approach_avoid_sv1","""event"",""trial"",""time""
""fullscreenenter"",""1"",""1975""
","
","
","""event"",""trial"",""time""
""fullscreenenter"",""1"",""1975""
","
","","","","","","1160","images/cat7.png","","","memory_trial","1","definitely_old",""
"html-keyboard-response","99","282831","0.0-18.0-0.28","4661","approach_avoid_sv1","""event"",""trial"",""time""
""fullscreenenter"",""1"",""1975""
","
","
","""event"",""trial"",""time""
""fullscreenenter"",""1"",""1975""
","
","","","","","","null","<div style=""font-size:60px;"">+</div>","null","","fixation","","",""
"memory-trial","100","285393","0.0-18.0-1.28","4661","approach_avoid_sv1","""event"",""trial"",""time""
""fullscreenenter"",""1"",""1975""
","
","
","""event"",""trial"",""time""
""fullscreenenter"",""1"",""1975""
","
","","","","","","1559","images/bed7.png","","","memory_trial","1","definitely_old",""
"html-keyboard-response","101","285896","0.0-18.0-0.29","4661","approach_avoid_sv1","""event"",""trial"",""time""
""fullscreenenter"",""1"",""1975""
","
","
","""event"",""trial"",""time""
""fullscreenenter"",""1"",""1975""
","
","","","","","","null","<div style=""font-size:60px;"">+</div>","null","","fixation","","",""
"memory-trial","102","288386","0.0-18.0-1.29","4661","approach_avoid_sv1","""event"",""trial"",""time""
""fullscreenenter"",""1"",""1975""
","
","
","""event"",""trial"",""time""
""fullscreenenter"",""1"",""1975""
","
","","","","","","1486","images/dog1.png","","","memory_trial","4","definitely_new",""
"html-keyboard-response","103","288888","0.0-18.0-0.30","4661","approach_avoid_sv1","""event"",""trial"",""time""
""fullscreenenter"",""1"",""1975""
","
","
","""event"",""trial"",""time""
""fullscreenenter"",""1"",""1975""
","
","","","","","","null","<div style=""font-size:60px;"">+</div>","null","","fixation","","",""
"memory-trial","104","291247","0.0-18.0-1.30","4661","approach_avoid_sv1","""event"",""trial"",""time""
""fullscreenenter"",""1"",""1975""
","
","
","""event"",""trial"",""time""
""fullscreenenter"",""1"",""1975""
","
","","","","","","1356","images/boat6.png","","","memory_trial","4","definitely_new",""
"html-keyboard-response","105","291750","0.0-18.0-0.31","4661","approach_avoid_sv1","""event"",""trial"",""time""
""fullscreenenter"",""1"",""1975""
","
","
","""event"",""trial"",""time""
""fullscreenenter"",""1"",""1975""
","
","","","","","","null","<div style=""font-size:60px;"">+</div>","null","","fixation","","",""
"memory-trial","106","293733","0.0-18.0-1.31","4661","approach_avoid_sv1","""event"",""trial"",""time""
""fullscreenenter"",""1"",""1975""
","
","
","""event"",""trial"",""time""
""fullscreenenter"",""1"",""1975""
","
","","","","","","980","images/rabbit8.png","","","memory_trial","1","definitely_old",""
"html-keyboard-response","107","294235","0.0-18.0-0.32","4661","approach_avoid_sv1","""event"",""trial"",""time""
""fullscreenenter"",""1"",""1975""
","
","
","""event"",""trial"",""time""
""fullscreenenter"",""1"",""1975""
","
","","","","","","null","<div style=""font-size:60px;"">+</div>","null","","fixation","","",""
"memory-trial","108","296223","0.0-18.0-1.32","4661","approach_avoid_sv1","""event"",""trial"",""time""
""fullscreenenter"",""1"",""1975""
","
","
","""event"",""trial"",""time""
""fullscreenenter"",""1"",""1975""
","
","","","","","","986","images/train3.png","","","memory_trial","4","definitely_new",""
"html-keyboard-response","109","296726","0.0-18.0-0.33","4661","approach_avoid_sv1","""event"",""trial"",""time""
""fullscreenenter"",""1"",""1975""
","
","
","""event"",""trial"",""time""
""fullscreenenter"",""1"",""1975""
","
","","","","","","null","<div style=""font-size:60px;"">+</div>","null","","fixation","","",""
"memory-trial","110","299440","0.0-18.0-1.33","4661","approach_avoid_sv1","""event"",""trial"",""time""
""fullscreenenter"",""1"",""1975""
","
","
","""event"",""trial"",""time""
""fullscreenenter"",""1"",""1975""
","
","","","","","","1712","images/cactus2.png","","","memory_trial","3","maybe_new",""
"html-keyboard-response","111","299943","0.0-18.0-0.34","4661","approach_avoid_sv1","""event"",""trial"",""time""
""fullscreenenter"",""1"",""1975""
","
","
","""event"",""trial"",""time""
""fullscreenenter"",""1"",""1975""
","
","","","","","","null","<div style=""font-size:60px;"">+</div>","null","","fixation","","",""
"memory-trial","112","302136","0.0-18.0-1.34","4661","approach_avoid_sv1","""event"",""trial"",""time""
""fullscreenenter"",""1"",""1975""
","
","
","""event"",""trial"",""time""
""fullscreenenter"",""1"",""1975""
","
","","","","","","1189","images/bed1.png","","","memory_trial","1","definitely_old",""
"html-keyboard-response","113","302638","0.0-18.0-0.35","4661","approach_avoid_sv1","""event"",""trial"",""time""
""fullscreenenter"",""1"",""1975""
","
","
","""event"",""trial"",""time""
""fullscreenenter"",""1"",""1975""
","
","","","","","","null","<div style=""font-size:60px;"">+</div>","null","","fixation","","",""
"memory-trial","114","306791","0.0-18.0-1.35","4661","approach_avoid_sv1","""event"",""trial"",""time""
""fullscreenenter"",""1"",""1975""
","
","
","""event"",""trial"",""time""
""fullscreenenter"",""1"",""1975""
","
","","","","","","3149","images/plane3.png","","","memory_trial","2","maybe_old",""
"html-keyboard-response","115","307293","0.0-18.0-0.36","4661","approach_avoid_sv1","""event"",""trial"",""time""
""fullscreenenter"",""1"",""1975""
","
","
","""event"",""trial"",""time""
""fullscreenenter"",""1"",""1975""
","
","","","","","","null","<div style=""font-size:60px;"">+</div>","null","","fixation","","",""
"memory-trial","116","309359","0.0-18.0-1.36","4661","approach_avoid_sv1","""event"",""trial"",""time""
""fullscreenenter"",""1"",""1975""
","
","
","""event"",""trial"",""time""
""fullscreenenter"",""1"",""1975""
","
","","","","","","1064","images/tree5.png","","","memory_trial","1","definitely_old",""
"html-keyboard-response","117","309861","0.0-18.0-0.37","4661","approach_avoid_sv1","""event"",""trial"",""time""
""fullscreenenter"",""1"",""1975""
","
","
","""event"",""trial"",""time""
""fullscreenenter"",""1"",""1975""
","
","","","","","","null","<div style=""font-size:60px;"">+</div>","null","","fixation","","",""
"memory-trial","118","311741","0.0-18.0-1.37","4661","approach_avoid_sv1","""event"",""trial"",""time""
""fullscreenenter"",""1"",""1975""
","
","
","""event"",""trial"",""time""
""fullscreenenter"",""1"",""1975""
","
","","","","","","876","images/flower5.png","","","memory_trial","1","definitely_old",""
"html-keyboard-response","119","312244","0.0-18.0-0.38","4661","approach_avoid_sv1","""event"",""trial"",""time""
""fullscreenenter"",""1"",""1975""
","
","
","""event"",""trial"",""time""
""fullscreenenter"",""1"",""1975""
","
","","","","","","null","<div style=""font-size:60px;"">+</div>","null","","fixation","","",""
"memory-trial","120","315153","0.0-18.0-1.38","4661","approach_avoid_sv1","""event"",""trial"",""time""
""fullscreenenter"",""1"",""1975""
","
","
","""event"",""trial"",""time""
""fullscreenenter"",""1"",""1975""
","
","","","","","","1906","images/sofa4.png","","","memory_trial","2","maybe_old",""
"html-keyboard-response","121","315655","0.0-18.0-0.39","4661","approach_avoid_sv1","""event"",""trial"",""time""
""fullscreenenter"",""1"",""1975""
","
","
","""event"",""trial"",""time""
""fullscreenenter"",""1"",""1975""
","
","","","","","","null","<div style=""font-size:60px;"">+</div>","null","","fixation","","",""
"memory-trial","122","318109","0.0-18.0-1.39","4661","approach_avoid_sv1","""event"",""trial"",""time""
""fullscreenenter"",""1"",""1975""
","
","
","""event"",""trial"",""time""
""fullscreenenter"",""1"",""1975""
","
","","","","","","1451.0000000000582","images/goat3.png","","","memory_trial","1","definitely_old",""
"html-keyboard-response","123","318612","0.0-18.0-0.40","4661","approach_avoid_sv1","""event"",""trial"",""time""
""fullscreenenter"",""1"",""1975""
","
","
","""event"",""trial"",""time""
""fullscreenenter"",""1"",""1975""
","
","","","","","","null","<div style=""font-size:60px;"">+</div>","null","","fixation","","",""
"memory-trial","124","320259","0.0-18.0-1.40","4661","approach_avoid_sv1","""event"",""trial"",""time""
""fullscreenenter"",""1"",""1975""
","
","
","""event"",""trial"",""time""
""fullscreenenter"",""1"",""1975""
","
","","","","","","644","images/sheep7.png","","","memory_trial","1","definitely_old",""
"html-keyboard-response","125","320761","0.0-18.0-0.41","4661","approach_avoid_sv1","""event"",""trial"",""time""
""fullscreenenter"",""1"",""1975""
","
","
","""event"",""trial"",""time""
""fullscreenenter"",""1"",""1975""
","
","","","","","","null","<div style=""font-size:60px;"">+</div>","null","","fixation","","",""
"memory-trial","126","322458","0.0-18.0-1.41","4661","approach_avoid_sv1","""event"",""trial"",""time""
""fullscreenenter"",""1"",""1975""
","
","
","""event"",""trial"",""time""
""fullscreenenter"",""1"",""1975""
","
","","","","","","694","images/goat6.png","","","memory_trial","1","definitely_old",""
"html-button-response","127","325260","0.0-18.0-2.41-0.41","4661","approach_avoid_sv1","""event"",""trial"",""time""
""fullscreenenter"",""1"",""1975""
","
","
","""event"",""trial"",""time""
""fullscreenenter"",""1"",""1975""
","
","","","","","","2800","<p> Take a break! </p><p> Click the button to continue. </p>","0","","break","","",""
"html-keyboard-response","128","325762","0.0-18.0-0.42","4661","approach_avoid_sv1","""event"",""trial"",""time""
""fullscreenenter"",""1"",""1975""
","
","
","""event"",""trial"",""time""
""fullscreenenter"",""1"",""1975""
","
","","","","","","null","<div style=""font-size:60px;"">+</div>","null","","fixation","","",""
"memory-trial","129","328014","0.0-18.0-1.42","4661","approach_avoid_sv1","""event"",""trial"",""time""
""fullscreenenter"",""1"",""1975""
","
","
","""event"",""trial"",""time""
""fullscreenenter"",""1"",""1975""
","
","","","","","","1249","images/truck2.png","","","memory_trial","4","definitely_new",""
"html-keyboard-response","130","328516","0.0-18.0-0.43","4661","approach_avoid_sv1","""event"",""trial"",""time""
""fullscreenenter"",""1"",""1975""
","
","
","""event"",""trial"",""time""
""fullscreenenter"",""1"",""1975""
","
","","","","","","null","<div style=""font-size:60px;"">+</div>","null","","fixation","","",""
"memory-trial","131","330559","0.0-18.0-1.43","4661","approach_avoid_sv1","""event"",""trial"",""time""
""fullscreenenter"",""1"",""1975""
","
","
","""event"",""trial"",""time""
""fullscreenenter"",""1"",""1975""
","
","","","","","","1038.9999999999418","images/goat5.png","","","memory_trial","1","definitely_old",""
"html-keyboard-response","132","331060","0.0-18.0-0.44","4661","approach_avoid_sv1","""event"",""trial"",""time""
""fullscreenenter"",""1"",""1975""
","
","
","""event"",""trial"",""time""
""fullscreenenter"",""1"",""1975""
","
","","","","","","null","<div style=""font-size:60px;"">+</div>","null","","fixation","","",""
"memory-trial","133","333053","0.0-18.0-1.44","4661","approach_avoid_sv1","""event"",""trial"",""time""
""fullscreenenter"",""1"",""1975""
","
","
","""event"",""trial"",""time""
""fullscreenenter"",""1"",""1975""
","
","","","","","","990","images/rodent2.png","","","memory_trial","1","definitely_old",""
"html-keyboard-response","134","333555","0.0-18.0-0.45","4661","approach_avoid_sv1","""event"",""trial"",""time""
""fullscreenenter"",""1"",""1975""
","
","
","""event"",""trial"",""time""
""fullscreenenter"",""1"",""1975""
","
","","","","","","null","<div style=""font-size:60px;"">+</div>","null","","fixation","","",""
"memory-trial","135","335239","0.0-18.0-1.45","4661","approach_avoid_sv1","""event"",""trial"",""time""
""fullscreenenter"",""1"",""1975""
","
","
","""event"",""trial"",""time""
""fullscreenenter"",""1"",""1975""
","
","","","","","","681","images/goat7.png","","","memory_trial","1","definitely_old",""
"html-keyboard-response","136","335742","0.0-18.0-0.46","4661","approach_avoid_sv1","""event"",""trial"",""time""
""fullscreenenter"",""1"",""1975""
","
","
","""event"",""trial"",""time""
""fullscreenenter"",""1"",""1975""
","
","","","","","","null","<div style=""font-size:60px;"">+</div>","null","","fixation","","",""
"memory-trial","137","337528","0.0-18.0-1.46","4661","approach_avoid_sv1","""event"",""trial"",""time""
""fullscreenenter"",""1"",""1975""
","
","
","""event"",""trial"",""time""
""fullscreenenter"",""1"",""1975""
","
","","","","","","782.9999999999418","images/bed2.png","","","memory_trial","1","definitely_old",""
"html-keyboard-response","138","338031","0.0-18.0-0.47","4661","approach_avoid_sv1","""event"",""trial"",""time""
""fullscreenenter"",""1"",""1975""
","
","
","""event"",""trial"",""time""
""fullscreenenter"",""1"",""1975""
","
","","","","","","null","<div style=""font-size:60px;"">+</div>","null","","fixation","","",""
"memory-trial","139","340528","0.0-18.0-1.47","4661","approach_avoid_sv1","""event"",""trial"",""time""
""fullscreenenter"",""1"",""1975""
","
","
","""event"",""trial"",""time""
""fullscreenenter"",""1"",""1975""
","
","","","","","","1494","images/truck7.png","","","memory_trial","3","maybe_new",""
"html-keyboard-response","140","341030","0.0-18.0-0.48","4661","approach_avoid_sv1","""event"",""trial"",""time""
""fullscreenenter"",""1"",""1975""
","
","
","""event"",""trial"",""time""
""fullscreenenter"",""1"",""1975""
","
","","","","","","null","<div style=""font-size:60px;"">+</div>","null","","fixation","","",""
"memory-trial","141","343066","0.0-18.0-1.48","4661","approach_avoid_sv1","""event"",""trial"",""time""
""fullscreenenter"",""1"",""1975""
","
","
","""event"",""trial"",""time""
""fullscreenenter"",""1"",""1975""
","
","","","","","","1032","images/orange5.png","","","memory_trial","1","definitely_old",""
"html-keyboard-response","142","343567","0.0-18.0-0.49","4661","approach_avoid_sv1","""event"",""trial"",""time""
""fullscreenenter"",""1"",""1975""
","
","
","""event"",""trial"",""time""
""fullscreenenter"",""1"",""1975""
","
","","","","","","null","<div style=""font-size:60px;"">+</div>","null","","fixation","","",""
"memory-trial","143","347058","0.0-18.0-1.49","4661","approach_avoid_sv1","""event"",""trial"",""time""
""fullscreenenter"",""1"",""1975""
","
","
","""event"",""trial"",""time""
""fullscreenenter"",""1"",""1975""
","
","","","","","","2487","images/table6.png","","","memory_trial","4","definitely_new",""
"html-keyboard-response","144","347560","0.0-18.0-0.50","4661","approach_avoid_sv1","""event"",""trial"",""time""
""fullscreenenter"",""1"",""1975""
","
","
","""event"",""trial"",""time""
""fullscreenenter"",""1"",""1975""
","
","","","","","","null","<div style=""font-size:60px;"">+</div>","null","","fixation","","",""
"memory-trial","145","350311","0.0-18.0-1.50","4661","approach_avoid_sv1","""event"",""trial"",""time""
""fullscreenenter"",""1"",""1975""
","
","
","""event"",""trial"",""time""
""fullscreenenter"",""1"",""1975""
","
","","","","","","1747.0000000000582","images/cat2.png","","","memory_trial","2","maybe_old",""
"html-keyboard-response","146","350813","0.0-18.0-0.51","4661","approach_avoid_sv1","""event"",""trial"",""time""
""fullscreenenter"",""1"",""1975""
","
","
","""event"",""trial"",""time""
""fullscreenenter"",""1"",""1975""
","
","","","","","","null","<div style=""font-size:60px;"">+</div>","null","","fixation","","",""
"memory-trial","147","353059","0.0-18.0-1.51","4661","approach_avoid_sv1","""event"",""trial"",""time""
""fullscreenenter"",""1"",""1975""
","
","
","""event"",""trial"",""time""
""fullscreenenter"",""1"",""1975""
","
","","","","","","1243","images/straw2.png","","","memory_trial","1","definitely_old",""
"html-keyboard-response","148","353561","0.0-18.0-0.52","4661","approach_avoid_sv1","""event"",""trial"",""time""
""fullscreenenter"",""1"",""1975""
","
","
","""event"",""trial"",""time""
""fullscreenenter"",""1"",""1975""
","
","","","","","","null","<div style=""font-size:60px;"">+</div>","null","","fixation","","",""
"memory-trial","149","355274","0.0-18.0-1.52","4661","approach_avoid_sv1","""event"",""trial"",""time""
""fullscreenenter"",""1"",""1975""
","
","
","""event"",""trial"",""time""
""fullscreenenter"",""1"",""1975""
","
","","","","","","709","images/orange4.png","","","memory_trial","1","definitely_old",""
"html-keyboard-response","150","355776","0.0-18.0-0.53","4661","approach_avoid_sv1","""event"",""trial"",""time""
""fullscreenenter"",""1"",""1975""
","
","
","""event"",""trial"",""time""
""fullscreenenter"",""1"",""1975""
","
","","","","","","null","<div style=""font-size:60px;"">+</div>","null","","fixation","","",""
"memory-trial","151","357824","0.0-18.0-1.53","4661","approach_avoid_sv1","""event"",""trial"",""time""
""fullscreenenter"",""1"",""1975""
","
","
","""event"",""trial"",""time""
""fullscreenenter"",""1"",""1975""
","
","","","","","","1045","images/rabbit3.png","","","memory_trial","1","definitely_old",""
"html-keyboard-response","152","358327","0.0-18.0-0.54","4661","approach_avoid_sv1","""event"",""trial"",""time""
""fullscreenenter"",""1"",""1975""
","
","
","""event"",""trial"",""time""
""fullscreenenter"",""1"",""1975""
","
","","","","","","null","<div style=""font-size:60px;"">+</div>","null","","fixation","","",""
"memory-trial","153","360153","0.0-18.0-1.54","4661","approach_avoid_sv1","""event"",""trial"",""time""
""fullscreenenter"",""1"",""1975""
","
","
","""event"",""trial"",""time""
""fullscreenenter"",""1"",""1975""
","
","","","","","","822","images/sheep4.png","","","memory_trial","1","definitely_old",""
"html-keyboard-response","154","360654","0.0-18.0-0.55","4661","approach_avoid_sv1","""event"",""trial"",""time""
""fullscreenenter"",""1"",""1975""
","
","
","""event"",""trial"",""time""
""fullscreenenter"",""1"",""1975""
","
","","","","","","null","<div style=""font-size:60px;"">+</div>","null","","fixation","","",""
"memory-trial","155","363250","0.0-18.0-1.55","4661","approach_avoid_sv1","""event"",""trial"",""time""
""fullscreenenter"",""1"",""1975""
","
","
","""event"",""trial"",""time""
""fullscreenenter"",""1"",""1975""
","
","","","","","","1593","images/sheep5.png","","","memory_trial","2","maybe_old",""
"html-keyboard-response","156","363753","0.0-18.0-0.56","4661","approach_avoid_sv1","""event"",""trial"",""time""
""fullscreenenter"",""1"",""1975""
","
","
","""event"",""trial"",""time""
""fullscreenenter"",""1"",""1975""
","
","","","","","","null","<div style=""font-size:60px;"">+</div>","null","","fixation","","",""
"memory-trial","157","366051","0.0-18.0-1.56","4661","approach_avoid_sv1","""event"",""trial"",""time""
""fullscreenenter"",""1"",""1975""
","
","
","""event"",""trial"",""time""
""fullscreenenter"",""1"",""1975""
","
","","","","","","1295","images/rabbit6.png","","","memory_trial","1","definitely_old",""
"html-keyboard-response","158","366554","0.0-18.0-0.57","4661","approach_avoid_sv1","""event"",""trial"",""time""
""fullscreenenter"",""1"",""1975""
","
","
","""event"",""trial"",""time""
""fullscreenenter"",""1"",""1975""
","
","","","","","","null","<div style=""font-size:60px;"">+</div>","null","","fixation","","",""
"memory-trial","159","368935","0.0-18.0-1.57","4661","approach_avoid_sv1","""event"",""trial"",""time""
""fullscreenenter"",""1"",""1975""
","
","
","""event"",""trial"",""time""
""fullscreenenter"",""1"",""1975""
","
","","","","","","1378.0000000000582","images/rabbit4.png","","","memory_trial","2","maybe_old",""
"html-keyboard-response","160","369436","0.0-18.0-0.58","4661","approach_avoid_sv1","""event"",""trial"",""time""
""fullscreenenter"",""1"",""1975""
","
","
","""event"",""trial"",""time""
""fullscreenenter"",""1"",""1975""
","
","","","","","","null","<div style=""font-size:60px;"">+</div>","null","","fixation","","",""
"memory-trial","161","371486","0.0-18.0-1.58","4661","approach_avoid_sv1","""event"",""trial"",""time""
""fullscreenenter"",""1"",""1975""
","
","
","""event"",""trial"",""time""
""fullscreenenter"",""1"",""1975""
","
","","","","","","1047","images/sofa8.png","","","memory_trial","1","definitely_old",""
"html-keyboard-response","162","371989","0.0-18.0-0.59","4661","approach_avoid_sv1","""event"",""trial"",""time""
""fullscreenenter"",""1"",""1975""
","
","
","""event"",""trial"",""time""
""fullscreenenter"",""1"",""1975""
","
","","","","","","null","<div style=""font-size:60px;"">+</div>","null","","fixation","","",""
"memory-trial","163","374343","0.0-18.0-1.59","4661","approach_avoid_sv1","""event"",""trial"",""time""
""fullscreenenter"",""1"",""1975""
","
","
","""event"",""trial"",""time""
""fullscreenenter"",""1"",""1975""
","
","","","","","","1351","images/tree1.png","","","memory_trial","2","maybe_old",""
"html-keyboard-response","164","374845","0.0-18.0-0.60","4661","approach_avoid_sv1","""event"",""trial"",""time""
""fullscreenenter"",""1"",""1975""
","
","
","""event"",""trial"",""time""
""fullscreenenter"",""1"",""1975""
","
","","","","","","null","<div style=""font-size:60px;"">+</div>","null","","fixation","","",""
"memory-trial","165","377709","0.0-18.0-1.60","4661","approach_avoid_sv1","""event"",""trial"",""time""
""fullscreenenter"",""1"",""1975""
","
","
","""event"",""trial"",""time""
""fullscreenenter"",""1"",""1975""
","
","","","","","","1861.0000000000582","images/apple4.png","","","memory_trial","4","definitely_new",""
"html-keyboard-response","166","378211","0.0-18.0-0.61","4661","approach_avoid_sv1","""event"",""trial"",""time""
""fullscreenenter"",""1"",""1975""
","
","
","""event"",""trial"",""time""
""fullscreenenter"",""1"",""1975""
","
","","","","","","null","<div style=""font-size:60px;"">+</div>","null","","fixation","","",""
"memory-trial","167","380519","0.0-18.0-1.61","4661","approach_avoid_sv1","""event"",""trial"",""time""
""fullscreenenter"",""1"",""1975""
","
","
","""event"",""trial"",""time""
""fullscreenenter"",""1"",""1975""
","
","","","","","","1307","images/chair5.png","","","memory_trial","4","definitely_new",""
"html-keyboard-response","168","381022","0.0-18.0-0.62","4661","approach_avoid_sv1","""event"",""trial"",""time""
""fullscreenenter"",""1"",""1975""
","
","
","""event"",""trial"",""time""
""fullscreenenter"",""1"",""1975""
","
","","","","","","null","<div style=""font-size:60px;"">+</div>","null","","fixation","","",""
"memory-trial","169","383202","0.0-18.0-1.62","4661","approach_avoid_sv1","""event"",""trial"",""time""
""fullscreenenter"",""1"",""1975""
","
","
","""event"",""trial"",""time""
""fullscreenenter"",""1"",""1975""
","
","","","","","","1177","images/table5.png","","","memory_trial","4","definitely_new",""
"html-keyboard-response","170","383705","0.0-18.0-0.63","4661","approach_avoid_sv1","""event"",""trial"",""time""
""fullscreenenter"",""1"",""1975""
","
","
","""event"",""trial"",""time""
""fullscreenenter"",""1"",""1975""
","
","","","","","","null","<div style=""font-size:60px;"">+</div>","null","","fixation","","",""
"memory-trial","171","385618","0.0-18.0-1.63","4661","approach_avoid_sv1","""event"",""trial"",""time""
""fullscreenenter"",""1"",""1975""
","
","
","""event"",""trial"",""time""
""fullscreenenter"",""1"",""1975""
","
","","","","","","909.9999999999418","images/cat4.png","","","memory_trial","1","definitely_old",""
"html-keyboard-response","172","386120","0.0-18.0-0.64","4661","approach_avoid_sv1","""event"",""trial"",""time""
""fullscreenenter"",""1"",""1975""
","
","
","""event"",""trial"",""time""
""fullscreenenter"",""1"",""1975""
","
","","","","","","null","<div style=""font-size:60px;"">+</div>","null","","fixation","","",""
"memory-trial","173","388148","0.0-18.0-1.64","4661","approach_avoid_sv1","""event"",""trial"",""time""
""fullscreenenter"",""1"",""1975""
","
","
","""event"",""trial"",""time""
""fullscreenenter"",""1"",""1975""
","
","","","","","","1024","images/dog4.png","","","memory_trial","1","definitely_old",""
"html-keyboard-response","174","388650","0.0-18.0-0.65","4661","approach_avoid_sv1","""event"",""trial"",""time""
""fullscreenenter"",""1"",""1975""
","
","
","""event"",""trial"",""time""
""fullscreenenter"",""1"",""1975""
","
","","","","","","null","<div style=""font-size:60px;"">+</div>","null","","fixation","","",""
"memory-trial","175","391062","0.0-18.0-1.65","4661","approach_avoid_sv1","""event"",""trial"",""time""
""fullscreenenter"",""1"",""1975""
","
","
","""event"",""trial"",""time""
""fullscreenenter"",""1"",""1975""
","
","","","","","","1409","images/rodent4.png","","","memory_trial","4","definitely_new",""
"html-keyboard-response","176","391565","0.0-18.0-0.66","4661","approach_avoid_sv1","""event"",""trial"",""time""
""fullscreenenter"",""1"",""1975""
","
","
","""event"",""trial"",""time""
""fullscreenenter"",""1"",""1975""
","
","","","","","","null","<div style=""font-size:60px;"">+</div>","null","","fixation","","",""
"memory-trial","177","393913","0.0-18.0-1.66","4661","approach_avoid_sv1","""event"",""trial"",""time""
""fullscreenenter"",""1"",""1975""
","
","
","""event"",""trial"",""time""
""fullscreenenter"",""1"",""1975""
","
","","","","","","1344","images/tree6.png","","","memory_trial","3","maybe_new",""
"html-keyboard-response","178","394415","0.0-18.0-0.67","4661","approach_avoid_sv1","""event"",""trial"",""time""
""fullscreenenter"",""1"",""1975""
","
","
","""event"",""trial"",""time""
""fullscreenenter"",""1"",""1975""
","
","","","","","","null","<div style=""font-size:60px;"">+</div>","null","","fixation","","",""
"memory-trial","179","396266","0.0-18.0-1.67","4661","approach_avoid_sv1","""event"",""trial"",""time""
""fullscreenenter"",""1"",""1975""
","
","
","""event"",""trial"",""time""
""fullscreenenter"",""1"",""1975""
","
","","","","","","847","images/straw1.png","","","memory_trial","1","definitely_old",""
"html-keyboard-response","180","396768","0.0-18.0-0.68","4661","approach_avoid_sv1","""event"",""trial"",""time""
""fullscreenenter"",""1"",""1975""
","
","
","""event"",""trial"",""time""
""fullscreenenter"",""1"",""1975""
","
","","","","","","null","<div style=""font-size:60px;"">+</div>","null","","fixation","","",""
"memory-trial","181","398958","0.0-18.0-1.68","4661","approach_avoid_sv1","""event"",""trial"",""time""
""fullscreenenter"",""1"",""1975""
","
","
","""event"",""trial"",""time""
""fullscreenenter"",""1"",""1975""
","
","","","","","","1187.0000000000582","images/tree4.png","","","memory_trial","1","definitely_old",""
"html-keyboard-response","182","399461","0.0-18.0-0.69","4661","approach_avoid_sv1","""event"",""trial"",""time""
""fullscreenenter"",""1"",""1975""
","
","
","""event"",""trial"",""time""
""fullscreenenter"",""1"",""1975""
","
","","","","","","null","<div style=""font-size:60px;"">+</div>","null","","fixation","","",""
"memory-trial","183","402402","0.0-18.0-1.69","4661","approach_avoid_sv1","""event"",""trial"",""time""
""fullscreenenter"",""1"",""1975""
","
","
","""event"",""trial"",""time""
""fullscreenenter"",""1"",""1975""
","
","","","","","","1938","images/boat7.png","","","memory_trial","3","maybe_new",""
"html-keyboard-response","184","402904","0.0-18.0-0.70","4661","approach_avoid_sv1","""event"",""trial"",""time""
""fullscreenenter"",""1"",""1975""
","
","
","""event"",""trial"",""time""
""fullscreenenter"",""1"",""1975""
","
","","","","","","null","<div style=""font-size:60px;"">+</div>","null","","fixation","","",""
"memory-trial","185","405154","0.0-18.0-1.70","4661","approach_avoid_sv1","""event"",""trial"",""time""
""fullscreenenter"",""1"",""1975""
","
","
","""event"",""trial"",""time""
""fullscreenenter"",""1"",""1975""
","
","","","","","","1247","images/banana8.png","","","memory_trial","1","definitely_old",""
"html-keyboard-response","186","405657","0.0-18.0-0.71","4661","approach_avoid_sv1","""event"",""trial"",""time""
""fullscreenenter"",""1"",""1975""
","
","
","""event"",""trial"",""time""
""fullscreenenter"",""1"",""1975""
","
","","","","","","null","<div style=""font-size:60px;"">+</div>","null","","fixation","","",""
"memory-trial","187","407211","0.0-18.0-1.71","4661","approach_avoid_sv1","""event"",""trial"",""time""
""fullscreenenter"",""1"",""1975""
","
","
","""event"",""trial"",""time""
""fullscreenenter"",""1"",""1975""
","
","","","","","","551","images/orange1.png","","","memory_trial","1","definitely_old",""
"html-keyboard-response","188","407713","0.0-18.0-0.72","4661","approach_avoid_sv1","""event"",""trial"",""time""
""fullscreenenter"",""1"",""1975""
","
","
","""event"",""trial"",""time""
""fullscreenenter"",""1"",""1975""
","
","","","","","","null","<div style=""font-size:60px;"">+</div>","null","","fixation","","",""
"memory-trial","189","410223","0.0-18.0-1.72","4661","approach_avoid_sv1","""event"",""trial"",""time""
""fullscreenenter"",""1"",""1975""
","
","
","""event"",""trial"",""time""
""fullscreenenter"",""1"",""1975""
","
","","","","","","1507","images/cow8.png","","","memory_trial","4","definitely_new",""
"html-keyboard-response","190","410726","0.0-18.0-0.73","4661","approach_avoid_sv1","""event"",""trial"",""time""
""fullscreenenter"",""1"",""1975""
","
","
","""event"",""trial"",""time""
""fullscreenenter"",""1"",""1975""
","
","","","","","","null","<div style=""font-size:60px;"">+</div>","null","","fixation","","",""
"memory-trial","191","412825","0.0-18.0-1.73","4661","approach_avoid_sv1","""event"",""trial"",""time""
""fullscreenenter"",""1"",""1975""
","
","
","""event"",""trial"",""time""
""fullscreenenter"",""1"",""1975""
","
","","","","","","1096","images/sofa2.png","","","memory_trial","1","definitely_old",""
"html-keyboard-response","192","413327","0.0-18.0-0.74","4661","approach_avoid_sv1","""event"",""trial"",""time""
""fullscreenenter"",""1"",""1975""
","
","
","""event"",""trial"",""time""
""fullscreenenter"",""1"",""1975""
","
","","","","","","null","<div style=""font-size:60px;"">+</div>","null","","fixation","","",""
"memory-trial","193","416217","0.0-18.0-1.74","4661","approach_avoid_sv1","""event"",""trial"",""time""
""fullscreenenter"",""1"",""1975""
","
","
","""event"",""trial"",""time""
""fullscreenenter"",""1"",""1975""
","
","","","","","","1887","images/horse1.png","","","memory_trial","2","maybe_old",""
"html-keyboard-response","194","416720","0.0-18.0-0.75","4661","approach_avoid_sv1","""event"",""trial"",""time""
""fullscreenenter"",""1"",""1975""
","
","
","""event"",""trial"",""time""
""fullscreenenter"",""1"",""1975""
","
","","","","","","null","<div style=""font-size:60px;"">+</div>","null","","fixation","","",""
"memory-trial","195","419188","0.0-18.0-1.75","4661","approach_avoid_sv1","""event"",""trial"",""time""
""fullscreenenter"",""1"",""1975""
","
","
","""event"",""trial"",""time""
""fullscreenenter"",""1"",""1975""
","
","","","","","","1466","images/horse5.png","","","memory_trial","4","definitely_new",""
"html-keyboard-response","196","419691","0.0-18.0-0.76","4661","approach_avoid_sv1","""event"",""trial"",""time""
""fullscreenenter"",""1"",""1975""
","
","
","""event"",""trial"",""time""
""fullscreenenter"",""1"",""1975""
","
","","","","","","null","<div style=""font-size:60px;"">+</div>","null","","fixation","","",""
"memory-trial","197","421579","0.0-18.0-1.76","4661","approach_avoid_sv1","""event"",""trial"",""time""
""fullscreenenter"",""1"",""1975""
","
","
","""event"",""trial"",""time""
""fullscreenenter"",""1"",""1975""
","
","","","","","","885","images/flower6.png","","","memory_trial","1","definitely_old",""
"html-keyboard-response","198","422081","0.0-18.0-0.77","4661","approach_avoid_sv1","""event"",""trial"",""time""
""fullscreenenter"",""1"",""1975""
","
","
","""event"",""trial"",""time""
""fullscreenenter"",""1"",""1975""
","
","","","","","","null","<div style=""font-size:60px;"">+</div>","null","","fixation","","",""
"memory-trial","199","423883","0.0-18.0-1.77","4661","approach_avoid_sv1","""event"",""trial"",""time""
""fullscreenenter"",""1"",""1975""
","
","
","""event"",""trial"",""time""
""fullscreenenter"",""1"",""1975""
","
","","","","","","800","images/horse8.png","","","memory_trial","1","definitely_old",""
"html-keyboard-response","200","424386","0.0-18.0-0.78","4661","approach_avoid_sv1","""event"",""trial"",""time""
""fullscreenenter"",""1"",""1975""
","
","
","""event"",""trial"",""time""
""fullscreenenter"",""1"",""1975""
","
","","","","","","null","<div style=""font-size:60px;"">+</div>","null","","fixation","","",""
"memory-trial","201","426936","0.0-18.0-1.78","4661","approach_avoid_sv1","""event"",""trial"",""time""
""fullscreenenter"",""1"",""1975""
","
","
","""event"",""trial"",""time""
""fullscreenenter"",""1"",""1975""
","
","","","","","","1547","images/tree8.png","","","memory_trial","3","maybe_new",""
"html-keyboard-response","202","427437","0.0-18.0-0.79","4661","approach_avoid_sv1","""event"",""trial"",""time""
""fullscreenenter"",""1"",""1975""
","
","
","""event"",""trial"",""time""
""fullscreenenter"",""1"",""1975""
","
","","","","","","null","<div style=""font-size:60px;"">+</div>","null","","fixation","","",""
"memory-trial","203","429478","0.0-18.0-1.79","4661","approach_avoid_sv1","""event"",""trial"",""time""
""fullscreenenter"",""1"",""1975""
","
","
","""event"",""trial"",""time""
""fullscreenenter"",""1"",""1975""
","
","","","","","","1036.9999999999418","images/table2.png","","","memory_trial","4","definitely_new",""
"html-keyboard-response","204","429980","0.0-18.0-0.80","4661","approach_avoid_sv1","""event"",""trial"",""time""
""fullscreenenter"",""1"",""1975""
","
","
","""event"",""trial"",""time""
""fullscreenenter"",""1"",""1975""
","
","","","","","","null","<div style=""font-size:60px;"">+</div>","null","","fixation","","",""
"memory-trial","205","432084","0.0-18.0-1.80","4661","approach_avoid_sv1","""event"",""trial"",""time""
""fullscreenenter"",""1"",""1975""
","
","
","""event"",""trial"",""time""
""fullscreenenter"",""1"",""1975""
","
","","","","","","1100","images/cactus6.png","","","memory_trial","4","definitely_new",""
"html-keyboard-response","206","432587","0.0-18.0-0.81","4661","approach_avoid_sv1","""event"",""trial"",""time""
""fullscreenenter"",""1"",""1975""
","
","
","""event"",""trial"",""time""
""fullscreenenter"",""1"",""1975""
","
","","","","","","null","<div style=""font-size:60px;"">+</div>","null","","fixation","","",""
"memory-trial","207","434574","0.0-18.0-1.81","4661","approach_avoid_sv1","""event"",""trial"",""time""
""fullscreenenter"",""1"",""1975""
","
","
","""event"",""trial"",""time""
""fullscreenenter"",""1"",""1975""
","
","","","","","","984.9999999999418","images/bed4.png","","","memory_trial","1","definitely_old",""
"html-keyboard-response","208","435076","0.0-18.0-0.82","4661","approach_avoid_sv1","""event"",""trial"",""time""
""fullscreenenter"",""1"",""1975""
","
","
","""event"",""trial"",""time""
""fullscreenenter"",""1"",""1975""
","
","","","","","","null","<div style=""font-size:60px;"">+</div>","null","","fixation","","",""
"memory-trial","209","437592","0.0-18.0-1.82","4661","approach_avoid_sv1","""event"",""trial"",""time""
""fullscreenenter"",""1"",""1975""
","
","
","""event"",""trial"",""time""
""fullscreenenter"",""1"",""1975""
","
","","","","","","1512","images/flower1.png","","","memory_trial","2","maybe_old",""
"html-keyboard-response","210","438094","0.0-18.0-0.83","4661","approach_avoid_sv1","""event"",""trial"",""time""
""fullscreenenter"",""1"",""1975""
","
","
","""event"",""trial"",""time""
""fullscreenenter"",""1"",""1975""
","
","","","","","","null","<div style=""font-size:60px;"">+</div>","null","","fixation","","",""
"memory-trial","211","441235","0.0-18.0-1.83","4661","approach_avoid_sv1","""event"",""trial"",""time""
""fullscreenenter"",""1"",""1975""
","
","
","""event"",""trial"",""time""
""fullscreenenter"",""1"",""1975""
","
","","","","","","2137","images/chair7.png","","","memory_trial","4","definitely_new",""
"html-keyboard-response","212","441737","0.0-18.0-0.84","4661","approach_avoid_sv1","""event"",""trial"",""time""
""fullscreenenter"",""1"",""1975""
","
","
","""event"",""trial"",""time""
""fullscreenenter"",""1"",""1975""
","
","","","","","","null","<div style=""font-size:60px;"">+</div>","null","","fixation","","",""
"memory-trial","213","444130","0.0-18.0-1.84","4661","approach_avoid_sv1","""event"",""trial"",""time""
""fullscreenenter"",""1"",""1975""
","
","
","""event"",""trial"",""time""
""fullscreenenter"",""1"",""1975""
","
","","","","","","1389","images/rodent7.png","","","memory_trial","4","definitely_new",""
"html-keyboard-response","214","444632","0.0-18.0-0.85","4661","approach_avoid_sv1","""event"",""trial"",""time""
""fullscreenenter"",""1"",""1975""
","
","
","""event"",""trial"",""time""
""fullscreenenter"",""1"",""1975""
","
","","","","","","null","<div style=""font-size:60px;"">+</div>","null","","fixation","","",""
"memory-trial","215","446491","0.0-18.0-1.85","4661","approach_avoid_sv1","""event"",""trial"",""time""
""fullscreenenter"",""1"",""1975""
","
","
","""event"",""trial"",""time""
""fullscreenenter"",""1"",""1975""
","
","","","","","","856","images/bush3.png","","","memory_trial","4","definitely_new",""
"html-keyboard-response","216","446993","0.0-18.0-0.86","4661","approach_avoid_sv1","""event"",""trial"",""time""
""fullscreenenter"",""1"",""1975""
","
","
","""event"",""trial"",""time""
""fullscreenenter"",""1"",""1975""
","
","","","","","","null","<div style=""font-size:60px;"">+</div>","null","","fixation","","",""
"memory-trial","217","448843","0.0-18.0-1.86","4661","approach_avoid_sv1","""event"",""trial"",""time""
""fullscreenenter"",""1"",""1975""
","
","
","""event"",""trial"",""time""
""fullscreenenter"",""1"",""1975""
","
","","","","","","846","images/flower7.png","","","memory_trial","1","definitely_old",""
"html-keyboard-response","218","449346","0.0-18.0-0.87","4661","approach_avoid_sv1","""event"",""trial"",""time""
""fullscreenenter"",""1"",""1975""
","
","
","""event"",""trial"",""time""
""fullscreenenter"",""1"",""1975""
","
","","","","","","null","<div style=""font-size:60px;"">+</div>","null","","fixation","","",""
"memory-trial","219","451216","0.0-18.0-1.87","4661","approach_avoid_sv1","""event"",""trial"",""time""
""fullscreenenter"",""1"",""1975""
","
","
","""event"",""trial"",""time""
""fullscreenenter"",""1"",""1975""
","
","","","","","","866","images/bush5.png","","","memory_trial","4","definitely_new",""
"html-keyboard-response","220","451719","0.0-18.0-0.88","4661","approach_avoid_sv1","""event"",""trial"",""time""
""fullscreenenter"",""1"",""1975""
","
","
","""event"",""trial"",""time""
""fullscreenenter"",""1"",""1975""
","
","","","","","","null","<div style=""font-size:60px;"">+</div>","null","","fixation","","",""
"memory-trial","221","454857","0.0-18.0-1.88","4661","approach_avoid_sv1","""event"",""trial"",""time""
""fullscreenenter"",""1"",""1975""
","
","
","""event"",""trial"",""time""
""fullscreenenter"",""1"",""1975""
","
","","","","","","2135.000000000058","images/cow5.png","","","memory_trial","3","maybe_new",""
"html-keyboard-response","222","455359","0.0-18.0-0.89","4661","approach_avoid_sv1","""event"",""trial"",""time""
""fullscreenenter"",""1"",""1975""
","
","
","""event"",""trial"",""time""
""fullscreenenter"",""1"",""1975""
","
","","","","","","null","<div style=""font-size:60px;"">+</div>","null","","fixation","","",""
"memory-trial","223","457209","0.0-18.0-1.89","4661","approach_avoid_sv1","""event"",""trial"",""time""
""fullscreenenter"",""1"",""1975""
","
","
","""event"",""trial"",""time""
""fullscreenenter"",""1"",""1975""
","
","","","","","","847","images/dog6.png","","","memory_trial","1","definitely_old",""
"html-keyboard-response","224","457711","0.0-18.0-0.90","4661","approach_avoid_sv1","""event"",""trial"",""time""
""fullscreenenter"",""1"",""1975""
","
","
","""event"",""trial"",""time""
""fullscreenenter"",""1"",""1975""
","
","","","","","","null","<div style=""font-size:60px;"">+</div>","null","","fixation","","",""
"memory-trial","225","459750","0.0-18.0-1.90","4661","approach_avoid_sv1","""event"",""trial"",""time""
""fullscreenenter"",""1"",""1975""
","
","
","""event"",""trial"",""time""
""fullscreenenter"",""1"",""1975""
","
","","","","","","1034.9999999999418","images/train6.png","","","memory_trial","4","definitely_new",""
"html-keyboard-response","226","460254","0.0-18.0-0.91","4661","approach_avoid_sv1","""event"",""trial"",""time""
""fullscreenenter"",""1"",""1975""
","
","
","""event"",""trial"",""time""
""fullscreenenter"",""1"",""1975""
","
","","","","","","null","<div style=""font-size:60px;"">+</div>","null","","fixation","","",""
"memory-trial","227","461855","0.0-18.0-1.91","4661","approach_avoid_sv1","""event"",""trial"",""time""
""fullscreenenter"",""1"",""1975""
","
","
","""event"",""trial"",""time""
""fullscreenenter"",""1"",""1975""
","
","","","","","","598","images/bed6.png","","","memory_trial","1","definitely_old",""
"html-button-response","228","464492","0.0-18.0-2.91-0.91","4661","approach_avoid_sv1","""event"",""trial"",""time""
""fullscreenenter"",""1"",""1975""
","
","
","""event"",""trial"",""time""
""fullscreenenter"",""1"",""1975""
","
","","","","","","2635.000000000058","<p> Take a break! </p><p> Click the button to continue. </p>","0","","break","","",""
"html-keyboard-response","229","464995","0.0-18.0-0.92","4661","approach_avoid_sv1","""event"",""trial"",""time""
""fullscreenenter"",""1"",""1975""
","
","
","""event"",""trial"",""time""
""fullscreenenter"",""1"",""1975""
","
","","","","","","null","<div style=""font-size:60px;"">+</div>","null","","fixation","","",""
"memory-trial","230","466811","0.0-18.0-1.92","4661","approach_avoid_sv1","""event"",""trial"",""time""
""fullscreenenter"",""1"",""1975""
","
","
","""event"",""trial"",""time""
""fullscreenenter"",""1"",""1975""
","
","","","","","","813","images/rabbit5.png","","","memory_trial","1","definitely_old",""
"html-keyboard-response","231","467314","0.0-18.0-0.93","4661","approach_avoid_sv1","""event"",""trial"",""time""
""fullscreenenter"",""1"",""1975""
","
","
","""event"",""trial"",""time""
""fullscreenenter"",""1"",""1975""
","
","","","","","","null","<div style=""font-size:60px;"">+</div>","null","","fixation","","",""
"memory-trial","232","469475","0.0-18.0-1.93","4661","approach_avoid_sv1","""event"",""trial"",""time""
""fullscreenenter"",""1"",""1975""
","
","
","""event"",""trial"",""time""
""fullscreenenter"",""1"",""1975""
","
","","","","","","1156","images/table8.png","","","memory_trial","4","definitely_new",""
"html-keyboard-response","233","469977","0.0-18.0-0.94","4661","approach_avoid_sv1","""event"",""trial"",""time""
""fullscreenenter"",""1"",""1975""
","
","
","""event"",""trial"",""time""
""fullscreenenter"",""1"",""1975""
","
","","","","","","null","<div style=""font-size:60px;"">+</div>","null","","fixation","","",""
"memory-trial","234","471802","0.0-18.0-1.94","4661","approach_avoid_sv1","""event"",""trial"",""time""
""fullscreenenter"",""1"",""1975""
","
","
","""event"",""trial"",""time""
""fullscreenenter"",""1"",""1975""
","
","","","","","","822","images/sheep8.png","","","memory_trial","1","definitely_old",""
"html-keyboard-response","235","472304","0.0-18.0-0.95","4661","approach_avoid_sv1","""event"",""trial"",""time""
""fullscreenenter"",""1"",""1975""
","
","
","""event"",""trial"",""time""
""fullscreenenter"",""1"",""1975""
","
","","","","","","null","<div style=""font-size:60px;"">+</div>","null","","fixation","","",""
"memory-trial","236","473922","0.0-18.0-1.95","4661","approach_avoid_sv1","""event"",""trial"",""time""
""fullscreenenter"",""1"",""1975""
","
","
","""event"",""trial"",""time""
""fullscreenenter"",""1"",""1975""
","
","","","","","","616","images/rabbit2.png","","","memory_trial","1","definitely_old",""
"html-keyboard-response","237","474424","0.0-18.0-0.96","4661","approach_avoid_sv1","""event"",""trial"",""time""
""fullscreenenter"",""1"",""1975""
","
","
","""event"",""trial"",""time""
""fullscreenenter"",""1"",""1975""
","
","","","","","","null","<div style=""font-size:60px;"">+</div>","null","","fixation","","",""
"memory-trial","238","476882","0.0-18.0-1.96","4661","approach_avoid_sv1","""event"",""trial"",""time""
""fullscreenenter"",""1"",""1975""
","
","
","""event"",""trial"",""time""
""fullscreenenter"",""1"",""1975""
","
","","","","","","1455","images/cactus7.png","","","memory_trial","4","definitely_new",""
"html-keyboard-response","239","477384","0.0-18.0-0.97","4661","approach_avoid_sv1","""event"",""trial"",""time""
""fullscreenenter"",""1"",""1975""
","
","
","""event"",""trial"",""time""
""fullscreenenter"",""1"",""1975""
","
","","","","","","null","<div style=""font-size:60px;"">+</div>","null","","fixation","","",""
"memory-trial","240","479371","0.0-18.0-1.97","4661","approach_avoid_sv1","""event"",""trial"",""time""
""fullscreenenter"",""1"",""1975""
","
","
","""event"",""trial"",""time""
""fullscreenenter"",""1"",""1975""
","
","","","","","","983.9999999999418","images/straw5.png","","","memory_trial","1","definitely_old",""
"html-keyboard-response","241","479873","0.0-18.0-0.98","4661","approach_avoid_sv1","""event"",""trial"",""time""
""fullscreenenter"",""1"",""1975""
","
","
","""event"",""trial"",""time""
""fullscreenenter"",""1"",""1975""
","
","","","","","","null","<div style=""font-size:60px;"">+</div>","null","","fixation","","",""
"memory-trial","242","481625","0.0-18.0-1.98","4661","approach_avoid_sv1","""event"",""trial"",""time""
""fullscreenenter"",""1"",""1975""
","
","
","""event"",""trial"",""time""
""fullscreenenter"",""1"",""1975""
","
","","","","","","749.0000000000582","images/dog7.png","","","memory_trial","1","definitely_old",""
"html-keyboard-response","243","482128","0.0-18.0-0.99","4661","approach_avoid_sv1","""event"",""trial"",""time""
""fullscreenenter"",""1"",""1975""
","
","
","""event"",""trial"",""time""
""fullscreenenter"",""1"",""1975""
","
","","","","","","null","<div style=""font-size:60px;"">+</div>","null","","fixation","","",""
"memory-trial","244","484228","0.0-18.0-1.99","4661","approach_avoid_sv1","""event"",""trial"",""time""
""fullscreenenter"",""1"",""1975""
","
","
","""event"",""trial"",""time""
""fullscreenenter"",""1"",""1975""
","
","","","","","","1097","images/apple1.png","","","memory_trial","4","definitely_new",""
"html-keyboard-response","245","484730","0.0-18.0-0.100","4661","approach_avoid_sv1","""event"",""trial"",""time""
""fullscreenenter"",""1"",""1975""
","
","
","""event"",""trial"",""time""
""fullscreenenter"",""1"",""1975""
","
","","","","","","null","<div style=""font-size:60px;"">+</div>","null","","fixation","","",""
"memory-trial","246","486452","0.0-18.0-1.100","4661","approach_avoid_sv1","""event"",""trial"",""time""
""fullscreenenter"",""1"",""1975""
","
","
","""event"",""trial"",""time""
""fullscreenenter"",""1"",""1975""
","
","","","","","","718.0000000000582","images/sheep2.png","","","memory_trial","1","definitely_old",""
"html-keyboard-response","247","486955","0.0-18.0-0.101","4661","approach_avoid_sv1","""event"",""trial"",""time""
""fullscreenenter"",""1"",""1975""
","
","
","""event"",""trial"",""time""
""fullscreenenter"",""1"",""1975""
","
","","","","","","null","<div style=""font-size:60px;"">+</div>","null","","fixation","","",""
"memory-trial","248","489090","0.0-18.0-1.101","4661","approach_avoid_sv1","""event"",""trial"",""time""
""fullscreenenter"",""1"",""1975""
","
","
","""event"",""trial"",""time""
""fullscreenenter"",""1"",""1975""
","
","","","","","","1131","images/cactus4.png","","","memory_trial","4","definitely_new",""
"html-keyboard-response","249","489592","0.0-18.0-0.102","4661","approach_avoid_sv1","""event"",""trial"",""time""
""fullscreenenter"",""1"",""1975""
","
","
","""event"",""trial"",""time""
""fullscreenenter"",""1"",""1975""
","
","","","","","","null","<div style=""font-size:60px;"">+</div>","null","","fixation","","",""
"memory-trial","250","491369","0.0-18.0-1.102","4661","approach_avoid_sv1","""event"",""trial"",""time""
""fullscreenenter"",""1"",""1975""
","
","
","""event"",""trial"",""time""
""fullscreenenter"",""1"",""1975""
","
","","","","","","773","images/banana3.png","","","memory_trial","1","definitely_old",""
"html-keyboard-response","251","491871","0.0-18.0-0.103","4661","approach_avoid_sv1","""event"",""trial"",""time""
""fullscreenenter"",""1"",""1975""
","
","
","""event"",""trial"",""time""
""fullscreenenter"",""1"",""1975""
","
","","","","","","null","<div style=""font-size:60px;"">+</div>","null","","fixation","","",""
"memory-trial","252","493476","0.0-18.0-1.103","4661","approach_avoid_sv1","""event"",""trial"",""time""
""fullscreenenter"",""1"",""1975""
","
","
","""event"",""trial"",""time""
""fullscreenenter"",""1"",""1975""
","
","","","","","","602.0000000000582","images/banana5.png","","","memory_trial","1","definitely_old",""
"html-keyboard-response","253","493979","0.0-18.0-0.104","4661","approach_avoid_sv1","""event"",""trial"",""time""
""fullscreenenter"",""1"",""1975""
","
","
","""event"",""trial"",""time""
""fullscreenenter"",""1"",""1975""
","
","","","","","","null","<div style=""font-size:60px;"">+</div>","null","","fixation","","",""
"memory-trial","254","496209","0.0-18.0-1.104","4661","approach_avoid_sv1","""event"",""trial"",""time""
""fullscreenenter"",""1"",""1975""
","
","
","""event"",""trial"",""time""
""fullscreenenter"",""1"",""1975""
","
","","","","","","1227","images/rodent8.png","","","memory_trial","4","definitely_new",""
"html-keyboard-response","255","496711","0.0-18.0-0.105","4661","approach_avoid_sv1","""event"",""trial"",""time""
""fullscreenenter"",""1"",""1975""
","
","
","""event"",""trial"",""time""
""fullscreenenter"",""1"",""1975""
","
","","","","","","null","<div style=""font-size:60px;"">+</div>","null","","fixation","","",""
"memory-trial","256","499561","0.0-18.0-1.105","4661","approach_avoid_sv1","""event"",""trial"",""time""
""fullscreenenter"",""1"",""1975""
","
","
","""event"",""trial"",""time""
""fullscreenenter"",""1"",""1975""
","
","","","","","","1846","images/boat2.png","","","memory_trial","2","maybe_old",""
"html-keyboard-response","257","500062","0.0-18.0-0.106","4661","approach_avoid_sv1","""event"",""trial"",""time""
""fullscreenenter"",""1"",""1975""
","
","
","""event"",""trial"",""time""
""fullscreenenter"",""1"",""1975""
","
","","","","","","null","<div style=""font-size:60px;"">+</div>","null","","fixation","","",""
"memory-trial","258","502217","0.0-18.0-1.106","4661","approach_avoid_sv1","""event"",""trial"",""time""
""fullscreenenter"",""1"",""1975""
","
","
","""event"",""trial"",""time""
""fullscreenenter"",""1"",""1975""
","
","","","","","","1152.9999999999418","images/chair2.png","","","memory_trial","4","definitely_new",""
"html-keyboard-response","259","502720","0.0-18.0-0.107","4661","approach_avoid_sv1","""event"",""trial"",""time""
""fullscreenenter"",""1"",""1975""
","
","
","""event"",""trial"",""time""
""fullscreenenter"",""1"",""1975""
","
","","","","","","null","<div style=""font-size:60px;"">+</div>","null","","fixation","","",""
"memory-trial","260","504734","0.0-18.0-1.107","4661","approach_avoid_sv1","""event"",""trial"",""time""
""fullscreenenter"",""1"",""1975""
","
","
","""event"",""trial"",""time""
""fullscreenenter"",""1"",""1975""
","
","","","","","","1011","images/sheep3.png","","","memory_trial","1","definitely_old",""
"html-keyboard-response","261","505236","0.0-18.0-0.108","4661","approach_avoid_sv1","""event"",""trial"",""time""
""fullscreenenter"",""1"",""1975""
","
","
","""event"",""trial"",""time""
""fullscreenenter"",""1"",""1975""
","
","","","","","","null","<div style=""font-size:60px;"">+</div>","null","","fixation","","",""
"memory-trial","262","507137","0.0-18.0-1.108","4661","approach_avoid_sv1","""event"",""trial"",""time""
""fullscreenenter"",""1"",""1975""
","
","
","""event"",""trial"",""time""
""fullscreenenter"",""1"",""1975""
","
","","","","","","897.0000000000582","images/bush7.png","","","memory_trial","4","definitely_new",""
"html-keyboard-response","263","507639","0.0-18.0-0.109","4661","approach_avoid_sv1","""event"",""trial"",""time""
""fullscreenenter"",""1"",""1975""
","
","
","""event"",""trial"",""time""
""fullscreenenter"",""1"",""1975""
","
","","","","","","null","<div style=""font-size:60px;"">+</div>","null","","fixation","","",""
"memory-trial","264","509517","0.0-18.0-1.109","4661","approach_avoid_sv1","""event"",""trial"",""time""
""fullscreenenter"",""1"",""1975""
","
","
","""event"",""trial"",""time""
""fullscreenenter"",""1"",""1975""
","
","","","","","","874.0000000000582","images/table1.png","","","memory_trial","4","definitely_new",""
"html-keyboard-response","265","510019","0.0-18.0-0.110","4661","approach_avoid_sv1","""event"",""trial"",""time""
""fullscreenenter"",""1"",""1975""
","
","
","""event"",""trial"",""time""
""fullscreenenter"",""1"",""1975""
","
","","","","","","null","<div style=""font-size:60px;"">+</div>","null","","fixation","","",""
"memory-trial","266","512305","0.0-18.0-1.110","4661","approach_avoid_sv1","""event"",""trial"",""time""
""fullscreenenter"",""1"",""1975""
","
","
","""event"",""trial"",""time""
""fullscreenenter"",""1"",""1975""
","
","","","","","","1282","images/cat5.png","","","memory_trial","2","maybe_old",""
"html-keyboard-response","267","512807","0.0-18.0-0.111","4661","approach_avoid_sv1","""event"",""trial"",""time""
""fullscreenenter"",""1"",""1975""
","
","
","""event"",""trial"",""time""
""fullscreenenter"",""1"",""1975""
","
","","","","","","null","<div style=""font-size:60px;"">+</div>","null","","fixation","","",""
"memory-trial","268","514975","0.0-18.0-1.111","4661","approach_avoid_sv1","""event"",""trial"",""time""
""fullscreenenter"",""1"",""1975""
","
","
","""event"",""trial"",""time""
""fullscreenenter"",""1"",""1975""
","
","","","","","","1164.0000000001164","images/bush6.png","","","memory_trial","4","definitely_new",""
"html-keyboard-response","269","515478","0.0-18.0-0.112","4661","approach_avoid_sv1","""event"",""trial"",""time""
""fullscreenenter"",""1"",""1975""
","
","
","""event"",""trial"",""time""
""fullscreenenter"",""1"",""1975""
","
","","","","","","null","<div style=""font-size:60px;"">+</div>","null","","fixation","","",""
"memory-trial","270","517772","0.0-18.0-1.112","4661","approach_avoid_sv1","""event"",""trial"",""time""
""fullscreenenter"",""1"",""1975""
","
","
","""event"",""trial"",""time""
""fullscreenenter"",""1"",""1975""
","
","","","","","","1290","images/goat2.png","","","memory_trial","2","maybe_old",""
"html-keyboard-response","271","518274","0.0-18.0-0.113","4661","approach_avoid_sv1","""event"",""trial"",""time""
""fullscreenenter"",""1"",""1975""
","
","
","""event"",""trial"",""time""
""fullscreenenter"",""1"",""1975""
","
","","","","","","null","<div style=""font-size:60px;"">+</div>","null","","fixation","","",""
"memory-trial","272","520671","0.0-18.0-1.113","4661","approach_avoid_sv1","""event"",""trial"",""time""
""fullscreenenter"",""1"",""1975""
","
","
","""event"",""trial"",""time""
""fullscreenenter"",""1"",""1975""
","
","","","","","","1394","images/rabbit1.png","","","memory_trial","2","maybe_old",""
"html-keyboard-response","273","521174","0.0-18.0-0.114","4661","approach_avoid_sv1","""event"",""trial"",""time""
""fullscreenenter"",""1"",""1975""
","
","
","""event"",""trial"",""time""
""fullscreenenter"",""1"",""1975""
","
","","","","","","null","<div style=""font-size:60px;"">+</div>","null","","fixation","","",""
"memory-trial","274","523062","0.0-18.0-1.114","4661","approach_avoid_sv1","""event"",""trial"",""time""
""fullscreenenter"",""1"",""1975""
","
","
","""event"",""trial"",""time""
""fullscreenenter"",""1"",""1975""
","
","","","","","","884","images/straw3.png","","","memory_trial","1","definitely_old",""
"html-keyboard-response","275","523563","0.0-18.0-0.115","4661","approach_avoid_sv1","""event"",""trial"",""time""
""fullscreenenter"",""1"",""1975""
","
","
","""event"",""trial"",""time""
""fullscreenenter"",""1"",""1975""
","
","","","","","","null","<div style=""font-size:60px;"">+</div>","null","","fixation","","",""
"memory-trial","276","525520","0.0-18.0-1.115","4661","approach_avoid_sv1","""event"",""trial"",""time""
""fullscreenenter"",""1"",""1975""
","
","
","""event"",""trial"",""time""
""fullscreenenter"",""1"",""1975""
","
","","","","","","953","images/chair1.png","","","memory_trial","1","definitely_old",""
"html-keyboard-response","277","526023","0.0-18.0-0.116","4661","approach_avoid_sv1","""event"",""trial"",""time""
""fullscreenenter"",""1"",""1975""
","
","
","""event"",""trial"",""time""
""fullscreenenter"",""1"",""1975""
","
","","","","","","null","<div style=""font-size:60px;"">+</div>","null","","fixation","","",""
"memory-trial","278","528286","0.0-18.0-1.116","4661","approach_avoid_sv1","""event"",""trial"",""time""
""fullscreenenter"",""1"",""1975""
","
","
","""event"",""trial"",""time""
""fullscreenenter"",""1"",""1975""
","
","","","","","","1260","images/flower4.png","","","memory_trial","4","definitely_new",""
"html-keyboard-response","279","528789","0.0-18.0-0.117","4661","approach_avoid_sv1","""event"",""trial"",""time""
""fullscreenenter"",""1"",""1975""
","
","
","""event"",""trial"",""time""
""fullscreenenter"",""1"",""1975""
","
","","","","","","null","<div style=""font-size:60px;"">+</div>","null","","fixation","","",""
"memory-trial","280","531339","0.0-18.0-1.117","4661","approach_avoid_sv1","""event"",""trial"",""time""
""fullscreenenter"",""1"",""1975""
","
","
","""event"",""trial"",""time""
""fullscreenenter"",""1"",""1975""
","
","","","","","","1547","images/sofa1.png","","","memory_trial","3","maybe_new",""
"html-keyboard-response","281","531842","0.0-18.0-0.118","4661","approach_avoid_sv1","""event"",""trial"",""time""
""fullscreenenter"",""1"",""1975""
","
","
","""event"",""trial"",""time""
""fullscreenenter"",""1"",""1975""
","
","","","","","","null","<div style=""font-size:60px;"">+</div>","null","","fixation","","",""
"memory-trial","282","533795","0.0-18.0-1.118","4661","approach_avoid_sv1","""event"",""trial"",""time""
""fullscreenenter"",""1"",""1975""
","
","
","""event"",""trial"",""time""
""fullscreenenter"",""1"",""1975""
","
","","","","","","949","images/plane4.png","","","memory_trial","1","definitely_old",""
"html-keyboard-response","283","534298","0.0-18.0-0.119","4661","approach_avoid_sv1","""event"",""trial"",""time""
""fullscreenenter"",""1"",""1975""
","
","
","""event"",""trial"",""time""
""fullscreenenter"",""1"",""1975""
","
","","","","","","null","<div style=""font-size:60px;"">+</div>","null","","fixation","","",""
"memory-trial","284","536846","0.0-18.0-1.119","4661","approach_avoid_sv1","""event"",""trial"",""time""
""fullscreenenter"",""1"",""1975""
","
","
","""event"",""trial"",""time""
""fullscreenenter"",""1"",""1975""
","
","","","","","","1545","images/banana7.png","","","memory_trial","2","maybe_old",""
"html-keyboard-response","285","537348","0.0-18.0-0.120","4661","approach_avoid_sv1","""event"",""trial"",""time""
""fullscreenenter"",""1"",""1975""
","
","
","""event"",""trial"",""time""
""fullscreenenter"",""1"",""1975""
","
","","","","","","null","<div style=""font-size:60px;"">+</div>","null","","fixation","","",""
"memory-trial","286","539718","0.0-18.0-1.120","4661","approach_avoid_sv1","""event"",""trial"",""time""
""fullscreenenter"",""1"",""1975""
","
","
","""event"",""trial"",""time""
""fullscreenenter"",""1"",""1975""
","
","","","","","","1366","images/rodent3.png","","","memory_trial","4","definitely_new",""
"html-keyboard-response","287","540221","0.0-18.0-0.121","4661","approach_avoid_sv1","""event"",""trial"",""time""
""fullscreenenter"",""1"",""1975""
","
","
","""event"",""trial"",""time""
""fullscreenenter"",""1"",""1975""
","
","","","","","","null","<div style=""font-size:60px;"">+</div>","null","","fixation","","",""
"memory-trial","288","542179","0.0-18.0-1.121","4661","approach_avoid_sv1","""event"",""trial"",""time""
""fullscreenenter"",""1"",""1975""
","
","
","""event"",""trial"",""time""
""fullscreenenter"",""1"",""1975""
","
","","","","","","954.9999999998836","images/bed8.png","","","memory_trial","1","definitely_old",""
"html-keyboard-response","289","542681","0.0-18.0-0.122","4661","approach_avoid_sv1","""event"",""trial"",""time""
""fullscreenenter"",""1"",""1975""
","
","
","""event"",""trial"",""time""
""fullscreenenter"",""1"",""1975""
","
","","","","","","null","<div style=""font-size:60px;"">+</div>","null","","fixation","","",""
"memory-trial","290","545148","0.0-18.0-1.122","4661","approach_avoid_sv1","""event"",""trial"",""time""
""fullscreenenter"",""1"",""1975""
","
","
","""event"",""trial"",""time""
""fullscreenenter"",""1"",""1975""
","
","","","","","","1464","images/cat1.png","","","memory_trial","3","maybe_new",""
"html-keyboard-response","291","545650","0.0-18.0-0.123","4661","approach_avoid_sv1","""event"",""trial"",""time""
""fullscreenenter"",""1"",""1975""
","
","
","""event"",""trial"",""time""
""fullscreenenter"",""1"",""1975""
","
","","","","","","null","<div style=""font-size:60px;"">+</div>","null","","fixation","","",""
"memory-trial","292","548001","0.0-18.0-1.123","4661","approach_avoid_sv1","""event"",""trial"",""time""
""fullscreenenter"",""1"",""1975""
","
","
","""event"",""trial"",""time""
""fullscreenenter"",""1"",""1975""
","
","","","","","","1347","images/cow2.png","","","memory_trial","2","maybe_old",""
"html-keyboard-response","293","548502","0.0-18.0-0.124","4661","approach_avoid_sv1","""event"",""trial"",""time""
""fullscreenenter"",""1"",""1975""
","
","
","""event"",""trial"",""time""
""fullscreenenter"",""1"",""1975""
","
","","","","","","null","<div style=""font-size:60px;"">+</div>","null","","fixation","","",""
"memory-trial","294","550629","0.0-18.0-1.124","4661","approach_avoid_sv1","""event"",""trial"",""time""
""fullscreenenter"",""1"",""1975""
","
","
","""event"",""trial"",""time""
""fullscreenenter"",""1"",""1975""
","
","","","","","","1125","images/flower3.png","","","memory_trial","4","definitely_new",""
"html-keyboard-response","295","551132","0.0-18.0-0.125","4661","approach_avoid_sv1","""event"",""trial"",""time""
""fullscreenenter"",""1"",""1975""
","
","
","""event"",""trial"",""time""
""fullscreenenter"",""1"",""1975""
","
","","","","","","null","<div style=""font-size:60px;"">+</div>","null","","fixation","","",""
"memory-trial","296","553092","0.0-18.0-1.125","4661","approach_avoid_sv1","""event"",""trial"",""time""
""fullscreenenter"",""1"",""1975""
","
","
","""event"",""trial"",""time""
""fullscreenenter"",""1"",""1975""
","
","","","","","","957","images/boat8.png","","","memory_trial","4","definitely_new",""
"html-keyboard-response","297","553594","0.0-18.0-0.126","4661","approach_avoid_sv1","""event"",""trial"",""time""
""fullscreenenter"",""1"",""1975""
","
","
","""event"",""trial"",""time""
""fullscreenenter"",""1"",""1975""
","
","","","","","","null","<div style=""font-size:60px;"">+</div>","null","","fixation","","",""
"memory-trial","298","555381","0.0-18.0-1.126","4661","approach_avoid_sv1","""event"",""trial"",""time""
""fullscreenenter"",""1"",""1975""
","
","
","""event"",""trial"",""time""
""fullscreenenter"",""1"",""1975""
","
","","","","","","784","images/sheep6.png","","","memory_trial","1","definitely_old",""
"html-keyboard-response","299","555883","0.0-18.0-0.127","4661","approach_avoid_sv1","""event"",""trial"",""time""
""fullscreenenter"",""1"",""1975""
","
","
","""event"",""trial"",""time""
""fullscreenenter"",""1"",""1975""
","
","","","","","","null","<div style=""font-size:60px;"">+</div>","null","","fixation","","",""
"memory-trial","300","557564","0.0-18.0-1.127","4661","approach_avoid_sv1","""event"",""trial"",""time""
""fullscreenenter"",""1"",""1975""
","
","
","""event"",""trial"",""time""
""fullscreenenter"",""1"",""1975""
","
","","","","","","677","images/straw4.png","","","memory_trial","1","definitely_old",""
