"trial_type","trial_index","time_elapsed","internal_node_id","subject_id","task_version","interactions","blur_events","focus_events","fullscreenenter_events","fullscreenexit_events","success","timeout","failed_images","failed_audio","failed_video","rt","stimulus","response","button_pressed","task_part","key_press","answer","correct"
"pavlovia","0","7","0.0-0.0","4147","approach_avoid_sv1","""event"",""trial"",""time""
""fullscreenenter"",""1"",""2199""
","
","
","""event"",""trial"",""time""
""fullscreenenter"",""1"",""2199""
","
","","","","","","","","","","","","",""
"fullscreen","1","3191","0.0-1.0","4147","approach_avoid_sv1","""event"",""trial"",""time""
""fullscreenenter"",""1"",""2199""
","
","
","""event"",""trial"",""time""
""fullscreenenter"",""1"",""2199""
","
","true","","","","","","","","","","","",""
"preload","2","4521","0.0-2.0","4147","approach_avoid_sv1","""event"",""trial"",""time""
""fullscreenenter"",""1"",""2199""
","
","
","""event"",""trial"",""time""
""fullscreenenter"",""1"",""2199""
","
","true","false","[]","[]","[]","","","","","","","",""
"preload","3","5108","0.0-3.0","4147","approach_avoid_sv1","""event"",""trial"",""time""
""fullscreenenter"",""1"",""2199""
","
","
","""event"",""trial"",""time""
""fullscreenenter"",""1"",""2199""
","
","true","false","[]","[]","[]","","","","","","","",""
"preload","4","5308","0.0-4.0","4147","approach_avoid_sv1","""event"",""trial"",""time""
""fullscreenenter"",""1"",""2199""
","
","
","""event"",""trial"",""time""
""fullscreenenter"",""1"",""2199""
","
","true","false","[]","[]","[]","","","","","","","",""
"audio-keyboard-response","5","8421","0.0-5.0","4147","approach_avoid_sv1","""event"",""trial"",""time""
""fullscreenenter"",""1"",""2199""
","
","
","""event"",""trial"",""time""
""fullscreenenter"",""1"",""2199""
","
","","","","","","3098.666666666667","audio/beep_loop.wav"," ","","","","",""
"audio-button-response","6","9928","0.0-6.0","4147","approach_avoid_sv1","""event"",""trial"",""time""
""fullscreenenter"",""1"",""2199""
","
","
","""event"",""trial"",""time""
""fullscreenenter"",""1"",""2199""
","
","","","","","","1512","audio/turtle.wav","3","","","","",""
"audio-button-response","7","11908","0.0-7.0","4147","approach_avoid_sv1","""event"",""trial"",""time""
""fullscreenenter"",""1"",""2199""
","
","
","""event"",""trial"",""time""
""fullscreenenter"",""1"",""2199""
","
","","","","","","979","audio/shark.wav","2","","","","",""
"preload","8","14300","0.0-8.0","4147","approach_avoid_sv1","""event"",""trial"",""time""
""fullscreenenter"",""1"",""2199""
","
","
","""event"",""trial"",""time""
""fullscreenenter"",""1"",""2199""
","
","true","false","[]","[]","[]","","","","","","","",""
"learning-instructions","9","20050","0.0-9.0-0.0","4147","approach_avoid_sv1","""event"",""trial"",""time""
""fullscreenenter"",""1"",""2199""
","
","
","""event"",""trial"",""time""
""fullscreenenter"",""1"",""2199""
","
","","","","","","1266.5","<p> Welcome back! </p><p> Last week, you had to make choices about lots of different items.  </p>","","0","instructions","","",""
"learning-instructions","10","25691","0.0-9.0-0.1","4147","approach_avoid_sv1","""event"",""trial"",""time""
""fullscreenenter"",""1"",""2199""
","
","
","""event"",""trial"",""time""
""fullscreenenter"",""1"",""2199""
","
","","","","","","1527.2999999970198","<p> Today, we are going to ask you to try to remember all the items. </p>","","0","instructions","","",""
"learning-instructions","11","36633","0.0-9.0-0.2","4147","approach_avoid_sv1","""event"",""trial"",""time""
""fullscreenenter"",""1"",""2199""
","
","
","""event"",""trial"",""time""
""fullscreenenter"",""1"",""2199""
","
","","","","","","798.7999999970198","<p> On every trial, you will see an image. </p><p> The image may be an OLD image you saw during the games last week or it may be a NEW image that was not presented. </p>","","0","instructions","","",""
"learning-instructions","12","46017","0.0-9.0-0.3","4147","approach_avoid_sv1","""event"",""trial"",""time""
""fullscreenenter"",""1"",""2199""
","
","
","""event"",""trial"",""time""
""fullscreenenter"",""1"",""2199""
","
","","","","","","863.4000000059605","<p> You need to select whether the image is:  </p><p>  'Definitely old', 'Maybe old', 'Maybe new', or 'Definitely new.'  </p><div class=""mem-choice-instructions-grid""><div class=""choice-option"" id=""choice-option-1"" ><img src=""images/definitely_old_1.png"" id=""choice-option-img-1"" class=""choice-option-img"" stage=""1""></div><div class=""choice-option"" id=""choice-option-2"" ><img src=""images/maybe_old_1.png"" id=""choice-option-img-2"" class=""choice-option-img"" stage=""1""></div><div class=""choice-option"" id=""choice-option-3"" ><img src=""images/maybe_new_1.png"" id=""choice-option-img-3"" class=""choice-option-img"" stage=""1""></div><div class=""choice-option"" id=""choice-option-4"" > <img src=""images/definitely_new_1.png"" id=""choice-option-img-4"" class=""choice-option-img"" stage=""1""></div></div>","","0","instructions","","",""
"learning-instructions","13","71229","0.0-9.0-0.4","4147","approach_avoid_sv1","""event"",""trial"",""time""
""fullscreenenter"",""1"",""2199""
","
","
","""event"",""trial"",""time""
""fullscreenenter"",""1"",""2199""
","
","","","","","","18694.5","<p> You should use the 1, 2, 3, and 4 keys to make your responses.  </p><div class=""mem-choice-instructions-grid""><div class=""choice-option"" id=""choice-option-1"" ><img src=""images/definitely_old.png"" id=""choice-option-img-1"" class=""choice-option-img"" stage=""1""></div><div class=""choice-option"" id=""choice-option-2"" ><img src=""images/maybe_old.png"" id=""choice-option-img-2"" class=""choice-option-img"" stage=""1""></div><div class=""choice-option"" id=""choice-option-3"" ><img src=""images/maybe_new.png"" id=""choice-option-img-3"" class=""choice-option-img"" stage=""1""></div><div class=""choice-option"" id=""choice-option-4"" > <img src=""images/definitely_new.png"" id=""choice-option-img-4"" class=""choice-option-img"" stage=""1""></div></div>","","0","instructions","","",""
"learning-instructions","14","78487","0.0-9.0-0.5","4147","approach_avoid_sv1","""event"",""trial"",""time""
""fullscreenenter"",""1"",""2199""
""blur"",""15"",""83876""
""focus"",""15"",""88494""
","""event"",""trial"",""time""
""blur"",""15"",""83876""
","""event"",""trial"",""time""
""focus"",""15"",""88494""
","""event"",""trial"",""time""
""fullscreenenter"",""1"",""2199""
","
","","","","","","922.9000000059605","<p> You will have 10 seconds to make each response.  </p><p>  Make sure to respond before time runs out! </p>","","0","instructions","","",""
"learning-instructions","15","89273","0.0-9.0-0.6","4147","approach_avoid_sv1","""event"",""trial"",""time""
""fullscreenenter"",""1"",""2199""
""blur"",""15"",""83876""
""focus"",""15"",""88494""
","""event"",""trial"",""time""
""blur"",""15"",""83876""
","""event"",""trial"",""time""
""focus"",""15"",""88494""
","""event"",""trial"",""time""
""fullscreenenter"",""1"",""2199""
","
","","","","","","3718.7000000029802","<p> Today, you will see each image ONCE only.  </p><p>  That means none of the images will repeat. </p>","","0","instructions","","",""
"learning-instructions","16","103256","0.0-9.0-0.7","4147","approach_avoid_sv1","""event"",""trial"",""time""
""fullscreenenter"",""1"",""2199""
""blur"",""15"",""83876""
""focus"",""15"",""88494""
","""event"",""trial"",""time""
""blur"",""15"",""83876""
","""event"",""trial"",""time""
""focus"",""15"",""88494""
","""event"",""trial"",""time""
""fullscreenenter"",""1"",""2199""
","
","","","","","","1312.0999999940395","<p> Before you play the real game, it is time to practice. </p><p>  Just like in the real game, some of the images in the practice will be ones you have seen before. </p><p>  Others will be entirely new. </p>","","0","instructions","","",""
"html-button-response","17","105101","0.0-10.0","4147","approach_avoid_sv1","""event"",""trial"",""time""
""fullscreenenter"",""1"",""2199""
""blur"",""15"",""83876""
""focus"",""15"",""88494""
","""event"",""trial"",""time""
""blur"",""15"",""83876""
","""event"",""trial"",""time""
""focus"",""15"",""88494""
","""event"",""trial"",""time""
""fullscreenenter"",""1"",""2199""
","
","","","","","","1734.4000000059605","<p> Ready to practice? </p><p> Remember, use the 1, 2, 3, and 4 keys to make your responses. </p>","0","","instructions","","",""
"html-keyboard-response","18","105716","0.0-11.0-0.0","4147","approach_avoid_sv1","""event"",""trial"",""time""
""fullscreenenter"",""1"",""2199""
""blur"",""15"",""83876""
""focus"",""15"",""88494""
","""event"",""trial"",""time""
""blur"",""15"",""83876""
","""event"",""trial"",""time""
""focus"",""15"",""88494""
","""event"",""trial"",""time""
""fullscreenenter"",""1"",""2199""
","
","","","","","","null","<div style=""font-size:60px;"">+</div>","null","","fixation","","",""
"memory-trial","19","109385","0.0-11.0-1.0","4147","approach_avoid_sv1","""event"",""trial"",""time""
""fullscreenenter"",""1"",""2199""
""blur"",""15"",""83876""
""focus"",""15"",""88494""
","""event"",""trial"",""time""
""blur"",""15"",""83876""
","""event"",""trial"",""time""
""focus"",""15"",""88494""
","""event"",""trial"",""time""
""fullscreenenter"",""1"",""2199""
","
","","","","","","2652.199999988079","images/ball3.png","","","practice","4","definitely_new",""
"html-keyboard-response","20","109906","0.0-11.0-0.1","4147","approach_avoid_sv1","""event"",""trial"",""time""
""fullscreenenter"",""1"",""2199""
""blur"",""15"",""83876""
""focus"",""15"",""88494""
","""event"",""trial"",""time""
""blur"",""15"",""83876""
","""event"",""trial"",""time""
""focus"",""15"",""88494""
","""event"",""trial"",""time""
""fullscreenenter"",""1"",""2199""
","
","","","","","","null","<div style=""font-size:60px;"">+</div>","null","","fixation","","",""
"memory-trial","21","113527","0.0-11.0-1.1","4147","approach_avoid_sv1","""event"",""trial"",""time""
""fullscreenenter"",""1"",""2199""
""blur"",""15"",""83876""
""focus"",""15"",""88494""
","""event"",""trial"",""time""
""blur"",""15"",""83876""
","""event"",""trial"",""time""
""focus"",""15"",""88494""
","""event"",""trial"",""time""
""fullscreenenter"",""1"",""2199""
","
","","","","","","2615.1000000089407","images/racket5.png","","","practice","1","definitely_old",""
"html-keyboard-response","22","114044","0.0-11.0-0.2","4147","approach_avoid_sv1","""event"",""trial"",""time""
""fullscreenenter"",""1"",""2199""
""blur"",""15"",""83876""
""focus"",""15"",""88494""
","""event"",""trial"",""time""
""blur"",""15"",""83876""
","""event"",""trial"",""time""
""focus"",""15"",""88494""
","""event"",""trial"",""time""
""fullscreenenter"",""1"",""2199""
","
","","","","","","null","<div style=""font-size:60px;"">+</div>","null","","fixation","","",""
"memory-trial","23","116611","0.0-11.0-1.2","4147","approach_avoid_sv1","""event"",""trial"",""time""
""fullscreenenter"",""1"",""2199""
""blur"",""15"",""83876""
""focus"",""15"",""88494""
","""event"",""trial"",""time""
""blur"",""15"",""83876""
","""event"",""trial"",""time""
""focus"",""15"",""88494""
","""event"",""trial"",""time""
""fullscreenenter"",""1"",""2199""
","
","","","","","","1550.8999999910593","images/racket1.png","","","practice","1","definitely_old",""
"html-keyboard-response","24","117118","0.0-11.0-0.3","4147","approach_avoid_sv1","""event"",""trial"",""time""
""fullscreenenter"",""1"",""2199""
""blur"",""15"",""83876""
""focus"",""15"",""88494""
","""event"",""trial"",""time""
""blur"",""15"",""83876""
","""event"",""trial"",""time""
""focus"",""15"",""88494""
","""event"",""trial"",""time""
""fullscreenenter"",""1"",""2199""
","
","","","","","","null","<div style=""font-size:60px;"">+</div>","null","","fixation","","",""
"memory-trial","25","119060","0.0-11.0-1.3","4147","approach_avoid_sv1","""event"",""trial"",""time""
""fullscreenenter"",""1"",""2199""
""blur"",""15"",""83876""
""focus"",""15"",""88494""
","""event"",""trial"",""time""
""blur"",""15"",""83876""
","""event"",""trial"",""time""
""focus"",""15"",""88494""
","""event"",""trial"",""time""
""fullscreenenter"",""1"",""2199""
","
","","","","","","932.7000000029802","images/ball2.png","","","practice","4","definitely_new",""
"html-keyboard-response","26","119565","0.0-11.0-0.4","4147","approach_avoid_sv1","""event"",""trial"",""time""
""fullscreenenter"",""1"",""2199""
""blur"",""15"",""83876""
""focus"",""15"",""88494""
","""event"",""trial"",""time""
""blur"",""15"",""83876""
","""event"",""trial"",""time""
""focus"",""15"",""88494""
","""event"",""trial"",""time""
""fullscreenenter"",""1"",""2199""
","
","","","","","","null","<div style=""font-size:60px;"">+</div>","null","","fixation","","",""
"memory-trial","27","121641","0.0-11.0-1.4","4147","approach_avoid_sv1","""event"",""trial"",""time""
""fullscreenenter"",""1"",""2199""
""blur"",""15"",""83876""
""focus"",""15"",""88494""
","""event"",""trial"",""time""
""blur"",""15"",""83876""
","""event"",""trial"",""time""
""focus"",""15"",""88494""
","""event"",""trial"",""time""
""fullscreenenter"",""1"",""2199""
","
","","","","","","1051.9000000059605","images/racket2.png","","","practice","4","definitely_new",""
"html-keyboard-response","28","122158","0.0-11.0-0.5","4147","approach_avoid_sv1","""event"",""trial"",""time""
""fullscreenenter"",""1"",""2199""
""blur"",""15"",""83876""
""focus"",""15"",""88494""
","""event"",""trial"",""time""
""blur"",""15"",""83876""
","""event"",""trial"",""time""
""focus"",""15"",""88494""
","""event"",""trial"",""time""
""fullscreenenter"",""1"",""2199""
","
","","","","","","null","<div style=""font-size:60px;"">+</div>","null","","fixation","","",""
"memory-trial","29","125934","0.0-11.0-1.5","4147","approach_avoid_sv1","""event"",""trial"",""time""
""fullscreenenter"",""1"",""2199""
""blur"",""15"",""83876""
""focus"",""15"",""88494""
","""event"",""trial"",""time""
""blur"",""15"",""83876""
","""event"",""trial"",""time""
""focus"",""15"",""88494""
","""event"",""trial"",""time""
""fullscreenenter"",""1"",""2199""
","
","","","","","","2762.699999988079","images/ball5.png","","","practice","3","maybe_new",""
"html-keyboard-response","30","126449","0.0-11.0-0.6","4147","approach_avoid_sv1","""event"",""trial"",""time""
""fullscreenenter"",""1"",""2199""
""blur"",""15"",""83876""
""focus"",""15"",""88494""
","""event"",""trial"",""time""
""blur"",""15"",""83876""
","""event"",""trial"",""time""
""focus"",""15"",""88494""
","""event"",""trial"",""time""
""fullscreenenter"",""1"",""2199""
","
","","","","","","null","<div style=""font-size:60px;"">+</div>","null","","fixation","","",""
"memory-trial","31","129640","0.0-11.0-1.6","4147","approach_avoid_sv1","""event"",""trial"",""time""
""fullscreenenter"",""1"",""2199""
""blur"",""15"",""83876""
""focus"",""15"",""88494""
","""event"",""trial"",""time""
""blur"",""15"",""83876""
","""event"",""trial"",""time""
""focus"",""15"",""88494""
","""event"",""trial"",""time""
""fullscreenenter"",""1"",""2199""
","
","","","","","","2169","images/ball1.png","","","practice","1","definitely_old",""
"html-keyboard-response","32","130155","0.0-11.0-0.7","4147","approach_avoid_sv1","""event"",""trial"",""time""
""fullscreenenter"",""1"",""2199""
""blur"",""15"",""83876""
""focus"",""15"",""88494""
","""event"",""trial"",""time""
""blur"",""15"",""83876""
","""event"",""trial"",""time""
""focus"",""15"",""88494""
","""event"",""trial"",""time""
""fullscreenenter"",""1"",""2199""
","
","","","","","","null","<div style=""font-size:60px;"">+</div>","null","","fixation","","",""
"memory-trial","33","132564","0.0-11.0-1.7","4147","approach_avoid_sv1","""event"",""trial"",""time""
""fullscreenenter"",""1"",""2199""
""blur"",""15"",""83876""
""focus"",""15"",""88494""
","""event"",""trial"",""time""
""blur"",""15"",""83876""
","""event"",""trial"",""time""
""focus"",""15"",""88494""
","""event"",""trial"",""time""
""fullscreenenter"",""1"",""2199""
","
","","","","","","1405.6000000089407","images/racket3.png","","","practice","4","definitely_new",""
"learning-instructions","34","140646","0.0-12.0-0.0","4147","approach_avoid_sv1","""event"",""trial"",""time""
""fullscreenenter"",""1"",""2199""
""blur"",""15"",""83876""
""focus"",""15"",""88494""
","""event"",""trial"",""time""
""blur"",""15"",""83876""
","""event"",""trial"",""time""
""focus"",""15"",""88494""
","""event"",""trial"",""time""
""fullscreenenter"",""1"",""2199""
","
","","","","","","780.7999999970198","<p> Great! You have completed the practice. </p><p> Before you start, we're going to ask you a few questions about how the game works.  </p>","","0","instructions","","",""
"preload","35","142355","0.0-13.0","4147","approach_avoid_sv1","""event"",""trial"",""time""
""fullscreenenter"",""1"",""2199""
""blur"",""15"",""83876""
""focus"",""15"",""88494""
","""event"",""trial"",""time""
""blur"",""15"",""83876""
","""event"",""trial"",""time""
""focus"",""15"",""88494""
","""event"",""trial"",""time""
""fullscreenenter"",""1"",""2199""
","
","true","false","[]","[]","[]","","","","","","","",""
"comp-q","36","149442","0.0-14.0-0.0","4147","approach_avoid_sv1","""event"",""trial"",""time""
""fullscreenenter"",""1"",""2199""
""blur"",""15"",""83876""
""focus"",""15"",""88494""
","""event"",""trial"",""time""
""blur"",""15"",""83876""
","""event"",""trial"",""time""
""focus"",""15"",""88494""
","""event"",""trial"",""time""
""fullscreenenter"",""1"",""2199""
","
","","","","","","1255.5","<p> <b> True or False? </b> </p><p> In this game, you will only see each image once. </p>","","0","comp_question","","","true"
"comp-q","37","156657","0.0-14.0-1.0","4147","approach_avoid_sv1","""event"",""trial"",""time""
""fullscreenenter"",""1"",""2199""
""blur"",""15"",""83876""
""focus"",""15"",""88494""
","""event"",""trial"",""time""
""blur"",""15"",""83876""
","""event"",""trial"",""time""
""focus"",""15"",""88494""
","""event"",""trial"",""time""
""fullscreenenter"",""1"",""2199""
","
","","","","","","862.6000000089407","<p> <b> That's right! </b> You will see many different images <i> one time each </i> in this game. </p>","","0","comp_answer","","",""
"comp-q","38","162415","0.0-15.0-0.0","4147","approach_avoid_sv1","""event"",""trial"",""time""
""fullscreenenter"",""1"",""2199""
""blur"",""15"",""83876""
""focus"",""15"",""88494""
","""event"",""trial"",""time""
""blur"",""15"",""83876""
","""event"",""trial"",""time""
""focus"",""15"",""88494""
","""event"",""trial"",""time""
""fullscreenenter"",""1"",""2199""
","
","","","","","","740.2000000029802","<p> <b> True or False? </b> </p><p> You should use the mouse and click to make your response. </p>","","1","comp_question","","","true"
"comp-q","39","169869","0.0-15.0-1.0","4147","approach_avoid_sv1","""event"",""trial"",""time""
""fullscreenenter"",""1"",""2199""
""blur"",""15"",""83876""
""focus"",""15"",""88494""
","""event"",""trial"",""time""
""blur"",""15"",""83876""
","""event"",""trial"",""time""
""focus"",""15"",""88494""
","""event"",""trial"",""time""
""fullscreenenter"",""1"",""2199""
","
","","","","","","953.7999999970198","<p><b> That's right! </b> You should use the '1', '2', '3', and '4' keys to make your response. </p>","","0","comp_answer","","",""
"comp-q","40","176211","0.0-16.0-0.0","4147","approach_avoid_sv1","""event"",""trial"",""time""
""fullscreenenter"",""1"",""2199""
""blur"",""15"",""83876""
""focus"",""15"",""88494""
","""event"",""trial"",""time""
""blur"",""15"",""83876""
","""event"",""trial"",""time""
""focus"",""15"",""88494""
","""event"",""trial"",""time""
""fullscreenenter"",""1"",""2199""
","
","","","","","","666.2999999970198","<p> <b> True or False? </b> </p><p> You will have as much time as you want to make each choice. </p>","","1","comp_question","","","true"
"comp-q","41","181701","0.0-16.0-1.0","4147","approach_avoid_sv1","""event"",""trial"",""time""
""fullscreenenter"",""1"",""2199""
""blur"",""15"",""83876""
""focus"",""15"",""88494""
","""event"",""trial"",""time""
""blur"",""15"",""83876""
","""event"",""trial"",""time""
""focus"",""15"",""88494""
","""event"",""trial"",""time""
""fullscreenenter"",""1"",""2199""
","
","","","","","","786.2000000029802","<p> <b> That's right! </b> You will only have 10 seconds to make each choice. </p>","","0","comp_answer","","",""
"learning-instructions","42","192484","0.0-17.0","4147","approach_avoid_sv1","""event"",""trial"",""time""
""fullscreenenter"",""1"",""2199""
""blur"",""15"",""83876""
""focus"",""15"",""88494""
","""event"",""trial"",""time""
""blur"",""15"",""83876""
","""event"",""trial"",""time""
""focus"",""15"",""88494""
","""event"",""trial"",""time""
""fullscreenenter"",""1"",""2199""
","
","","","","","","2109.9000000059605","<p> Great! You are now ready to begin the game. </p><p> Remember, use the 1, 2, 3, and 4 keys to make your responses. </p>","","0","instructions","","",""
"html-keyboard-response","43","193116","0.0-18.0-0.0","4147","approach_avoid_sv1","""event"",""trial"",""time""
""fullscreenenter"",""1"",""2199""
""blur"",""15"",""83876""
""focus"",""15"",""88494""
","""event"",""trial"",""time""
""blur"",""15"",""83876""
","""event"",""trial"",""time""
""focus"",""15"",""88494""
","""event"",""trial"",""time""
""fullscreenenter"",""1"",""2199""
","
","","","","","","null","<div style=""font-size:60px;"">+</div>","null","","fixation","","",""
"memory-trial","44","196934","0.0-18.0-1.0","4147","approach_avoid_sv1","""event"",""trial"",""time""
""fullscreenenter"",""1"",""2199""
""blur"",""15"",""83876""
""focus"",""15"",""88494""
","""event"",""trial"",""time""
""blur"",""15"",""83876""
","""event"",""trial"",""time""
""focus"",""15"",""88494""
","""event"",""trial"",""time""
""fullscreenenter"",""1"",""2199""
","
","","","","","","2805.5999999940395","images/flower6.png","","","memory_trial","1","definitely_old",""
"html-keyboard-response","45","197454","0.0-18.0-0.1","4147","approach_avoid_sv1","""event"",""trial"",""time""
""fullscreenenter"",""1"",""2199""
""blur"",""15"",""83876""
""focus"",""15"",""88494""
","""event"",""trial"",""time""
""blur"",""15"",""83876""
","""event"",""trial"",""time""
""focus"",""15"",""88494""
","""event"",""trial"",""time""
""fullscreenenter"",""1"",""2199""
","
","","","","","","null","<div style=""font-size:60px;"">+</div>","null","","fixation","","",""
"memory-trial","46","200383","0.0-18.0-1.1","4147","approach_avoid_sv1","""event"",""trial"",""time""
""fullscreenenter"",""1"",""2199""
""blur"",""15"",""83876""
""focus"",""15"",""88494""
","""event"",""trial"",""time""
""blur"",""15"",""83876""
","""event"",""trial"",""time""
""focus"",""15"",""88494""
","""event"",""trial"",""time""
""fullscreenenter"",""1"",""2199""
","
","","","","","","1914.7999999970198","images/orange2.png","","","memory_trial","1","definitely_old",""
"html-keyboard-response","47","200903","0.0-18.0-0.2","4147","approach_avoid_sv1","""event"",""trial"",""time""
""fullscreenenter"",""1"",""2199""
""blur"",""15"",""83876""
""focus"",""15"",""88494""
","""event"",""trial"",""time""
""blur"",""15"",""83876""
","""event"",""trial"",""time""
""focus"",""15"",""88494""
","""event"",""trial"",""time""
""fullscreenenter"",""1"",""2199""
","
","","","","","","null","<div style=""font-size:60px;"">+</div>","null","","fixation","","",""
"memory-trial","48","203181","0.0-18.0-1.2","4147","approach_avoid_sv1","""event"",""trial"",""time""
""fullscreenenter"",""1"",""2199""
""blur"",""15"",""83876""
""focus"",""15"",""88494""
","""event"",""trial"",""time""
""blur"",""15"",""83876""
","""event"",""trial"",""time""
""focus"",""15"",""88494""
","""event"",""trial"",""time""
""fullscreenenter"",""1"",""2199""
","
","","","","","","1257.7999999970198","images/table2.png","","","memory_trial","4","definitely_new",""
"html-keyboard-response","49","203696","0.0-18.0-0.3","4147","approach_avoid_sv1","""event"",""trial"",""time""
""fullscreenenter"",""1"",""2199""
""blur"",""15"",""83876""
""focus"",""15"",""88494""
","""event"",""trial"",""time""
""blur"",""15"",""83876""
","""event"",""trial"",""time""
""focus"",""15"",""88494""
","""event"",""trial"",""time""
""fullscreenenter"",""1"",""2199""
","
","","","","","","null","<div style=""font-size:60px;"">+</div>","null","","fixation","","",""
"memory-trial","50","206817","0.0-18.0-1.3","4147","approach_avoid_sv1","""event"",""trial"",""time""
""fullscreenenter"",""1"",""2199""
""blur"",""15"",""83876""
""focus"",""15"",""88494""
","""event"",""trial"",""time""
""blur"",""15"",""83876""
","""event"",""trial"",""time""
""focus"",""15"",""88494""
","""event"",""trial"",""time""
""fullscreenenter"",""1"",""2199""
","
","","","","","","2111.2000000029802","images/train7.png","","","memory_trial","4","definitely_new",""
"html-keyboard-response","51","207338","0.0-18.0-0.4","4147","approach_avoid_sv1","""event"",""trial"",""time""
""fullscreenenter"",""1"",""2199""
""blur"",""15"",""83876""
""focus"",""15"",""88494""
","""event"",""trial"",""time""
""blur"",""15"",""83876""
","""event"",""trial"",""time""
""focus"",""15"",""88494""
","""event"",""trial"",""time""
""fullscreenenter"",""1"",""2199""
","
","","","","","","null","<div style=""font-size:60px;"">+</div>","null","","fixation","","",""
"memory-trial","52","210229","0.0-18.0-1.4","4147","approach_avoid_sv1","""event"",""trial"",""time""
""fullscreenenter"",""1"",""2199""
""blur"",""15"",""83876""
""focus"",""15"",""88494""
","""event"",""trial"",""time""
""blur"",""15"",""83876""
","""event"",""trial"",""time""
""focus"",""15"",""88494""
","""event"",""trial"",""time""
""fullscreenenter"",""1"",""2199""
","
","","","","","","1880.4000000059605","images/tree6.png","","","memory_trial","1","definitely_old",""
"html-keyboard-response","53","210732","0.0-18.0-0.5","4147","approach_avoid_sv1","""event"",""trial"",""time""
""fullscreenenter"",""1"",""2199""
""blur"",""15"",""83876""
""focus"",""15"",""88494""
","""event"",""trial"",""time""
""blur"",""15"",""83876""
","""event"",""trial"",""time""
""focus"",""15"",""88494""
","""event"",""trial"",""time""
""fullscreenenter"",""1"",""2199""
","
","","","","","","null","<div style=""font-size:60px;"">+</div>","null","","fixation","","",""
"memory-trial","54","214120","0.0-18.0-1.5","4147","approach_avoid_sv1","""event"",""trial"",""time""
""fullscreenenter"",""1"",""2199""
""blur"",""15"",""83876""
""focus"",""15"",""88494""
","""event"",""trial"",""time""
""blur"",""15"",""83876""
","""event"",""trial"",""time""
""focus"",""15"",""88494""
","""event"",""trial"",""time""
""fullscreenenter"",""1"",""2199""
","
","","","","","","2365.2000000029802","images/boat7.png","","","memory_trial","4","definitely_new",""
"html-keyboard-response","55","214637","0.0-18.0-0.6","4147","approach_avoid_sv1","""event"",""trial"",""time""
""fullscreenenter"",""1"",""2199""
""blur"",""15"",""83876""
""focus"",""15"",""88494""
","""event"",""trial"",""time""
""blur"",""15"",""83876""
","""event"",""trial"",""time""
""focus"",""15"",""88494""
","""event"",""trial"",""time""
""fullscreenenter"",""1"",""2199""
","
","","","","","","null","<div style=""font-size:60px;"">+</div>","null","","fixation","","",""
"memory-trial","56","216848","0.0-18.0-1.6","4147","approach_avoid_sv1","""event"",""trial"",""time""
""fullscreenenter"",""1"",""2199""
""blur"",""15"",""83876""
""focus"",""15"",""88494""
","""event"",""trial"",""time""
""blur"",""15"",""83876""
","""event"",""trial"",""time""
""focus"",""15"",""88494""
","""event"",""trial"",""time""
""fullscreenenter"",""1"",""2199""
","
","","","","","","1196.300000011921","images/cactus5.png","","","memory_trial","1","definitely_old",""
"html-keyboard-response","57","217369","0.0-18.0-0.7","4147","approach_avoid_sv1","""event"",""trial"",""time""
""fullscreenenter"",""1"",""2199""
""blur"",""15"",""83876""
""focus"",""15"",""88494""
","""event"",""trial"",""time""
""blur"",""15"",""83876""
","""event"",""trial"",""time""
""focus"",""15"",""88494""
","""event"",""trial"",""time""
""fullscreenenter"",""1"",""2199""
","
","","","","","","null","<div style=""font-size:60px;"">+</div>","null","","fixation","","",""
"memory-trial","58","219642","0.0-18.0-1.7","4147","approach_avoid_sv1","""event"",""trial"",""time""
""fullscreenenter"",""1"",""2199""
""blur"",""15"",""83876""
""focus"",""15"",""88494""
","""event"",""trial"",""time""
""blur"",""15"",""83876""
","""event"",""trial"",""time""
""focus"",""15"",""88494""
","""event"",""trial"",""time""
""fullscreenenter"",""1"",""2199""
","
","","","","","","1256.6000000089407","images/cat4.png","","","memory_trial","4","definitely_new",""
"html-keyboard-response","59","220158","0.0-18.0-0.8","4147","approach_avoid_sv1","""event"",""trial"",""time""
""fullscreenenter"",""1"",""2199""
""blur"",""15"",""83876""
""focus"",""15"",""88494""
","""event"",""trial"",""time""
""blur"",""15"",""83876""
","""event"",""trial"",""time""
""focus"",""15"",""88494""
","""event"",""trial"",""time""
""fullscreenenter"",""1"",""2199""
","
","","","","","","null","<div style=""font-size:60px;"">+</div>","null","","fixation","","",""
"memory-trial","60","222875","0.0-18.0-1.8","4147","approach_avoid_sv1","""event"",""trial"",""time""
""fullscreenenter"",""1"",""2199""
""blur"",""15"",""83876""
""focus"",""15"",""88494""
","""event"",""trial"",""time""
""blur"",""15"",""83876""
","""event"",""trial"",""time""
""focus"",""15"",""88494""
","""event"",""trial"",""time""
""fullscreenenter"",""1"",""2199""
","
","","","","","","1708.0999999940395","images/bed1.png","","","memory_trial","1","definitely_old",""
"html-keyboard-response","61","223388","0.0-18.0-0.9","4147","approach_avoid_sv1","""event"",""trial"",""time""
""fullscreenenter"",""1"",""2199""
""blur"",""15"",""83876""
""focus"",""15"",""88494""
","""event"",""trial"",""time""
""blur"",""15"",""83876""
","""event"",""trial"",""time""
""focus"",""15"",""88494""
","""event"",""trial"",""time""
""fullscreenenter"",""1"",""2199""
","
","","","","","","null","<div style=""font-size:60px;"">+</div>","null","","fixation","","",""
"memory-trial","62","226403","0.0-18.0-1.9","4147","approach_avoid_sv1","""event"",""trial"",""time""
""fullscreenenter"",""1"",""2199""
""blur"",""15"",""83876""
""focus"",""15"",""88494""
","""event"",""trial"",""time""
""blur"",""15"",""83876""
","""event"",""trial"",""time""
""focus"",""15"",""88494""
","""event"",""trial"",""time""
""fullscreenenter"",""1"",""2199""
","
","","","","","","2004.9000000059605","images/dog4.png","","","memory_trial","4","definitely_new",""
"html-keyboard-response","63","226915","0.0-18.0-0.10","4147","approach_avoid_sv1","""event"",""trial"",""time""
""fullscreenenter"",""1"",""2199""
""blur"",""15"",""83876""
""focus"",""15"",""88494""
","""event"",""trial"",""time""
""blur"",""15"",""83876""
","""event"",""trial"",""time""
""focus"",""15"",""88494""
","""event"",""trial"",""time""
""fullscreenenter"",""1"",""2199""
","
","","","","","","null","<div style=""font-size:60px;"">+</div>","null","","fixation","","",""
"memory-trial","64","230043","0.0-18.0-1.10","4147","approach_avoid_sv1","""event"",""trial"",""time""
""fullscreenenter"",""1"",""2199""
""blur"",""15"",""83876""
""focus"",""15"",""88494""
","""event"",""trial"",""time""
""blur"",""15"",""83876""
","""event"",""trial"",""time""
""focus"",""15"",""88494""
","""event"",""trial"",""time""
""fullscreenenter"",""1"",""2199""
","
","","","","","","2118.8999999910593","images/sheep5.png","","","memory_trial","4","definitely_new",""
"html-keyboard-response","65","230547","0.0-18.0-0.11","4147","approach_avoid_sv1","""event"",""trial"",""time""
""fullscreenenter"",""1"",""2199""
""blur"",""15"",""83876""
""focus"",""15"",""88494""
","""event"",""trial"",""time""
""blur"",""15"",""83876""
","""event"",""trial"",""time""
""focus"",""15"",""88494""
","""event"",""trial"",""time""
""fullscreenenter"",""1"",""2199""
","
","","","","","","null","<div style=""font-size:60px;"">+</div>","null","","fixation","","",""
"memory-trial","66","232586","0.0-18.0-1.11","4147","approach_avoid_sv1","""event"",""trial"",""time""
""fullscreenenter"",""1"",""2199""
""blur"",""15"",""83876""
""focus"",""15"",""88494""
","""event"",""trial"",""time""
""blur"",""15"",""83876""
","""event"",""trial"",""time""
""focus"",""15"",""88494""
","""event"",""trial"",""time""
""fullscreenenter"",""1"",""2199""
","
","","","","","","1015.1999999880791","images/tree4.png","","","memory_trial","4","definitely_new",""
"html-keyboard-response","67","233091","0.0-18.0-0.12","4147","approach_avoid_sv1","""event"",""trial"",""time""
""fullscreenenter"",""1"",""2199""
""blur"",""15"",""83876""
""focus"",""15"",""88494""
","""event"",""trial"",""time""
""blur"",""15"",""83876""
","""event"",""trial"",""time""
""focus"",""15"",""88494""
","""event"",""trial"",""time""
""fullscreenenter"",""1"",""2199""
","
","","","","","","null","<div style=""font-size:60px;"">+</div>","null","","fixation","","",""
"memory-trial","68","235260","0.0-18.0-1.12","4147","approach_avoid_sv1","""event"",""trial"",""time""
""fullscreenenter"",""1"",""2199""
""blur"",""15"",""83876""
""focus"",""15"",""88494""
","""event"",""trial"",""time""
""blur"",""15"",""83876""
","""event"",""trial"",""time""
""focus"",""15"",""88494""
","""event"",""trial"",""time""
""fullscreenenter"",""1"",""2199""
","
","","","","","","1158.3999999910593","images/plane4.png","","","memory_trial","4","definitely_new",""
"html-keyboard-response","69","235764","0.0-18.0-0.13","4147","approach_avoid_sv1","""event"",""trial"",""time""
""fullscreenenter"",""1"",""2199""
""blur"",""15"",""83876""
""focus"",""15"",""88494""
","""event"",""trial"",""time""
""blur"",""15"",""83876""
","""event"",""trial"",""time""
""focus"",""15"",""88494""
","""event"",""trial"",""time""
""fullscreenenter"",""1"",""2199""
","
","","","","","","null","<div style=""font-size:60px;"">+</div>","null","","fixation","","",""
"memory-trial","70","238371","0.0-18.0-1.13","4147","approach_avoid_sv1","""event"",""trial"",""time""
""fullscreenenter"",""1"",""2199""
""blur"",""15"",""83876""
""focus"",""15"",""88494""
","""event"",""trial"",""time""
""blur"",""15"",""83876""
","""event"",""trial"",""time""
""focus"",""15"",""88494""
","""event"",""trial"",""time""
""fullscreenenter"",""1"",""2199""
","
","","","","","","1596.4000000059605","images/flower2.png","","","memory_trial","1","definitely_old",""
"html-keyboard-response","71","238875","0.0-18.0-0.14","4147","approach_avoid_sv1","""event"",""trial"",""time""
""fullscreenenter"",""1"",""2199""
""blur"",""15"",""83876""
""focus"",""15"",""88494""
","""event"",""trial"",""time""
""blur"",""15"",""83876""
","""event"",""trial"",""time""
""focus"",""15"",""88494""
","""event"",""trial"",""time""
""fullscreenenter"",""1"",""2199""
","
","","","","","","null","<div style=""font-size:60px;"">+</div>","null","","fixation","","",""
"memory-trial","72","240838","0.0-18.0-1.14","4147","approach_avoid_sv1","""event"",""trial"",""time""
""fullscreenenter"",""1"",""2199""
""blur"",""15"",""83876""
""focus"",""15"",""88494""
","""event"",""trial"",""time""
""blur"",""15"",""83876""
","""event"",""trial"",""time""
""focus"",""15"",""88494""
","""event"",""trial"",""time""
""fullscreenenter"",""1"",""2199""
","
","","","","","","951.9000000059605","images/cat5.png","","","memory_trial","4","definitely_new",""
"html-keyboard-response","73","241344","0.0-18.0-0.15","4147","approach_avoid_sv1","""event"",""trial"",""time""
""fullscreenenter"",""1"",""2199""
""blur"",""15"",""83876""
""focus"",""15"",""88494""
","""event"",""trial"",""time""
""blur"",""15"",""83876""
","""event"",""trial"",""time""
""focus"",""15"",""88494""
","""event"",""trial"",""time""
""fullscreenenter"",""1"",""2199""
","
","","","","","","null","<div style=""font-size:60px;"">+</div>","null","","fixation","","",""
"memory-trial","74","243836","0.0-18.0-1.15","4147","approach_avoid_sv1","""event"",""trial"",""time""
""fullscreenenter"",""1"",""2199""
""blur"",""15"",""83876""
""focus"",""15"",""88494""
","""event"",""trial"",""time""
""blur"",""15"",""83876""
","""event"",""trial"",""time""
""focus"",""15"",""88494""
","""event"",""trial"",""time""
""fullscreenenter"",""1"",""2199""
","
","","","","","","1488.7000000029802","images/horse3.png","","","memory_trial","1","definitely_old",""
"html-keyboard-response","75","244340","0.0-18.0-0.16","4147","approach_avoid_sv1","""event"",""trial"",""time""
""fullscreenenter"",""1"",""2199""
""blur"",""15"",""83876""
""focus"",""15"",""88494""
","""event"",""trial"",""time""
""blur"",""15"",""83876""
","""event"",""trial"",""time""
""focus"",""15"",""88494""
","""event"",""trial"",""time""
""fullscreenenter"",""1"",""2199""
","
","","","","","","null","<div style=""font-size:60px;"">+</div>","null","","fixation","","",""
"memory-trial","76","247692","0.0-18.0-1.16","4147","approach_avoid_sv1","""event"",""trial"",""time""
""fullscreenenter"",""1"",""2199""
""blur"",""15"",""83876""
""focus"",""15"",""88494""
","""event"",""trial"",""time""
""blur"",""15"",""83876""
","""event"",""trial"",""time""
""focus"",""15"",""88494""
","""event"",""trial"",""time""
""fullscreenenter"",""1"",""2199""
","
","","","","","","2341.6000000089407","images/boat5.png","","","memory_trial","4","definitely_new",""
"html-keyboard-response","77","248195","0.0-18.0-0.17","4147","approach_avoid_sv1","""event"",""trial"",""time""
""fullscreenenter"",""1"",""2199""
""blur"",""15"",""83876""
""focus"",""15"",""88494""
","""event"",""trial"",""time""
""blur"",""15"",""83876""
","""event"",""trial"",""time""
""focus"",""15"",""88494""
","""event"",""trial"",""time""
""fullscreenenter"",""1"",""2199""
","
","","","","","","null","<div style=""font-size:60px;"">+</div>","null","","fixation","","",""
"memory-trial","78","250387","0.0-18.0-1.17","4147","approach_avoid_sv1","""event"",""trial"",""time""
""fullscreenenter"",""1"",""2199""
""blur"",""15"",""83876""
""focus"",""15"",""88494""
","""event"",""trial"",""time""
""blur"",""15"",""83876""
","""event"",""trial"",""time""
""focus"",""15"",""88494""
","""event"",""trial"",""time""
""fullscreenenter"",""1"",""2199""
","
","","","","","","1182","images/chair8.png","","","memory_trial","4","definitely_new",""
"html-keyboard-response","79","250892","0.0-18.0-0.18","4147","approach_avoid_sv1","""event"",""trial"",""time""
""fullscreenenter"",""1"",""2199""
""blur"",""15"",""83876""
""focus"",""15"",""88494""
","""event"",""trial"",""time""
""blur"",""15"",""83876""
","""event"",""trial"",""time""
""focus"",""15"",""88494""
","""event"",""trial"",""time""
""fullscreenenter"",""1"",""2199""
","
","","","","","","null","<div style=""font-size:60px;"">+</div>","null","","fixation","","",""
"memory-trial","80","252724","0.0-18.0-1.18","4147","approach_avoid_sv1","""event"",""trial"",""time""
""fullscreenenter"",""1"",""2199""
""blur"",""15"",""83876""
""focus"",""15"",""88494""
","""event"",""trial"",""time""
""blur"",""15"",""83876""
","""event"",""trial"",""time""
""focus"",""15"",""88494""
","""event"",""trial"",""time""
""fullscreenenter"",""1"",""2199""
","
","","","","","","821.0999999940395","images/bed8.png","","","memory_trial","1","definitely_old",""
"html-keyboard-response","81","253232","0.0-18.0-0.19","4147","approach_avoid_sv1","""event"",""trial"",""time""
""fullscreenenter"",""1"",""2199""
""blur"",""15"",""83876""
""focus"",""15"",""88494""
","""event"",""trial"",""time""
""blur"",""15"",""83876""
","""event"",""trial"",""time""
""focus"",""15"",""88494""
","""event"",""trial"",""time""
""fullscreenenter"",""1"",""2199""
","
","","","","","","null","<div style=""font-size:60px;"">+</div>","null","","fixation","","",""
"memory-trial","82","255900","0.0-18.0-1.19","4147","approach_avoid_sv1","""event"",""trial"",""time""
""fullscreenenter"",""1"",""2199""
""blur"",""15"",""83876""
""focus"",""15"",""88494""
","""event"",""trial"",""time""
""blur"",""15"",""83876""
","""event"",""trial"",""time""
""focus"",""15"",""88494""
","""event"",""trial"",""time""
""fullscreenenter"",""1"",""2199""
","
","","","","","","1664.5","images/train5.png","","","memory_trial","1","definitely_old",""
"html-keyboard-response","83","256404","0.0-18.0-0.20","4147","approach_avoid_sv1","""event"",""trial"",""time""
""fullscreenenter"",""1"",""2199""
""blur"",""15"",""83876""
""focus"",""15"",""88494""
","""event"",""trial"",""time""
""blur"",""15"",""83876""
","""event"",""trial"",""time""
""focus"",""15"",""88494""
","""event"",""trial"",""time""
""fullscreenenter"",""1"",""2199""
","
","","","","","","null","<div style=""font-size:60px;"">+</div>","null","","fixation","","",""
"memory-trial","84","258419","0.0-18.0-1.20","4147","approach_avoid_sv1","""event"",""trial"",""time""
""fullscreenenter"",""1"",""2199""
""blur"",""15"",""83876""
""focus"",""15"",""88494""
","""event"",""trial"",""time""
""blur"",""15"",""83876""
","""event"",""trial"",""time""
""focus"",""15"",""88494""
","""event"",""trial"",""time""
""fullscreenenter"",""1"",""2199""
","
","","","","","","1005.5","images/bush5.png","","","memory_trial","4","definitely_new",""
"html-keyboard-response","85","258924","0.0-18.0-0.21","4147","approach_avoid_sv1","""event"",""trial"",""time""
""fullscreenenter"",""1"",""2199""
""blur"",""15"",""83876""
""focus"",""15"",""88494""
","""event"",""trial"",""time""
""blur"",""15"",""83876""
","""event"",""trial"",""time""
""focus"",""15"",""88494""
","""event"",""trial"",""time""
""fullscreenenter"",""1"",""2199""
","
","","","","","","null","<div style=""font-size:60px;"">+</div>","null","","fixation","","",""
"memory-trial","86","260739","0.0-18.0-1.21","4147","approach_avoid_sv1","""event"",""trial"",""time""
""fullscreenenter"",""1"",""2199""
""blur"",""15"",""83876""
""focus"",""15"",""88494""
","""event"",""trial"",""time""
""blur"",""15"",""83876""
","""event"",""trial"",""time""
""focus"",""15"",""88494""
","""event"",""trial"",""time""
""fullscreenenter"",""1"",""2199""
","
","","","","","","805.9000000059605","images/plane5.png","","","memory_trial","4","definitely_new",""
"html-keyboard-response","87","261245","0.0-18.0-0.22","4147","approach_avoid_sv1","""event"",""trial"",""time""
""fullscreenenter"",""1"",""2199""
""blur"",""15"",""83876""
""focus"",""15"",""88494""
","""event"",""trial"",""time""
""blur"",""15"",""83876""
","""event"",""trial"",""time""
""focus"",""15"",""88494""
","""event"",""trial"",""time""
""fullscreenenter"",""1"",""2199""
","
","","","","","","null","<div style=""font-size:60px;"">+</div>","null","","fixation","","",""
"memory-trial","88","263332","0.0-18.0-1.22","4147","approach_avoid_sv1","""event"",""trial"",""time""
""fullscreenenter"",""1"",""2199""
""blur"",""15"",""83876""
""focus"",""15"",""88494""
","""event"",""trial"",""time""
""blur"",""15"",""83876""
","""event"",""trial"",""time""
""focus"",""15"",""88494""
","""event"",""trial"",""time""
""fullscreenenter"",""1"",""2199""
","
","","","","","","1078.1000000089407","images/bush6.png","","","memory_trial","4","definitely_new",""
"html-keyboard-response","89","263846","0.0-18.0-0.23","4147","approach_avoid_sv1","""event"",""trial"",""time""
""fullscreenenter"",""1"",""2199""
""blur"",""15"",""83876""
""focus"",""15"",""88494""
","""event"",""trial"",""time""
""blur"",""15"",""83876""
","""event"",""trial"",""time""
""focus"",""15"",""88494""
","""event"",""trial"",""time""
""fullscreenenter"",""1"",""2199""
","
","","","","","","null","<div style=""font-size:60px;"">+</div>","null","","fixation","","",""
"memory-trial","90","266140","0.0-18.0-1.23","4147","approach_avoid_sv1","""event"",""trial"",""time""
""fullscreenenter"",""1"",""2199""
""blur"",""15"",""83876""
""focus"",""15"",""88494""
","""event"",""trial"",""time""
""blur"",""15"",""83876""
","""event"",""trial"",""time""
""focus"",""15"",""88494""
","""event"",""trial"",""time""
""fullscreenenter"",""1"",""2199""
","
","","","","","","1284.199999988079","images/boat3.png","","","memory_trial","4","definitely_new",""
"html-keyboard-response","91","266643","0.0-18.0-0.24","4147","approach_avoid_sv1","""event"",""trial"",""time""
""fullscreenenter"",""1"",""2199""
""blur"",""15"",""83876""
""focus"",""15"",""88494""
","""event"",""trial"",""time""
""blur"",""15"",""83876""
","""event"",""trial"",""time""
""focus"",""15"",""88494""
","""event"",""trial"",""time""
""fullscreenenter"",""1"",""2199""
","
","","","","","","null","<div style=""font-size:60px;"">+</div>","null","","fixation","","",""
"memory-trial","92","268692","0.0-18.0-1.24","4147","approach_avoid_sv1","""event"",""trial"",""time""
""fullscreenenter"",""1"",""2199""
""blur"",""15"",""83876""
""focus"",""15"",""88494""
","""event"",""trial"",""time""
""blur"",""15"",""83876""
","""event"",""trial"",""time""
""focus"",""15"",""88494""
","""event"",""trial"",""time""
""fullscreenenter"",""1"",""2199""
","
","","","","","","1038.2000000029802","images/bed7.png","","","memory_trial","1","definitely_old",""
"html-keyboard-response","93","269195","0.0-18.0-0.25","4147","approach_avoid_sv1","""event"",""trial"",""time""
""fullscreenenter"",""1"",""2199""
""blur"",""15"",""83876""
""focus"",""15"",""88494""
","""event"",""trial"",""time""
""blur"",""15"",""83876""
","""event"",""trial"",""time""
""focus"",""15"",""88494""
","""event"",""trial"",""time""
""fullscreenenter"",""1"",""2199""
","
","","","","","","null","<div style=""font-size:60px;"">+</div>","null","","fixation","","",""
"memory-trial","94","271130","0.0-18.0-1.25","4147","approach_avoid_sv1","""event"",""trial"",""time""
""fullscreenenter"",""1"",""2199""
""blur"",""15"",""83876""
""focus"",""15"",""88494""
","""event"",""trial"",""time""
""blur"",""15"",""83876""
","""event"",""trial"",""time""
""focus"",""15"",""88494""
","""event"",""trial"",""time""
""fullscreenenter"",""1"",""2199""
","
","","","","","","910.3999999910593","images/table6.png","","","memory_trial","4","definitely_new",""
"html-keyboard-response","95","271648","0.0-18.0-0.26","4147","approach_avoid_sv1","""event"",""trial"",""time""
""fullscreenenter"",""1"",""2199""
""blur"",""15"",""83876""
""focus"",""15"",""88494""
","""event"",""trial"",""time""
""blur"",""15"",""83876""
","""event"",""trial"",""time""
""focus"",""15"",""88494""
","""event"",""trial"",""time""
""fullscreenenter"",""1"",""2199""
","
","","","","","","null","<div style=""font-size:60px;"">+</div>","null","","fixation","","",""
"memory-trial","96","273785","0.0-18.0-1.26","4147","approach_avoid_sv1","""event"",""trial"",""time""
""fullscreenenter"",""1"",""2199""
""blur"",""15"",""83876""
""focus"",""15"",""88494""
","""event"",""trial"",""time""
""blur"",""15"",""83876""
","""event"",""trial"",""time""
""focus"",""15"",""88494""
","""event"",""trial"",""time""
""fullscreenenter"",""1"",""2199""
","
","","","","","","1113.8999999910593","images/sofa4.png","","","memory_trial","1","definitely_old",""
"html-keyboard-response","97","274291","0.0-18.0-0.27","4147","approach_avoid_sv1","""event"",""trial"",""time""
""fullscreenenter"",""1"",""2199""
""blur"",""15"",""83876""
""focus"",""15"",""88494""
","""event"",""trial"",""time""
""blur"",""15"",""83876""
","""event"",""trial"",""time""
""focus"",""15"",""88494""
","""event"",""trial"",""time""
""fullscreenenter"",""1"",""2199""
","
","","","","","","null","<div style=""font-size:60px;"">+</div>","null","","fixation","","",""
"memory-trial","98","276355","0.0-18.0-1.27","4147","approach_avoid_sv1","""event"",""trial"",""time""
""fullscreenenter"",""1"",""2199""
""blur"",""15"",""83876""
""focus"",""15"",""88494""
","""event"",""trial"",""time""
""blur"",""15"",""83876""
","""event"",""trial"",""time""
""focus"",""15"",""88494""
","""event"",""trial"",""time""
""fullscreenenter"",""1"",""2199""
","
","","","","","","1054.7999999970198","images/cactus3.png","","","memory_trial","4","definitely_new",""
"html-keyboard-response","99","276867","0.0-18.0-0.28","4147","approach_avoid_sv1","""event"",""trial"",""time""
""fullscreenenter"",""1"",""2199""
""blur"",""15"",""83876""
""focus"",""15"",""88494""
","""event"",""trial"",""time""
""blur"",""15"",""83876""
","""event"",""trial"",""time""
""focus"",""15"",""88494""
","""event"",""trial"",""time""
""fullscreenenter"",""1"",""2199""
","
","","","","","","null","<div style=""font-size:60px;"">+</div>","null","","fixation","","",""
"memory-trial","100","280707","0.0-18.0-1.28","4147","approach_avoid_sv1","""event"",""trial"",""time""
""fullscreenenter"",""1"",""2199""
""blur"",""15"",""83876""
""focus"",""15"",""88494""
","""event"",""trial"",""time""
""blur"",""15"",""83876""
","""event"",""trial"",""time""
""focus"",""15"",""88494""
","""event"",""trial"",""time""
""fullscreenenter"",""1"",""2199""
","
","","","","","","2830.5","images/straw4.png","","","memory_trial","1","definitely_old",""
"html-keyboard-response","101","281212","0.0-18.0-0.29","4147","approach_avoid_sv1","""event"",""trial"",""time""
""fullscreenenter"",""1"",""2199""
""blur"",""15"",""83876""
""focus"",""15"",""88494""
","""event"",""trial"",""time""
""blur"",""15"",""83876""
","""event"",""trial"",""time""
""focus"",""15"",""88494""
","""event"",""trial"",""time""
""fullscreenenter"",""1"",""2199""
","
","","","","","","null","<div style=""font-size:60px;"">+</div>","null","","fixation","","",""
"memory-trial","102","283267","0.0-18.0-1.29","4147","approach_avoid_sv1","""event"",""trial"",""time""
""fullscreenenter"",""1"",""2199""
""blur"",""15"",""83876""
""focus"",""15"",""88494""
","""event"",""trial"",""time""
""blur"",""15"",""83876""
","""event"",""trial"",""time""
""focus"",""15"",""88494""
","""event"",""trial"",""time""
""fullscreenenter"",""1"",""2199""
","
","","","","","","1044.9000000059605","images/straw1.png","","","memory_trial","4","definitely_new",""
"html-keyboard-response","103","283778","0.0-18.0-0.30","4147","approach_avoid_sv1","""event"",""trial"",""time""
""fullscreenenter"",""1"",""2199""
""blur"",""15"",""83876""
""focus"",""15"",""88494""
","""event"",""trial"",""time""
""blur"",""15"",""83876""
","""event"",""trial"",""time""
""focus"",""15"",""88494""
","""event"",""trial"",""time""
""fullscreenenter"",""1"",""2199""
","
","","","","","","null","<div style=""font-size:60px;"">+</div>","null","","fixation","","",""
"memory-trial","104","286204","0.0-18.0-1.30","4147","approach_avoid_sv1","""event"",""trial"",""time""
""fullscreenenter"",""1"",""2199""
""blur"",""15"",""83876""
""focus"",""15"",""88494""
","""event"",""trial"",""time""
""blur"",""15"",""83876""
","""event"",""trial"",""time""
""focus"",""15"",""88494""
","""event"",""trial"",""time""
""fullscreenenter"",""1"",""2199""
","
","","","","","","1415.1000000089407","images/orange5.png","","","memory_trial","1","definitely_old",""
"html-keyboard-response","105","286708","0.0-18.0-0.31","4147","approach_avoid_sv1","""event"",""trial"",""time""
""fullscreenenter"",""1"",""2199""
""blur"",""15"",""83876""
""focus"",""15"",""88494""
","""event"",""trial"",""time""
""blur"",""15"",""83876""
","""event"",""trial"",""time""
""focus"",""15"",""88494""
","""event"",""trial"",""time""
""fullscreenenter"",""1"",""2199""
","
","","","","","","null","<div style=""font-size:60px;"">+</div>","null","","fixation","","",""
"memory-trial","106","289708","0.0-18.0-1.31","4147","approach_avoid_sv1","""event"",""trial"",""time""
""fullscreenenter"",""1"",""2199""
""blur"",""15"",""83876""
""focus"",""15"",""88494""
","""event"",""trial"",""time""
""blur"",""15"",""83876""
","""event"",""trial"",""time""
""focus"",""15"",""88494""
","""event"",""trial"",""time""
""fullscreenenter"",""1"",""2199""
","
","","","","","","1986.3999999910593","images/bush4.png","","","memory_trial","1","definitely_old",""
"html-keyboard-response","107","290212","0.0-18.0-0.32","4147","approach_avoid_sv1","""event"",""trial"",""time""
""fullscreenenter"",""1"",""2199""
""blur"",""15"",""83876""
""focus"",""15"",""88494""
","""event"",""trial"",""time""
""blur"",""15"",""83876""
","""event"",""trial"",""time""
""focus"",""15"",""88494""
","""event"",""trial"",""time""
""fullscreenenter"",""1"",""2199""
","
","","","","","","null","<div style=""font-size:60px;"">+</div>","null","","fixation","","",""
"memory-trial","108","293636","0.0-18.0-1.32","4147","approach_avoid_sv1","""event"",""trial"",""time""
""fullscreenenter"",""1"",""2199""
""blur"",""15"",""83876""
""focus"",""15"",""88494""
","""event"",""trial"",""time""
""blur"",""15"",""83876""
","""event"",""trial"",""time""
""focus"",""15"",""88494""
","""event"",""trial"",""time""
""fullscreenenter"",""1"",""2199""
","
","","","","","","2414.3999999910593","images/goat5.png","","","memory_trial","4","definitely_new",""
"html-keyboard-response","109","294140","0.0-18.0-0.33","4147","approach_avoid_sv1","""event"",""trial"",""time""
""fullscreenenter"",""1"",""2199""
""blur"",""15"",""83876""
""focus"",""15"",""88494""
","""event"",""trial"",""time""
""blur"",""15"",""83876""
","""event"",""trial"",""time""
""focus"",""15"",""88494""
","""event"",""trial"",""time""
""fullscreenenter"",""1"",""2199""
","
","","","","","","null","<div style=""font-size:60px;"">+</div>","null","","fixation","","",""
"memory-trial","110","296780","0.0-18.0-1.33","4147","approach_avoid_sv1","""event"",""trial"",""time""
""fullscreenenter"",""1"",""2199""
""blur"",""15"",""83876""
""focus"",""15"",""88494""
","""event"",""trial"",""time""
""blur"",""15"",""83876""
","""event"",""trial"",""time""
""focus"",""15"",""88494""
","""event"",""trial"",""time""
""fullscreenenter"",""1"",""2199""
","
","","","","","","1629.1000000089407","images/train2.png","","","memory_trial","4","definitely_new",""
"html-keyboard-response","111","297284","0.0-18.0-0.34","4147","approach_avoid_sv1","""event"",""trial"",""time""
""fullscreenenter"",""1"",""2199""
""blur"",""15"",""83876""
""focus"",""15"",""88494""
","""event"",""trial"",""time""
""blur"",""15"",""83876""
","""event"",""trial"",""time""
""focus"",""15"",""88494""
","""event"",""trial"",""time""
""fullscreenenter"",""1"",""2199""
","
","","","","","","null","<div style=""font-size:60px;"">+</div>","null","","fixation","","",""
"memory-trial","112","300420","0.0-18.0-1.34","4147","approach_avoid_sv1","""event"",""trial"",""time""
""fullscreenenter"",""1"",""2199""
""blur"",""15"",""83876""
""focus"",""15"",""88494""
","""event"",""trial"",""time""
""blur"",""15"",""83876""
","""event"",""trial"",""time""
""focus"",""15"",""88494""
","""event"",""trial"",""time""
""fullscreenenter"",""1"",""2199""
","
","","","","","","2126.2999999970198","images/sheep7.png","","","memory_trial","1","definitely_old",""
"html-keyboard-response","113","300924","0.0-18.0-0.35","4147","approach_avoid_sv1","""event"",""trial"",""time""
""fullscreenenter"",""1"",""2199""
""blur"",""15"",""83876""
""focus"",""15"",""88494""
","""event"",""trial"",""time""
""blur"",""15"",""83876""
","""event"",""trial"",""time""
""focus"",""15"",""88494""
","""event"",""trial"",""time""
""fullscreenenter"",""1"",""2199""
","
","","","","","","null","<div style=""font-size:60px;"">+</div>","null","","fixation","","",""
"memory-trial","114","303843","0.0-18.0-1.35","4147","approach_avoid_sv1","""event"",""trial"",""time""
""fullscreenenter"",""1"",""2199""
""blur"",""15"",""83876""
""focus"",""15"",""88494""
","""event"",""trial"",""time""
""blur"",""15"",""83876""
","""event"",""trial"",""time""
""focus"",""15"",""88494""
","""event"",""trial"",""time""
""fullscreenenter"",""1"",""2199""
","
","","","","","","1909.199999988079","images/banana6.png","","","memory_trial","1","definitely_old",""
"html-keyboard-response","115","304348","0.0-18.0-0.36","4147","approach_avoid_sv1","""event"",""trial"",""time""
""fullscreenenter"",""1"",""2199""
""blur"",""15"",""83876""
""focus"",""15"",""88494""
","""event"",""trial"",""time""
""blur"",""15"",""83876""
","""event"",""trial"",""time""
""focus"",""15"",""88494""
","""event"",""trial"",""time""
""fullscreenenter"",""1"",""2199""
","
","","","","","","null","<div style=""font-size:60px;"">+</div>","null","","fixation","","",""
"memory-trial","116","306108","0.0-18.0-1.36","4147","approach_avoid_sv1","""event"",""trial"",""time""
""fullscreenenter"",""1"",""2199""
""blur"",""15"",""83876""
""focus"",""15"",""88494""
","""event"",""trial"",""time""
""blur"",""15"",""83876""
","""event"",""trial"",""time""
""focus"",""15"",""88494""
","""event"",""trial"",""time""
""fullscreenenter"",""1"",""2199""
","
","","","","","","757.1000000089407","images/cat1.png","","","memory_trial","4","definitely_new",""
"html-keyboard-response","117","306611","0.0-18.0-0.37","4147","approach_avoid_sv1","""event"",""trial"",""time""
""fullscreenenter"",""1"",""2199""
""blur"",""15"",""83876""
""focus"",""15"",""88494""
","""event"",""trial"",""time""
""blur"",""15"",""83876""
","""event"",""trial"",""time""
""focus"",""15"",""88494""
","""event"",""trial"",""time""
""fullscreenenter"",""1"",""2199""
","
","","","","","","null","<div style=""font-size:60px;"">+</div>","null","","fixation","","",""
"memory-trial","118","309564","0.0-18.0-1.37","4147","approach_avoid_sv1","""event"",""trial"",""time""
""fullscreenenter"",""1"",""2199""
""blur"",""15"",""83876""
""focus"",""15"",""88494""
","""event"",""trial"",""time""
""blur"",""15"",""83876""
","""event"",""trial"",""time""
""focus"",""15"",""88494""
","""event"",""trial"",""time""
""fullscreenenter"",""1"",""2199""
","
","","","","","","1942.2000000029802","images/sheep1.png","","","memory_trial","4","definitely_new",""
"html-keyboard-response","119","310067","0.0-18.0-0.38","4147","approach_avoid_sv1","""event"",""trial"",""time""
""fullscreenenter"",""1"",""2199""
""blur"",""15"",""83876""
""focus"",""15"",""88494""
","""event"",""trial"",""time""
""blur"",""15"",""83876""
","""event"",""trial"",""time""
""focus"",""15"",""88494""
","""event"",""trial"",""time""
""fullscreenenter"",""1"",""2199""
","
","","","","","","null","<div style=""font-size:60px;"">+</div>","null","","fixation","","",""
"memory-trial","120","312284","0.0-18.0-1.38","4147","approach_avoid_sv1","""event"",""trial"",""time""
""fullscreenenter"",""1"",""2199""
""blur"",""15"",""83876""
""focus"",""15"",""88494""
","""event"",""trial"",""time""
""blur"",""15"",""83876""
","""event"",""trial"",""time""
""focus"",""15"",""88494""
","""event"",""trial"",""time""
""fullscreenenter"",""1"",""2199""
","
","","","","","","1207","images/dog7.png","","","memory_trial","1","definitely_old",""
"html-keyboard-response","121","312800","0.0-18.0-0.39","4147","approach_avoid_sv1","""event"",""trial"",""time""
""fullscreenenter"",""1"",""2199""
""blur"",""15"",""83876""
""focus"",""15"",""88494""
","""event"",""trial"",""time""
""blur"",""15"",""83876""
","""event"",""trial"",""time""
""focus"",""15"",""88494""
","""event"",""trial"",""time""
""fullscreenenter"",""1"",""2199""
","
","","","","","","null","<div style=""font-size:60px;"">+</div>","null","","fixation","","",""
"memory-trial","122","314820","0.0-18.0-1.39","4147","approach_avoid_sv1","""event"",""trial"",""time""
""fullscreenenter"",""1"",""2199""
""blur"",""15"",""83876""
""focus"",""15"",""88494""
","""event"",""trial"",""time""
""blur"",""15"",""83876""
","""event"",""trial"",""time""
""focus"",""15"",""88494""
","""event"",""trial"",""time""
""fullscreenenter"",""1"",""2199""
","
","","","","","","1010","images/cat2.png","","","memory_trial","4","definitely_new",""
"html-keyboard-response","123","315325","0.0-18.0-0.40","4147","approach_avoid_sv1","""event"",""trial"",""time""
""fullscreenenter"",""1"",""2199""
""blur"",""15"",""83876""
""focus"",""15"",""88494""
","""event"",""trial"",""time""
""blur"",""15"",""83876""
","""event"",""trial"",""time""
""focus"",""15"",""88494""
","""event"",""trial"",""time""
""fullscreenenter"",""1"",""2199""
","
","","","","","","null","<div style=""font-size:60px;"">+</div>","null","","fixation","","",""
"memory-trial","124","318020","0.0-18.0-1.40","4147","approach_avoid_sv1","""event"",""trial"",""time""
""fullscreenenter"",""1"",""2199""
""blur"",""15"",""83876""
""focus"",""15"",""88494""
","""event"",""trial"",""time""
""blur"",""15"",""83876""
","""event"",""trial"",""time""
""focus"",""15"",""88494""
","""event"",""trial"",""time""
""fullscreenenter"",""1"",""2199""
","
","","","","","","1685.0999999940395","images/table7.png","","","memory_trial","1","definitely_old",""
"html-keyboard-response","125","318524","0.0-18.0-0.41","4147","approach_avoid_sv1","""event"",""trial"",""time""
""fullscreenenter"",""1"",""2199""
""blur"",""15"",""83876""
""focus"",""15"",""88494""
","""event"",""trial"",""time""
""blur"",""15"",""83876""
","""event"",""trial"",""time""
""focus"",""15"",""88494""
","""event"",""trial"",""time""
""fullscreenenter"",""1"",""2199""
","
","","","","","","null","<div style=""font-size:60px;"">+</div>","null","","fixation","","",""
"memory-trial","126","320252","0.0-18.0-1.41","4147","approach_avoid_sv1","""event"",""trial"",""time""
""fullscreenenter"",""1"",""2199""
""blur"",""15"",""83876""
""focus"",""15"",""88494""
","""event"",""trial"",""time""
""blur"",""15"",""83876""
","""event"",""trial"",""time""
""focus"",""15"",""88494""
","""event"",""trial"",""time""
""fullscreenenter"",""1"",""2199""
","
","","","","","","709.5999999940395","images/bush3.png","","","memory_trial","4","definitely_new",""
"html-button-response","127","322289","0.0-18.0-2.41-0.41","4147","approach_avoid_sv1","""event"",""trial"",""time""
""fullscreenenter"",""1"",""2199""
""blur"",""15"",""83876""
""focus"",""15"",""88494""
","""event"",""trial"",""time""
""blur"",""15"",""83876""
","""event"",""trial"",""time""
""focus"",""15"",""88494""
","""event"",""trial"",""time""
""fullscreenenter"",""1"",""2199""
","
","","","","","","2035.2999999970198","<p> Take a break! </p><p> Click the button to continue. </p>","0","","break","","",""
"html-keyboard-response","128","322797","0.0-18.0-0.42","4147","approach_avoid_sv1","""event"",""trial"",""time""
""fullscreenenter"",""1"",""2199""
""blur"",""15"",""83876""
""focus"",""15"",""88494""
","""event"",""trial"",""time""
""blur"",""15"",""83876""
","""event"",""trial"",""time""
""focus"",""15"",""88494""
","""event"",""trial"",""time""
""fullscreenenter"",""1"",""2199""
","
","","","","","","null","<div style=""font-size:60px;"">+</div>","null","","fixation","","",""
"memory-trial","129","327868","0.0-18.0-1.42","4147","approach_avoid_sv1","""event"",""trial"",""time""
""fullscreenenter"",""1"",""2199""
""blur"",""15"",""83876""
""focus"",""15"",""88494""
","""event"",""trial"",""time""
""blur"",""15"",""83876""
","""event"",""trial"",""time""
""focus"",""15"",""88494""
","""event"",""trial"",""time""
""fullscreenenter"",""1"",""2199""
","
","","","","","","4060.2000000029802","images/straw2.png","","","memory_trial","4","definitely_new",""
"html-keyboard-response","130","328372","0.0-18.0-0.43","4147","approach_avoid_sv1","""event"",""trial"",""time""
""fullscreenenter"",""1"",""2199""
""blur"",""15"",""83876""
""focus"",""15"",""88494""
","""event"",""trial"",""time""
""blur"",""15"",""83876""
","""event"",""trial"",""time""
""focus"",""15"",""88494""
","""event"",""trial"",""time""
""fullscreenenter"",""1"",""2199""
","
","","","","","","null","<div style=""font-size:60px;"">+</div>","null","","fixation","","",""
"memory-trial","131","330563","0.0-18.0-1.43","4147","approach_avoid_sv1","""event"",""trial"",""time""
""fullscreenenter"",""1"",""2199""
""blur"",""15"",""83876""
""focus"",""15"",""88494""
","""event"",""trial"",""time""
""blur"",""15"",""83876""
","""event"",""trial"",""time""
""focus"",""15"",""88494""
","""event"",""trial"",""time""
""fullscreenenter"",""1"",""2199""
","
","","","","","","1180.5999999940395","images/bush8.png","","","memory_trial","4","definitely_new",""
"html-keyboard-response","132","331068","0.0-18.0-0.44","4147","approach_avoid_sv1","""event"",""trial"",""time""
""fullscreenenter"",""1"",""2199""
""blur"",""15"",""83876""
""focus"",""15"",""88494""
","""event"",""trial"",""time""
""blur"",""15"",""83876""
","""event"",""trial"",""time""
""focus"",""15"",""88494""
","""event"",""trial"",""time""
""fullscreenenter"",""1"",""2199""
","
","","","","","","null","<div style=""font-size:60px;"">+</div>","null","","fixation","","",""
"memory-trial","133","333477","0.0-18.0-1.44","4147","approach_avoid_sv1","""event"",""trial"",""time""
""fullscreenenter"",""1"",""2199""
""blur"",""15"",""83876""
""focus"",""15"",""88494""
","""event"",""trial"",""time""
""blur"",""15"",""83876""
","""event"",""trial"",""time""
""focus"",""15"",""88494""
","""event"",""trial"",""time""
""fullscreenenter"",""1"",""2199""
","
","","","","","","1397.7999999970198","images/dog5.png","","","memory_trial","1","definitely_old",""
"html-keyboard-response","134","333992","0.0-18.0-0.45","4147","approach_avoid_sv1","""event"",""trial"",""time""
""fullscreenenter"",""1"",""2199""
""blur"",""15"",""83876""
""focus"",""15"",""88494""
","""event"",""trial"",""time""
""blur"",""15"",""83876""
","""event"",""trial"",""time""
""focus"",""15"",""88494""
","""event"",""trial"",""time""
""fullscreenenter"",""1"",""2199""
","
","","","","","","null","<div style=""font-size:60px;"">+</div>","null","","fixation","","",""
"memory-trial","135","338068","0.0-18.0-1.45","4147","approach_avoid_sv1","""event"",""trial"",""time""
""fullscreenenter"",""1"",""2199""
""blur"",""15"",""83876""
""focus"",""15"",""88494""
","""event"",""trial"",""time""
""blur"",""15"",""83876""
","""event"",""trial"",""time""
""focus"",""15"",""88494""
","""event"",""trial"",""time""
""fullscreenenter"",""1"",""2199""
","
","","","","","","3073.7000000029802","images/rodent7.png","","","memory_trial","1","definitely_old",""
"html-keyboard-response","136","338572","0.0-18.0-0.46","4147","approach_avoid_sv1","""event"",""trial"",""time""
""fullscreenenter"",""1"",""2199""
""blur"",""15"",""83876""
""focus"",""15"",""88494""
","""event"",""trial"",""time""
""blur"",""15"",""83876""
","""event"",""trial"",""time""
""focus"",""15"",""88494""
","""event"",""trial"",""time""
""fullscreenenter"",""1"",""2199""
","
","","","","","","null","<div style=""font-size:60px;"">+</div>","null","","fixation","","",""
"memory-trial","137","340454","0.0-18.0-1.46","4147","approach_avoid_sv1","""event"",""trial"",""time""
""fullscreenenter"",""1"",""2199""
""blur"",""15"",""83876""
""focus"",""15"",""88494""
","""event"",""trial"",""time""
""blur"",""15"",""83876""
","""event"",""trial"",""time""
""focus"",""15"",""88494""
","""event"",""trial"",""time""
""fullscreenenter"",""1"",""2199""
","
","","","","","","877.5","images/bed6.png","","","memory_trial","1","definitely_old",""
"html-keyboard-response","138","340964","0.0-18.0-0.47","4147","approach_avoid_sv1","""event"",""trial"",""time""
""fullscreenenter"",""1"",""2199""
""blur"",""15"",""83876""
""focus"",""15"",""88494""
","""event"",""trial"",""time""
""blur"",""15"",""83876""
","""event"",""trial"",""time""
""focus"",""15"",""88494""
","""event"",""trial"",""time""
""fullscreenenter"",""1"",""2199""
","
","","","","","","null","<div style=""font-size:60px;"">+</div>","null","","fixation","","",""
"memory-trial","139","342780","0.0-18.0-1.47","4147","approach_avoid_sv1","""event"",""trial"",""time""
""fullscreenenter"",""1"",""2199""
""blur"",""15"",""83876""
""focus"",""15"",""88494""
","""event"",""trial"",""time""
""blur"",""15"",""83876""
","""event"",""trial"",""time""
""focus"",""15"",""88494""
","""event"",""trial"",""time""
""fullscreenenter"",""1"",""2199""
","
","","","","","","806.7000000029802","images/apple2.png","","","memory_trial","1","definitely_old",""
"html-keyboard-response","140","343284","0.0-18.0-0.48","4147","approach_avoid_sv1","""event"",""trial"",""time""
""fullscreenenter"",""1"",""2199""
""blur"",""15"",""83876""
""focus"",""15"",""88494""
","""event"",""trial"",""time""
""blur"",""15"",""83876""
","""event"",""trial"",""time""
""focus"",""15"",""88494""
","""event"",""trial"",""time""
""fullscreenenter"",""1"",""2199""
","
","","","","","","null","<div style=""font-size:60px;"">+</div>","null","","fixation","","",""
"memory-trial","141","345405","0.0-18.0-1.48","4147","approach_avoid_sv1","""event"",""trial"",""time""
""fullscreenenter"",""1"",""2199""
""blur"",""15"",""83876""
""focus"",""15"",""88494""
","""event"",""trial"",""time""
""blur"",""15"",""83876""
","""event"",""trial"",""time""
""focus"",""15"",""88494""
","""event"",""trial"",""time""
""fullscreenenter"",""1"",""2199""
","
","","","","","","1117.6000000089407","images/table5.png","","","memory_trial","4","definitely_new",""
"html-keyboard-response","142","345915","0.0-18.0-0.49","4147","approach_avoid_sv1","""event"",""trial"",""time""
""fullscreenenter"",""1"",""2199""
""blur"",""15"",""83876""
""focus"",""15"",""88494""
","""event"",""trial"",""time""
""blur"",""15"",""83876""
","""event"",""trial"",""time""
""focus"",""15"",""88494""
","""event"",""trial"",""time""
""fullscreenenter"",""1"",""2199""
","
","","","","","","null","<div style=""font-size:60px;"">+</div>","null","","fixation","","",""
"memory-trial","143","347844","0.0-18.0-1.49","4147","approach_avoid_sv1","""event"",""trial"",""time""
""fullscreenenter"",""1"",""2199""
""blur"",""15"",""83876""
""focus"",""15"",""88494""
","""event"",""trial"",""time""
""blur"",""15"",""83876""
","""event"",""trial"",""time""
""focus"",""15"",""88494""
","""event"",""trial"",""time""
""fullscreenenter"",""1"",""2199""
","
","","","","","","918.5","images/sofa5.png","","","memory_trial","1","definitely_old",""
"html-keyboard-response","144","348348","0.0-18.0-0.50","4147","approach_avoid_sv1","""event"",""trial"",""time""
""fullscreenenter"",""1"",""2199""
""blur"",""15"",""83876""
""focus"",""15"",""88494""
","""event"",""trial"",""time""
""blur"",""15"",""83876""
","""event"",""trial"",""time""
""focus"",""15"",""88494""
","""event"",""trial"",""time""
""fullscreenenter"",""1"",""2199""
","
","","","","","","null","<div style=""font-size:60px;"">+</div>","null","","fixation","","",""
"memory-trial","145","351262","0.0-18.0-1.50","4147","approach_avoid_sv1","""event"",""trial"",""time""
""fullscreenenter"",""1"",""2199""
""blur"",""15"",""83876""
""focus"",""15"",""88494""
","""event"",""trial"",""time""
""blur"",""15"",""83876""
","""event"",""trial"",""time""
""focus"",""15"",""88494""
","""event"",""trial"",""time""
""fullscreenenter"",""1"",""2199""
","
","","","","","","1893.2000000029802","images/horse6.png","","","memory_trial","1","definitely_old",""
"html-keyboard-response","146","351764","0.0-18.0-0.51","4147","approach_avoid_sv1","""event"",""trial"",""time""
""fullscreenenter"",""1"",""2199""
""blur"",""15"",""83876""
""focus"",""15"",""88494""
","""event"",""trial"",""time""
""blur"",""15"",""83876""
","""event"",""trial"",""time""
""focus"",""15"",""88494""
","""event"",""trial"",""time""
""fullscreenenter"",""1"",""2199""
","
","","","","","","null","<div style=""font-size:60px;"">+</div>","null","","fixation","","",""
"memory-trial","147","355229","0.0-18.0-1.51","4147","approach_avoid_sv1","""event"",""trial"",""time""
""fullscreenenter"",""1"",""2199""
""blur"",""15"",""83876""
""focus"",""15"",""88494""
","""event"",""trial"",""time""
""blur"",""15"",""83876""
","""event"",""trial"",""time""
""focus"",""15"",""88494""
","""event"",""trial"",""time""
""fullscreenenter"",""1"",""2199""
","
","","","","","","2455.4000000059605","images/banana3.png","","","memory_trial","4","definitely_new",""
"html-keyboard-response","148","355731","0.0-18.0-0.52","4147","approach_avoid_sv1","""event"",""trial"",""time""
""fullscreenenter"",""1"",""2199""
""blur"",""15"",""83876""
""focus"",""15"",""88494""
","""event"",""trial"",""time""
""blur"",""15"",""83876""
","""event"",""trial"",""time""
""focus"",""15"",""88494""
","""event"",""trial"",""time""
""fullscreenenter"",""1"",""2199""
","
","","","","","","null","<div style=""font-size:60px;"">+</div>","null","","fixation","","",""
"memory-trial","149","358012","0.0-18.0-1.52","4147","approach_avoid_sv1","""event"",""trial"",""time""
""fullscreenenter"",""1"",""2199""
""blur"",""15"",""83876""
""focus"",""15"",""88494""
","""event"",""trial"",""time""
""blur"",""15"",""83876""
","""event"",""trial"",""time""
""focus"",""15"",""88494""
","""event"",""trial"",""time""
""fullscreenenter"",""1"",""2199""
","
","","","","","","1277.2000000029802","images/tree1.png","","","memory_trial","1","definitely_old",""
"html-keyboard-response","150","358517","0.0-18.0-0.53","4147","approach_avoid_sv1","""event"",""trial"",""time""
""fullscreenenter"",""1"",""2199""
""blur"",""15"",""83876""
""focus"",""15"",""88494""
","""event"",""trial"",""time""
""blur"",""15"",""83876""
","""event"",""trial"",""time""
""focus"",""15"",""88494""
","""event"",""trial"",""time""
""fullscreenenter"",""1"",""2199""
","
","","","","","","null","<div style=""font-size:60px;"">+</div>","null","","fixation","","",""
"memory-trial","151","360812","0.0-18.0-1.53","4147","approach_avoid_sv1","""event"",""trial"",""time""
""fullscreenenter"",""1"",""2199""
""blur"",""15"",""83876""
""focus"",""15"",""88494""
","""event"",""trial"",""time""
""blur"",""15"",""83876""
","""event"",""trial"",""time""
""focus"",""15"",""88494""
","""event"",""trial"",""time""
""fullscreenenter"",""1"",""2199""
","
","","","","","","1285.2999999970198","images/horse7.png","","","memory_trial","4","definitely_new",""
"html-keyboard-response","152","361317","0.0-18.0-0.54","4147","approach_avoid_sv1","""event"",""trial"",""time""
""fullscreenenter"",""1"",""2199""
""blur"",""15"",""83876""
""focus"",""15"",""88494""
","""event"",""trial"",""time""
""blur"",""15"",""83876""
","""event"",""trial"",""time""
""focus"",""15"",""88494""
","""event"",""trial"",""time""
""fullscreenenter"",""1"",""2199""
","
","","","","","","null","<div style=""font-size:60px;"">+</div>","null","","fixation","","",""
"memory-trial","153","363972","0.0-18.0-1.54","4147","approach_avoid_sv1","""event"",""trial"",""time""
""fullscreenenter"",""1"",""2199""
""blur"",""15"",""83876""
""focus"",""15"",""88494""
","""event"",""trial"",""time""
""blur"",""15"",""83876""
","""event"",""trial"",""time""
""focus"",""15"",""88494""
","""event"",""trial"",""time""
""fullscreenenter"",""1"",""2199""
","
","","","","","","1653.1000000089407","images/boat4.png","","","memory_trial","1","definitely_old",""
"html-keyboard-response","154","364476","0.0-18.0-0.55","4147","approach_avoid_sv1","""event"",""trial"",""time""
""fullscreenenter"",""1"",""2199""
""blur"",""15"",""83876""
""focus"",""15"",""88494""
","""event"",""trial"",""time""
""blur"",""15"",""83876""
","""event"",""trial"",""time""
""focus"",""15"",""88494""
","""event"",""trial"",""time""
""fullscreenenter"",""1"",""2199""
","
","","","","","","null","<div style=""font-size:60px;"">+</div>","null","","fixation","","",""
"memory-trial","155","367732","0.0-18.0-1.55","4147","approach_avoid_sv1","""event"",""trial"",""time""
""fullscreenenter"",""1"",""2199""
""blur"",""15"",""83876""
""focus"",""15"",""88494""
","""event"",""trial"",""time""
""blur"",""15"",""83876""
","""event"",""trial"",""time""
""focus"",""15"",""88494""
","""event"",""trial"",""time""
""fullscreenenter"",""1"",""2199""
","
","","","","","","2245.7999999970198","images/train8.png","","","memory_trial","1","definitely_old",""
"html-keyboard-response","156","368235","0.0-18.0-0.56","4147","approach_avoid_sv1","""event"",""trial"",""time""
""fullscreenenter"",""1"",""2199""
""blur"",""15"",""83876""
""focus"",""15"",""88494""
","""event"",""trial"",""time""
""blur"",""15"",""83876""
","""event"",""trial"",""time""
""focus"",""15"",""88494""
","""event"",""trial"",""time""
""fullscreenenter"",""1"",""2199""
","
","","","","","","null","<div style=""font-size:60px;"">+</div>","null","","fixation","","",""
"memory-trial","157","369860","0.0-18.0-1.56","4147","approach_avoid_sv1","""event"",""trial"",""time""
""fullscreenenter"",""1"",""2199""
""blur"",""15"",""83876""
""focus"",""15"",""88494""
","""event"",""trial"",""time""
""blur"",""15"",""83876""
","""event"",""trial"",""time""
""focus"",""15"",""88494""
","""event"",""trial"",""time""
""fullscreenenter"",""1"",""2199""
","
","","","","","","621.3999999910593","images/truck2.png","","","memory_trial","4","definitely_new",""
"html-keyboard-response","158","370364","0.0-18.0-0.57","4147","approach_avoid_sv1","""event"",""trial"",""time""
""fullscreenenter"",""1"",""2199""
""blur"",""15"",""83876""
""focus"",""15"",""88494""
","""event"",""trial"",""time""
""blur"",""15"",""83876""
","""event"",""trial"",""time""
""focus"",""15"",""88494""
","""event"",""trial"",""time""
""fullscreenenter"",""1"",""2199""
","
","","","","","","null","<div style=""font-size:60px;"">+</div>","null","","fixation","","",""
"memory-trial","159","374396","0.0-18.0-1.57","4147","approach_avoid_sv1","""event"",""trial"",""time""
""fullscreenenter"",""1"",""2199""
""blur"",""15"",""83876""
""focus"",""15"",""88494""
","""event"",""trial"",""time""
""blur"",""15"",""83876""
","""event"",""trial"",""time""
""focus"",""15"",""88494""
","""event"",""trial"",""time""
""fullscreenenter"",""1"",""2199""
","
","","","","","","3020.9000000059605","images/rodent6.png","","","memory_trial","1","definitely_old",""
"html-keyboard-response","160","374901","0.0-18.0-0.58","4147","approach_avoid_sv1","""event"",""trial"",""time""
""fullscreenenter"",""1"",""2199""
""blur"",""15"",""83876""
""focus"",""15"",""88494""
","""event"",""trial"",""time""
""blur"",""15"",""83876""
","""event"",""trial"",""time""
""focus"",""15"",""88494""
","""event"",""trial"",""time""
""fullscreenenter"",""1"",""2199""
","
","","","","","","null","<div style=""font-size:60px;"">+</div>","null","","fixation","","",""
"memory-trial","161","377034","0.0-18.0-1.58","4147","approach_avoid_sv1","""event"",""trial"",""time""
""fullscreenenter"",""1"",""2199""
""blur"",""15"",""83876""
""focus"",""15"",""88494""
","""event"",""trial"",""time""
""blur"",""15"",""83876""
","""event"",""trial"",""time""
""focus"",""15"",""88494""
","""event"",""trial"",""time""
""fullscreenenter"",""1"",""2199""
","
","","","","","","1107.9000000059605","images/horse1.png","","","memory_trial","4","definitely_new",""
"html-keyboard-response","162","377540","0.0-18.0-0.59","4147","approach_avoid_sv1","""event"",""trial"",""time""
""fullscreenenter"",""1"",""2199""
""blur"",""15"",""83876""
""focus"",""15"",""88494""
","""event"",""trial"",""time""
""blur"",""15"",""83876""
","""event"",""trial"",""time""
""focus"",""15"",""88494""
","""event"",""trial"",""time""
""fullscreenenter"",""1"",""2199""
","
","","","","","","null","<div style=""font-size:60px;"">+</div>","null","","fixation","","",""
"memory-trial","163","379492","0.0-18.0-1.59","4147","approach_avoid_sv1","""event"",""trial"",""time""
""fullscreenenter"",""1"",""2199""
""blur"",""15"",""83876""
""focus"",""15"",""88494""
","""event"",""trial"",""time""
""blur"",""15"",""83876""
","""event"",""trial"",""time""
""focus"",""15"",""88494""
","""event"",""trial"",""time""
""fullscreenenter"",""1"",""2199""
","
","","","","","","943","images/rabbit3.png","","","memory_trial","1","definitely_old",""
"html-keyboard-response","164","379996","0.0-18.0-0.60","4147","approach_avoid_sv1","""event"",""trial"",""time""
""fullscreenenter"",""1"",""2199""
""blur"",""15"",""83876""
""focus"",""15"",""88494""
","""event"",""trial"",""time""
""blur"",""15"",""83876""
","""event"",""trial"",""time""
""focus"",""15"",""88494""
","""event"",""trial"",""time""
""fullscreenenter"",""1"",""2199""
","
","","","","","","null","<div style=""font-size:60px;"">+</div>","null","","fixation","","",""
"memory-trial","165","382988","0.0-18.0-1.60","4147","approach_avoid_sv1","""event"",""trial"",""time""
""fullscreenenter"",""1"",""2199""
""blur"",""15"",""83876""
""focus"",""15"",""88494""
","""event"",""trial"",""time""
""blur"",""15"",""83876""
","""event"",""trial"",""time""
""focus"",""15"",""88494""
","""event"",""trial"",""time""
""fullscreenenter"",""1"",""2199""
","
","","","","","","1982.4000000059605","images/rabbit8.png","","","memory_trial","4","definitely_new",""
"html-keyboard-response","166","383491","0.0-18.0-0.61","4147","approach_avoid_sv1","""event"",""trial"",""time""
""fullscreenenter"",""1"",""2199""
""blur"",""15"",""83876""
""focus"",""15"",""88494""
","""event"",""trial"",""time""
""blur"",""15"",""83876""
","""event"",""trial"",""time""
""focus"",""15"",""88494""
","""event"",""trial"",""time""
""fullscreenenter"",""1"",""2199""
","
","","","","","","null","<div style=""font-size:60px;"">+</div>","null","","fixation","","",""
"memory-trial","167","385933","0.0-18.0-1.61","4147","approach_avoid_sv1","""event"",""trial"",""time""
""fullscreenenter"",""1"",""2199""
""blur"",""15"",""83876""
""focus"",""15"",""88494""
","""event"",""trial"",""time""
""blur"",""15"",""83876""
","""event"",""trial"",""time""
""focus"",""15"",""88494""
","""event"",""trial"",""time""
""fullscreenenter"",""1"",""2199""
","
","","","","","","1431.4000000059605","images/goat1.png","","","memory_trial","1","definitely_old",""
"html-keyboard-response","168","386436","0.0-18.0-0.62","4147","approach_avoid_sv1","""event"",""trial"",""time""
""fullscreenenter"",""1"",""2199""
""blur"",""15"",""83876""
""focus"",""15"",""88494""
","""event"",""trial"",""time""
""blur"",""15"",""83876""
","""event"",""trial"",""time""
""focus"",""15"",""88494""
","""event"",""trial"",""time""
""fullscreenenter"",""1"",""2199""
","
","","","","","","null","<div style=""font-size:60px;"">+</div>","null","","fixation","","",""
"memory-trial","169","388675","0.0-18.0-1.62","4147","approach_avoid_sv1","""event"",""trial"",""time""
""fullscreenenter"",""1"",""2199""
""blur"",""15"",""83876""
""focus"",""15"",""88494""
","""event"",""trial"",""time""
""blur"",""15"",""83876""
","""event"",""trial"",""time""
""focus"",""15"",""88494""
","""event"",""trial"",""time""
""fullscreenenter"",""1"",""2199""
","
","","","","","","1237.2999999970198","images/flower5.png","","","memory_trial","1","definitely_old",""
"html-keyboard-response","170","389184","0.0-18.0-0.63","4147","approach_avoid_sv1","""event"",""trial"",""time""
""fullscreenenter"",""1"",""2199""
""blur"",""15"",""83876""
""focus"",""15"",""88494""
","""event"",""trial"",""time""
""blur"",""15"",""83876""
","""event"",""trial"",""time""
""focus"",""15"",""88494""
","""event"",""trial"",""time""
""fullscreenenter"",""1"",""2199""
","
","","","","","","null","<div style=""font-size:60px;"">+</div>","null","","fixation","","",""
"memory-trial","171","391085","0.0-18.0-1.63","4147","approach_avoid_sv1","""event"",""trial"",""time""
""fullscreenenter"",""1"",""2199""
""blur"",""15"",""83876""
""focus"",""15"",""88494""
","""event"",""trial"",""time""
""blur"",""15"",""83876""
","""event"",""trial"",""time""
""focus"",""15"",""88494""
","""event"",""trial"",""time""
""fullscreenenter"",""1"",""2199""
","
","","","","","","891","images/flower7.png","","","memory_trial","4","definitely_new",""
"html-keyboard-response","172","391597","0.0-18.0-0.64","4147","approach_avoid_sv1","""event"",""trial"",""time""
""fullscreenenter"",""1"",""2199""
""blur"",""15"",""83876""
""focus"",""15"",""88494""
","""event"",""trial"",""time""
""blur"",""15"",""83876""
","""event"",""trial"",""time""
""focus"",""15"",""88494""
","""event"",""trial"",""time""
""fullscreenenter"",""1"",""2199""
","
","","","","","","null","<div style=""font-size:60px;"">+</div>","null","","fixation","","",""
"memory-trial","173","394696","0.0-18.0-1.64","4147","approach_avoid_sv1","""event"",""trial"",""time""
""fullscreenenter"",""1"",""2199""
""blur"",""15"",""83876""
""focus"",""15"",""88494""
","""event"",""trial"",""time""
""blur"",""15"",""83876""
","""event"",""trial"",""time""
""focus"",""15"",""88494""
","""event"",""trial"",""time""
""fullscreenenter"",""1"",""2199""
","
","","","","","","2077.2000000029802","images/cow5.png","","","memory_trial","4","definitely_new",""
"html-keyboard-response","174","395204","0.0-18.0-0.65","4147","approach_avoid_sv1","""event"",""trial"",""time""
""fullscreenenter"",""1"",""2199""
""blur"",""15"",""83876""
""focus"",""15"",""88494""
","""event"",""trial"",""time""
""blur"",""15"",""83876""
","""event"",""trial"",""time""
""focus"",""15"",""88494""
","""event"",""trial"",""time""
""fullscreenenter"",""1"",""2199""
","
","","","","","","null","<div style=""font-size:60px;"">+</div>","null","","fixation","","",""
"memory-trial","175","397044","0.0-18.0-1.65","4147","approach_avoid_sv1","""event"",""trial"",""time""
""fullscreenenter"",""1"",""2199""
""blur"",""15"",""83876""
""focus"",""15"",""88494""
","""event"",""trial"",""time""
""blur"",""15"",""83876""
","""event"",""trial"",""time""
""focus"",""15"",""88494""
","""event"",""trial"",""time""
""fullscreenenter"",""1"",""2199""
","
","","","","","","836.5","images/table4.png","","","memory_trial","4","definitely_new",""
"html-keyboard-response","176","397548","0.0-18.0-0.66","4147","approach_avoid_sv1","""event"",""trial"",""time""
""fullscreenenter"",""1"",""2199""
""blur"",""15"",""83876""
""focus"",""15"",""88494""
","""event"",""trial"",""time""
""blur"",""15"",""83876""
","""event"",""trial"",""time""
""focus"",""15"",""88494""
","""event"",""trial"",""time""
""fullscreenenter"",""1"",""2199""
","
","","","","","","null","<div style=""font-size:60px;"">+</div>","null","","fixation","","",""
"memory-trial","177","399932","0.0-18.0-1.66","4147","approach_avoid_sv1","""event"",""trial"",""time""
""fullscreenenter"",""1"",""2199""
""blur"",""15"",""83876""
""focus"",""15"",""88494""
","""event"",""trial"",""time""
""blur"",""15"",""83876""
","""event"",""trial"",""time""
""focus"",""15"",""88494""
","""event"",""trial"",""time""
""fullscreenenter"",""1"",""2199""
","
","","","","","","1373.9000000059605","images/apple8.png","","","memory_trial","4","definitely_new",""
"html-keyboard-response","178","400436","0.0-18.0-0.67","4147","approach_avoid_sv1","""event"",""trial"",""time""
""fullscreenenter"",""1"",""2199""
""blur"",""15"",""83876""
""focus"",""15"",""88494""
","""event"",""trial"",""time""
""blur"",""15"",""83876""
","""event"",""trial"",""time""
""focus"",""15"",""88494""
","""event"",""trial"",""time""
""fullscreenenter"",""1"",""2199""
","
","","","","","","null","<div style=""font-size:60px;"">+</div>","null","","fixation","","",""
"memory-trial","179","402180","0.0-18.0-1.67","4147","approach_avoid_sv1","""event"",""trial"",""time""
""fullscreenenter"",""1"",""2199""
""blur"",""15"",""83876""
""focus"",""15"",""88494""
","""event"",""trial"",""time""
""blur"",""15"",""83876""
","""event"",""trial"",""time""
""focus"",""15"",""88494""
","""event"",""trial"",""time""
""fullscreenenter"",""1"",""2199""
","
","","","","","","727.6000000089407","images/sofa1.png","","","memory_trial","1","definitely_old",""
"html-keyboard-response","180","402685","0.0-18.0-0.68","4147","approach_avoid_sv1","""event"",""trial"",""time""
""fullscreenenter"",""1"",""2199""
""blur"",""15"",""83876""
""focus"",""15"",""88494""
","""event"",""trial"",""time""
""blur"",""15"",""83876""
","""event"",""trial"",""time""
""focus"",""15"",""88494""
","""event"",""trial"",""time""
""fullscreenenter"",""1"",""2199""
","
","","","","","","null","<div style=""font-size:60px;"">+</div>","null","","fixation","","",""
"memory-trial","181","405253","0.0-18.0-1.68","4147","approach_avoid_sv1","""event"",""trial"",""time""
""fullscreenenter"",""1"",""2199""
""blur"",""15"",""83876""
""focus"",""15"",""88494""
","""event"",""trial"",""time""
""blur"",""15"",""83876""
","""event"",""trial"",""time""
""focus"",""15"",""88494""
","""event"",""trial"",""time""
""fullscreenenter"",""1"",""2199""
","
","","","","","","1556.7000000029802","images/plane7.png","","","memory_trial","4","definitely_new",""
"html-keyboard-response","182","405756","0.0-18.0-0.69","4147","approach_avoid_sv1","""event"",""trial"",""time""
""fullscreenenter"",""1"",""2199""
""blur"",""15"",""83876""
""focus"",""15"",""88494""
","""event"",""trial"",""time""
""blur"",""15"",""83876""
","""event"",""trial"",""time""
""focus"",""15"",""88494""
","""event"",""trial"",""time""
""fullscreenenter"",""1"",""2199""
","
","","","","","","null","<div style=""font-size:60px;"">+</div>","null","","fixation","","",""
"memory-trial","183","408359","0.0-18.0-1.69","4147","approach_avoid_sv1","""event"",""trial"",""time""
""fullscreenenter"",""1"",""2199""
""blur"",""15"",""83876""
""focus"",""15"",""88494""
","""event"",""trial"",""time""
""blur"",""15"",""83876""
","""event"",""trial"",""time""
""focus"",""15"",""88494""
","""event"",""trial"",""time""
""fullscreenenter"",""1"",""2199""
","
","","","","","","1581.5","images/plane1.png","","","memory_trial","4","definitely_new",""
"html-keyboard-response","184","408876","0.0-18.0-0.70","4147","approach_avoid_sv1","""event"",""trial"",""time""
""fullscreenenter"",""1"",""2199""
""blur"",""15"",""83876""
""focus"",""15"",""88494""
","""event"",""trial"",""time""
""blur"",""15"",""83876""
","""event"",""trial"",""time""
""focus"",""15"",""88494""
","""event"",""trial"",""time""
""fullscreenenter"",""1"",""2199""
","
","","","","","","null","<div style=""font-size:60px;"">+</div>","null","","fixation","","",""
"memory-trial","185","410844","0.0-18.0-1.70","4147","approach_avoid_sv1","""event"",""trial"",""time""
""fullscreenenter"",""1"",""2199""
""blur"",""15"",""83876""
""focus"",""15"",""88494""
","""event"",""trial"",""time""
""blur"",""15"",""83876""
","""event"",""trial"",""time""
""focus"",""15"",""88494""
","""event"",""trial"",""time""
""fullscreenenter"",""1"",""2199""
","
","","","","","","965.7000000029802","images/apple5.png","","","memory_trial","4","definitely_new",""
"html-keyboard-response","186","411357","0.0-18.0-0.71","4147","approach_avoid_sv1","""event"",""trial"",""time""
""fullscreenenter"",""1"",""2199""
""blur"",""15"",""83876""
""focus"",""15"",""88494""
","""event"",""trial"",""time""
""blur"",""15"",""83876""
","""event"",""trial"",""time""
""focus"",""15"",""88494""
","""event"",""trial"",""time""
""fullscreenenter"",""1"",""2199""
","
","","","","","","null","<div style=""font-size:60px;"">+</div>","null","","fixation","","",""
"memory-trial","187","413204","0.0-18.0-1.71","4147","approach_avoid_sv1","""event"",""trial"",""time""
""fullscreenenter"",""1"",""2199""
""blur"",""15"",""83876""
""focus"",""15"",""88494""
","""event"",""trial"",""time""
""blur"",""15"",""83876""
","""event"",""trial"",""time""
""focus"",""15"",""88494""
","""event"",""trial"",""time""
""fullscreenenter"",""1"",""2199""
","
","","","","","","837.8999999910593","images/chair4.png","","","memory_trial","1","definitely_old",""
"html-keyboard-response","188","413721","0.0-18.0-0.72","4147","approach_avoid_sv1","""event"",""trial"",""time""
""fullscreenenter"",""1"",""2199""
""blur"",""15"",""83876""
""focus"",""15"",""88494""
","""event"",""trial"",""time""
""blur"",""15"",""83876""
","""event"",""trial"",""time""
""focus"",""15"",""88494""
","""event"",""trial"",""time""
""fullscreenenter"",""1"",""2199""
","
","","","","","","null","<div style=""font-size:60px;"">+</div>","null","","fixation","","",""
"memory-trial","189","415348","0.0-18.0-1.72","4147","approach_avoid_sv1","""event"",""trial"",""time""
""fullscreenenter"",""1"",""2199""
""blur"",""15"",""83876""
""focus"",""15"",""88494""
","""event"",""trial"",""time""
""blur"",""15"",""83876""
","""event"",""trial"",""time""
""focus"",""15"",""88494""
","""event"",""trial"",""time""
""fullscreenenter"",""1"",""2199""
","
","","","","","","616.7000000029802","images/chair6.png","","","memory_trial","1","definitely_old",""
"html-keyboard-response","190","415860","0.0-18.0-0.73","4147","approach_avoid_sv1","""event"",""trial"",""time""
""fullscreenenter"",""1"",""2199""
""blur"",""15"",""83876""
""focus"",""15"",""88494""
","""event"",""trial"",""time""
""blur"",""15"",""83876""
","""event"",""trial"",""time""
""focus"",""15"",""88494""
","""event"",""trial"",""time""
""fullscreenenter"",""1"",""2199""
","
","","","","","","null","<div style=""font-size:60px;"">+</div>","null","","fixation","","",""
"memory-trial","191","418603","0.0-18.0-1.73","4147","approach_avoid_sv1","""event"",""trial"",""time""
""fullscreenenter"",""1"",""2199""
""blur"",""15"",""83876""
""focus"",""15"",""88494""
","""event"",""trial"",""time""
""blur"",""15"",""83876""
","""event"",""trial"",""time""
""focus"",""15"",""88494""
","""event"",""trial"",""time""
""fullscreenenter"",""1"",""2199""
","
","","","","","","1734.2000000029802","images/truck1.png","","","memory_trial","1","definitely_old",""
"html-keyboard-response","192","419108","0.0-18.0-0.74","4147","approach_avoid_sv1","""event"",""trial"",""time""
""fullscreenenter"",""1"",""2199""
""blur"",""15"",""83876""
""focus"",""15"",""88494""
","""event"",""trial"",""time""
""blur"",""15"",""83876""
","""event"",""trial"",""time""
""focus"",""15"",""88494""
","""event"",""trial"",""time""
""fullscreenenter"",""1"",""2199""
","
","","","","","","null","<div style=""font-size:60px;"">+</div>","null","","fixation","","",""
"memory-trial","193","421460","0.0-18.0-1.74","4147","approach_avoid_sv1","""event"",""trial"",""time""
""fullscreenenter"",""1"",""2199""
""blur"",""15"",""83876""
""focus"",""15"",""88494""
","""event"",""trial"",""time""
""blur"",""15"",""83876""
","""event"",""trial"",""time""
""focus"",""15"",""88494""
","""event"",""trial"",""time""
""fullscreenenter"",""1"",""2199""
","
","","","","","","1341.5","images/straw7.png","","","memory_trial","4","definitely_new",""
"html-keyboard-response","194","421965","0.0-18.0-0.75","4147","approach_avoid_sv1","""event"",""trial"",""time""
""fullscreenenter"",""1"",""2199""
""blur"",""15"",""83876""
""focus"",""15"",""88494""
","""event"",""trial"",""time""
""blur"",""15"",""83876""
","""event"",""trial"",""time""
""focus"",""15"",""88494""
","""event"",""trial"",""time""
""fullscreenenter"",""1"",""2199""
","
","","","","","","null","<div style=""font-size:60px;"">+</div>","null","","fixation","","",""
"memory-trial","195","424697","0.0-18.0-1.75","4147","approach_avoid_sv1","""event"",""trial"",""time""
""fullscreenenter"",""1"",""2199""
""blur"",""15"",""83876""
""focus"",""15"",""88494""
","""event"",""trial"",""time""
""blur"",""15"",""83876""
","""event"",""trial"",""time""
""focus"",""15"",""88494""
","""event"",""trial"",""time""
""fullscreenenter"",""1"",""2199""
","
","","","","","","1717","images/banana2.png","","","memory_trial","4","definitely_new",""
"html-keyboard-response","196","425205","0.0-18.0-0.76","4147","approach_avoid_sv1","""event"",""trial"",""time""
""fullscreenenter"",""1"",""2199""
""blur"",""15"",""83876""
""focus"",""15"",""88494""
","""event"",""trial"",""time""
""blur"",""15"",""83876""
","""event"",""trial"",""time""
""focus"",""15"",""88494""
","""event"",""trial"",""time""
""fullscreenenter"",""1"",""2199""
","
","","","","","","null","<div style=""font-size:60px;"">+</div>","null","","fixation","","",""
"memory-trial","197","427316","0.0-18.0-1.76","4147","approach_avoid_sv1","""event"",""trial"",""time""
""fullscreenenter"",""1"",""2199""
""blur"",""15"",""83876""
""focus"",""15"",""88494""
","""event"",""trial"",""time""
""blur"",""15"",""83876""
","""event"",""trial"",""time""
""focus"",""15"",""88494""
","""event"",""trial"",""time""
""fullscreenenter"",""1"",""2199""
","
","","","","","","1107.8999999910593","images/train6.png","","","memory_trial","1","definitely_old",""
"html-keyboard-response","198","427819","0.0-18.0-0.77","4147","approach_avoid_sv1","""event"",""trial"",""time""
""fullscreenenter"",""1"",""2199""
""blur"",""15"",""83876""
""focus"",""15"",""88494""
","""event"",""trial"",""time""
""blur"",""15"",""83876""
","""event"",""trial"",""time""
""focus"",""15"",""88494""
","""event"",""trial"",""time""
""fullscreenenter"",""1"",""2199""
","
","","","","","","null","<div style=""font-size:60px;"">+</div>","null","","fixation","","",""
"memory-trial","199","429680","0.0-18.0-1.77","4147","approach_avoid_sv1","""event"",""trial"",""time""
""fullscreenenter"",""1"",""2199""
""blur"",""15"",""83876""
""focus"",""15"",""88494""
","""event"",""trial"",""time""
""blur"",""15"",""83876""
","""event"",""trial"",""time""
""focus"",""15"",""88494""
","""event"",""trial"",""time""
""fullscreenenter"",""1"",""2199""
","
","","","","","","847.5999999940395","images/cactus8.png","","","memory_trial","4","definitely_new",""
"html-keyboard-response","200","430196","0.0-18.0-0.78","4147","approach_avoid_sv1","""event"",""trial"",""time""
""fullscreenenter"",""1"",""2199""
""blur"",""15"",""83876""
""focus"",""15"",""88494""
","""event"",""trial"",""time""
""blur"",""15"",""83876""
","""event"",""trial"",""time""
""focus"",""15"",""88494""
","""event"",""trial"",""time""
""fullscreenenter"",""1"",""2199""
","
","","","","","","null","<div style=""font-size:60px;"">+</div>","null","","fixation","","",""
"memory-trial","201","434247","0.0-18.0-1.78","4147","approach_avoid_sv1","""event"",""trial"",""time""
""fullscreenenter"",""1"",""2199""
""blur"",""15"",""83876""
""focus"",""15"",""88494""
","""event"",""trial"",""time""
""blur"",""15"",""83876""
","""event"",""trial"",""time""
""focus"",""15"",""88494""
","""event"",""trial"",""time""
""fullscreenenter"",""1"",""2199""
","
","","","","","","3037.9000000059605","images/apple3.png","","","memory_trial","1","definitely_old",""