"trial_type","trial_index","time_elapsed","internal_node_id","subject_id","task_version","interactions","blur_events","focus_events","fullscreenenter_events","fullscreenexit_events","success","timeout","failed_images","failed_audio","failed_video","rt","stimulus","response","button_pressed","task_part","key_press","answer","correct"
"pavlovia","0","4","0.0-0.0","5670","approach_avoid_sv1","""event"",""trial"",""time""
""fullscreenenter"",""1"",""1269""
","
","
","""event"",""trial"",""time""
""fullscreenenter"",""1"",""1269""
","
","","","","","","","","","","","","",""
"fullscreen","1","2235","0.0-1.0","5670","approach_avoid_sv1","""event"",""trial"",""time""
""fullscreenenter"",""1"",""1269""
","
","
","""event"",""trial"",""time""
""fullscreenenter"",""1"",""1269""
","
","true","","","","","","","","","","","",""
"preload","2","21000","0.0-2.0","5670","approach_avoid_sv1","""event"",""trial"",""time""
""fullscreenenter"",""1"",""1269""
","
","
","""event"",""trial"",""time""
""fullscreenenter"",""1"",""1269""
","
","true","false","[]","[]","[]","","","","","","","",""
"preload","3","36927","0.0-3.0","5670","approach_avoid_sv1","""event"",""trial"",""time""
""fullscreenenter"",""1"",""1269""
","
","
","""event"",""trial"",""time""
""fullscreenenter"",""1"",""1269""
","
","true","false","[]","[]","[]","","","","","","","",""
"preload","4","37614","0.0-4.0","5670","approach_avoid_sv1","""event"",""trial"",""time""
""fullscreenenter"",""1"",""1269""
","
","
","""event"",""trial"",""time""
""fullscreenenter"",""1"",""1269""
","
","true","false","[]","[]","[]","","","","","","","",""
"audio-keyboard-response","5","42534","0.0-5.0","5670","approach_avoid_sv1","""event"",""trial"",""time""
""fullscreenenter"",""1"",""1269""
","
","
","""event"",""trial"",""time""
""fullscreenenter"",""1"",""1269""
","
","","","","","","4920","audio/beep_loop.wav"," ","","","","",""
"audio-button-response","6","45781","0.0-6.0","5670","approach_avoid_sv1","""event"",""trial"",""time""
""fullscreenenter"",""1"",""1269""
","
","
","""event"",""trial"",""time""
""fullscreenenter"",""1"",""1269""
","
","","","","","","3240","audio/turtle.wav","0","","","","",""
"audio-button-response","7","47781","0.0-7.0","5670","approach_avoid_sv1","""event"",""trial"",""time""
""fullscreenenter"",""1"",""1269""
","
","
","""event"",""trial"",""time""
""fullscreenenter"",""1"",""1269""
","
","","","","","","979","audio/shark.wav","2","","","","",""
"preload","8","69709","0.0-8.0","5670","approach_avoid_sv1","""event"",""trial"",""time""
""fullscreenenter"",""1"",""1269""
","
","
","""event"",""trial"",""time""
""fullscreenenter"",""1"",""1269""
","
","true","false","[]","[]","[]","","","","","","","",""
"learning-instructions","9","75585","0.0-9.0-0.0","5670","approach_avoid_sv1","""event"",""trial"",""time""
""fullscreenenter"",""1"",""1269""
","
","
","""event"",""trial"",""time""
""fullscreenenter"",""1"",""1269""
","
","","","","","","1398.5","<p> Welcome back! </p><p> Last week, you had to make choices about lots of different items.  </p>","","0","instructions","","",""
"learning-instructions","10","81729","0.0-9.0-0.1","5670","approach_avoid_sv1","""event"",""trial"",""time""
""fullscreenenter"",""1"",""1269""
","
","
","""event"",""trial"",""time""
""fullscreenenter"",""1"",""1269""
","
","","","","","","2022.2999999523163","<p> Today, we are going to ask you to try to remember all the items. </p>","","0","instructions","","",""
"learning-instructions","11","93939","0.0-9.0-0.2","5670","approach_avoid_sv1","""event"",""trial"",""time""
""fullscreenenter"",""1"",""1269""
","
","
","""event"",""trial"",""time""
""fullscreenenter"",""1"",""1269""
","
","","","","","","2072.1999999284744","<p> On every trial, you will see an image. </p><p> The image may be an OLD image you saw during the games last week or it may be a NEW image that was not presented. </p>","","0","instructions","","",""
"learning-instructions","12","103761","0.0-9.0-0.3","5670","approach_avoid_sv1","""event"",""trial"",""time""
""fullscreenenter"",""1"",""1269""
","
","
","""event"",""trial"",""time""
""fullscreenenter"",""1"",""1269""
","
","","","","","","1324.2999999523163","<p> You need to select whether the image is:  </p><p>  'Definitely old', 'Maybe old', 'Maybe new', or 'Definitely new.'  </p><div class=""mem-choice-instructions-grid""><div class=""choice-option"" id=""choice-option-1"" ><img src=""images/definitely_old_1.png"" id=""choice-option-img-1"" class=""choice-option-img"" stage=""1""></div><div class=""choice-option"" id=""choice-option-2"" ><img src=""images/maybe_old_1.png"" id=""choice-option-img-2"" class=""choice-option-img"" stage=""1""></div><div class=""choice-option"" id=""choice-option-3"" ><img src=""images/maybe_new_1.png"" id=""choice-option-img-3"" class=""choice-option-img"" stage=""1""></div><div class=""choice-option"" id=""choice-option-4"" > <img src=""images/definitely_new_1.png"" id=""choice-option-img-4"" class=""choice-option-img"" stage=""1""></div></div>","","0","instructions","","",""
"learning-instructions","13","110888","0.0-9.0-0.4","5670","approach_avoid_sv1","""event"",""trial"",""time""
""fullscreenenter"",""1"",""1269""
","
","
","""event"",""trial"",""time""
""fullscreenenter"",""1"",""1269""
","
","","","","","","610","<p> You should use the 1, 2, 3, and 4 keys to make your responses.  </p><div class=""mem-choice-instructions-grid""><div class=""choice-option"" id=""choice-option-1"" ><img src=""images/definitely_old.png"" id=""choice-option-img-1"" class=""choice-option-img"" stage=""1""></div><div class=""choice-option"" id=""choice-option-2"" ><img src=""images/maybe_old.png"" id=""choice-option-img-2"" class=""choice-option-img"" stage=""1""></div><div class=""choice-option"" id=""choice-option-3"" ><img src=""images/maybe_new.png"" id=""choice-option-img-3"" class=""choice-option-img"" stage=""1""></div><div class=""choice-option"" id=""choice-option-4"" > <img src=""images/definitely_new.png"" id=""choice-option-img-4"" class=""choice-option-img"" stage=""1""></div></div>","","0","instructions","","",""
"learning-instructions","14","118657","0.0-9.0-0.5","5670","approach_avoid_sv1","""event"",""trial"",""time""
""fullscreenenter"",""1"",""1269""
","
","
","""event"",""trial"",""time""
""fullscreenenter"",""1"",""1269""
","
","","","","","","1420","<p> You will have 10 seconds to make each response.  </p><p>  Make sure to respond before time runs out! </p>","","0","instructions","","",""
"learning-instructions","15","126794","0.0-9.0-0.6","5670","approach_avoid_sv1","""event"",""trial"",""time""
""fullscreenenter"",""1"",""1269""
","
","
","""event"",""trial"",""time""
""fullscreenenter"",""1"",""1269""
","
","","","","","","1066.8999999761581","<p> Today, you will see each image ONCE only.  </p><p>  That means none of the images will repeat. </p>","","0","instructions","","",""
"learning-instructions","16","141618","0.0-9.0-0.7","5670","approach_avoid_sv1","""event"",""trial"",""time""
""fullscreenenter"",""1"",""1269""
","
","
","""event"",""trial"",""time""
""fullscreenenter"",""1"",""1269""
","
","","","","","","2150.3000000715256","<p> Before you play the real game, it is time to practice. </p><p>  Just like in the real game, some of the images in the practice will be ones you have seen before. </p><p>  Others will be entirely new. </p>","","0","instructions","","",""
"html-button-response","17","143376","0.0-10.0","5670","approach_avoid_sv1","""event"",""trial"",""time""
""fullscreenenter"",""1"",""1269""
","
","
","""event"",""trial"",""time""
""fullscreenenter"",""1"",""1269""
","
","","","","","","1651.6000000238419","<p> Ready to practice? </p><p> Remember, use the 1, 2, 3, and 4 keys to make your responses. </p>","0","","instructions","","",""
"html-keyboard-response","18","144008","0.0-11.0-0.0","5670","approach_avoid_sv1","""event"",""trial"",""time""
""fullscreenenter"",""1"",""1269""
","
","
","""event"",""trial"",""time""
""fullscreenenter"",""1"",""1269""
","
","","","","","","null","<div style=""font-size:60px;"">+</div>","null","","fixation","","",""
"memory-trial","19","148515","0.0-11.0-1.0","5670","approach_avoid_sv1","""event"",""trial"",""time""
""fullscreenenter"",""1"",""1269""
","
","
","""event"",""trial"",""time""
""fullscreenenter"",""1"",""1269""
","
","","","","","","3487.2999999523163","images/ball3.png","","","practice","1","definitely_old",""
"html-keyboard-response","20","149023","0.0-11.0-0.1","5670","approach_avoid_sv1","""event"",""trial"",""time""
""fullscreenenter"",""1"",""1269""
","
","
","""event"",""trial"",""time""
""fullscreenenter"",""1"",""1269""
","
","","","","","","null","<div style=""font-size:60px;"">+</div>","null","","fixation","","",""
"memory-trial","21","152458","0.0-11.0-1.1","5670","approach_avoid_sv1","""event"",""trial"",""time""
""fullscreenenter"",""1"",""1269""
","
","
","""event"",""trial"",""time""
""fullscreenenter"",""1"",""1269""
","
","","","","","","2423.1999999284744","images/ball1.png","","","practice","1","definitely_old",""
"html-keyboard-response","22","152966","0.0-11.0-0.2","5670","approach_avoid_sv1","""event"",""trial"",""time""
""fullscreenenter"",""1"",""1269""
","
","
","""event"",""trial"",""time""
""fullscreenenter"",""1"",""1269""
","
","","","","","","null","<div style=""font-size:60px;"">+</div>","null","","fixation","","",""
"memory-trial","23","156036","0.0-11.0-1.2","5670","approach_avoid_sv1","""event"",""trial"",""time""
""fullscreenenter"",""1"",""1269""
","
","
","""event"",""trial"",""time""
""fullscreenenter"",""1"",""1269""
","
","","","","","","2054.100000023842","images/racket1.png","","","practice","1","definitely_old",""
"html-keyboard-response","24","156548","0.0-11.0-0.3","5670","approach_avoid_sv1","""event"",""trial"",""time""
""fullscreenenter"",""1"",""1269""
","
","
","""event"",""trial"",""time""
""fullscreenenter"",""1"",""1269""
","
","","","","","","null","<div style=""font-size:60px;"">+</div>","null","","fixation","","",""
"memory-trial","25","158540","0.0-11.0-1.3","5670","approach_avoid_sv1","""event"",""trial"",""time""
""fullscreenenter"",""1"",""1269""
","
","
","""event"",""trial"",""time""
""fullscreenenter"",""1"",""1269""
","
","","","","","","987.5","images/ball2.png","","","practice","1","definitely_old",""
"html-keyboard-response","26","159046","0.0-11.0-0.4","5670","approach_avoid_sv1","""event"",""trial"",""time""
""fullscreenenter"",""1"",""1269""
","
","
","""event"",""trial"",""time""
""fullscreenenter"",""1"",""1269""
","
","","","","","","null","<div style=""font-size:60px;"">+</div>","null","","fixation","","",""
"memory-trial","27","161243","0.0-11.0-1.4","5670","approach_avoid_sv1","""event"",""trial"",""time""
""fullscreenenter"",""1"",""1269""
","
","
","""event"",""trial"",""time""
""fullscreenenter"",""1"",""1269""
","
","","","","","","1189.2999999523163","images/ball5.png","","","practice","4","definitely_new",""
"html-keyboard-response","28","161756","0.0-11.0-0.5","5670","approach_avoid_sv1","""event"",""trial"",""time""
""fullscreenenter"",""1"",""1269""
","
","
","""event"",""trial"",""time""
""fullscreenenter"",""1"",""1269""
","
","","","","","","null","<div style=""font-size:60px;"">+</div>","null","","fixation","","",""
"memory-trial","29","163608","0.0-11.0-1.5","5670","approach_avoid_sv1","""event"",""trial"",""time""
""fullscreenenter"",""1"",""1269""
","
","
","""event"",""trial"",""time""
""fullscreenenter"",""1"",""1269""
","
","","","","","","843.5","images/racket5.png","","","practice","1","definitely_old",""
"html-keyboard-response","30","164126","0.0-11.0-0.6","5670","approach_avoid_sv1","""event"",""trial"",""time""
""fullscreenenter"",""1"",""1269""
","
","
","""event"",""trial"",""time""
""fullscreenenter"",""1"",""1269""
","
","","","","","","null","<div style=""font-size:60px;"">+</div>","null","","fixation","","",""
"memory-trial","31","166268","0.0-11.0-1.6","5670","approach_avoid_sv1","""event"",""trial"",""time""
""fullscreenenter"",""1"",""1269""
","
","
","""event"",""trial"",""time""
""fullscreenenter"",""1"",""1269""
","
","","","","","","1122.6000000238419","images/racket2.png","","","practice","1","definitely_old",""
"html-keyboard-response","32","166773","0.0-11.0-0.7","5670","approach_avoid_sv1","""event"",""trial"",""time""
""fullscreenenter"",""1"",""1269""
","
","
","""event"",""trial"",""time""
""fullscreenenter"",""1"",""1269""
","
","","","","","","null","<div style=""font-size:60px;"">+</div>","null","","fixation","","",""
"memory-trial","33","168498","0.0-11.0-1.7","5670","approach_avoid_sv1","""event"",""trial"",""time""
""fullscreenenter"",""1"",""1269""
","
","
","""event"",""trial"",""time""
""fullscreenenter"",""1"",""1269""
","
","","","","","","705","images/racket3.png","","","practice","1","definitely_old",""
"learning-instructions","34","177426","0.0-12.0-0.0","5670","approach_avoid_sv1","""event"",""trial"",""time""
""fullscreenenter"",""1"",""1269""
","
","
","""event"",""trial"",""time""
""fullscreenenter"",""1"",""1269""
","
","","","","","","1618.7000000476837","<p> Great! You have completed the practice. </p><p> Before you start, we're going to ask you a few questions about how the game works.  </p>","","0","instructions","","",""
"preload","35","181425","0.0-13.0","5670","approach_avoid_sv1","""event"",""trial"",""time""
""fullscreenenter"",""1"",""1269""
","
","
","""event"",""trial"",""time""
""fullscreenenter"",""1"",""1269""
","
","true","false","[]","[]","[]","","","","","","","",""
"comp-q","36","188481","0.0-14.0-0.0","5670","approach_avoid_sv1","""event"",""trial"",""time""
""fullscreenenter"",""1"",""1269""
","
","
","""event"",""trial"",""time""
""fullscreenenter"",""1"",""1269""
","
","","","","","","1224.2999999523163","<p> <b> True or False? </b> </p><p> In this game, you will only see each image once. </p>","","1","comp_question","","","false"
"comp-q","37","196169","0.0-14.0-1.0","5670","approach_avoid_sv1","""event"",""trial"",""time""
""fullscreenenter"",""1"",""1269""
","
","
","""event"",""trial"",""time""
""fullscreenenter"",""1"",""1269""
","
","","","","","","1152.1000000238419","<p> <b>Incorrect.</b> You will see many different images <i> one time each </i> in this game. </p>","","0","comp_answer","","",""
"comp-q","38","202340","0.0-14.1-0.1","5670","approach_avoid_sv1","""event"",""trial"",""time""
""fullscreenenter"",""1"",""1269""
","
","
","""event"",""trial"",""time""
""fullscreenenter"",""1"",""1269""
","
","","","","","","234.80000007152557","<p> <b> True or False? </b> </p><p> In this game, you will only see each image once. </p>","","0","comp_question","","","true"
"comp-q","39","210177","0.0-14.1-1.1","5670","approach_avoid_sv1","""event"",""trial"",""time""
""fullscreenenter"",""1"",""1269""
","
","
","""event"",""trial"",""time""
""fullscreenenter"",""1"",""1269""
","
","","","","","","1491.0999999046326","<p> <b> That's right! </b> You will see many different images <i> one time each </i> in this game. </p>","","0","comp_answer","","",""
"comp-q","40","216189","0.0-15.0-0.0","5670","approach_avoid_sv1","""event"",""trial"",""time""
""fullscreenenter"",""1"",""1269""
","
","
","""event"",""trial"",""time""
""fullscreenenter"",""1"",""1269""
","
","","","","","","1003.2999999523163","<p> <b> True or False? </b> </p><p> You should use the mouse and click to make your response. </p>","","1","comp_question","","","true"
"comp-q","41","224911","0.0-15.0-1.0","5670","approach_avoid_sv1","""event"",""trial"",""time""
""fullscreenenter"",""1"",""1269""
","
","
","""event"",""trial"",""time""
""fullscreenenter"",""1"",""1269""
","
","","","","","","2204.6999999284744","<p><b> That's right! </b> You should use the '1', '2', '3', and '4' keys to make your response. </p>","","0","comp_answer","","",""
"comp-q","42","231442","0.0-16.0-0.0","5670","approach_avoid_sv1","""event"",""trial"",""time""
""fullscreenenter"",""1"",""1269""
","
","
","""event"",""trial"",""time""
""fullscreenenter"",""1"",""1269""
","
","","","","","","846.1000000238419","<p> <b> True or False? </b> </p><p> You will have as much time as you want to make each choice. </p>","","1","comp_question","","","true"
"comp-q","43","241959","0.0-16.0-1.0","5670","approach_avoid_sv1","""event"",""trial"",""time""
""fullscreenenter"",""1"",""1269""
","
","
","""event"",""trial"",""time""
""fullscreenenter"",""1"",""1269""
","
","","","","","","5812.700000047684","<p> <b> That's right! </b> You will only have 10 seconds to make each choice. </p>","","0","comp_answer","","",""
"learning-instructions","44","252699","0.0-17.0","5670","approach_avoid_sv1","""event"",""trial"",""time""
""fullscreenenter"",""1"",""1269""
","
","
","""event"",""trial"",""time""
""fullscreenenter"",""1"",""1269""
","
","","","","","","2051.600000023842","<p> Great! You are now ready to begin the game. </p><p> Remember, use the 1, 2, 3, and 4 keys to make your responses. </p>","","0","instructions","","",""
"html-keyboard-response","45","253333","0.0-18.0-0.0","5670","approach_avoid_sv1","""event"",""trial"",""time""
""fullscreenenter"",""1"",""1269""
","
","
","""event"",""trial"",""time""
""fullscreenenter"",""1"",""1269""
","
","","","","","","null","<div style=""font-size:60px;"">+</div>","null","","fixation","","",""
"memory-trial","46","257366","0.0-18.0-1.0","5670","approach_avoid_sv1","""event"",""trial"",""time""
""fullscreenenter"",""1"",""1269""
","
","
","""event"",""trial"",""time""
""fullscreenenter"",""1"",""1269""
","
","","","","","","3018.5","images/orange1.png","","","memory_trial","4","definitely_new",""
"html-keyboard-response","47","257875","0.0-18.0-0.1","5670","approach_avoid_sv1","""event"",""trial"",""time""
""fullscreenenter"",""1"",""1269""
","
","
","""event"",""trial"",""time""
""fullscreenenter"",""1"",""1269""
","
","","","","","","null","<div style=""font-size:60px;"">+</div>","null","","fixation","","",""
"memory-trial","48","260926","0.0-18.0-1.1","5670","approach_avoid_sv1","""event"",""trial"",""time""
""fullscreenenter"",""1"",""1269""
","
","
","""event"",""trial"",""time""
""fullscreenenter"",""1"",""1269""
","
","","","","","","2034.3000000715256","images/plane6.png","","","memory_trial","2","maybe_old",""
"html-keyboard-response","49","261436","0.0-18.0-0.2","5670","approach_avoid_sv1","""event"",""trial"",""time""
""fullscreenenter"",""1"",""1269""
","
","
","""event"",""trial"",""time""
""fullscreenenter"",""1"",""1269""
","
","","","","","","null","<div style=""font-size:60px;"">+</div>","null","","fixation","","",""
"memory-trial","50","264841","0.0-18.0-1.2","5670","approach_avoid_sv1","""event"",""trial"",""time""
""fullscreenenter"",""1"",""1269""
","
","
","""event"",""trial"",""time""
""fullscreenenter"",""1"",""1269""
","
","","","","","","2395.399999976158","images/plane1.png","","","memory_trial","3","maybe_new",""
"html-keyboard-response","51","265351","0.0-18.0-0.3","5670","approach_avoid_sv1","""event"",""trial"",""time""
""fullscreenenter"",""1"",""1269""
","
","
","""event"",""trial"",""time""
""fullscreenenter"",""1"",""1269""
","
","","","","","","null","<div style=""font-size:60px;"">+</div>","null","","fixation","","",""
"memory-trial","52","267703","0.0-18.0-1.3","5670","approach_avoid_sv1","""event"",""trial"",""time""
""fullscreenenter"",""1"",""1269""
","
","
","""event"",""trial"",""time""
""fullscreenenter"",""1"",""1269""
","
","","","","","","1339.7999999523163","images/table7.png","","","memory_trial","1","definitely_old",""
"html-keyboard-response","53","268225","0.0-18.0-0.4","5670","approach_avoid_sv1","""event"",""trial"",""time""
""fullscreenenter"",""1"",""1269""
","
","
","""event"",""trial"",""time""
""fullscreenenter"",""1"",""1269""
","
","","","","","","null","<div style=""font-size:60px;"">+</div>","null","","fixation","","",""
"memory-trial","54","270077","0.0-18.0-1.4","5670","approach_avoid_sv1","""event"",""trial"",""time""
""fullscreenenter"",""1"",""1269""
","
","
","""event"",""trial"",""time""
""fullscreenenter"",""1"",""1269""
","
","","","","","","843.9000000953674","images/boat1.png","","","memory_trial","1","definitely_old",""
"html-keyboard-response","55","270582","0.0-18.0-0.5","5670","approach_avoid_sv1","""event"",""trial"",""time""
""fullscreenenter"",""1"",""1269""
","
","
","""event"",""trial"",""time""
""fullscreenenter"",""1"",""1269""
","
","","","","","","null","<div style=""font-size:60px;"">+</div>","null","","fixation","","",""
"memory-trial","56","273578","0.0-18.0-1.5","5670","approach_avoid_sv1","""event"",""trial"",""time""
""fullscreenenter"",""1"",""1269""
","
","
","""event"",""trial"",""time""
""fullscreenenter"",""1"",""1269""
","
","","","","","","1990.7999999523163","images/goat5.png","","","memory_trial","4","definitely_new",""
"html-keyboard-response","57","274089","0.0-18.0-0.6","5670","approach_avoid_sv1","""event"",""trial"",""time""
""fullscreenenter"",""1"",""1269""
","
","
","""event"",""trial"",""time""
""fullscreenenter"",""1"",""1269""
","
","","","","","","null","<div style=""font-size:60px;"">+</div>","null","","fixation","","",""
"memory-trial","58","275910","0.0-18.0-1.6","5670","approach_avoid_sv1","""event"",""trial"",""time""
""fullscreenenter"",""1"",""1269""
","
","
","""event"",""trial"",""time""
""fullscreenenter"",""1"",""1269""
","
","","","","","","806","images/apple1.png","","","memory_trial","1","definitely_old",""
"html-keyboard-response","59","276428","0.0-18.0-0.7","5670","approach_avoid_sv1","""event"",""trial"",""time""
""fullscreenenter"",""1"",""1269""
","
","
","""event"",""trial"",""time""
""fullscreenenter"",""1"",""1269""
","
","","","","","","null","<div style=""font-size:60px;"">+</div>","null","","fixation","","",""
"memory-trial","60","280104","0.0-18.0-1.7","5670","approach_avoid_sv1","""event"",""trial"",""time""
""fullscreenenter"",""1"",""1269""
","
","
","""event"",""trial"",""time""
""fullscreenenter"",""1"",""1269""
","
","","","","","","2659.5","images/plane7.png","","","memory_trial","2","maybe_old",""
"html-keyboard-response","61","280618","0.0-18.0-0.8","5670","approach_avoid_sv1","""event"",""trial"",""time""
""fullscreenenter"",""1"",""1269""
","
","
","""event"",""trial"",""time""
""fullscreenenter"",""1"",""1269""
","
","","","","","","null","<div style=""font-size:60px;"">+</div>","null","","fixation","","",""
"memory-trial","62","282747","0.0-18.0-1.8","5670","approach_avoid_sv1","""event"",""trial"",""time""
""fullscreenenter"",""1"",""1269""
","
","
","""event"",""trial"",""time""
""fullscreenenter"",""1"",""1269""
","
","","","","","","1124.8000000715256","images/cat3.png","","","memory_trial","1","definitely_old",""
"html-keyboard-response","63","283250","0.0-18.0-0.9","5670","approach_avoid_sv1","""event"",""trial"",""time""
""fullscreenenter"",""1"",""1269""
","
","
","""event"",""trial"",""time""
""fullscreenenter"",""1"",""1269""
","
","","","","","","null","<div style=""font-size:60px;"">+</div>","null","","fixation","","",""
"memory-trial","64","285002","0.0-18.0-1.9","5670","approach_avoid_sv1","""event"",""trial"",""time""
""fullscreenenter"",""1"",""1269""
","
","
","""event"",""trial"",""time""
""fullscreenenter"",""1"",""1269""
","
","","","","","","745.2999999523163","images/cactus3.png","","","memory_trial","1","definitely_old",""
"html-keyboard-response","65","285506","0.0-18.0-0.10","5670","approach_avoid_sv1","""event"",""trial"",""time""
""fullscreenenter"",""1"",""1269""
","
","
","""event"",""trial"",""time""
""fullscreenenter"",""1"",""1269""
","
","","","","","","null","<div style=""font-size:60px;"">+</div>","null","","fixation","","",""
"memory-trial","66","287571","0.0-18.0-1.10","5670","approach_avoid_sv1","""event"",""trial"",""time""
""fullscreenenter"",""1"",""1269""
","
","
","""event"",""trial"",""time""
""fullscreenenter"",""1"",""1269""
","
","","","","","","1057","images/banana6.png","","","memory_trial","1","definitely_old",""
"html-keyboard-response","67","288075","0.0-18.0-0.11","5670","approach_avoid_sv1","""event"",""trial"",""time""
""fullscreenenter"",""1"",""1269""
","
","
","""event"",""trial"",""time""
""fullscreenenter"",""1"",""1269""
","
","","","","","","null","<div style=""font-size:60px;"">+</div>","null","","fixation","","",""
"memory-trial","68","290674","0.0-18.0-1.11","5670","approach_avoid_sv1","""event"",""trial"",""time""
""fullscreenenter"",""1"",""1269""
","
","
","""event"",""trial"",""time""
""fullscreenenter"",""1"",""1269""
","
","","","","","","1593.6999999284744","images/cow4.png","","","memory_trial","1","definitely_old",""
"html-keyboard-response","69","291180","0.0-18.0-0.12","5670","approach_avoid_sv1","""event"",""trial"",""time""
""fullscreenenter"",""1"",""1269""
","
","
","""event"",""trial"",""time""
""fullscreenenter"",""1"",""1269""
","
","","","","","","null","<div style=""font-size:60px;"">+</div>","null","","fixation","","",""
"memory-trial","70","294131","0.0-18.0-1.12","5670","approach_avoid_sv1","""event"",""trial"",""time""
""fullscreenenter"",""1"",""1269""
","
","
","""event"",""trial"",""time""
""fullscreenenter"",""1"",""1269""
","
","","","","","","1942.3999999761581","images/orange2.png","","","memory_trial","4","definitely_new",""
"html-keyboard-response","71","294635","0.0-18.0-0.13","5670","approach_avoid_sv1","""event"",""trial"",""time""
""fullscreenenter"",""1"",""1269""
","
","
","""event"",""trial"",""time""
""fullscreenenter"",""1"",""1269""
","
","","","","","","null","<div style=""font-size:60px;"">+</div>","null","","fixation","","",""
"memory-trial","72","297603","0.0-18.0-1.13","5670","approach_avoid_sv1","""event"",""trial"",""time""
""fullscreenenter"",""1"",""1269""
","
","
","""event"",""trial"",""time""
""fullscreenenter"",""1"",""1269""
","
","","","","","","1962.7000000476837","images/boat3.png","","","memory_trial","2","maybe_old",""
"html-keyboard-response","73","298107","0.0-18.0-0.14","5670","approach_avoid_sv1","""event"",""trial"",""time""
""fullscreenenter"",""1"",""1269""
","
","
","""event"",""trial"",""time""
""fullscreenenter"",""1"",""1269""
","
","","","","","","null","<div style=""font-size:60px;"">+</div>","null","","fixation","","",""
"memory-trial","74","300555","0.0-18.0-1.14","5670","approach_avoid_sv1","""event"",""trial"",""time""
""fullscreenenter"",""1"",""1269""
","
","
","""event"",""trial"",""time""
""fullscreenenter"",""1"",""1269""
","
","","","","","","1444.1000000238419","images/truck2.png","","","memory_trial","4","definitely_new",""
"html-keyboard-response","75","301058","0.0-18.0-0.15","5670","approach_avoid_sv1","""event"",""trial"",""time""
""fullscreenenter"",""1"",""1269""
","
","
","""event"",""trial"",""time""
""fullscreenenter"",""1"",""1269""
","
","","","","","","null","<div style=""font-size:60px;"">+</div>","null","","fixation","","",""
"memory-trial","76","304035","0.0-18.0-1.15","5670","approach_avoid_sv1","""event"",""trial"",""time""
""fullscreenenter"",""1"",""1269""
","
","
","""event"",""trial"",""time""
""fullscreenenter"",""1"",""1269""
","
","","","","","","1971.1999999284744","images/chair3.png","","","memory_trial","2","maybe_old",""
"html-keyboard-response","77","304539","0.0-18.0-0.16","5670","approach_avoid_sv1","""event"",""trial"",""time""
""fullscreenenter"",""1"",""1269""
","
","
","""event"",""trial"",""time""
""fullscreenenter"",""1"",""1269""
","
","","","","","","null","<div style=""font-size:60px;"">+</div>","null","","fixation","","",""
"memory-trial","78","306426","0.0-18.0-1.16","5670","approach_avoid_sv1","""event"",""trial"",""time""
""fullscreenenter"",""1"",""1269""
","
","
","""event"",""trial"",""time""
""fullscreenenter"",""1"",""1269""
","
","","","","","","883.5","images/banana3.png","","","memory_trial","1","definitely_old",""
"html-keyboard-response","79","306930","0.0-18.0-0.17","5670","approach_avoid_sv1","""event"",""trial"",""time""
""fullscreenenter"",""1"",""1269""
","
","
","""event"",""trial"",""time""
""fullscreenenter"",""1"",""1269""
","
","","","","","","null","<div style=""font-size:60px;"">+</div>","null","","fixation","","",""
"memory-trial","80","309667","0.0-18.0-1.17","5670","approach_avoid_sv1","""event"",""trial"",""time""
""fullscreenenter"",""1"",""1269""
","
","
","""event"",""trial"",""time""
""fullscreenenter"",""1"",""1269""
","
","","","","","","1730.7000000476837","images/boat4.png","","","memory_trial","2","maybe_old",""
"html-keyboard-response","81","310171","0.0-18.0-0.18","5670","approach_avoid_sv1","""event"",""trial"",""time""
""fullscreenenter"",""1"",""1269""
","
","
","""event"",""trial"",""time""
""fullscreenenter"",""1"",""1269""
","
","","","","","","null","<div style=""font-size:60px;"">+</div>","null","","fixation","","",""
"memory-trial","82","313195","0.0-18.0-1.18","5670","approach_avoid_sv1","""event"",""trial"",""time""
""fullscreenenter"",""1"",""1269""
","
","
","""event"",""trial"",""time""
""fullscreenenter"",""1"",""1269""
","
","","","","","","2014.5","images/cactus8.png","","","memory_trial","3","maybe_new",""
"html-keyboard-response","83","313699","0.0-18.0-0.19","5670","approach_avoid_sv1","""event"",""trial"",""time""
""fullscreenenter"",""1"",""1269""
","
","
","""event"",""trial"",""time""
""fullscreenenter"",""1"",""1269""
","
","","","","","","null","<div style=""font-size:60px;"">+</div>","null","","fixation","","",""
"memory-trial","84","315714","0.0-18.0-1.19","5670","approach_avoid_sv1","""event"",""trial"",""time""
""fullscreenenter"",""1"",""1269""
","
","
","""event"",""trial"",""time""
""fullscreenenter"",""1"",""1269""
","
","","","","","","998.8000000715256","images/cactus1.png","","","memory_trial","1","definitely_old",""
"html-keyboard-response","85","316220","0.0-18.0-0.20","5670","approach_avoid_sv1","""event"",""trial"",""time""
""fullscreenenter"",""1"",""1269""
","
","
","""event"",""trial"",""time""
""fullscreenenter"",""1"",""1269""
","
","","","","","","null","<div style=""font-size:60px;"">+</div>","null","","fixation","","",""
"memory-trial","86","318202","0.0-18.0-1.20","5670","approach_avoid_sv1","""event"",""trial"",""time""
""fullscreenenter"",""1"",""1269""
","
","
","""event"",""trial"",""time""
""fullscreenenter"",""1"",""1269""
","
","","","","","","976.2000000476837","images/bed5.png","","","memory_trial","1","definitely_old",""
"html-keyboard-response","87","318707","0.0-18.0-0.21","5670","approach_avoid_sv1","""event"",""trial"",""time""
""fullscreenenter"",""1"",""1269""
","
","
","""event"",""trial"",""time""
""fullscreenenter"",""1"",""1269""
","
","","","","","","null","<div style=""font-size:60px;"">+</div>","null","","fixation","","",""
"memory-trial","88","321386","0.0-18.0-1.21","5670","approach_avoid_sv1","""event"",""trial"",""time""
""fullscreenenter"",""1"",""1269""
","
","
","""event"",""trial"",""time""
""fullscreenenter"",""1"",""1269""
","
","","","","","","1673.5","images/apple2.png","","","memory_trial","4","definitely_new",""
"html-keyboard-response","89","321890","0.0-18.0-0.22","5670","approach_avoid_sv1","""event"",""trial"",""time""
""fullscreenenter"",""1"",""1269""
","
","
","""event"",""trial"",""time""
""fullscreenenter"",""1"",""1269""
","
","","","","","","null","<div style=""font-size:60px;"">+</div>","null","","fixation","","",""
"memory-trial","90","324707","0.0-18.0-1.22","5670","approach_avoid_sv1","""event"",""trial"",""time""
""fullscreenenter"",""1"",""1269""
","
","
","""event"",""trial"",""time""
""fullscreenenter"",""1"",""1269""
","
","","","","","","1808.6000000238419","images/apple8.png","","","memory_trial","4","definitely_new",""
"html-keyboard-response","91","325211","0.0-18.0-0.23","5670","approach_avoid_sv1","""event"",""trial"",""time""
""fullscreenenter"",""1"",""1269""
","
","
","""event"",""trial"",""time""
""fullscreenenter"",""1"",""1269""
","
","","","","","","null","<div style=""font-size:60px;"">+</div>","null","","fixation","","",""
"memory-trial","92","327715","0.0-18.0-1.23","5670","approach_avoid_sv1","""event"",""trial"",""time""
""fullscreenenter"",""1"",""1269""
","
","
","""event"",""trial"",""time""
""fullscreenenter"",""1"",""1269""
","
","","","","","","1498.8999999761581","images/chair6.png","","","memory_trial","3","maybe_new",""
"html-keyboard-response","93","328219","0.0-18.0-0.24","5670","approach_avoid_sv1","""event"",""trial"",""time""
""fullscreenenter"",""1"",""1269""
","
","
","""event"",""trial"",""time""
""fullscreenenter"",""1"",""1269""
","
","","","","","","null","<div style=""font-size:60px;"">+</div>","null","","fixation","","",""
"memory-trial","94","331907","0.0-18.0-1.24","5670","approach_avoid_sv1","""event"",""trial"",""time""
""fullscreenenter"",""1"",""1269""
","
","
","""event"",""trial"",""time""
""fullscreenenter"",""1"",""1269""
","
","","","","","","2677.899999976158","images/horse4.png","","","memory_trial","4","definitely_new",""
"html-keyboard-response","95","332411","0.0-18.0-0.25","5670","approach_avoid_sv1","""event"",""trial"",""time""
""fullscreenenter"",""1"",""1269""
","
","
","""event"",""trial"",""time""
""fullscreenenter"",""1"",""1269""
","
","","","","","","null","<div style=""font-size:60px;"">+</div>","null","","fixation","","",""
"memory-trial","96","334723","0.0-18.0-1.25","5670","approach_avoid_sv1","""event"",""trial"",""time""
""fullscreenenter"",""1"",""1269""
","
","
","""event"",""trial"",""time""
""fullscreenenter"",""1"",""1269""
","
","","","","","","1303.8999999761581","images/plane2.png","","","memory_trial","1","definitely_old",""
"html-keyboard-response","97","335227","0.0-18.0-0.26","5670","approach_avoid_sv1","""event"",""trial"",""time""
""fullscreenenter"",""1"",""1269""
","
","
","""event"",""trial"",""time""
""fullscreenenter"",""1"",""1269""
","
","","","","","","null","<div style=""font-size:60px;"">+</div>","null","","fixation","","",""
"memory-trial","98","338595","0.0-18.0-1.26","5670","approach_avoid_sv1","""event"",""trial"",""time""
""fullscreenenter"",""1"",""1269""
","
","
","""event"",""trial"",""time""
""fullscreenenter"",""1"",""1269""
","
","","","","","","2363.600000023842","images/cat4.png","","","memory_trial","1","definitely_old",""
"html-keyboard-response","99","339098","0.0-18.0-0.27","5670","approach_avoid_sv1","""event"",""trial"",""time""
""fullscreenenter"",""1"",""1269""
","
","
","""event"",""trial"",""time""
""fullscreenenter"",""1"",""1269""
","
","","","","","","null","<div style=""font-size:60px;"">+</div>","null","","fixation","","",""
"memory-trial","100","341690","0.0-18.0-1.27","5670","approach_avoid_sv1","""event"",""trial"",""time""
""fullscreenenter"",""1"",""1269""
","
","
","""event"",""trial"",""time""
""fullscreenenter"",""1"",""1269""
","
","","","","","","1584","images/rodent8.png","","","memory_trial","4","definitely_new",""
"html-keyboard-response","101","342195","0.0-18.0-0.28","5670","approach_avoid_sv1","""event"",""trial"",""time""
""fullscreenenter"",""1"",""1269""
","
","
","""event"",""trial"",""time""
""fullscreenenter"",""1"",""1269""
","
","","","","","","null","<div style=""font-size:60px;"">+</div>","null","","fixation","","",""
"memory-trial","102","345971","0.0-18.0-1.28","5670","approach_avoid_sv1","""event"",""trial"",""time""
""fullscreenenter"",""1"",""1269""
","
","
","""event"",""trial"",""time""
""fullscreenenter"",""1"",""1269""
","
","","","","","","2772.100000023842","images/apple5.png","","","memory_trial","4","definitely_new",""
"html-keyboard-response","103","346474","0.0-18.0-0.29","5670","approach_avoid_sv1","""event"",""trial"",""time""
""fullscreenenter"",""1"",""1269""
","
","
","""event"",""trial"",""time""
""fullscreenenter"",""1"",""1269""
","
","","","","","","null","<div style=""font-size:60px;"">+</div>","null","","fixation","","",""
"memory-trial","104","348435","0.0-18.0-1.29","5670","approach_avoid_sv1","""event"",""trial"",""time""
""fullscreenenter"",""1"",""1269""
","
","
","""event"",""trial"",""time""
""fullscreenenter"",""1"",""1269""
","
","","","","","","952.5999999046326","images/train8.png","","","memory_trial","1","definitely_old",""
"html-keyboard-response","105","348937","0.0-18.0-0.30","5670","approach_avoid_sv1","""event"",""trial"",""time""
""fullscreenenter"",""1"",""1269""
","
","
","""event"",""trial"",""time""
""fullscreenenter"",""1"",""1269""
","
","","","","","","null","<div style=""font-size:60px;"">+</div>","null","","fixation","","",""
"memory-trial","106","351451","0.0-18.0-1.30","5670","approach_avoid_sv1","""event"",""trial"",""time""
""fullscreenenter"",""1"",""1269""
","
","
","""event"",""trial"",""time""
""fullscreenenter"",""1"",""1269""
","
","","","","","","1508.2000000476837","images/sofa3.png","","","memory_trial","4","definitely_new",""
"html-keyboard-response","107","351955","0.0-18.0-0.31","5670","approach_avoid_sv1","""event"",""trial"",""time""
""fullscreenenter"",""1"",""1269""
","
","
","""event"",""trial"",""time""
""fullscreenenter"",""1"",""1269""
","
","","","","","","null","<div style=""font-size:60px;"">+</div>","null","","fixation","","",""
"memory-trial","108","355066","0.0-18.0-1.31","5670","approach_avoid_sv1","""event"",""trial"",""time""
""fullscreenenter"",""1"",""1269""
","
","
","""event"",""trial"",""time""
""fullscreenenter"",""1"",""1269""
","
","","","","","","2103.8000000715256","images/flower4.png","","","memory_trial","4","definitely_new",""
"html-keyboard-response","109","355571","0.0-18.0-0.32","5670","approach_avoid_sv1","""event"",""trial"",""time""
""fullscreenenter"",""1"",""1269""
","
","
","""event"",""trial"",""time""
""fullscreenenter"",""1"",""1269""
","
","","","","","","null","<div style=""font-size:60px;"">+</div>","null","","fixation","","",""
"memory-trial","110","358691","0.0-18.0-1.32","5670","approach_avoid_sv1","""event"",""trial"",""time""
""fullscreenenter"",""1"",""1269""
","
","
","""event"",""trial"",""time""
""fullscreenenter"",""1"",""1269""
","
","","","","","","2116.6999999284744","images/boat6.png","","","memory_trial","2","maybe_old",""
"html-keyboard-response","111","359195","0.0-18.0-0.33","5670","approach_avoid_sv1","""event"",""trial"",""time""
""fullscreenenter"",""1"",""1269""
","
","
","""event"",""trial"",""time""
""fullscreenenter"",""1"",""1269""
","
","","","","","","null","<div style=""font-size:60px;"">+</div>","null","","fixation","","",""
"memory-trial","112","360867","0.0-18.0-1.33","5670","approach_avoid_sv1","""event"",""trial"",""time""
""fullscreenenter"",""1"",""1269""
","
","
","""event"",""trial"",""time""
""fullscreenenter"",""1"",""1269""
","
","","","","","","664.4000000953674","images/plane5.png","","","memory_trial","1","definitely_old",""
"html-keyboard-response","113","361370","0.0-18.0-0.34","5670","approach_avoid_sv1","""event"",""trial"",""time""
""fullscreenenter"",""1"",""1269""
","
","
","""event"",""trial"",""time""
""fullscreenenter"",""1"",""1269""
","
","","","","","","null","<div style=""font-size:60px;"">+</div>","null","","fixation","","",""
"memory-trial","114","363442","0.0-18.0-1.34","5670","approach_avoid_sv1","""event"",""trial"",""time""
""fullscreenenter"",""1"",""1269""
","
","
","""event"",""trial"",""time""
""fullscreenenter"",""1"",""1269""
","
","","","","","","1062.5","images/dog3.png","","","memory_trial","1","definitely_old",""
"html-keyboard-response","115","363947","0.0-18.0-0.35","5670","approach_avoid_sv1","""event"",""trial"",""time""
""fullscreenenter"",""1"",""1269""
","
","
","""event"",""trial"",""time""
""fullscreenenter"",""1"",""1269""
","
","","","","","","null","<div style=""font-size:60px;"">+</div>","null","","fixation","","",""
"memory-trial","116","365770","0.0-18.0-1.35","5670","approach_avoid_sv1","""event"",""trial"",""time""
""fullscreenenter"",""1"",""1269""
","
","
","""event"",""trial"",""time""
""fullscreenenter"",""1"",""1269""
","
","","","","","","820.1000000238419","images/chair4.png","","","memory_trial","1","definitely_old",""
"html-keyboard-response","117","366274","0.0-18.0-0.36","5670","approach_avoid_sv1","""event"",""trial"",""time""
""fullscreenenter"",""1"",""1269""
","
","
","""event"",""trial"",""time""
""fullscreenenter"",""1"",""1269""
","
","","","","","","null","<div style=""font-size:60px;"">+</div>","null","","fixation","","",""
"memory-trial","118","367939","0.0-18.0-1.36","5670","approach_avoid_sv1","""event"",""trial"",""time""
""fullscreenenter"",""1"",""1269""
","
","
","""event"",""trial"",""time""
""fullscreenenter"",""1"",""1269""
","
","","","","","","657.8999999761581","images/banana1.png","","","memory_trial","1","definitely_old",""
"html-keyboard-response","119","368443","0.0-18.0-0.37","5670","approach_avoid_sv1","""event"",""trial"",""time""
""fullscreenenter"",""1"",""1269""
","
","
","""event"",""trial"",""time""
""fullscreenenter"",""1"",""1269""
","
","","","","","","null","<div style=""font-size:60px;"">+</div>","null","","fixation","","",""
"memory-trial","120","371099","0.0-18.0-1.37","5670","approach_avoid_sv1","""event"",""trial"",""time""
""fullscreenenter"",""1"",""1269""
","
","
","""event"",""trial"",""time""
""fullscreenenter"",""1"",""1269""
","
","","","","","","1646.2000000476837","images/rodent6.png","","","memory_trial","4","definitely_new",""
"html-keyboard-response","121","371603","0.0-18.0-0.38","5670","approach_avoid_sv1","""event"",""trial"",""time""
""fullscreenenter"",""1"",""1269""
","
","
","""event"",""trial"",""time""
""fullscreenenter"",""1"",""1269""
","
","","","","","","null","<div style=""font-size:60px;"">+</div>","null","","fixation","","",""
"memory-trial","122","373180","0.0-18.0-1.38","5670","approach_avoid_sv1","""event"",""trial"",""time""
""fullscreenenter"",""1"",""1269""
","
","
","""event"",""trial"",""time""
""fullscreenenter"",""1"",""1269""
","
","","","","","","566.8000000715256","images/bed2.png","","","memory_trial","1","definitely_old",""
"html-keyboard-response","123","373682","0.0-18.0-0.39","5670","approach_avoid_sv1","""event"",""trial"",""time""
""fullscreenenter"",""1"",""1269""
","
","
","""event"",""trial"",""time""
""fullscreenenter"",""1"",""1269""
","
","","","","","","null","<div style=""font-size:60px;"">+</div>","null","","fixation","","",""
"memory-trial","124","375875","0.0-18.0-1.39","5670","approach_avoid_sv1","""event"",""trial"",""time""
""fullscreenenter"",""1"",""1269""
","
","
","""event"",""trial"",""time""
""fullscreenenter"",""1"",""1269""
","
","","","","","","1189","images/sofa4.png","","","memory_trial","4","definitely_new",""
"html-keyboard-response","125","376380","0.0-18.0-0.40","5670","approach_avoid_sv1","""event"",""trial"",""time""
""fullscreenenter"",""1"",""1269""
","
","
","""event"",""trial"",""time""
""fullscreenenter"",""1"",""1269""
","
","","","","","","null","<div style=""font-size:60px;"">+</div>","null","","fixation","","",""
"memory-trial","126","378067","0.0-18.0-1.40","5670","approach_avoid_sv1","""event"",""trial"",""time""
""fullscreenenter"",""1"",""1269""
","
","
","""event"",""trial"",""time""
""fullscreenenter"",""1"",""1269""
","
","","","","","","679.8999999761581","images/cow7.png","","","memory_trial","1","definitely_old",""
"html-keyboard-response","127","378571","0.0-18.0-0.41","5670","approach_avoid_sv1","""event"",""trial"",""time""
""fullscreenenter"",""1"",""1269""
","
","
","""event"",""trial"",""time""
""fullscreenenter"",""1"",""1269""
","
","","","","","","null","<div style=""font-size:60px;"">+</div>","null","","fixation","","",""
"memory-trial","128","380483","0.0-18.0-1.41","5670","approach_avoid_sv1","""event"",""trial"",""time""
""fullscreenenter"",""1"",""1269""
","
","
","""event"",""trial"",""time""
""fullscreenenter"",""1"",""1269""
","
","","","","","","909.3000000715256","images/rodent4.png","","","memory_trial","4","definitely_new",""
"html-button-response","129","381959","0.0-18.0-2.41-0.41","5670","approach_avoid_sv1","""event"",""trial"",""time""
""fullscreenenter"",""1"",""1269""
","
","
","""event"",""trial"",""time""
""fullscreenenter"",""1"",""1269""
","
","","","","","","1474.5999999046326","<p> Take a break! </p><p> Click the button to continue. </p>","0","","break","","",""
"html-keyboard-response","130","382467","0.0-18.0-0.42","5670","approach_avoid_sv1","""event"",""trial"",""time""
""fullscreenenter"",""1"",""1269""
","
","
","""event"",""trial"",""time""
""fullscreenenter"",""1"",""1269""
","
","","","","","","null","<div style=""font-size:60px;"">+</div>","null","","fixation","","",""
"memory-trial","131","385635","0.0-18.0-1.42","5670","approach_avoid_sv1","""event"",""trial"",""time""
""fullscreenenter"",""1"",""1269""
","
","
","""event"",""trial"",""time""
""fullscreenenter"",""1"",""1269""
","
","","","","","","2162.100000023842","images/sofa1.png","","","memory_trial","4","definitely_new",""
"html-keyboard-response","132","386140","0.0-18.0-0.43","5670","approach_avoid_sv1","""event"",""trial"",""time""
""fullscreenenter"",""1"",""1269""
","
","
","""event"",""trial"",""time""
""fullscreenenter"",""1"",""1269""
","
","","","","","","null","<div style=""font-size:60px;"">+</div>","null","","fixation","","",""
"memory-trial","133","387995","0.0-18.0-1.43","5670","approach_avoid_sv1","""event"",""trial"",""time""
""fullscreenenter"",""1"",""1269""
","
","
","""event"",""trial"",""time""
""fullscreenenter"",""1"",""1269""
","
","","","","","","847.6000000238419","images/train7.png","","","memory_trial","1","definitely_old",""
"html-keyboard-response","134","388498","0.0-18.0-0.44","5670","approach_avoid_sv1","""event"",""trial"",""time""
""fullscreenenter"",""1"",""1269""
","
","
","""event"",""trial"",""time""
""fullscreenenter"",""1"",""1269""
","
","","","","","","null","<div style=""font-size:60px;"">+</div>","null","","fixation","","",""
"memory-trial","135","390108","0.0-18.0-1.44","5670","approach_avoid_sv1","""event"",""trial"",""time""
""fullscreenenter"",""1"",""1269""
","
","
","""event"",""trial"",""time""
""fullscreenenter"",""1"",""1269""
","
","","","","","","600.7999999523163","images/boat7.png","","","memory_trial","1","definitely_old",""
"html-keyboard-response","136","390611","0.0-18.0-0.45","5670","approach_avoid_sv1","""event"",""trial"",""time""
""fullscreenenter"",""1"",""1269""
","
","
","""event"",""trial"",""time""
""fullscreenenter"",""1"",""1269""
","
","","","","","","null","<div style=""font-size:60px;"">+</div>","null","","fixation","","",""
"memory-trial","137","392506","0.0-18.0-1.45","5670","approach_avoid_sv1","""event"",""trial"",""time""
""fullscreenenter"",""1"",""1269""
","
","
","""event"",""trial"",""time""
""fullscreenenter"",""1"",""1269""
","
","","","","","","888.7999999523163","images/flower3.png","","","memory_trial","4","definitely_new",""
"html-keyboard-response","138","393011","0.0-18.0-0.46","5670","approach_avoid_sv1","""event"",""trial"",""time""
""fullscreenenter"",""1"",""1269""
","
","
","""event"",""trial"",""time""
""fullscreenenter"",""1"",""1269""
","
","","","","","","null","<div style=""font-size:60px;"">+</div>","null","","fixation","","",""
"memory-trial","139","395330","0.0-18.0-1.46","5670","approach_avoid_sv1","""event"",""trial"",""time""
""fullscreenenter"",""1"",""1269""
","
","
","""event"",""trial"",""time""
""fullscreenenter"",""1"",""1269""
","
","","","","","","1315.6999999284744","images/bed3.png","","","memory_trial","4","definitely_new",""
"html-keyboard-response","140","395835","0.0-18.0-0.47","5670","approach_avoid_sv1","""event"",""trial"",""time""
""fullscreenenter"",""1"",""1269""
","
","
","""event"",""trial"",""time""
""fullscreenenter"",""1"",""1269""
","
","","","","","","null","<div style=""font-size:60px;"">+</div>","null","","fixation","","",""
"memory-trial","141","397890","0.0-18.0-1.47","5670","approach_avoid_sv1","""event"",""trial"",""time""
""fullscreenenter"",""1"",""1269""
","
","
","""event"",""trial"",""time""
""fullscreenenter"",""1"",""1269""
","
","","","","","","1048.8999999761581","images/cow5.png","","","memory_trial","4","definitely_new",""
"html-keyboard-response","142","398395","0.0-18.0-0.48","5670","approach_avoid_sv1","""event"",""trial"",""time""
""fullscreenenter"",""1"",""1269""
","
","
","""event"",""trial"",""time""
""fullscreenenter"",""1"",""1269""
","
","","","","","","null","<div style=""font-size:60px;"">+</div>","null","","fixation","","",""
"memory-trial","143","400083","0.0-18.0-1.48","5670","approach_avoid_sv1","""event"",""trial"",""time""
""fullscreenenter"",""1"",""1269""
","
","
","""event"",""trial"",""time""
""fullscreenenter"",""1"",""1269""
","
","","","","","","682.6000000238419","images/plane3.png","","","memory_trial","1","definitely_old",""
"html-keyboard-response","144","400588","0.0-18.0-0.49","5670","approach_avoid_sv1","""event"",""trial"",""time""
""fullscreenenter"",""1"",""1269""
","
","
","""event"",""trial"",""time""
""fullscreenenter"",""1"",""1269""
","
","","","","","","null","<div style=""font-size:60px;"">+</div>","null","","fixation","","",""
"memory-trial","145","402571","0.0-18.0-1.49","5670","approach_avoid_sv1","""event"",""trial"",""time""
""fullscreenenter"",""1"",""1269""
","
","
","""event"",""trial"",""time""
""fullscreenenter"",""1"",""1269""
","
","","","","","","973.8000000715256","images/tree1.png","","","memory_trial","1","definitely_old",""
"html-keyboard-response","146","403075","0.0-18.0-0.50","5670","approach_avoid_sv1","""event"",""trial"",""time""
""fullscreenenter"",""1"",""1269""
","
","
","""event"",""trial"",""time""
""fullscreenenter"",""1"",""1269""
","
","","","","","","null","<div style=""font-size:60px;"">+</div>","null","","fixation","","",""
"memory-trial","147","405154","0.0-18.0-1.50","5670","approach_avoid_sv1","""event"",""trial"",""time""
""fullscreenenter"",""1"",""1269""
","
","
","""event"",""trial"",""time""
""fullscreenenter"",""1"",""1269""
","
","","","","","","1076.1999999284744","images/banana4.png","","","memory_trial","4","definitely_new",""
"html-keyboard-response","148","405659","0.0-18.0-0.51","5670","approach_avoid_sv1","""event"",""trial"",""time""
""fullscreenenter"",""1"",""1269""
","
","
","""event"",""trial"",""time""
""fullscreenenter"",""1"",""1269""
","
","","","","","","null","<div style=""font-size:60px;"">+</div>","null","","fixation","","",""
"memory-trial","149","407475","0.0-18.0-1.51","5670","approach_avoid_sv1","""event"",""trial"",""time""
""fullscreenenter"",""1"",""1269""
","
","
","""event"",""trial"",""time""
""fullscreenenter"",""1"",""1269""
","
","","","","","","812.1999999284744","images/chair7.png","","","memory_trial","4","definitely_new",""
"html-keyboard-response","150","407979","0.0-18.0-0.52","5670","approach_avoid_sv1","""event"",""trial"",""time""
""fullscreenenter"",""1"",""1269""
","
","
","""event"",""trial"",""time""
""fullscreenenter"",""1"",""1269""
","
","","","","","","null","<div style=""font-size:60px;"">+</div>","null","","fixation","","",""
"memory-trial","151","409947","0.0-18.0-1.52","5670","approach_avoid_sv1","""event"",""trial"",""time""
""fullscreenenter"",""1"",""1269""
","
","
","""event"",""trial"",""time""
""fullscreenenter"",""1"",""1269""
","
","","","","","","963.8999999761581","images/orange5.png","","","memory_trial","4","definitely_new",""
"html-keyboard-response","152","410451","0.0-18.0-0.53","5670","approach_avoid_sv1","""event"",""trial"",""time""
""fullscreenenter"",""1"",""1269""
","
","
","""event"",""trial"",""time""
""fullscreenenter"",""1"",""1269""
","
","","","","","","null","<div style=""font-size:60px;"">+</div>","null","","fixation","","",""
"memory-trial","153","412203","0.0-18.0-1.53","5670","approach_avoid_sv1","""event"",""trial"",""time""
""fullscreenenter"",""1"",""1269""
","
","
","""event"",""trial"",""time""
""fullscreenenter"",""1"",""1269""
","
","","","","","","746.2000000476837","images/horse6.png","","","memory_trial","4","definitely_new",""
"html-keyboard-response","154","412707","0.0-18.0-0.54","5670","approach_avoid_sv1","""event"",""trial"",""time""
""fullscreenenter"",""1"",""1269""
","
","
","""event"",""trial"",""time""
""fullscreenenter"",""1"",""1269""
","
","","","","","","null","<div style=""font-size:60px;"">+</div>","null","","fixation","","",""
"memory-trial","155","414651","0.0-18.0-1.54","5670","approach_avoid_sv1","""event"",""trial"",""time""
""fullscreenenter"",""1"",""1269""
","
","
","""event"",""trial"",""time""
""fullscreenenter"",""1"",""1269""
","
","","","","","","937","images/cat7.png","","","memory_trial","4","definitely_new",""
"html-keyboard-response","156","415155","0.0-18.0-0.55","5670","approach_avoid_sv1","""event"",""trial"",""time""
""fullscreenenter"",""1"",""1269""
","
","
","""event"",""trial"",""time""
""fullscreenenter"",""1"",""1269""
","
","","","","","","null","<div style=""font-size:60px;"">+</div>","null","","fixation","","",""
"memory-trial","157","416962","0.0-18.0-1.55","5670","approach_avoid_sv1","""event"",""trial"",""time""
""fullscreenenter"",""1"",""1269""
","
","
","""event"",""trial"",""time""
""fullscreenenter"",""1"",""1269""
","
","","","","","","804.5","images/chair2.png","","","memory_trial","1","definitely_old",""
"html-keyboard-response","158","417468","0.0-18.0-0.56","5670","approach_avoid_sv1","""event"",""trial"",""time""
""fullscreenenter"",""1"",""1269""
","
","
","""event"",""trial"",""time""
""fullscreenenter"",""1"",""1269""
","
","","","","","","null","<div style=""font-size:60px;"">+</div>","null","","fixation","","",""
"memory-trial","159","419475","0.0-18.0-1.56","5670","approach_avoid_sv1","""event"",""trial"",""time""
""fullscreenenter"",""1"",""1269""
","
","
","""event"",""trial"",""time""
""fullscreenenter"",""1"",""1269""
","
","","","","","","1000.1000000238419","images/train2.png","","","memory_trial","4","definitely_new",""
"html-keyboard-response","160","419980","0.0-18.0-0.57","5670","approach_avoid_sv1","""event"",""trial"",""time""
""fullscreenenter"",""1"",""1269""
","
","
","""event"",""trial"",""time""
""fullscreenenter"",""1"",""1269""
","
","","","","","","null","<div style=""font-size:60px;"">+</div>","null","","fixation","","",""
"memory-trial","161","421651","0.0-18.0-1.57","5670","approach_avoid_sv1","""event"",""trial"",""time""
""fullscreenenter"",""1"",""1269""
","
","
","""event"",""trial"",""time""
""fullscreenenter"",""1"",""1269""
","
","","","","","","666.2999999523163","images/banana8.png","","","memory_trial","1","definitely_old",""
"html-keyboard-response","162","422155","0.0-18.0-0.58","5670","approach_avoid_sv1","""event"",""trial"",""time""
""fullscreenenter"",""1"",""1269""
","
","
","""event"",""trial"",""time""
""fullscreenenter"",""1"",""1269""
","
","","","","","","null","<div style=""font-size:60px;"">+</div>","null","","fixation","","",""
"memory-trial","163","423858","0.0-18.0-1.58","5670","approach_avoid_sv1","""event"",""trial"",""time""
""fullscreenenter"",""1"",""1269""
","
","
","""event"",""trial"",""time""
""fullscreenenter"",""1"",""1269""
","
","","","","","","699.3999999761581","images/apple4.png","","","memory_trial","4","definitely_new",""
"html-keyboard-response","164","424363","0.0-18.0-0.59","5670","approach_avoid_sv1","""event"",""trial"",""time""
""fullscreenenter"",""1"",""1269""
","
","
","""event"",""trial"",""time""
""fullscreenenter"",""1"",""1269""
","
","","","","","","null","<div style=""font-size:60px;"">+</div>","null","","fixation","","",""
"memory-trial","165","426108","0.0-18.0-1.59","5670","approach_avoid_sv1","""event"",""trial"",""time""
""fullscreenenter"",""1"",""1269""
","
","
","""event"",""trial"",""time""
""fullscreenenter"",""1"",""1269""
","
","","","","","","738","images/rodent5.png","","","memory_trial","4","definitely_new",""
"html-keyboard-response","166","426611","0.0-18.0-0.60","5670","approach_avoid_sv1","""event"",""trial"",""time""
""fullscreenenter"",""1"",""1269""
","
","
","""event"",""trial"",""time""
""fullscreenenter"",""1"",""1269""
","
","","","","","","null","<div style=""font-size:60px;"">+</div>","null","","fixation","","",""
"memory-trial","167","429226","0.0-18.0-1.60","5670","approach_avoid_sv1","""event"",""trial"",""time""
""fullscreenenter"",""1"",""1269""
","
","
","""event"",""trial"",""time""
""fullscreenenter"",""1"",""1269""
","
","","","","","","1601.6000000238419","images/sheep6.png","","","memory_trial","1","definitely_old",""
"html-keyboard-response","168","429731","0.0-18.0-0.61","5670","approach_avoid_sv1","""event"",""trial"",""time""
""fullscreenenter"",""1"",""1269""
","
","
","""event"",""trial"",""time""
""fullscreenenter"",""1"",""1269""
","
","","","","","","null","<div style=""font-size:60px;"">+</div>","null","","fixation","","",""
"memory-trial","169","431579","0.0-18.0-1.61","5670","approach_avoid_sv1","""event"",""trial"",""time""
""fullscreenenter"",""1"",""1269""
","
","
","""event"",""trial"",""time""
""fullscreenenter"",""1"",""1269""
","
","","","","","","844.1000000238419","images/rabbit5.png","","","memory_trial","1","definitely_old",""
"html-keyboard-response","170","432083","0.0-18.0-0.62","5670","approach_avoid_sv1","""event"",""trial"",""time""
""fullscreenenter"",""1"",""1269""
","
","
","""event"",""trial"",""time""
""fullscreenenter"",""1"",""1269""
","
","","","","","","null","<div style=""font-size:60px;"">+</div>","null","","fixation","","",""
"memory-trial","171","434011","0.0-18.0-1.62","5670","approach_avoid_sv1","""event"",""trial"",""time""
""fullscreenenter"",""1"",""1269""
","
","
","""event"",""trial"",""time""
""fullscreenenter"",""1"",""1269""
","
","","","","","","919","images/boat5.png","","","memory_trial","4","definitely_new",""
"html-keyboard-response","172","434515","0.0-18.0-0.63","5670","approach_avoid_sv1","""event"",""trial"",""time""
""fullscreenenter"",""1"",""1269""
","
","
","""event"",""trial"",""time""
""fullscreenenter"",""1"",""1269""
","
","","","","","","null","<div style=""font-size:60px;"">+</div>","null","","fixation","","",""
"memory-trial","173","436186","0.0-18.0-1.63","5670","approach_avoid_sv1","""event"",""trial"",""time""
""fullscreenenter"",""1"",""1269""
","
","
","""event"",""trial"",""time""
""fullscreenenter"",""1"",""1269""
","
","","","","","","666.2999999523163","images/flower1.png","","","memory_trial","4","definitely_new",""
"html-keyboard-response","174","436691","0.0-18.0-0.64","5670","approach_avoid_sv1","""event"",""trial"",""time""
""fullscreenenter"",""1"",""1269""
","
","
","""event"",""trial"",""time""
""fullscreenenter"",""1"",""1269""
","
","","","","","","null","<div style=""font-size:60px;"">+</div>","null","","fixation","","",""
"memory-trial","175","438787","0.0-18.0-1.64","5670","approach_avoid_sv1","""event"",""trial"",""time""
""fullscreenenter"",""1"",""1269""
","
","
","""event"",""trial"",""time""
""fullscreenenter"",""1"",""1269""
","
","","","","","","1092.5","images/orange3.png","","","memory_trial","4","definitely_new",""
"html-keyboard-response","176","439290","0.0-18.0-0.65","5670","approach_avoid_sv1","""event"",""trial"",""time""
""fullscreenenter"",""1"",""1269""
","
","
","""event"",""trial"",""time""
""fullscreenenter"",""1"",""1269""
","
","","","","","","null","<div style=""font-size:60px;"">+</div>","null","","fixation","","",""
"memory-trial","177","441762","0.0-18.0-1.65","5670","approach_avoid_sv1","""event"",""trial"",""time""
""fullscreenenter"",""1"",""1269""
","
","
","""event"",""trial"",""time""
""fullscreenenter"",""1"",""1269""
","
","","","","","","1468.1000000238419","images/cactus7.png","","","memory_trial","4","definitely_new",""
"html-keyboard-response","178","442267","0.0-18.0-0.66","5670","approach_avoid_sv1","""event"",""trial"",""time""
""fullscreenenter"",""1"",""1269""
","
","
","""event"",""trial"",""time""
""fullscreenenter"",""1"",""1269""
","
","","","","","","null","<div style=""font-size:60px;"">+</div>","null","","fixation","","",""
"memory-trial","179","444220","0.0-18.0-1.66","5670","approach_avoid_sv1","""event"",""trial"",""time""
""fullscreenenter"",""1"",""1269""
","
","
","""event"",""trial"",""time""
""fullscreenenter"",""1"",""1269""
","
","","","","","","944.6000000238419","images/boat2.png","","","memory_trial","4","definitely_new",""
"html-keyboard-response","180","444723","0.0-18.0-0.67","5670","approach_avoid_sv1","""event"",""trial"",""time""
""fullscreenenter"",""1"",""1269""
","
","
","""event"",""trial"",""time""
""fullscreenenter"",""1"",""1269""
","
","","","","","","null","<div style=""font-size:60px;"">+</div>","null","","fixation","","",""
"memory-trial","181","446772","0.0-18.0-1.67","5670","approach_avoid_sv1","""event"",""trial"",""time""
""fullscreenenter"",""1"",""1269""
","
","
","""event"",""trial"",""time""
""fullscreenenter"",""1"",""1269""
","
","","","","","","1038.1000000238419","images/bush3.png","","","memory_trial","1","definitely_old",""
"html-keyboard-response","182","447275","0.0-18.0-0.68","5670","approach_avoid_sv1","""event"",""trial"",""time""
""fullscreenenter"",""1"",""1269""
","
","
","""event"",""trial"",""time""
""fullscreenenter"",""1"",""1269""
","
","","","","","","null","<div style=""font-size:60px;"">+</div>","null","","fixation","","",""
"memory-trial","183","449587","0.0-18.0-1.68","5670","approach_avoid_sv1","""event"",""trial"",""time""
""fullscreenenter"",""1"",""1269""
","
","
","""event"",""trial"",""time""
""fullscreenenter"",""1"",""1269""
","
","","","","","","1304.2999999523163","images/cat5.png","","","memory_trial","4","definitely_new",""
"html-keyboard-response","184","450091","0.0-18.0-0.69","5670","approach_avoid_sv1","""event"",""trial"",""time""
""fullscreenenter"",""1"",""1269""
","
","
","""event"",""trial"",""time""
""fullscreenenter"",""1"",""1269""
","
","","","","","","null","<div style=""font-size:60px;"">+</div>","null","","fixation","","",""
"memory-trial","185","453091","0.0-18.0-1.69","5670","approach_avoid_sv1","""event"",""trial"",""time""
""fullscreenenter"",""1"",""1269""
","
","
","""event"",""trial"",""time""
""fullscreenenter"",""1"",""1269""
","
","","","","","","1997","images/banana5.png","","","memory_trial","4","definitely_new",""
"html-keyboard-response","186","453595","0.0-18.0-0.70","5670","approach_avoid_sv1","""event"",""trial"",""time""
""fullscreenenter"",""1"",""1269""
","
","
","""event"",""trial"",""time""
""fullscreenenter"",""1"",""1269""
","
","","","","","","null","<div style=""font-size:60px;"">+</div>","null","","fixation","","",""
"memory-trial","187","455459","0.0-18.0-1.70","5670","approach_avoid_sv1","""event"",""trial"",""time""
""fullscreenenter"",""1"",""1269""
","
","
","""event"",""trial"",""time""
""fullscreenenter"",""1"",""1269""
","
","","","","","","857.8999999761581","images/rodent7.png","","","memory_trial","4","definitely_new",""
"html-keyboard-response","188","455963","0.0-18.0-0.71","5670","approach_avoid_sv1","""event"",""trial"",""time""
""fullscreenenter"",""1"",""1269""
","
","
","""event"",""trial"",""time""
""fullscreenenter"",""1"",""1269""
","
","","","","","","null","<div style=""font-size:60px;"">+</div>","null","","fixation","","",""
"memory-trial","189","458546","0.0-18.0-1.71","5670","approach_avoid_sv1","""event"",""trial"",""time""
""fullscreenenter"",""1"",""1269""
","
","
","""event"",""trial"",""time""
""fullscreenenter"",""1"",""1269""
","
","","","","","","1574.7999999523163","images/cat1.png","","","memory_trial","1","definitely_old",""
"html-keyboard-response","190","459050","0.0-18.0-0.72","5670","approach_avoid_sv1","""event"",""trial"",""time""
""fullscreenenter"",""1"",""1269""
","
","
","""event"",""trial"",""time""
""fullscreenenter"",""1"",""1269""
","
","","","","","","null","<div style=""font-size:60px;"">+</div>","null","","fixation","","",""
"memory-trial","191","462148","0.0-18.0-1.72","5670","approach_avoid_sv1","""event"",""trial"",""time""
""fullscreenenter"",""1"",""1269""
","
","
","""event"",""trial"",""time""
""fullscreenenter"",""1"",""1269""
","
","","","","","","2092.7999999523163","images/goat6.png","","","memory_trial","4","definitely_new",""
"html-keyboard-response","192","462651","0.0-18.0-0.73","5670","approach_avoid_sv1","""event"",""trial"",""time""
""fullscreenenter"",""1"",""1269""
","
","
","""event"",""trial"",""time""
""fullscreenenter"",""1"",""1269""
","
","","","","","","null","<div style=""font-size:60px;"">+</div>","null","","fixation","","",""
"memory-trial","193","465379","0.0-18.0-1.73","5670","approach_avoid_sv1","""event"",""trial"",""time""
""fullscreenenter"",""1"",""1269""
","
","
","""event"",""trial"",""time""
""fullscreenenter"",""1"",""1269""
","
","","","","","","1719.5","images/cactus5.png","","","memory_trial","1","definitely_old",""
"html-keyboard-response","194","465882","0.0-18.0-0.74","5670","approach_avoid_sv1","""event"",""trial"",""time""
""fullscreenenter"",""1"",""1269""
","
","
","""event"",""trial"",""time""
""fullscreenenter"",""1"",""1269""
","
","","","","","","null","<div style=""font-size:60px;"">+</div>","null","","fixation","","",""
"memory-trial","195","467715","0.0-18.0-1.74","5670","approach_avoid_sv1","""event"",""trial"",""time""
""fullscreenenter"",""1"",""1269""
","
","
","""event"",""trial"",""time""
""fullscreenenter"",""1"",""1269""
","
","","","","","","825.7999999523163","images/table4.png","","","memory_trial","1","definitely_old",""
"html-keyboard-response","196","468219","0.0-18.0-0.75","5670","approach_avoid_sv1","""event"",""trial"",""time""
""fullscreenenter"",""1"",""1269""
","
","
","""event"",""trial"",""time""
""fullscreenenter"",""1"",""1269""
","
","","","","","","null","<div style=""font-size:60px;"">+</div>","null","","fixation","","",""
"memory-trial","197","470002","0.0-18.0-1.75","5670","approach_avoid_sv1","""event"",""trial"",""time""
""fullscreenenter"",""1"",""1269""
","
","
","""event"",""trial"",""time""
""fullscreenenter"",""1"",""1269""
","
","","","","","","777.8000000715256","images/bed7.png","","","memory_trial","1","definitely_old",""
"html-keyboard-response","198","470503","0.0-18.0-0.76","5670","approach_avoid_sv1","""event"",""trial"",""time""
""fullscreenenter"",""1"",""1269""
","
","
","""event"",""trial"",""time""
""fullscreenenter"",""1"",""1269""
","
","","","","","","null","<div style=""font-size:60px;"">+</div>","null","","fixation","","",""
"memory-trial","199","473618","0.0-18.0-1.76","5670","approach_avoid_sv1","""event"",""trial"",""time""
""fullscreenenter"",""1"",""1269""
","
","
","""event"",""trial"",""time""
""fullscreenenter"",""1"",""1269""
","
","","","","","","2108.2999999523163","images/chair8.png","","","memory_trial","3","maybe_new",""
"html-keyboard-response","200","474122","0.0-18.0-0.77","5670","approach_avoid_sv1","""event"",""trial"",""time""
""fullscreenenter"",""1"",""1269""
","
","
","""event"",""trial"",""time""
""fullscreenenter"",""1"",""1269""
","
","","","","","","null","<div style=""font-size:60px;"">+</div>","null","","fixation","","",""
"memory-trial","201","475891","0.0-18.0-1.77","5670","approach_avoid_sv1","""event"",""trial"",""time""
""fullscreenenter"",""1"",""1269""
","
","
","""event"",""trial"",""time""
""fullscreenenter"",""1"",""1269""
","
","","","","","","765.3000000715256","images/sheep5.png","","","memory_trial","1","definitely_old",""
"html-keyboard-response","202","476394","0.0-18.0-0.78","5670","approach_avoid_sv1","""event"",""trial"",""time""
""fullscreenenter"",""1"",""1269""
","
","
","""event"",""trial"",""time""
""fullscreenenter"",""1"",""1269""
","
","","","","","","null","<div style=""font-size:60px;"">+</div>","null","","fixation","","",""
"memory-trial","203","479315","0.0-18.0-1.78","5670","approach_avoid_sv1","""event"",""trial"",""time""
""fullscreenenter"",""1"",""1269""
","
","
","""event"",""trial"",""time""
""fullscreenenter"",""1"",""1269""
","
","","","","","","1914.6000000238419","images/cactus4.png","","","memory_trial","2","maybe_old",""
"html-keyboard-response","204","479818","0.0-18.0-0.79","5670","approach_avoid_sv1","""event"",""trial"",""time""
""fullscreenenter"",""1"",""1269""
","
","
","""event"",""trial"",""time""
""fullscreenenter"",""1"",""1269""
","
","","","","","","null","<div style=""font-size:60px;"">+</div>","null","","fixation","","",""
"memory-trial","205","482683","0.0-18.0-1.79","5670","approach_avoid_sv1","""event"",""trial"",""time""
""fullscreenenter"",""1"",""1269""
","
","
","""event"",""trial"",""time""
""fullscreenenter"",""1"",""1269""
","
","","","","","","1857.1000000238419","images/flower6.png","","","memory_trial","4","definitely_new",""
"html-keyboard-response","206","483186","0.0-18.0-0.80","5670","approach_avoid_sv1","""event"",""trial"",""time""
""fullscreenenter"",""1"",""1269""
","
","
","""event"",""trial"",""time""
""fullscreenenter"",""1"",""1269""
","
","","","","","","null","<div style=""font-size:60px;"">+</div>","null","","fixation","","",""
"memory-trial","207","485306","0.0-18.0-1.80","5670","approach_avoid_sv1","""event"",""trial"",""time""
""fullscreenenter"",""1"",""1269""
","
","
","""event"",""trial"",""time""
""fullscreenenter"",""1"",""1269""
","
","","","","","","1116.1000000238419","images/flower5.png","","","memory_trial","4","definitely_new",""
"html-keyboard-response","208","485810","0.0-18.0-0.81","5670","approach_avoid_sv1","""event"",""trial"",""time""
""fullscreenenter"",""1"",""1269""
","
","
","""event"",""trial"",""time""
""fullscreenenter"",""1"",""1269""
","
","","","","","","null","<div style=""font-size:60px;"">+</div>","null","","fixation","","",""
"memory-trial","209","487780","0.0-18.0-1.81","5670","approach_avoid_sv1","""event"",""trial"",""time""
""fullscreenenter"",""1"",""1269""
","
","
","""event"",""trial"",""time""
""fullscreenenter"",""1"",""1269""
","
","","","","","","961.6999999284744","images/train3.png","","","memory_trial","1","definitely_old",""
"html-keyboard-response","210","488283","0.0-18.0-0.82","5670","approach_avoid_sv1","""event"",""trial"",""time""
""fullscreenenter"",""1"",""1269""
","
","
","""event"",""trial"",""time""
""fullscreenenter"",""1"",""1269""
","
","","","","","","null","<div style=""font-size:60px;"">+</div>","null","","fixation","","",""
"memory-trial","211","490683","0.0-18.0-1.82","5670","approach_avoid_sv1","""event"",""trial"",""time""
""fullscreenenter"",""1"",""1269""
","
","
","""event"",""trial"",""time""
""fullscreenenter"",""1"",""1269""
","
","","","","","","1396","images/cactus6.png","","","memory_trial","4","definitely_new",""
"html-keyboard-response","212","491187","0.0-18.0-0.83","5670","approach_avoid_sv1","""event"",""trial"",""time""
""fullscreenenter"",""1"",""1269""
","
","
","""event"",""trial"",""time""
""fullscreenenter"",""1"",""1269""
","
","","","","","","null","<div style=""font-size:60px;"">+</div>","null","","fixation","","",""
"memory-trial","213","492851","0.0-18.0-1.83","5670","approach_avoid_sv1","""event"",""trial"",""time""
""fullscreenenter"",""1"",""1269""
","
","
","""event"",""trial"",""time""
""fullscreenenter"",""1"",""1269""
","
","","","","","","659.5","images/tree4.png","","","memory_trial","1","definitely_old",""
"html-keyboard-response","214","493354","0.0-18.0-0.84","5670","approach_avoid_sv1","""event"",""trial"",""time""
""fullscreenenter"",""1"",""1269""
","
","
","""event"",""trial"",""time""
""fullscreenenter"",""1"",""1269""
","
","","","","","","null","<div style=""font-size:60px;"">+</div>","null","","fixation","","",""
"memory-trial","215","495083","0.0-18.0-1.84","5670","approach_avoid_sv1","""event"",""trial"",""time""
""fullscreenenter"",""1"",""1269""
","
","
","""event"",""trial"",""time""
""fullscreenenter"",""1"",""1269""
","
","","","","","","723.8000000715256","images/bush1.png","","","memory_trial","1","definitely_old",""
"html-keyboard-response","216","495587","0.0-18.0-0.85","5670","approach_avoid_sv1","""event"",""trial"",""time""
""fullscreenenter"",""1"",""1269""
","
","
","""event"",""trial"",""time""
""fullscreenenter"",""1"",""1269""
","
","","","","","","null","<div style=""font-size:60px;"">+</div>","null","","fixation","","",""
"memory-trial","217","497354","0.0-18.0-1.85","5670","approach_avoid_sv1","""event"",""trial"",""time""
""fullscreenenter"",""1"",""1269""
","
","
","""event"",""trial"",""time""
""fullscreenenter"",""1"",""1269""
","
","","","","","","764.2999999523163","images/truck3.png","","","memory_trial","4","definitely_new",""
"html-keyboard-response","218","497859","0.0-18.0-0.86","5670","approach_avoid_sv1","""event"",""trial"",""time""
""fullscreenenter"",""1"",""1269""
","
","
","""event"",""trial"",""time""
""fullscreenenter"",""1"",""1269""
","
","","","","","","null","<div style=""font-size:60px;"">+</div>","null","","fixation","","",""
"memory-trial","219","500555","0.0-18.0-1.86","5670","approach_avoid_sv1","""event"",""trial"",""time""
""fullscreenenter"",""1"",""1269""
","
","
","""event"",""trial"",""time""
""fullscreenenter"",""1"",""1269""
","
","","","","","","1689.8000000715256","images/dog1.png","","","memory_trial","1","definitely_old",""
"html-keyboard-response","220","501060","0.0-18.0-0.87","5670","approach_avoid_sv1","""event"",""trial"",""time""
""fullscreenenter"",""1"",""1269""
","
","
","""event"",""trial"",""time""
""fullscreenenter"",""1"",""1269""
","
","","","","","","null","<div style=""font-size:60px;"">+</div>","null","","fixation","","",""
"memory-trial","221","503307","0.0-18.0-1.87","5670","approach_avoid_sv1","""event"",""trial"",""time""
""fullscreenenter"",""1"",""1269""
","
","
","""event"",""trial"",""time""
""fullscreenenter"",""1"",""1269""
","
","","","","","","1237.5","images/goat4.png","","","memory_trial","4","definitely_new",""
"html-keyboard-response","222","503810","0.0-18.0-0.88","5670","approach_avoid_sv1","""event"",""trial"",""time""
""fullscreenenter"",""1"",""1269""
","
","
","""event"",""trial"",""time""
""fullscreenenter"",""1"",""1269""
","
","","","","","","null","<div style=""font-size:60px;"">+</div>","null","","fixation","","",""
"memory-trial","223","505762","0.0-18.0-1.88","5670","approach_avoid_sv1","""event"",""trial"",""time""
""fullscreenenter"",""1"",""1269""
","
","
","""event"",""trial"",""time""
""fullscreenenter"",""1"",""1269""
","
","","","","","","945.8999999761581","images/dog6.png","","","memory_trial","4","definitely_new",""
"html-keyboard-response","224","506266","0.0-18.0-0.89","5670","approach_avoid_sv1","""event"",""trial"",""time""
""fullscreenenter"",""1"",""1269""
","
","
","""event"",""trial"",""time""
""fullscreenenter"",""1"",""1269""
","
","","","","","","null","<div style=""font-size:60px;"">+</div>","null","","fixation","","",""
"memory-trial","225","508050","0.0-18.0-1.89","5670","approach_avoid_sv1","""event"",""trial"",""time""
""fullscreenenter"",""1"",""1269""
","
","
","""event"",""trial"",""time""
""fullscreenenter"",""1"",""1269""
","
","","","","","","778.3000000715256","images/orange8.png","","","memory_trial","4","definitely_new",""
"html-keyboard-response","226","508554","0.0-18.0-0.90","5670","approach_avoid_sv1","""event"",""trial"",""time""
""fullscreenenter"",""1"",""1269""
","
","
","""event"",""trial"",""time""
""fullscreenenter"",""1"",""1269""
","
","","","","","","null","<div style=""font-size:60px;"">+</div>","null","","fixation","","",""
"memory-trial","227","510628","0.0-18.0-1.90","5670","approach_avoid_sv1","""event"",""trial"",""time""
""fullscreenenter"",""1"",""1269""
","
","
","""event"",""trial"",""time""
""fullscreenenter"",""1"",""1269""
","
","","","","","","1067.3999999761581","images/chair5.png","","","memory_trial","1","definitely_old",""
"html-keyboard-response","228","511131","0.0-18.0-0.91","5670","approach_avoid_sv1","""event"",""trial"",""time""
""fullscreenenter"",""1"",""1269""
","
","
","""event"",""trial"",""time""
""fullscreenenter"",""1"",""1269""
","
","","","","","","null","<div style=""font-size:60px;"">+</div>","null","","fixation","","",""
"memory-trial","229","512986","0.0-18.0-1.91","5670","approach_avoid_sv1","""event"",""trial"",""time""
""fullscreenenter"",""1"",""1269""
","
","
","""event"",""trial"",""time""
""fullscreenenter"",""1"",""1269""
","
","","","","","","849","images/bed1.png","","","memory_trial","1","definitely_old",""
"html-button-response","230","514387","0.0-18.0-2.91-0.91","5670","approach_avoid_sv1","""event"",""trial"",""time""
""fullscreenenter"",""1"",""1269""
","
","
","""event"",""trial"",""time""
""fullscreenenter"",""1"",""1269""
","
","","","","","","1399.6999999284744","<p> Take a break! </p><p> Click the button to continue. </p>","0","","break","","",""
"html-keyboard-response","231","514890","0.0-18.0-0.92","5670","approach_avoid_sv1","""event"",""trial"",""time""
""fullscreenenter"",""1"",""1269""
","
","
","""event"",""trial"",""time""
""fullscreenenter"",""1"",""1269""
","
","","","","","","null","<div style=""font-size:60px;"">+</div>","null","","fixation","","",""
"memory-trial","232","517267","0.0-18.0-1.92","5670","approach_avoid_sv1","""event"",""trial"",""time""
""fullscreenenter"",""1"",""1269""
","
","
","""event"",""trial"",""time""
""fullscreenenter"",""1"",""1269""
","
","","","","","","1367.7999999523163","images/orange6.png","","","memory_trial","4","definitely_new",""
"html-keyboard-response","233","517771","0.0-18.0-0.93","5670","approach_avoid_sv1","""event"",""trial"",""time""
""fullscreenenter"",""1"",""1269""
","
","
","""event"",""trial"",""time""
""fullscreenenter"",""1"",""1269""
","
","","","","","","null","<div style=""font-size:60px;"">+</div>","null","","fixation","","",""
"memory-trial","234","519707","0.0-18.0-1.93","5670","approach_avoid_sv1","""event"",""trial"",""time""
""fullscreenenter"",""1"",""1269""
","
","
","""event"",""trial"",""time""
""fullscreenenter"",""1"",""1269""
","
","","","","","","932.1999999284744","images/straw5.png","","","memory_trial","4","definitely_new",""
"html-keyboard-response","235","520211","0.0-18.0-0.94","5670","approach_avoid_sv1","""event"",""trial"",""time""
""fullscreenenter"",""1"",""1269""
","
","
","""event"",""trial"",""time""
""fullscreenenter"",""1"",""1269""
","
","","","","","","null","<div style=""font-size:60px;"">+</div>","null","","fixation","","",""
"memory-trial","236","521906","0.0-18.0-1.94","5670","approach_avoid_sv1","""event"",""trial"",""time""
""fullscreenenter"",""1"",""1269""
","
","
","""event"",""trial"",""time""
""fullscreenenter"",""1"",""1269""
","
","","","","","","685.7999999523163","images/flower2.png","","","memory_trial","4","definitely_new",""
"html-keyboard-response","237","522411","0.0-18.0-0.95","5670","approach_avoid_sv1","""event"",""trial"",""time""
""fullscreenenter"",""1"",""1269""
","
","
","""event"",""trial"",""time""
""fullscreenenter"",""1"",""1269""
","
","","","","","","null","<div style=""font-size:60px;"">+</div>","null","","fixation","","",""
"memory-trial","238","523947","0.0-18.0-1.95","5670","approach_avoid_sv1","""event"",""trial"",""time""
""fullscreenenter"",""1"",""1269""
","
","
","""event"",""trial"",""time""
""fullscreenenter"",""1"",""1269""
","
","","","","","","531.2999999523163","images/straw8.png","","","memory_trial","1","definitely_old",""
"html-keyboard-response","239","524451","0.0-18.0-0.96","5670","approach_avoid_sv1","""event"",""trial"",""time""
""fullscreenenter"",""1"",""1269""
","
","
","""event"",""trial"",""time""
""fullscreenenter"",""1"",""1269""
","
","","","","","","null","<div style=""font-size:60px;"">+</div>","null","","fixation","","",""
"memory-trial","240","526354","0.0-18.0-1.96","5670","approach_avoid_sv1","""event"",""trial"",""time""
""fullscreenenter"",""1"",""1269""
","
","
","""event"",""trial"",""time""
""fullscreenenter"",""1"",""1269""
","
","","","","","","893.6000000238419","images/table3.png","","","memory_trial","1","definitely_old",""
"html-keyboard-response","241","526858","0.0-18.0-0.97","5670","approach_avoid_sv1","""event"",""trial"",""time""
""fullscreenenter"",""1"",""1269""
","
","
","""event"",""trial"",""time""
""fullscreenenter"",""1"",""1269""
","
","","","","","","null","<div style=""font-size:60px;"">+</div>","null","","fixation","","",""
"memory-trial","242","529131","0.0-18.0-1.97","5670","approach_avoid_sv1","""event"",""trial"",""time""
""fullscreenenter"",""1"",""1269""
","
","
","""event"",""trial"",""time""
""fullscreenenter"",""1"",""1269""
","
","","","","","","1267.1000000238419","images/goat3.png","","","memory_trial","4","definitely_new",""
"html-keyboard-response","243","529635","0.0-18.0-0.98","5670","approach_avoid_sv1","""event"",""trial"",""time""
""fullscreenenter"",""1"",""1269""
","
","
","""event"",""trial"",""time""
""fullscreenenter"",""1"",""1269""
","
","","","","","","null","<div style=""font-size:60px;"">+</div>","null","","fixation","","",""
"memory-trial","244","531443","0.0-18.0-1.98","5670","approach_avoid_sv1","""event"",""trial"",""time""
""fullscreenenter"",""1"",""1269""
","
","
","""event"",""trial"",""time""
""fullscreenenter"",""1"",""1269""
","
","","","","","","801.5","images/orange4.png","","","memory_trial","4","definitely_new",""
"html-keyboard-response","245","531947","0.0-18.0-0.99","5670","approach_avoid_sv1","""event"",""trial"",""time""
""fullscreenenter"",""1"",""1269""
","
","
","""event"",""trial"",""time""
""fullscreenenter"",""1"",""1269""
","
","","","","","","null","<div style=""font-size:60px;"">+</div>","null","","fixation","","",""
"memory-trial","246","533755","0.0-18.0-1.99","5670","approach_avoid_sv1","""event"",""trial"",""time""
""fullscreenenter"",""1"",""1269""
","
","
","""event"",""trial"",""time""
""fullscreenenter"",""1"",""1269""
","
","","","","","","805.2999999523163","images/bush7.png","","","memory_trial","4","definitely_new",""
"html-keyboard-response","247","534259","0.0-18.0-0.100","5670","approach_avoid_sv1","""event"",""trial"",""time""
""fullscreenenter"",""1"",""1269""
","
","
","""event"",""trial"",""time""
""fullscreenenter"",""1"",""1269""
","
","","","","","","null","<div style=""font-size:60px;"">+</div>","null","","fixation","","",""
"memory-trial","248","537122","0.0-18.0-1.100","5670","approach_avoid_sv1","""event"",""trial"",""time""
""fullscreenenter"",""1"",""1269""
","
","
","""event"",""trial"",""time""
""fullscreenenter"",""1"",""1269""
","
","","","","","","1858.1000000238419","images/train4.png","","","memory_trial","1","definitely_old",""
"html-keyboard-response","249","537627","0.0-18.0-0.101","5670","approach_avoid_sv1","""event"",""trial"",""time""
""fullscreenenter"",""1"",""1269""
","
","
","""event"",""trial"",""time""
""fullscreenenter"",""1"",""1269""
","
","","","","","","null","<div style=""font-size:60px;"">+</div>","null","","fixation","","",""
"memory-trial","250","539587","0.0-18.0-1.101","5670","approach_avoid_sv1","""event"",""trial"",""time""
""fullscreenenter"",""1"",""1269""
","
","
","""event"",""trial"",""time""
""fullscreenenter"",""1"",""1269""
","
","","","","","","954.5","images/straw2.png","","","memory_trial","1","definitely_old",""
"html-keyboard-response","251","540091","0.0-18.0-0.102","5670","approach_avoid_sv1","""event"",""trial"",""time""
""fullscreenenter"",""1"",""1269""
","
","
","""event"",""trial"",""time""
""fullscreenenter"",""1"",""1269""
","
","","","","","","null","<div style=""font-size:60px;"">+</div>","null","","fixation","","",""
"memory-trial","252","541955","0.0-18.0-1.102","5670","approach_avoid_sv1","""event"",""trial"",""time""
""fullscreenenter"",""1"",""1269""
","
","
","""event"",""trial"",""time""
""fullscreenenter"",""1"",""1269""
","
","","","","","","859.3999999761581","images/dog8.png","","","memory_trial","1","definitely_old",""
"html-keyboard-response","253","542460","0.0-18.0-0.103","5670","approach_avoid_sv1","""event"",""trial"",""time""
""fullscreenenter"",""1"",""1269""
","
","
","""event"",""trial"",""time""
""fullscreenenter"",""1"",""1269""
","
","","","","","","null","<div style=""font-size:60px;"">+</div>","null","","fixation","","",""
"memory-trial","254","544315","0.0-18.0-1.103","5670","approach_avoid_sv1","""event"",""trial"",""time""
""fullscreenenter"",""1"",""1269""
","
","
","""event"",""trial"",""time""
""fullscreenenter"",""1"",""1269""
","
","","","","","","845.5","images/plane4.png","","","memory_trial","4","definitely_new",""
"html-keyboard-response","255","544819","0.0-18.0-0.104","5670","approach_avoid_sv1","""event"",""trial"",""time""
""fullscreenenter"",""1"",""1269""
","
","
","""event"",""trial"",""time""
""fullscreenenter"",""1"",""1269""
","
","","","","","","null","<div style=""font-size:60px;"">+</div>","null","","fixation","","",""
"memory-trial","256","546827","0.0-18.0-1.104","5670","approach_avoid_sv1","""event"",""trial"",""time""
""fullscreenenter"",""1"",""1269""
","
","
","""event"",""trial"",""time""
""fullscreenenter"",""1"",""1269""
","
","","","","","","997.8999999761581","images/bush2.png","","","memory_trial","1","definitely_old",""
"html-keyboard-response","257","547331","0.0-18.0-0.105","5670","approach_avoid_sv1","""event"",""trial"",""time""
""fullscreenenter"",""1"",""1269""
","
","
","""event"",""trial"",""time""
""fullscreenenter"",""1"",""1269""
","
","","","","","","null","<div style=""font-size:60px;"">+</div>","null","","fixation","","",""
"memory-trial","258","550090","0.0-18.0-1.105","5670","approach_avoid_sv1","""event"",""trial"",""time""
""fullscreenenter"",""1"",""1269""
","
","
","""event"",""trial"",""time""
""fullscreenenter"",""1"",""1269""
","
","","","","","","1750","images/banana7.png","","","memory_trial","4","definitely_new",""
"html-keyboard-response","259","550594","0.0-18.0-0.106","5670","approach_avoid_sv1","""event"",""trial"",""time""
""fullscreenenter"",""1"",""1269""
","
","
","""event"",""trial"",""time""
""fullscreenenter"",""1"",""1269""
","
","","","","","","null","<div style=""font-size:60px;"">+</div>","null","","fixation","","",""
"memory-trial","260","552242","0.0-18.0-1.106","5670","approach_avoid_sv1","""event"",""trial"",""time""
""fullscreenenter"",""1"",""1269""
","
","
","""event"",""trial"",""time""
""fullscreenenter"",""1"",""1269""
","
","","","","","","642.2000000476837","images/rodent1.png","","","memory_trial","4","definitely_new",""
"html-keyboard-response","261","552746","0.0-18.0-0.107","5670","approach_avoid_sv1","""event"",""trial"",""time""
""fullscreenenter"",""1"",""1269""
","
","
","""event"",""trial"",""time""
""fullscreenenter"",""1"",""1269""
","
","","","","","","null","<div style=""font-size:60px;"">+</div>","null","","fixation","","",""
"memory-trial","262","554722","0.0-18.0-1.107","5670","approach_avoid_sv1","""event"",""trial"",""time""
""fullscreenenter"",""1"",""1269""
","
","
","""event"",""trial"",""time""
""fullscreenenter"",""1"",""1269""
","
","","","","","","971.2000000476837","images/tree6.png","","","memory_trial","1","definitely_old",""
"html-keyboard-response","263","555226","0.0-18.0-0.108","5670","approach_avoid_sv1","""event"",""trial"",""time""
""fullscreenenter"",""1"",""1269""
","
","
","""event"",""trial"",""time""
""fullscreenenter"",""1"",""1269""
","
","","","","","","null","<div style=""font-size:60px;"">+</div>","null","","fixation","","",""
"memory-trial","264","557611","0.0-18.0-1.108","5670","approach_avoid_sv1","""event"",""trial"",""time""
""fullscreenenter"",""1"",""1269""
","
","
","""event"",""trial"",""time""
""fullscreenenter"",""1"",""1269""
","
","","","","","","1380.1999999284744","images/train1.png","","","memory_trial","1","definitely_old",""
"html-keyboard-response","265","558114","0.0-18.0-0.109","5670","approach_avoid_sv1","""event"",""trial"",""time""
""fullscreenenter"",""1"",""1269""
","
","
","""event"",""trial"",""time""
""fullscreenenter"",""1"",""1269""
","
","","","","","","null","<div style=""font-size:60px;"">+</div>","null","","fixation","","",""
"memory-trial","266","559841","0.0-18.0-1.109","5670","approach_avoid_sv1","""event"",""trial"",""time""
""fullscreenenter"",""1"",""1269""
","
","
","""event"",""trial"",""time""
""fullscreenenter"",""1"",""1269""
","
","","","","","","718.2999999523163","images/dog4.png","","","memory_trial","1","definitely_old",""
"html-keyboard-response","267","560346","0.0-18.0-0.110","5670","approach_avoid_sv1","""event"",""trial"",""time""
""fullscreenenter"",""1"",""1269""
","
","
","""event"",""trial"",""time""
""fullscreenenter"",""1"",""1269""
","
","","","","","","null","<div style=""font-size:60px;"">+</div>","null","","fixation","","",""
"memory-trial","268","562090","0.0-18.0-1.110","5670","approach_avoid_sv1","""event"",""trial"",""time""
""fullscreenenter"",""1"",""1269""
","
","
","""event"",""trial"",""time""
""fullscreenenter"",""1"",""1269""
","
","","","","","","742.7999999523163","images/bed8.png","","","memory_trial","1","definitely_old",""
"html-keyboard-response","269","562594","0.0-18.0-0.111","5670","approach_avoid_sv1","""event"",""trial"",""time""
""fullscreenenter"",""1"",""1269""
","
","
","""event"",""trial"",""time""
""fullscreenenter"",""1"",""1269""
","
","","","","","","null","<div style=""font-size:60px;"">+</div>","null","","fixation","","",""
"memory-trial","270","565002","0.0-18.0-1.111","5670","approach_avoid_sv1","""event"",""trial"",""time""
""fullscreenenter"",""1"",""1269""
","
","
","""event"",""trial"",""time""
""fullscreenenter"",""1"",""1269""
","
","","","","","","1401.1000000238419","images/cactus2.png","","","memory_trial","4","definitely_new",""
"html-keyboard-response","271","565507","0.0-18.0-0.112","5670","approach_avoid_sv1","""event"",""trial"",""time""
""fullscreenenter"",""1"",""1269""
","
","
","""event"",""trial"",""time""
""fullscreenenter"",""1"",""1269""
","
","","","","","","null","<div style=""font-size:60px;"">+</div>","null","","fixation","","",""
"memory-trial","272","567482","0.0-18.0-1.112","5670","approach_avoid_sv1","""event"",""trial"",""time""
""fullscreenenter"",""1"",""1269""
","
","
","""event"",""trial"",""time""
""fullscreenenter"",""1"",""1269""
","
","","","","","","968.2000000476837","images/bush4.png","","","memory_trial","4","definitely_new",""
"html-keyboard-response","273","567985","0.0-18.0-0.113","5670","approach_avoid_sv1","""event"",""trial"",""time""
""fullscreenenter"",""1"",""1269""
","
","
","""event"",""trial"",""time""
""fullscreenenter"",""1"",""1269""
","
","","","","","","null","<div style=""font-size:60px;"">+</div>","null","","fixation","","",""
"memory-trial","274","570122","0.0-18.0-1.113","5670","approach_avoid_sv1","""event"",""trial"",""time""
""fullscreenenter"",""1"",""1269""
","
","
","""event"",""trial"",""time""
""fullscreenenter"",""1"",""1269""
","
","","","","","","1134.1999999284744","images/cow6.png","","","memory_trial","1","definitely_old",""
"html-keyboard-response","275","570626","0.0-18.0-0.114","5670","approach_avoid_sv1","""event"",""trial"",""time""
""fullscreenenter"",""1"",""1269""
","
","
","""event"",""trial"",""time""
""fullscreenenter"",""1"",""1269""
","
","","","","","","null","<div style=""font-size:60px;"">+</div>","null","","fixation","","",""
"memory-trial","276","573027","0.0-18.0-1.114","5670","approach_avoid_sv1","""event"",""trial"",""time""
""fullscreenenter"",""1"",""1269""
","
","
","""event"",""trial"",""time""
""fullscreenenter"",""1"",""1269""
","
","","","","","","1390.3999999761581","images/table1.png","","","memory_trial","4","definitely_new",""
"html-keyboard-response","277","573530","0.0-18.0-0.115","5670","approach_avoid_sv1","""event"",""trial"",""time""
""fullscreenenter"",""1"",""1269""
","
","
","""event"",""trial"",""time""
""fullscreenenter"",""1"",""1269""
","
","","","","","","null","<div style=""font-size:60px;"">+</div>","null","","fixation","","",""
"memory-trial","278","575801","0.0-18.0-1.115","5670","approach_avoid_sv1","""event"",""trial"",""time""
""fullscreenenter"",""1"",""1269""
","
","
","""event"",""trial"",""time""
""fullscreenenter"",""1"",""1269""
","
","","","","","","1268.3000000715256","images/horse5.png","","","memory_trial","4","definitely_new",""
"html-keyboard-response","279","576306","0.0-18.0-0.116","5670","approach_avoid_sv1","""event"",""trial"",""time""
""fullscreenenter"",""1"",""1269""
","
","
","""event"",""trial"",""time""
""fullscreenenter"",""1"",""1269""
","
","","","","","","null","<div style=""font-size:60px;"">+</div>","null","","fixation","","",""
"memory-trial","280","577970","0.0-18.0-1.116","5670","approach_avoid_sv1","""event"",""trial"",""time""
""fullscreenenter"",""1"",""1269""
","
","
","""event"",""trial"",""time""
""fullscreenenter"",""1"",""1269""
","
","","","","","","658.1000000238419","images/horse2.png","","","memory_trial","4","definitely_new",""
"html-keyboard-response","281","578474","0.0-18.0-0.117","5670","approach_avoid_sv1","""event"",""trial"",""time""
""fullscreenenter"",""1"",""1269""
","
","
","""event"",""trial"",""time""
""fullscreenenter"",""1"",""1269""
","
","","","","","","null","<div style=""font-size:60px;"">+</div>","null","","fixation","","",""
"memory-trial","282","580546","0.0-18.0-1.117","5670","approach_avoid_sv1","""event"",""trial"",""time""
""fullscreenenter"",""1"",""1269""
","
","
","""event"",""trial"",""time""
""fullscreenenter"",""1"",""1269""
","
","","","","","","1067.6000000238419","images/chair1.png","","","memory_trial","1","definitely_old",""
"html-keyboard-response","283","581051","0.0-18.0-0.118","5670","approach_avoid_sv1","""event"",""trial"",""time""
""fullscreenenter"",""1"",""1269""
","
","
","""event"",""trial"",""time""
""fullscreenenter"",""1"",""1269""
","
","","","","","","null","<div style=""font-size:60px;"">+</div>","null","","fixation","","",""
"memory-trial","284","583138","0.0-18.0-1.118","5670","approach_avoid_sv1","""event"",""trial"",""time""
""fullscreenenter"",""1"",""1269""
","
","
","""event"",""trial"",""time""
""fullscreenenter"",""1"",""1269""
","
","","","","","","1083.5","images/dog2.png","","","memory_trial","1","definitely_old",""
"html-keyboard-response","285","583643","0.0-18.0-0.119","5670","approach_avoid_sv1","""event"",""trial"",""time""
""fullscreenenter"",""1"",""1269""
","
","
","""event"",""trial"",""time""
""fullscreenenter"",""1"",""1269""
","
","","","","","","null","<div style=""font-size:60px;"">+</div>","null","","fixation","","",""
"memory-trial","286","585442","0.0-18.0-1.119","5670","approach_avoid_sv1","""event"",""trial"",""time""
""fullscreenenter"",""1"",""1269""
","
","
","""event"",""trial"",""time""
""fullscreenenter"",""1"",""1269""
","
","","","","","","793.2000000476837","images/goat2.png","","","memory_trial","4","definitely_new",""
"html-keyboard-response","287","585946","0.0-18.0-0.120","5670","approach_avoid_sv1","""event"",""trial"",""time""
""fullscreenenter"",""1"",""1269""
","
","
","""event"",""trial"",""time""
""fullscreenenter"",""1"",""1269""
","
","","","","","","null","<div style=""font-size:60px;"">+</div>","null","","fixation","","",""
"memory-trial","288","587914","0.0-18.0-1.120","5670","approach_avoid_sv1","""event"",""trial"",""time""
""fullscreenenter"",""1"",""1269""
","
","
","""event"",""trial"",""time""
""fullscreenenter"",""1"",""1269""
","
","","","","","","959.6000000238419","images/train5.png","","","memory_trial","4","definitely_new",""
"html-keyboard-response","289","588418","0.0-18.0-0.121","5670","approach_avoid_sv1","""event"",""trial"",""time""
""fullscreenenter"",""1"",""1269""
","
","
","""event"",""trial"",""time""
""fullscreenenter"",""1"",""1269""
","
","","","","","","null","<div style=""font-size:60px;"">+</div>","null","","fixation","","",""
"memory-trial","290","590346","0.0-18.0-1.121","5670","approach_avoid_sv1","""event"",""trial"",""time""
""fullscreenenter"",""1"",""1269""
","
","
","""event"",""trial"",""time""
""fullscreenenter"",""1"",""1269""
","
","","","","","","921.6999999284744","images/rabbit1.png","","","memory_trial","1","definitely_old",""
"html-keyboard-response","291","590849","0.0-18.0-0.122","5670","approach_avoid_sv1","""event"",""trial"",""time""
""fullscreenenter"",""1"",""1269""
","
","
","""event"",""trial"",""time""
""fullscreenenter"",""1"",""1269""
","
","","","","","","null","<div style=""font-size:60px;"">+</div>","null","","fixation","","",""
"memory-trial","292","594298","0.0-18.0-1.122","5670","approach_avoid_sv1","""event"",""trial"",""time""
""fullscreenenter"",""1"",""1269""
","
","
","""event"",""trial"",""time""
""fullscreenenter"",""1"",""1269""
","
","","","","","","2442.7000000476837","images/apple3.png","","","memory_trial","1","definitely_old",""
"html-keyboard-response","293","594802","0.0-18.0-0.123","5670","approach_avoid_sv1","""event"",""trial"",""time""
""fullscreenenter"",""1"",""1269""
","
","
","""event"",""trial"",""time""
""fullscreenenter"",""1"",""1269""
","
","","","","","","null","<div style=""font-size:60px;"">+</div>","null","","fixation","","",""
"memory-trial","294","596762","0.0-18.0-1.123","5670","approach_avoid_sv1","""event"",""trial"",""time""
""fullscreenenter"",""1"",""1269""
","
","
","""event"",""trial"",""time""
""fullscreenenter"",""1"",""1269""
","
","","","","","","955.6000000238419","images/flower8.png","","","memory_trial","4","definitely_new",""
"html-keyboard-response","295","597266","0.0-18.0-0.124","5670","approach_avoid_sv1","""event"",""trial"",""time""
""fullscreenenter"",""1"",""1269""
","
","
","""event"",""trial"",""time""
""fullscreenenter"",""1"",""1269""
","
","","","","","","null","<div style=""font-size:60px;"">+</div>","null","","fixation","","",""
"memory-trial","296","599114","0.0-18.0-1.124","5670","approach_avoid_sv1","""event"",""trial"",""time""
""fullscreenenter"",""1"",""1269""
","
","
","""event"",""trial"",""time""
""fullscreenenter"",""1"",""1269""
","
