"trial_type","trial_index","time_elapsed","internal_node_id","subject_id","task_version","interactions","blur_events","focus_events","fullscreenenter_events","fullscreenexit_events","success","timeout","failed_images","failed_audio","failed_video","rt","stimulus","response","button_pressed","task_part","key_press","answer","correct"
"pavlovia","0","8","0.0-0.0","7712","approach_avoid_sv1","
","
","
","
","
","","","","","","","","","","","","",""
"fullscreen","1","4755","0.0-1.0","7712","approach_avoid_sv1","
","
","
","
","
","true","","","","","","","","","","","",""
"preload","2","10312","0.0-2.0","7712","approach_avoid_sv1","
","
","
","
","
","true","false","[]","[]","[]","","","","","","","",""
"preload","3","16142","0.0-3.0","7712","approach_avoid_sv1","
","
","
","
","
","true","false","[]","[]","[]","","","","","","","",""
"preload","4","16571","0.0-4.0","7712","approach_avoid_sv1","
","
","
","
","
","true","false","[]","[]","[]","","","","","","","",""
"audio-keyboard-response","5","24022","0.0-5.0","7712","approach_avoid_sv1","
","
","
","
","
","","","","","","7290.666666666667","audio/beep_loop.wav"," ","","","","",""
"audio-button-response","6","25781","0.0-6.0","7712","approach_avoid_sv1","
","
","
","
","
","","","","","","1749","audio/turtle.wav","3","","","","",""
"audio-button-response","7","28029","0.0-7.0","7712","approach_avoid_sv1","
","
","
","
","
","","","","","","1221","audio/shark.wav","2","","","","",""
"preload","8","35956","0.0-8.0","7712","approach_avoid_sv1","
","
","
","
","
","true","false","[]","[]","[]","","","","","","","",""
"learning-instructions","9","42909","0.0-9.0-0.0","7712","approach_avoid_sv1","
","
","
","
","
","","","","","","2472.5","<p> Welcome back! </p><p> Last week, you had to make choices about lots of different items.  </p>","","0","instructions","","",""
"learning-instructions","10","49228","0.0-9.0-0.1","7712","approach_avoid_sv1","
","
","
","
","
","","","","","","2212.6999999284744","<p> Today, we are going to ask you to try to remember all the items. </p>","","0","instructions","","",""
"learning-instructions","11","60893","0.0-9.0-0.2","7712","approach_avoid_sv1","
","
","
","
","
","","","","","","1527.2000000476837","<p> On every trial, you will see an image. </p><p> The image may be an OLD image you saw during the games last week or it may be a NEW image that was not presented. </p>","","0","instructions","","",""
"learning-instructions","12","70749","0.0-9.0-0.3","7712","approach_avoid_sv1","
","
","
","
","
","","","","","","1362.1000000238419","<p> You need to select whether the image is:  </p><p>  'Definitely old', 'Maybe old', 'Maybe new', or 'Definitely new.'  </p><div class=""mem-choice-instructions-grid""><div class=""choice-option"" id=""choice-option-1"" ><img src=""images/definitely_old_1.png"" id=""choice-option-img-1"" class=""choice-option-img"" stage=""1""></div><div class=""choice-option"" id=""choice-option-2"" ><img src=""images/maybe_old_1.png"" id=""choice-option-img-2"" class=""choice-option-img"" stage=""1""></div><div class=""choice-option"" id=""choice-option-3"" ><img src=""images/maybe_new_1.png"" id=""choice-option-img-3"" class=""choice-option-img"" stage=""1""></div><div class=""choice-option"" id=""choice-option-4"" > <img src=""images/definitely_new_1.png"" id=""choice-option-img-4"" class=""choice-option-img"" stage=""1""></div></div>","","0","instructions","","",""
"learning-instructions","13","78940","0.0-9.0-0.4","7712","approach_avoid_sv1","
","
","
","
","
","","","","","","1684.2000000476837","<p> You should use the 1, 2, 3, and 4 keys to make your responses.  </p><div class=""mem-choice-instructions-grid""><div class=""choice-option"" id=""choice-option-1"" ><img src=""images/definitely_old.png"" id=""choice-option-img-1"" class=""choice-option-img"" stage=""1""></div><div class=""choice-option"" id=""choice-option-2"" ><img src=""images/maybe_old.png"" id=""choice-option-img-2"" class=""choice-option-img"" stage=""1""></div><div class=""choice-option"" id=""choice-option-3"" ><img src=""images/maybe_new.png"" id=""choice-option-img-3"" class=""choice-option-img"" stage=""1""></div><div class=""choice-option"" id=""choice-option-4"" > <img src=""images/definitely_new.png"" id=""choice-option-img-4"" class=""choice-option-img"" stage=""1""></div></div>","","0","instructions","","",""
"learning-instructions","14","87052","0.0-9.0-0.5","7712","approach_avoid_sv1","
","
","
","
","
","","","","","","1787.0999999046326","<p> You will have 10 seconds to make each response.  </p><p>  Make sure to respond before time runs out! </p>","","0","instructions","","",""
"learning-instructions","15","96332","0.0-9.0-0.6","7712","approach_avoid_sv1","
","
","
","
","
","","","","","","2207.399999976158","<p> Today, you will see each image ONCE only.  </p><p>  That means none of the images will repeat. </p>","","0","instructions","","",""
"learning-instructions","16","110276","0.0-9.0-0.7","7712","approach_avoid_sv1","
","
","
","
","
","","","","","","1271","<p> Before you play the real game, it is time to practice. </p><p>  Just like in the real game, some of the images in the practice will be ones you have seen before. </p><p>  Others will be entirely new. </p>","","0","instructions","","",""
"html-button-response","17","111948","0.0-10.0","7712","approach_avoid_sv1","
","
","
","
","
","","","","","","1570.1000000238419","<p> Ready to practice? </p><p> Remember, use the 1, 2, 3, and 4 keys to make your responses. </p>","0","","instructions","","",""
"html-keyboard-response","18","112574","0.0-11.0-0.0","7712","approach_avoid_sv1","
","
","
","
","
","","","","","","null","<div style=""font-size:60px;"">+</div>","null","","fixation","","",""
"memory-trial","19","117253","0.0-11.0-1.0","7712","approach_avoid_sv1","
","
","
","
","
","","","","","","3655.399999976158","images/ball2.png","","","practice","1","definitely_old",""
"html-keyboard-response","20","117763","0.0-11.0-0.1","7712","approach_avoid_sv1","
","
","
","
","
","","","","","","null","<div style=""font-size:60px;"">+</div>","null","","fixation","","",""
"memory-trial","21","124513","0.0-11.0-1.1","7712","approach_avoid_sv1","
","
","
","
","
","","","","","","5730.100000023842","images/racket3.png","","","practice","3","maybe_new",""
"html-keyboard-response","22","125023","0.0-11.0-0.2","7712","approach_avoid_sv1","
","
","
","
","
","","","","","","null","<div style=""font-size:60px;"">+</div>","null","","fixation","","",""
"memory-trial","23","128143","0.0-11.0-1.2","7712","approach_avoid_sv1","
","
","
","
","
","","","","","","2112.399999976158","images/ball5.png","","","practice","1","definitely_old",""
"html-keyboard-response","24","128663","0.0-11.0-0.3","7712","approach_avoid_sv1","
","
","
","
","
","","","","","","null","<div style=""font-size:60px;"">+</div>","null","","fixation","","",""
"memory-trial","25","131312","0.0-11.0-1.3","7712","approach_avoid_sv1","
","
","
","
","
","","","","","","1638.2999999523163","images/ball1.png","","","practice","2","maybe_old",""
"html-keyboard-response","26","131824","0.0-11.0-0.4","7712","approach_avoid_sv1","
","
","
","
","
","","","","","","null","<div style=""font-size:60px;"">+</div>","null","","fixation","","",""
"memory-trial","27","135813","0.0-11.0-1.4","7712","approach_avoid_sv1","
","
","
","
","
","","","","","","2965.399999976158","images/racket5.png","","","practice","4","definitely_new",""
"html-keyboard-response","28","136323","0.0-11.0-0.5","7712","approach_avoid_sv1","
","
","
","
","
","","","","","","null","<div style=""font-size:60px;"">+</div>","null","","fixation","","",""
"memory-trial","29","138663","0.0-11.0-1.5","7712","approach_avoid_sv1","
","
","
","
","
","","","","","","1331.3000000715256","images/racket1.png","","","practice","3","maybe_new",""
"html-keyboard-response","30","139165","0.0-11.0-0.6","7712","approach_avoid_sv1","
","
","
","
","
","","","","","","null","<div style=""font-size:60px;"">+</div>","null","","fixation","","",""
"memory-trial","31","142460","0.0-11.0-1.6","7712","approach_avoid_sv1","
","
","
","
","
","","","","","","2290.600000023842","images/ball3.png","","","practice","4","definitely_new",""
"html-keyboard-response","32","142962","0.0-11.0-0.7","7712","approach_avoid_sv1","
","
","
","
","
","","","","","","null","<div style=""font-size:60px;"">+</div>","null","","fixation","","",""
"memory-trial","33","144909","0.0-11.0-1.7","7712","approach_avoid_sv1","
","
","
","
","
","","","","","","944.3999999761581","images/racket2.png","","","practice","3","maybe_new",""
"learning-instructions","34","154211","0.0-12.0-0.0","7712","approach_avoid_sv1","
","
","
","
","
","","","","","","1934.7000000476837","<p> Great! You have completed the practice. </p><p> Before you start, we're going to ask you a few questions about how the game works.  </p>","","0","instructions","","",""
"preload","35","158589","0.0-13.0","7712","approach_avoid_sv1","
","
","
","
","
","true","false","[]","[]","[]","","","","","","","",""
"comp-q","36","165323","0.0-14.0-0.0","7712","approach_avoid_sv1","
","
","
","
","
","","","","","","906.3000000715256","<p> <b> True or False? </b> </p><p> In this game, you will only see each image once. </p>","","0","comp_question","","","true"
"comp-q","37","172715","0.0-14.0-1.0","7712","approach_avoid_sv1","
","
","
","
","
","","","","","","1058.1999999284744","<p> <b> That's right! </b> You will see many different images <i> one time each </i> in this game. </p>","","0","comp_answer","","",""
"comp-q","38","178651","0.0-15.0-0.0","7712","approach_avoid_sv1","
","
","
","
","
","","","","","","903.7999999523163","<p> <b> True or False? </b> </p><p> You should use the mouse and click to make your response. </p>","","1","comp_question","","","true"
"comp-q","39","186411","0.0-15.0-1.0","7712","approach_avoid_sv1","
","
","
","
","
","","","","","","1244.6999999284744","<p><b> That's right! </b> You should use the '1', '2', '3', and '4' keys to make your response. </p>","","0","comp_answer","","",""
"comp-q","40","193699","0.0-16.0-0.0","7712","approach_avoid_sv1","
","
","
","
","
","","","","","","1602.8999999761581","<p> <b> True or False? </b> </p><p> You will have as much time as you want to make each choice. </p>","","1","comp_question","","","true"
"comp-q","41","199771","0.0-16.0-1.0","7712","approach_avoid_sv1","
","
","
","
","
","","","","","","1374.2000000476837","<p> <b> That's right! </b> You will only have 10 seconds to make each choice. </p>","","0","comp_answer","","",""
"learning-instructions","42","219299","0.0-17.0","7712","approach_avoid_sv1","
","
","
","
","
","","","","","","10862","<p> Great! You are now ready to begin the game. </p><p> Remember, use the 1, 2, 3, and 4 keys to make your responses. </p>","","0","instructions","","",""
"html-keyboard-response","43","219902","0.0-18.0-0.0","7712","approach_avoid_sv1","
","
","
","
","
","","","","","","null","<div style=""font-size:60px;"">+</div>","null","","fixation","","",""
"memory-trial","44","226758","0.0-18.0-1.0","7712","approach_avoid_sv1","
","
","
","
","
","","","","","","5852.600000023842","images/horse2.png","","","memory_trial","3","maybe_new",""
"html-keyboard-response","45","227264","0.0-18.0-0.1","7712","approach_avoid_sv1","
","
","
","
","
","","","","","","null","<div style=""font-size:60px;"">+</div>","null","","fixation","","",""
"memory-trial","46","233064","0.0-18.0-1.1","7712","approach_avoid_sv1","
","
","
","
","
","","","","","","4788.600000023842","images/plane2.png","","","memory_trial","4","definitely_new",""
"html-keyboard-response","47","233574","0.0-18.0-0.2","7712","approach_avoid_sv1","
","
","
","
","
","","","","","","null","<div style=""font-size:60px;"">+</div>","null","","fixation","","",""
"memory-trial","48","236174","0.0-18.0-1.2","7712","approach_avoid_sv1","
","
","
","
","
","","","","","","1594.0999999046326","images/sheep1.png","","","memory_trial","3","maybe_new",""
"html-keyboard-response","49","236684","0.0-18.0-0.3","7712","approach_avoid_sv1","
","
","
","
","
","","","","","","null","<div style=""font-size:60px;"">+</div>","null","","fixation","","",""
"memory-trial","50","238681","0.0-18.0-1.3","7712","approach_avoid_sv1","
","
","
","
","
","","","","","","993","images/sheep3.png","","","memory_trial","3","maybe_new",""
"html-keyboard-response","51","239184","0.0-18.0-0.4","7712","approach_avoid_sv1","
","
","
","
","
","","","","","","null","<div style=""font-size:60px;"">+</div>","null","","fixation","","",""
"memory-trial","52","241240","0.0-18.0-1.4","7712","approach_avoid_sv1","
","
","
","
","
","","","","","","1053.3000000715256","images/bush8.png","","","memory_trial","3","maybe_new",""
"html-keyboard-response","53","241743","0.0-18.0-0.5","7712","approach_avoid_sv1","
","
","
","
","
","","","","","","null","<div style=""font-size:60px;"">+</div>","null","","fixation","","",""
"memory-trial","54","243828","0.0-18.0-1.5","7712","approach_avoid_sv1","
","
","
","
","
","","","","","","1082.6000000238419","images/straw8.png","","","memory_trial","4","definitely_new",""
"html-keyboard-response","55","244330","0.0-18.0-0.6","7712","approach_avoid_sv1","
","
","
","
","
","","","","","","null","<div style=""font-size:60px;"">+</div>","null","","fixation","","",""
"memory-trial","56","246466","0.0-18.0-1.6","7712","approach_avoid_sv1","
","
","
","
","
","","","","","","1132.2000000476837","images/plane8.png","","","memory_trial","4","definitely_new",""
"html-keyboard-response","57","246968","0.0-18.0-0.7","7712","approach_avoid_sv1","
","
","
","
","
","","","","","","null","<div style=""font-size:60px;"">+</div>","null","","fixation","","",""
"memory-trial","58","249325","0.0-18.0-1.7","7712","approach_avoid_sv1","
","
","
","
","
","","","","","","1353.5","images/dog7.png","","","memory_trial","4","definitely_new",""
"html-keyboard-response","59","249827","0.0-18.0-0.8","7712","approach_avoid_sv1","
","
","
","
","
","","","","","","null","<div style=""font-size:60px;"">+</div>","null","","fixation","","",""
"memory-trial","60","252878","0.0-18.0-1.8","7712","approach_avoid_sv1","
","
","
","
","
","","","","","","2047.7000000476837","images/boat7.png","","","memory_trial","3","maybe_new",""
"html-keyboard-response","61","253379","0.0-18.0-0.9","7712","approach_avoid_sv1","
","
","
","
","
","","","","","","null","<div style=""font-size:60px;"">+</div>","null","","fixation","","",""
"memory-trial","62","255546","0.0-18.0-1.9","7712","approach_avoid_sv1","
","
","
","
","
","","","","","","1161.8999999761581","images/cow1.png","","","memory_trial","4","definitely_new",""
"html-keyboard-response","63","256048","0.0-18.0-0.10","7712","approach_avoid_sv1","
","
","
","
","
","","","","","","null","<div style=""font-size:60px;"">+</div>","null","","fixation","","",""
"memory-trial","64","258771","0.0-18.0-1.10","7712","approach_avoid_sv1","
","
","
","
","
","","","","","","1719.3000000715256","images/chair5.png","","","memory_trial","3","maybe_new",""
"html-keyboard-response","65","259273","0.0-18.0-0.11","7712","approach_avoid_sv1","
","
","
","
","
","","","","","","null","<div style=""font-size:60px;"">+</div>","null","","fixation","","",""
"memory-trial","66","262037","0.0-18.0-1.11","7712","approach_avoid_sv1","
","
","
","
","
","","","","","","1760.7000000476837","images/orange7.png","","","memory_trial","2","maybe_old",""
"html-keyboard-response","67","262540","0.0-18.0-0.12","7712","approach_avoid_sv1","
","
","
","
","
","","","","","","null","<div style=""font-size:60px;"">+</div>","null","","fixation","","",""
"memory-trial","68","266648","0.0-18.0-1.12","7712","approach_avoid_sv1","
","
","
","
","
","","","","","","3103.5999999046326","images/banana5.png","","","memory_trial","3","maybe_new",""
"html-keyboard-response","69","267150","0.0-18.0-0.13","7712","approach_avoid_sv1","
","
","
","
","
","","","","","","null","<div style=""font-size:60px;"">+</div>","null","","fixation","","",""
"memory-trial","70","269722","0.0-18.0-1.13","7712","approach_avoid_sv1","
","
","
","
","
","","","","","","1568.2999999523163","images/flower8.png","","","memory_trial","4","definitely_new",""
"html-keyboard-response","71","270224","0.0-18.0-0.14","7712","approach_avoid_sv1","
","
","
","
","
","","","","","","null","<div style=""font-size:60px;"">+</div>","null","","fixation","","",""
"memory-trial","72","273128","0.0-18.0-1.14","7712","approach_avoid_sv1","
","
","
","
","
","","","","","","1898.8999999761581","images/truck4.png","","","memory_trial","3","maybe_new",""
"html-keyboard-response","73","273629","0.0-18.0-0.15","7712","approach_avoid_sv1","
","
","
","
","
","","","","","","null","<div style=""font-size:60px;"">+</div>","null","","fixation","","",""
"memory-trial","74","278205","0.0-18.0-1.15","7712","approach_avoid_sv1","
","
","
","
","
","","","","","","3572.399999976158","images/tree4.png","","","memory_trial","3","maybe_new",""
"html-keyboard-response","75","278708","0.0-18.0-0.16","7712","approach_avoid_sv1","
","
","
","
","
","","","","","","null","<div style=""font-size:60px;"">+</div>","null","","fixation","","",""
"memory-trial","76","281779","0.0-18.0-1.16","7712","approach_avoid_sv1","
","
","
","
","
","","","","","","2067.2000000476837","images/bush1.png","","","memory_trial","3","maybe_new",""
"html-keyboard-response","77","282282","0.0-18.0-0.17","7712","approach_avoid_sv1","
","
","
","
","
","","","","","","null","<div style=""font-size:60px;"">+</div>","null","","fixation","","",""
"memory-trial","78","284595","0.0-18.0-1.17","7712","approach_avoid_sv1","
","
","
","
","
","","","","","","1309.4000000953674","images/orange8.png","","","memory_trial","2","maybe_old",""
"html-keyboard-response","79","285098","0.0-18.0-0.18","7712","approach_avoid_sv1","
","
","
","
","
","","","","","","null","<div style=""font-size:60px;"">+</div>","null","","fixation","","",""
"memory-trial","80","289235","0.0-18.0-1.18","7712","approach_avoid_sv1","
","
","
","
","
","","","","","","3133.9000000953674","images/tree2.png","","","memory_trial","1","definitely_old",""
"html-keyboard-response","81","289737","0.0-18.0-0.19","7712","approach_avoid_sv1","
","
","
","
","
","","","","","","null","<div style=""font-size:60px;"">+</div>","null","","fixation","","",""
"memory-trial","82","293078","0.0-18.0-1.19","7712","approach_avoid_sv1","
","
","
","
","
","","","","","","2336","images/flower2.png","","","memory_trial","4","definitely_new",""
"html-keyboard-response","83","293579","0.0-18.0-0.20","7712","approach_avoid_sv1","
","
","
","
","
","","","","","","null","<div style=""font-size:60px;"">+</div>","null","","fixation","","",""
"memory-trial","84","295637","0.0-18.0-1.20","7712","approach_avoid_sv1","
","
","
","
","
","","","","","","1052.7999999523163","images/orange1.png","","","memory_trial","2","maybe_old",""
"html-keyboard-response","85","296139","0.0-18.0-0.21","7712","approach_avoid_sv1","
","
","
","
","
","","","","","","null","<div style=""font-size:60px;"">+</div>","null","","fixation","","",""
"memory-trial","86","298543","0.0-18.0-1.21","7712","approach_avoid_sv1","
","
","
","
","
","","","","","","1400.5","images/boat5.png","","","memory_trial","3","maybe_new",""
"html-keyboard-response","87","299045","0.0-18.0-0.22","7712","approach_avoid_sv1","
","
","
","
","
","","","","","","null","<div style=""font-size:60px;"">+</div>","null","","fixation","","",""
"memory-trial","88","302047","0.0-18.0-1.22","7712","approach_avoid_sv1","
","
","
","
","
","","","","","","1998.1000000238419","images/rabbit5.png","","","memory_trial","1","definitely_old",""
"html-keyboard-response","89","302549","0.0-18.0-0.23","7712","approach_avoid_sv1","
","
","
","
","
","","","","","","null","<div style=""font-size:60px;"">+</div>","null","","fixation","","",""
"memory-trial","90","305701","0.0-18.0-1.23","7712","approach_avoid_sv1","
","
","
","
","
","","","","","","2146.7000000476837","images/chair8.png","","","memory_trial","3","maybe_new",""
"html-keyboard-response","91","306203","0.0-18.0-0.24","7712","approach_avoid_sv1","
","
","
","
","
","","","","","","null","<div style=""font-size:60px;"">+</div>","null","","fixation","","",""
"memory-trial","92","308688","0.0-18.0-1.24","7712","approach_avoid_sv1","
","
","
","
","
","","","","","","1480.2999999523163","images/rodent5.png","","","memory_trial","3","maybe_new",""
"html-keyboard-response","93","309190","0.0-18.0-0.25","7712","approach_avoid_sv1","
","
","
","
","
","","","","","","null","<div style=""font-size:60px;"">+</div>","null","","fixation","","",""
"memory-trial","94","313028","0.0-18.0-1.25","7712","approach_avoid_sv1","
","
","
","
","
","","","","","","2834","images/dog3.png","","","memory_trial","4","definitely_new",""
"html-keyboard-response","95","313530","0.0-18.0-0.26","7712","approach_avoid_sv1","
","
","
","
","
","","","","","","null","<div style=""font-size:60px;"">+</div>","null","","fixation","","",""
"memory-trial","96","316601","0.0-18.0-1.26","7712","approach_avoid_sv1","
","
","
","
","
","","","","","","2066.2999999523163","images/train2.png","","","memory_trial","3","maybe_new",""
"html-keyboard-response","97","317103","0.0-18.0-0.27","7712","approach_avoid_sv1","
","
","
","
","
","","","","","","null","<div style=""font-size:60px;"">+</div>","null","","fixation","","",""
"memory-trial","98","320544","0.0-18.0-1.27","7712","approach_avoid_sv1","
","
","
","
","
","","","","","","2436","images/banana4.png","","","memory_trial","3","maybe_new",""
"html-keyboard-response","99","321046","0.0-18.0-0.28","7712","approach_avoid_sv1","
","
","
","
","
","","","","","","null","<div style=""font-size:60px;"">+</div>","null","","fixation","","",""
"memory-trial","100","323092","0.0-18.0-1.28","7712","approach_avoid_sv1","
","
","
","
","
","","","","","","1042","images/table7.png","","","memory_trial","2","maybe_old",""
"html-keyboard-response","101","323594","0.0-18.0-0.29","7712","approach_avoid_sv1","
","
","
","
","
","","","","","","null","<div style=""font-size:60px;"">+</div>","null","","fixation","","",""
"memory-trial","102","326336","0.0-18.0-1.29","7712","approach_avoid_sv1","
","
","
","
","
","","","","","","1738.7000000476837","images/tree7.png","","","memory_trial","1","definitely_old",""
"html-keyboard-response","103","326838","0.0-18.0-0.30","7712","approach_avoid_sv1","
","
","
","
","
","","","","","","null","<div style=""font-size:60px;"">+</div>","null","","fixation","","",""
"memory-trial","104","330109","0.0-18.0-1.30","7712","approach_avoid_sv1","
","
","
","
","
","","","","","","2265.399999976158","images/cat8.png","","","memory_trial","1","definitely_old",""
"html-keyboard-response","105","330610","0.0-18.0-0.31","7712","approach_avoid_sv1","
","
","
","
","
","","","","","","null","<div style=""font-size:60px;"">+</div>","null","","fixation","","",""
"memory-trial","106","334101","0.0-18.0-1.31","7712","approach_avoid_sv1","
","
","
","
","
","","","","","","2485.600000023842","images/chair6.png","","","memory_trial","3","maybe_new",""
"html-keyboard-response","107","334603","0.0-18.0-0.32","7712","approach_avoid_sv1","
","
","
","
","
","","","","","","null","<div style=""font-size:60px;"">+</div>","null","","fixation","","",""
"memory-trial","108","337136","0.0-18.0-1.32","7712","approach_avoid_sv1","
","
","
","
","
","","","","","","1528.8999999761581","images/tree1.png","","","memory_trial","4","definitely_new",""
"html-keyboard-response","109","337638","0.0-18.0-0.33","7712","approach_avoid_sv1","
","
","
","
","
","","","","","","null","<div style=""font-size:60px;"">+</div>","null","","fixation","","",""
"memory-trial","110","340391","0.0-18.0-1.33","7712","approach_avoid_sv1","
","
","
","
","
","","","","","","1749.7999999523163","images/apple1.png","","","memory_trial","1","definitely_old",""
"html-keyboard-response","111","340893","0.0-18.0-0.34","7712","approach_avoid_sv1","
","
","
","
","
","","","","","","null","<div style=""font-size:60px;"">+</div>","null","","fixation","","",""
"memory-trial","112","343577","0.0-18.0-1.34","7712","approach_avoid_sv1","
","
","
","
","
","","","","","","1678.8999999761581","images/cactus5.png","","","memory_trial","1","definitely_old",""
"html-keyboard-response","113","344078","0.0-18.0-0.35","7712","approach_avoid_sv1","
","
","
","
","
","","","","","","null","<div style=""font-size:60px;"">+</div>","null","","fixation","","",""
"memory-trial","114","346363","0.0-18.0-1.35","7712","approach_avoid_sv1","
","
","
","
","
","","","","","","1280.5999999046326","images/cow4.png","","","memory_trial","3","maybe_new",""
"html-keyboard-response","115","346865","0.0-18.0-0.36","7712","approach_avoid_sv1","
","
","
","
","
","","","","","","null","<div style=""font-size:60px;"">+</div>","null","","fixation","","",""
"memory-trial","116","349419","0.0-18.0-1.36","7712","approach_avoid_sv1","
","
","
","
","
","","","","","","1550.7000000476837","images/straw2.png","","","memory_trial","3","maybe_new",""
"html-keyboard-response","117","349921","0.0-18.0-0.37","7712","approach_avoid_sv1","
","
","
","
","
","","","","","","null","<div style=""font-size:60px;"">+</div>","null","","fixation","","",""
"memory-trial","118","351948","0.0-18.0-1.37","7712","approach_avoid_sv1","
","
","
","
","
","","","","","","1022.7999999523163","images/train4.png","","","memory_trial","3","maybe_new",""
"html-keyboard-response","119","352450","0.0-18.0-0.38","7712","approach_avoid_sv1","
","
","
","
","
","","","","","","null","<div style=""font-size:60px;"">+</div>","null","","fixation","","",""
"memory-trial","120","355095","0.0-18.0-1.38","7712","approach_avoid_sv1","
","
","
","
","
","","","","","","1640","images/rabbit7.png","","","memory_trial","3","maybe_new",""
"html-keyboard-response","121","355597","0.0-18.0-0.39","7712","approach_avoid_sv1","
","
","
","
","
","","","","","","null","<div style=""font-size:60px;"">+</div>","null","","fixation","","",""
"memory-trial","122","358408","0.0-18.0-1.39","7712","approach_avoid_sv1","
","
","
","
","
","","","","","","1807.2000000476837","images/sofa4.png","","","memory_trial","3","maybe_new",""
"html-keyboard-response","123","358910","0.0-18.0-0.40","7712","approach_avoid_sv1","
","
","
","
","
","","","","","","null","<div style=""font-size:60px;"">+</div>","null","","fixation","","",""
"memory-trial","124","361979","0.0-18.0-1.40","7712","approach_avoid_sv1","
","
","
","
","
","","","","","","2065.399999976158","images/bed6.png","","","memory_trial","4","definitely_new",""
"html-keyboard-response","125","362481","0.0-18.0-0.41","7712","approach_avoid_sv1","
","
","
","
","
","","","","","","null","<div style=""font-size:60px;"">+</div>","null","","fixation","","",""
"memory-trial","126","365048","0.0-18.0-1.41","7712","approach_avoid_sv1","
","
","
","
","
","","","","","","1561.1000000238419","images/train6.png","","","memory_trial","3","maybe_new",""
"html-button-response","127","368489","0.0-18.0-2.41-0.41","7712","approach_avoid_sv1","
","
","
","
","
","","","","","","3439.2000000476837","<p> Take a break! </p><p> Click the button to continue. </p>","0","","break","","",""
"html-keyboard-response","128","368990","0.0-18.0-0.42","7712","approach_avoid_sv1","
","
","
","
","
","","","","","","null","<div style=""font-size:60px;"">+</div>","null","","fixation","","",""
"memory-trial","129","371399","0.0-18.0-1.42","7712","approach_avoid_sv1","
","
","
","
","
","","","","","","1405.1000000238419","images/flower4.png","","","memory_trial","3","maybe_new",""
"html-keyboard-response","130","371902","0.0-18.0-0.43","7712","approach_avoid_sv1","
","
","
","
","
","","","","","","null","<div style=""font-size:60px;"">+</div>","null","","fixation","","",""
"memory-trial","131","374097","0.0-18.0-1.43","7712","approach_avoid_sv1","
","
","
","
","
","","","","","","1191.3999999761581","images/cow3.png","","","memory_trial","3","maybe_new",""
"html-keyboard-response","132","374599","0.0-18.0-0.44","7712","approach_avoid_sv1","
","
","
","
","
","","","","","","null","<div style=""font-size:60px;"">+</div>","null","","fixation","","",""
"memory-trial","133","375649","0.0-18.0-1.44","7712","approach_avoid_sv1","
","
","
","
","
","","","","","","46.39999997615814","images/bush3.png","","","memory_trial","4","definitely_new",""
"html-keyboard-response","134","376151","0.0-18.0-0.45","7712","approach_avoid_sv1","
","
","
","
","
","","","","","","null","<div style=""font-size:60px;"">+</div>","null","","fixation","","",""
"memory-trial","135","378108","0.0-18.0-1.45","7712","approach_avoid_sv1","
","
","
","
","
","","","","","","952.1999999284744","images/truck1.png","","","memory_trial","4","definitely_new",""
"html-keyboard-response","136","378609","0.0-18.0-0.46","7712","approach_avoid_sv1","
","
","
","
","
","","","","","","null","<div style=""font-size:60px;"">+</div>","null","","fixation","","",""
"memory-trial","137","381998","0.0-18.0-1.46","7712","approach_avoid_sv1","
","
","
","
","
","","","","","","2385.7999999523163","images/sheep2.png","","","memory_trial","4","definitely_new",""
"html-keyboard-response","138","382500","0.0-18.0-0.47","7712","approach_avoid_sv1","
","
","
","
","
","","","","","","null","<div style=""font-size:60px;"">+</div>","null","","fixation","","",""
"memory-trial","139","385522","0.0-18.0-1.47","7712","approach_avoid_sv1","
","
","
","
","
","","","","","","2018.5","images/chair4.png","","","memory_trial","4","definitely_new",""
"html-keyboard-response","140","386024","0.0-18.0-0.48","7712","approach_avoid_sv1","
","
","
","
","
","","","","","","null","<div style=""font-size:60px;"">+</div>","null","","fixation","","",""
"memory-trial","141","387862","0.0-18.0-1.48","7712","approach_avoid_sv1","
","
","
","
","
","","","","","","832.7999999523163","images/rabbit3.png","","","memory_trial","3","maybe_new",""
"html-keyboard-response","142","388364","0.0-18.0-0.49","7712","approach_avoid_sv1","
","
","
","
","
","","","","","","null","<div style=""font-size:60px;"">+</div>","null","","fixation","","",""
"memory-trial","143","390610","0.0-18.0-1.49","7712","approach_avoid_sv1","
","
","
","
","
","","","","","","1241.7999999523163","images/sofa7.png","","","memory_trial","4","definitely_new",""
"html-keyboard-response","144","391112","0.0-18.0-0.50","7712","approach_avoid_sv1","
","
","
","
","
","","","","","","null","<div style=""font-size:60px;"">+</div>","null","","fixation","","",""
"memory-trial","145","394083","0.0-18.0-1.50","7712","approach_avoid_sv1","
","
","
","
","
","","","","","","1966.8999999761581","images/straw7.png","","","memory_trial","2","maybe_old",""
"html-keyboard-response","146","394585","0.0-18.0-0.51","7712","approach_avoid_sv1","
","
","
","
","
","","","","","","null","<div style=""font-size:60px;"">+</div>","null","","fixation","","",""
"memory-trial","147","399000","0.0-18.0-1.51","7712","approach_avoid_sv1","
","
","
","
","
","","","","","","3410.1999999284744","images/table6.png","","","memory_trial","2","maybe_old",""
"html-keyboard-response","148","399502","0.0-18.0-0.52","7712","approach_avoid_sv1","
","
","
","
","
","","","","","","null","<div style=""font-size:60px;"">+</div>","null","","fixation","","",""
"memory-trial","149","401798","0.0-18.0-1.52","7712","approach_avoid_sv1","
","
","
","
","
","","","","","","1289.8999999761581","images/cat6.png","","","memory_trial","1","definitely_old",""
"html-keyboard-response","150","402300","0.0-18.0-0.53","7712","approach_avoid_sv1","
","
","
","
","
","","","","","","null","<div style=""font-size:60px;"">+</div>","null","","fixation","","",""
"memory-trial","151","406226","0.0-18.0-1.53","7712","approach_avoid_sv1","
","
","
","
","
","","","","","","2921.100000023842","images/boat1.png","","","memory_trial","2","maybe_old",""
"html-keyboard-response","152","406727","0.0-18.0-0.54","7712","approach_avoid_sv1","
","
","
","
","
","","","","","","null","<div style=""font-size:60px;"">+</div>","null","","fixation","","",""
"memory-trial","153","411093","0.0-18.0-1.54","7712","approach_avoid_sv1","
","
","
","
","
","","","","","","3360.600000023842","images/truck5.png","","","memory_trial","2","maybe_old",""
"html-keyboard-response","154","411594","0.0-18.0-0.55","7712","approach_avoid_sv1","
","
","
","
","
","","","","","","null","<div style=""font-size:60px;"">+</div>","null","","fixation","","",""
"memory-trial","155","414388","0.0-18.0-1.55","7712","approach_avoid_sv1","
","
","
","
","
","","","","","","1788.7000000476837","images/sheep5.png","","","memory_trial","3","maybe_new",""
"html-keyboard-response","156","414889","0.0-18.0-0.56","7712","approach_avoid_sv1","
","
","
","
","
","","","","","","null","<div style=""font-size:60px;"">+</div>","null","","fixation","","",""
"memory-trial","157","416049","0.0-18.0-1.56","7712","approach_avoid_sv1","
","
","
","
","
","","","","","","155.30000007152557","images/cactus6.png","","","memory_trial","4","definitely_new",""
"html-keyboard-response","158","416551","0.0-18.0-0.57","7712","approach_avoid_sv1","
","
","
","
","
","","","","","","null","<div style=""font-size:60px;"">+</div>","null","","fixation","","",""
"memory-trial","159","418468","0.0-18.0-1.57","7712","approach_avoid_sv1","
","
","
","
","
","","","","","","912.8999999761581","images/horse6.png","","","memory_trial","4","definitely_new",""
"html-keyboard-response","160","418969","0.0-18.0-0.58","7712","approach_avoid_sv1","
","
","
","
","
","","","","","","null","<div style=""font-size:60px;"">+</div>","null","","fixation","","",""
"memory-trial","161","420896","0.0-18.0-1.58","7712","approach_avoid_sv1","
","
","
","
","
","","","","","","923.1000000238419","images/horse3.png","","","memory_trial","4","definitely_new",""
"html-keyboard-response","162","421398","0.0-18.0-0.59","7712","approach_avoid_sv1","
","
","
","
","
","","","","","","null","<div style=""font-size:60px;"">+</div>","null","","fixation","","",""
"memory-trial","163","423503","0.0-18.0-1.59","7712","approach_avoid_sv1","
","
","
","
","
","","","","","","1101.7999999523163","images/truck2.png","","","memory_trial","1","definitely_old",""
"html-keyboard-response","164","424005","0.0-18.0-0.60","7712","approach_avoid_sv1","
","
","
","
","
","","","","","","null","<div style=""font-size:60px;"">+</div>","null","","fixation","","",""
"memory-trial","165","426938","0.0-18.0-1.60","7712","approach_avoid_sv1","
","
","
","
","
","","","","","","1928.3999999761581","images/bed1.png","","","memory_trial","2","maybe_old",""
"html-keyboard-response","166","427440","0.0-18.0-0.61","7712","approach_avoid_sv1","
","
","
","
","
","","","","","","null","<div style=""font-size:60px;"">+</div>","null","","fixation","","",""
"memory-trial","167","429665","0.0-18.0-1.61","7712","approach_avoid_sv1","
","
","
","
","
","","","","","","1220.5","images/rabbit6.png","","","memory_trial","2","maybe_old",""
"html-keyboard-response","168","430166","0.0-18.0-0.62","7712","approach_avoid_sv1","
","
","
","
","
","","","","","","null","<div style=""font-size:60px;"">+</div>","null","","fixation","","",""
"memory-trial","169","433079","0.0-18.0-1.62","7712","approach_avoid_sv1","
","
","
","
","
","","","","","","1908.2999999523163","images/rodent7.png","","","memory_trial","3","maybe_new",""
"html-keyboard-response","170","433581","0.0-18.0-0.63","7712","approach_avoid_sv1","
","
","
","
","
","","","","","","null","<div style=""font-size:60px;"">+</div>","null","","fixation","","",""
"memory-trial","171","436103","0.0-18.0-1.63","7712","approach_avoid_sv1","
","
","
","
","
","","","","","","1519.3999999761581","images/chair7.png","","","memory_trial","4","definitely_new",""
"html-keyboard-response","172","436605","0.0-18.0-0.64","7712","approach_avoid_sv1","
","
","
","
","
","","","","","","null","<div style=""font-size:60px;"">+</div>","null","","fixation","","",""
"memory-trial","173","438493","0.0-18.0-1.64","7712","approach_avoid_sv1","
","
","
","
","
","","","","","","882.5","images/chair1.png","","","memory_trial","4","definitely_new",""
"html-keyboard-response","174","438994","0.0-18.0-0.65","7712","approach_avoid_sv1","
","
","
","
","
","","","","","","null","<div style=""font-size:60px;"">+</div>","null","","fixation","","",""
"memory-trial","175","442075","0.0-18.0-1.65","7712","approach_avoid_sv1","
","
","
","
","
","","","","","","2077.2999999523163","images/banana6.png","","","memory_trial","2","maybe_old",""
"html-keyboard-response","176","442577","0.0-18.0-0.66","7712","approach_avoid_sv1","
","
","
","
","
","","","","","","null","<div style=""font-size:60px;"">+</div>","null","","fixation","","",""
"memory-trial","177","445081","0.0-18.0-1.66","7712","approach_avoid_sv1","
","
","
","
","
","","","","","","1499.1999999284744","images/goat2.png","","","memory_trial","4","definitely_new",""
"html-keyboard-response","178","445582","0.0-18.0-0.67","7712","approach_avoid_sv1","
","
","
","
","
","","","","","","null","<div style=""font-size:60px;"">+</div>","null","","fixation","","",""
"memory-trial","179","447350","0.0-18.0-1.67","7712","approach_avoid_sv1","
","
","
","
","
","","","","","","763.7000000476837","images/goat4.png","","","memory_trial","4","definitely_new",""
"html-keyboard-response","180","447852","0.0-18.0-0.68","7712","approach_avoid_sv1","
","
","
","
","
","","","","","","null","<div style=""font-size:60px;"">+</div>","null","","fixation","","",""
"memory-trial","181","450156","0.0-18.0-1.68","7712","approach_avoid_sv1","
","
","
","
","
","","","","","","1301.2999999523163","images/banana1.png","","","memory_trial","4","definitely_new",""
"html-keyboard-response","182","450658","0.0-18.0-0.69","7712","approach_avoid_sv1","
","
","
","
","
","","","","","","null","<div style=""font-size:60px;"">+</div>","null","","fixation","","",""
"memory-trial","183","452426","0.0-18.0-1.69","7712","approach_avoid_sv1","
","
","
","
","
","","","","","","763.3000000715256","images/cow5.png","","","memory_trial","4","definitely_new",""
"html-keyboard-response","184","452928","0.0-18.0-0.70","7712","approach_avoid_sv1","
","
","
","
","
","","","","","","null","<div style=""font-size:60px;"">+</div>","null","","fixation","","",""
"memory-trial","185","454839","0.0-18.0-1.70","7712","approach_avoid_sv1","
","
","
","
","
","","","","","","908.5","images/plane4.png","","","memory_trial","4","definitely_new",""
"html-keyboard-response","186","455341","0.0-18.0-0.71","7712","approach_avoid_sv1","
","
","
","
","
","","","","","","null","<div style=""font-size:60px;"">+</div>","null","","fixation","","",""
"memory-trial","187","458546","0.0-18.0-1.71","7712","approach_avoid_sv1","
","
","
","
","
","","","","","","2201.600000023842","images/truck7.png","","","memory_trial","2","maybe_old",""
"html-keyboard-response","188","459048","0.0-18.0-0.72","7712","approach_avoid_sv1","
","
","
","
","
","","","","","","null","<div style=""font-size:60px;"">+</div>","null","","fixation","","",""
"memory-trial","189","460776","0.0-18.0-1.72","7712","approach_avoid_sv1","
","
","
","
","
","","","","","","722.6999999284744","images/cow2.png","","","memory_trial","4","definitely_new",""
"html-keyboard-response","190","461278","0.0-18.0-0.73","7712","approach_avoid_sv1","
","
","
","
","
","","","","","","null","<div style=""font-size:60px;"">+</div>","null","","fixation","","",""
"memory-trial","191","464219","0.0-18.0-1.73","7712","approach_avoid_sv1","
","
","
","
","
","","","","","","1937.6000000238419","images/orange6.png","","","memory_trial","2","maybe_old",""
"html-keyboard-response","192","464721","0.0-18.0-0.74","7712","approach_avoid_sv1","
","
","
","
","
","","","","","","null","<div style=""font-size:60px;"">+</div>","null","","fixation","","",""
"memory-trial","193","465861","0.0-18.0-1.74","7712","approach_avoid_sv1","
","
","
","
","
","","","","","","136","images/rabbit1.png","","","memory_trial","2","maybe_old",""
"html-keyboard-response","194","466363","0.0-18.0-0.75","7712","approach_avoid_sv1","
","
","
","
","
","","","","","","null","<div style=""font-size:60px;"">+</div>","null","","fixation","","",""
"memory-trial","195","468349","0.0-18.0-1.75","7712","approach_avoid_sv1","
","
","
","
","
","","","","","","983","images/truck6.png","","","memory_trial","2","maybe_old",""
"html-keyboard-response","196","468851","0.0-18.0-0.76","7712","approach_avoid_sv1","
","
","
","
","
","","","","","","null","<div style=""font-size:60px;"">+</div>","null","","fixation","","",""
"memory-trial","197","470838","0.0-18.0-1.76","7712","approach_avoid_sv1","
","
","
","
","
","","","","","","983.6000000238419","images/goat6.png","","","memory_trial","4","definitely_new",""
"html-keyboard-response","198","471340","0.0-18.0-0.77","7712","approach_avoid_sv1","
","
","
","
","
","","","","","","null","<div style=""font-size:60px;"">+</div>","null","","fixation","","",""
"memory-trial","199","474032","0.0-18.0-1.77","7712","approach_avoid_sv1","
","
","
","
","
","","","","","","1688.3999999761581","images/boat6.png","","","memory_trial","4","definitely_new",""
"html-keyboard-response","200","474534","0.0-18.0-0.78","7712","approach_avoid_sv1","
","
","
","
","
","","","","","","null","<div style=""font-size:60px;"">+</div>","null","","fixation","","",""
"memory-trial","201","477128","0.0-18.0-1.78","7712","approach_avoid_sv1","
","
","
","
","
","","","","","","1589.1000000238419","images/cactus7.png","","","memory_trial","1","definitely_old",""
"html-keyboard-response","202","477630","0.0-18.0-0.79","7712","approach_avoid_sv1","
","
","
","
","
","","","","","","null","<div style=""font-size:60px;"">+</div>","null","","fixation","","",""
"memory-trial","203","479721","0.0-18.0-1.79","7712","approach_avoid_sv1","
","
","
","
","
","","","","","","1087","images/cat3.png","","","memory_trial","1","definitely_old",""
"html-keyboard-response","204","480222","0.0-18.0-0.80","7712","approach_avoid_sv1","
","
","
","
","
","","","","","","null","<div style=""font-size:60px;"">+</div>","null","","fixation","","",""
"memory-trial","205","482154","0.0-18.0-1.80","7712","approach_avoid_sv1","
","
","
","
","
","","","","","","926.5","images/goat5.png","","","memory_trial","3","maybe_new",""
"html-keyboard-response","206","482656","0.0-18.0-0.81","7712","approach_avoid_sv1","
","
","
","
","
","","","","","","null","<div style=""font-size:60px;"">+</div>","null","","fixation","","",""
"memory-trial","207","486204","0.0-18.0-1.81","7712","approach_avoid_sv1","
","
","
","
","
","","","","","","2544.600000023842","images/apple7.png","","","memory_trial","4","definitely_new",""
"html-keyboard-response","208","486706","0.0-18.0-0.82","7712","approach_avoid_sv1","
","
","
","
","
","","","","","","null","<div style=""font-size:60px;"">+</div>","null","","fixation","","",""
"memory-trial","209","488891","0.0-18.0-1.82","7712","approach_avoid_sv1","
","
","
","
","
","","","","","","1180.5","images/cactus4.png","","","memory_trial","1","definitely_old",""
"html-keyboard-response","210","489393","0.0-18.0-0.83","7712","approach_avoid_sv1","
","
","
","
","
","","","","","","null","<div style=""font-size:60px;"">+</div>","null","","fixation","","",""
"memory-trial","211","492165","0.0-18.0-1.83","7712","approach_avoid_sv1","
","
","
","
","
","","","","","","1768.1999999284744","images/rabbit4.png","","","memory_trial","4","definitely_new",""
"html-keyboard-response","212","492667","0.0-18.0-0.84","7712","approach_avoid_sv1","
","
","
","
","
","","","","","","null","<div style=""font-size:60px;"">+</div>","null","","fixation","","",""
"memory-trial","213","494485","0.0-18.0-1.84","7712","approach_avoid_sv1","
","
","
","
","
","","","","","","813.2000000476837","images/boat8.png","","","memory_trial","4","definitely_new",""
"html-keyboard-response","214","494987","0.0-18.0-0.85","7712","approach_avoid_sv1","
","
","
","
","
","","","","","","null","<div style=""font-size:60px;"">+</div>","null","","fixation","","",""
"memory-trial","215","497958","0.0-18.0-1.85","7712","approach_avoid_sv1","
","
","
","
","
","","","","","","1967","images/train1.png","","","memory_trial","1","definitely_old",""
"html-keyboard-response","216","498460","0.0-18.0-0.86","7712","approach_avoid_sv1","
","
","
","
","
","","","","","","null","<div style=""font-size:60px;"">+</div>","null","","fixation","","",""
"memory-trial","217","501122","0.0-18.0-1.86","7712","approach_avoid_sv1","
","
","
","
","
","","","","","","1658.1000000238419","images/cat2.png","","","memory_trial","4","definitely_new",""
"html-keyboard-response","218","501624","0.0-18.0-0.87","7712","approach_avoid_sv1","
","
","
","
","
","","","","","","null","<div style=""font-size:60px;"">+</div>","null","","fixation","","",""
"memory-trial","219","503401","0.0-18.0-1.87","7712","approach_avoid_sv1","
","
","
","
","
","","","","","","773.8000000715256","images/sheep7.png","","","memory_trial","4","definitely_new",""
"html-keyboard-response","220","503903","0.0-18.0-0.88","7712","approach_avoid_sv1","
","
","
","
","
","","","","","","null","<div style=""font-size:60px;"">+</div>","null","","fixation","","",""
"memory-trial","221","505899","0.0-18.0-1.88","7712","approach_avoid_sv1","
","
","
","
","
","","","","","","992.6000000238419","images/straw6.png","","","memory_trial","4","definitely_new",""
"html-keyboard-response","222","506401","0.0-18.0-0.89","7712","approach_avoid_sv1","
","
","
","
","
","","","","","","null","<div style=""font-size:60px;"">+</div>","null","","fixation","","",""
"memory-trial","223","509193","0.0-18.0-1.89","7712","approach_avoid_sv1","
","
","
","
","
","","","","","","1788.2000000476837","images/bed3.png","","","memory_trial","4","definitely_new",""
"html-keyboard-response","224","509695","0.0-18.0-0.90","7712","approach_avoid_sv1","
","
","
","
","
","","","","","","null","<div style=""font-size:60px;"">+</div>","null","","fixation","","",""
"memory-trial","225","513513","0.0-18.0-1.90","7712","approach_avoid_sv1","
","
","
","
","
","","","","","","2814.3000000715256","images/orange3.png","","","memory_trial","3","maybe_new",""
"html-keyboard-response","226","514015","0.0-18.0-0.91","7712","approach_avoid_sv1","
","
","
","
","
","","","","","","null","<div style=""font-size:60px;"">+</div>","null","","fixation","","",""
"memory-trial","227","516779","0.0-18.0-1.91","7712","approach_avoid_sv1","
","
","
","
","
","","","","","","1759.5","images/cactus2.png","","","memory_trial","3","maybe_new",""
"html-button-response","228","518503","0.0-18.0-2.91-0.91","7712","approach_avoid_sv1","
","
","
","
","
","","","","","","1722.6000000238419","<p> Take a break! </p><p> Click the button to continue. </p>","0","","break","","",""
"html-keyboard-response","229","519004","0.0-18.0-0.92","7712","approach_avoid_sv1","
","
","
","
","
","","","","","","null","<div style=""font-size:60px;"">+</div>","null","","fixation","","",""
"memory-trial","230","521433","0.0-18.0-1.92","7712","approach_avoid_sv1","
","
","
","
","
","","","","","","1424","images/apple5.png","","","memory_trial","4","definitely_new",""
"html-keyboard-response","231","521935","0.0-18.0-0.93","7712","approach_avoid_sv1","
","
","
","
","
","","","","","","null","<div style=""font-size:60px;"">+</div>","null","","fixation","","",""
"memory-trial","232","524978","0.0-18.0-1.93","7712","approach_avoid_sv1","
","
","
","
","
","","","","","","2038.5","images/bed4.png","","","memory_trial","2","maybe_old",""
"html-keyboard-response","233","525480","0.0-18.0-0.94","7712","approach_avoid_sv1","
","
","
","
","
","","","","","","null","<div style=""font-size:60px;"">+</div>","null","","fixation","","",""
"memory-trial","234","528410","0.0-18.0-1.94","7712","approach_avoid_sv1","
","
","
","
","
","","","","","","1925.8000000715256","images/bush7.png","","","memory_trial","3","maybe_new",""
"html-keyboard-response","235","528912","0.0-18.0-0.95","7712","approach_avoid_sv1","
","
","
","
","
","","","","","","null","<div style=""font-size:60px;"">+</div>","null","","fixation","","",""
"memory-trial","236","531048","0.0-18.0-1.95","7712","approach_avoid_sv1","
","
","
","
","
","","","","","","1130.4000000953674","images/rodent6.png","","","memory_trial","4","definitely_new",""
"html-keyboard-response","237","531549","0.0-18.0-0.96","7712","approach_avoid_sv1","
","
","
","
","
","","","","","","null","<div style=""font-size:60px;"">+</div>","null","","fixation","","",""
"memory-trial","238","536450","0.0-18.0-1.96","7712","approach_avoid_sv1","
","
","
","
","
","","","","","","3897.7000000476837","images/cow8.png","","","memory_trial","4","definitely_new",""
"html-keyboard-response","239","536952","0.0-18.0-0.97","7712","approach_avoid_sv1","
","
","
","
","
","","","","","","null","<div style=""font-size:60px;"">+</div>","null","","fixation","","",""
"memory-trial","240","540480","0.0-18.0-1.97","7712","approach_avoid_sv1","
","
","
","
","
","","","","","","2524.100000023842","images/flower5.png","","","memory_trial","4","definitely_new",""
"html-keyboard-response","241","540983","0.0-18.0-0.98","7712","approach_avoid_sv1","
","
","
","
","
","","","","","","null","<div style=""font-size:60px;"">+</div>","null","","fixation","","",""
"memory-trial","242","542651","0.0-18.0-1.98","7712","approach_avoid_sv1","
","
","
","
","
","","","","","","664","images/apple3.png","","","memory_trial","4","definitely_new",""
"html-keyboard-response","243","543153","0.0-18.0-0.99","7712","approach_avoid_sv1","
","
","
","
","
","","","","","","null","<div style=""font-size:60px;"">+</div>","null","","fixation","","",""
"memory-trial","244","544909","0.0-18.0-1.99","7712","approach_avoid_sv1","
","
","
","
","
","","","","","","752.6999999284744","images/boat4.png","","","memory_trial","4","definitely_new",""
"html-keyboard-response","245","545411","0.0-18.0-0.100","7712","approach_avoid_sv1","
","
","
","
","
","","","","","","null","<div style=""font-size:60px;"">+</div>","null","","fixation","","",""
"memory-trial","246","548144","0.0-18.0-1.100","7712","approach_avoid_sv1","
","
","
","
","
","","","","","","1728.8999999761581","images/straw4.png","","","memory_trial","3","maybe_new",""
"html-keyboard-response","247","548646","0.0-18.0-0.101","7712","approach_avoid_sv1","
","
","
","
","
","","","","","","null","<div style=""font-size:60px;"">+</div>","null","","fixation","","",""
"memory-trial","248","550622","0.0-18.0-1.101","7712","approach_avoid_sv1","
","
","
","
","
","","","","","","971.3000000715256","images/straw3.png","","","memory_trial","3","maybe_new",""
"html-keyboard-response","249","551125","0.0-18.0-0.102","7712","approach_avoid_sv1","
","
","
","
","
","","","","","","null","<div style=""font-size:60px;"">+</div>","null","","fixation","","",""
"memory-trial","250","553757","0.0-18.0-1.102","7712","approach_avoid_sv1","
","
","
","
","
","","","","","","1628.3999999761581","images/cat4.png","","","memory_trial","2","maybe_old",""
"html-keyboard-response","251","554258","0.0-18.0-0.103","7712","approach_avoid_sv1","
","
","
","
","
","","","","","","null","<div style=""font-size:60px;"">+</div>","null","","fixation","","",""
"memory-trial","252","557756","0.0-18.0-1.103","7712","approach_avoid_sv1","
","
","
","
","
","","","","","","2493.600000023842","images/train8.png","","","memory_trial","4","definitely_new",""
"html-keyboard-response","253","558259","0.0-18.0-0.104","7712","approach_avoid_sv1","
","
","
","
","
","","","","","","null","<div style=""font-size:60px;"">+</div>","null","","fixation","","",""
"memory-trial","254","560792","0.0-18.0-1.104","7712","approach_avoid_sv1","
","
","
","
","
","","","","","","1528.6999999284744","images/rodent1.png","","","memory_trial","4","definitely_new",""
"html-keyboard-response","255","561294","0.0-18.0-0.105","7712","approach_avoid_sv1","
","
","
","
","
","","","","","","null","<div style=""font-size:60px;"">+</div>","null","","fixation","","",""
"memory-trial","256","563976","0.0-18.0-1.105","7712","approach_avoid_sv1","
","
","
","
","
","","","","","","1678","images/truck3.png","","","memory_trial","4","definitely_new",""
"html-keyboard-response","257","564478","0.0-18.0-0.106","7712","approach_avoid_sv1","
","
","
","
","
","","","","","","null","<div style=""font-size:60px;"">+</div>","null","","fixation","","",""
"memory-trial","258","567120","0.0-18.0-1.106","7712","approach_avoid_sv1","
","
","
","
","
","","","","","","1637.7999999523163","images/table1.png","","","memory_trial","2","maybe_old",""
"html-keyboard-response","259","567622","0.0-18.0-0.107","7712","approach_avoid_sv1","
","
","
","
","
","","","","","","null","<div style=""font-size:60px;"">+</div>","null","","fixation","","",""
"memory-trial","260","570206","0.0-18.0-1.107","7712","approach_avoid_sv1","
","
","
","
","
","","","","","","1579.6000000238419","images/dog5.png","","","memory_trial","4","definitely_new",""
"html-keyboard-response","261","570708","0.0-18.0-0.108","7712","approach_avoid_sv1","
","
","
","
","
","","","","","","null","<div style=""font-size:60px;"">+</div>","null","","fixation","","",""
"memory-trial","262","572484","0.0-18.0-1.108","7712","approach_avoid_sv1","
","
","
","
","
","","","","","","772.1000000238419","images/goat3.png","","","memory_trial","4","definitely_new",""
"html-keyboard-response","263","572986","0.0-18.0-0.109","7712","approach_avoid_sv1","
","
","
","
","
","","","","","","null","<div style=""font-size:60px;"">+</div>","null","","fixation","","",""
"memory-trial","264","575690","0.0-18.0-1.109","7712","approach_avoid_sv1","
","
","
","
","
","","","","","","1699.8999999761581","images/apple4.png","","","memory_trial","4","definitely_new",""
"html-keyboard-response","265","576191","0.0-18.0-0.110","7712","approach_avoid_sv1","
","
","
","
","
","","","","","","null","<div style=""font-size:60px;"">+</div>","null","","fixation","","",""
"memory-trial","266","578137","0.0-18.0-1.110","7712","approach_avoid_sv1","
","
","
","
","
","","","","","","941","images/straw1.png","","","memory_trial","4","definitely_new",""
"html-keyboard-response","267","578639","0.0-18.0-0.111","7712","approach_avoid_sv1","
","
","
","
","
","","","","","","null","<div style=""font-size:60px;"">+</div>","null","","fixation","","",""
"memory-trial","268","581518","0.0-18.0-1.111","7712","approach_avoid_sv1","
","
","
","
","
","","","","","","1876.3000000715256","images/sofa2.png","","","memory_trial","2","maybe_old",""
"html-keyboard-response","269","582020","0.0-18.0-0.112","7712","approach_avoid_sv1","
","
","
","
","
","","","","","","null","<div style=""font-size:60px;"">+</div>","null","","fixation","","",""
"memory-trial","270","585242","0.0-18.0-1.112","7712","approach_avoid_sv1","
","
","
","
","
","","","","","","2218.7999999523163","images/orange2.png","","","memory_trial","3","maybe_new",""
"html-keyboard-response","271","585744","0.0-18.0-0.113","7712","approach_avoid_sv1","
","
","
","
","
","","","","","","null","<div style=""font-size:60px;"">+</div>","null","","fixation","","",""
"memory-trial","272","588536","0.0-18.0-1.113","7712","approach_avoid_sv1","
","
","
","
","
","","","","","","1787.3999999761581","images/truck8.png","","","memory_trial","4","definitely_new",""
"html-keyboard-response","273","589038","0.0-18.0-0.114","7712","approach_avoid_sv1","
","
","
","
","
","","","","","","null","<div style=""font-size:60px;"">+</div>","null","","fixation","","",""
"memory-trial","274","591711","0.0-18.0-1.114","7712","approach_avoid_sv1","
","
","
","
","
","","","","","","1668.8999999761581","images/rodent3.png","","","memory_trial","4","definitely_new",""
"html-keyboard-response","275","592213","0.0-18.0-0.115","7712","approach_avoid_sv1","
","
","
","
","
","","","","","","null","<div style=""font-size:60px;"">+</div>","null","","fixation","","",""
"memory-trial","276","594418","0.0-18.0-1.115","7712","approach_avoid_sv1","
","
","
","
","
","","","","","","1199.6000000238419","images/bush5.png","","","memory_trial","3","maybe_new",""
"html-keyboard-response","277","594920","0.0-18.0-0.116","7712","approach_avoid_sv1","
","
","
","
","
","","","","","","null","<div style=""font-size:60px;"">+</div>","null","","fixation","","",""
"memory-trial","278","597882","0.0-18.0-1.116","7712","approach_avoid_sv1","
","
","
","
","
","","","","","","1957.5","images/tree5.png","","","memory_trial","2","maybe_old",""
"html-keyboard-response","279","598384","0.0-18.0-0.117","7712","approach_avoid_sv1","
","
","
","
","
","","","","","","null","<div style=""font-size:60px;"">+</div>","null","","fixation","","",""
"memory-trial","280","602080","0.0-18.0-1.117","7712","approach_avoid_sv1","
","
","
","
","
","","","","","","2691.3000000715256","images/sheep6.png","","","memory_trial","4","definitely_new",""
"html-keyboard-response","281","602581","0.0-18.0-0.118","7712","approach_avoid_sv1","
","
","
","
","
","","","","","","null","<div style=""font-size:60px;"">+</div>","null","","fixation","","",""
"memory-trial","282","604707","0.0-18.0-1.118","7712","approach_avoid_sv1","
","
","
","
","
","","","","","","1122.6000000238419","images/flower7.png","","","memory_trial","4","definitely_new",""
"html-keyboard-response","283","605208","0.0-18.0-0.119","7712","approach_avoid_sv1","
","
","
","
","
","","","","","","null","<div style=""font-size:60px;"">+</div>","null","","fixation","","",""
"memory-trial","284","607065","0.0-18.0-1.119","7712","approach_avoid_sv1","
","
","
","
","
","","","","","","853","images/rodent8.png","","","memory_trial","4","definitely_new",""
"html-keyboard-response","285","607567","0.0-18.0-0.120","7712","approach_avoid_sv1","
","
","
","
","
","","","","","","null","<div style=""font-size:60px;"">+</div>","null","","fixation","","",""
"memory-trial","286","611082","0.0-18.0-1.120","7712","approach_avoid_sv1","
","
","
","
","
","","","","","","2511.3000000715256","images/chair3.png","","","memory_trial","3","maybe_new",""
"html-keyboard-response","287","611584","0.0-18.0-0.121","7712","approach_avoid_sv1","
","
","
","
","
","","","","","","null","<div style=""font-size:60px;"">+</div>","null","","fixation","","",""
"memory-trial","288","614150","0.0-18.0-1.121","7712","approach_avoid_sv1","
","
","
","
","
","","","","","","1562.1000000238419","images/plane7.png","","","memory_trial","4","definitely_new",""
"html-keyboard-response","289","614651","0.0-18.0-0.122","7712","approach_avoid_sv1","
","
","
","
","
","","","","","","null","<div style=""font-size:60px;"">+</div>","null","","fixation","","",""
"memory-trial","290","617205","0.0-18.0-1.122","7712","approach_avoid_sv1","
","
","
","
","
","","","","","","1548.7999999523163","images/sofa1.png","","","memory_trial","3","maybe_new",""
"html-keyboard-response","291","617707","0.0-18.0-0.123","7712","approach_avoid_sv1","
","
","
","
","
","","","","","","null","<div style=""font-size:60px;"">+</div>","null","","fixation","","",""
"memory-trial","292","619492","0.0-18.0-1.123","7712","approach_avoid_sv1","
","
","
","
","
","","","","","","782.3999999761581","images/sheep8.png","","","memory_trial","4","definitely_new",""
"html-keyboard-response","293","619994","0.0-18.0-0.124","7712","approach_avoid_sv1","
","
","
","
","
","","","","","","null","<div style=""font-size:60px;"">+</div>","null","","fixation","","",""
"memory-trial","294","622520","0.0-18.0-1.124","7712","approach_avoid_sv1","
","
","
","
","
","","","","","","1520.6000000238419","images/horse1.png","","","memory_trial","4","definitely_new",""
"html-keyboard-response","295","623022","0.0-18.0-0.125","7712","approach_avoid_sv1","
","
","
","
","
","","","","","","null","<div style=""font-size:60px;"">+</div>","null","","fixation","","",""
"memory-trial","296","624966","0.0-18.0-1.125","7712","approach_avoid_sv1","
","
","
","
","
","","","","","","939.5","images/plane3.png","","","memory_trial","4","definitely_new",""
"html-keyboard-response","297","625468","0.0-18.0-0.126","7712","approach_avoid_sv1","
","
","
","
","
","","","","","","null","<div style=""font-size:60px;"">+</div>","null","","fixation","","",""
"memory-trial","298","628121","0.0-18.0-1.126","7712","approach_avoid_sv1","
","
","
","
","
","","","","","","1649.6000000238419","images/bed7.png","","","memory_trial","4","definitely_new",""
"html-keyboard-response","299","628623","0.0-18.0-0.127","7712","approach_avoid_sv1","
","
","
","
","
","","","","","","null","<div style=""font-size:60px;"">+</div>","null","","fixation","","",""
"memory-trial","300","631584","0.0-18.0-1.127","7712","approach_avoid_sv1","
","
","
","
","
","","","","","","1956.2000000476837","images/cactus8.png","","","memory_trial","2","maybe_old",""
"html-keyboard-response","301","632087","0.0-18.0-0.128","7712","approach_avoid_sv1","
","
","
","
","
","","","","","","null","<div style=""font-size:60px;"">+</div>","null","","fixation","","",""
"memory-trial","302","634091","0.0-18.0-1.128","7712","approach_avoid_sv1","
","
","
","
","
","","","","","","1001.2000000476837","images/cat7.png","","","memory_trial","4","definitely_new",""
"html-keyboard-response","303","634593","0.0-18.0-0.129","7712","approach_avoid_sv1","
","
","
","
","
","","","","","","null","<div style=""font-size:60px;"">+</div>","null","","fixation","","",""
"memory-trial","304","637315","0.0-18.0-1.129","7712","approach_avoid_sv1","
","
","
","
","
","","","","","","1718.2000000476837","images/cat5.png","","","memory_trial","2","maybe_old",""
"html-keyboard-response","305","637817","0.0-18.0-0.130","7712","approach_avoid_sv1","
","
","
","
","
","","","","","","null","<div style=""font-size:60px;"">+</div>","null","","fixation","","",""
"memory-trial","306","641256","0.0-18.0-1.130","7712","approach_avoid_sv1","
","
","
","
","
","","","","","","2435.7999999523163","images/boat3.png","","","memory_trial","2","maybe_old",""
"html-keyboard-response","307","641758","0.0-18.0-0.131","7712","approach_avoid_sv1","
","
","
","
","
","","","","","","null","<div style=""font-size:60px;"">+</div>","null","","fixation","","",""
"memory-trial","308","644073","0.0-18.0-1.131","7712","approach_avoid_sv1","
","
","
","
","
","","","","","","1310.1000000238419","images/sofa3.png","","","memory_trial","4","definitely_new",""
"html-keyboard-response","309","644574","0.0-18.0-0.132","7712","approach_avoid_sv1","
","
","
","
","
","","","","","","null","<div style=""font-size:60px;"">+</div>","null","","fixation","","",""
"memory-trial","310","646918","0.0-18.0-1.132","7712","approach_avoid_sv1","
","
","
","
","
","","","","","","1340.1000000238419","images/flower6.png","","","memory_trial","4","definitely_new",""
"html-keyboard-response","311","647420","0.0-18.0-0.133","7712","approach_avoid_sv1","
","
","
","
","
","","","","","","null","<div style=""font-size:60px;"">+</div>","null","","fixation","","",""
"memory-trial","312","649138","0.0-18.0-1.133","7712","approach_avoid_sv1","
","
","
","
","
","","","","","","714","images/goat8.png","","","memory_trial","4","definitely_new",""
"html-keyboard-response","313","649641","0.0-18.0-0.134","7712","approach_avoid_sv1","
","
","
","
","
","","","","","","null","<div style=""font-size:60px;"">+</div>","null","","fixation","","",""
"memory-trial","314","652800","0.0-18.0-1.134","7712","approach_avoid_sv1","
","
","
","
","
","","","","","","2155.399999976158","images/sofa8.png","","","memory_trial","3","maybe_new",""
"html-keyboard-response","315","653302","0.0-18.0-0.135","7712","approach_avoid_sv1","
","
","
","
","
","","","","","","null","<div style=""font-size:60px;"">+</div>","null","","fixation","","",""
"memory-trial","316","655098","0.0-18.0-1.135","7712","approach_avoid_sv1","
","
","
","
","
","","","","","","790.1999999284744","images/goat7.png","","","memory_trial","4","definitely_new",""
"html-keyboard-response","317","655599","0.0-18.0-0.136","7712","approach_avoid_sv1","
","
","
","
","
","","","","","","null","<div style=""font-size:60px;"">+</div>","null","","fixation","","",""
"memory-trial","318","657416","0.0-18.0-1.136","7712","approach_avoid_sv1","
","
","
","
","
","","","","","","812.7000000476837","images/dog2.png","","","memory_trial","4","definitely_new",""
"html-keyboard-response","319","657918","0.0-18.0-0.137","7712","approach_avoid_sv1","
","
","
","
","
","","","","","","null","<div style=""font-size:60px;"">+</div>","null","","fixation","","",""
"memory-trial","320","660243","0.0-18.0-1.137","7712","approach_avoid_sv1","
","
","
","
","
","","","","","","1321.5","images/plane6.png","","","memory_trial","4","definitely_new",""
"html-keyboard-response","321","660745","0.0-18.0-0.138","7712","approach_avoid_sv1","
","
","
","
","
","","","","","","null","<div style=""font-size:60px;"">+</div>","null","","fixation","","",""
"memory-trial","322","663427","0.0-18.0-1.138","7712","approach_avoid_sv1","
","
","
","
","
","","","","","","1678.1999999284744","images/goat1.png","","","memory_trial","4","definitely_new",""
"html-keyboard-response","323","663929","0.0-18.0-0.139","7712","approach_avoid_sv1","
","
","
","
","
","","","","","","null","<div style=""font-size:60px;"">+</div>","null","","fixation","","",""
"memory-trial","324","665836","0.0-18.0-1.139","7712","approach_avoid_sv1","
","
","
","
","
","","","","","","902.7999999523163","images/cat1.png","","","memory_trial","4","definitely_new",""
"html-keyboard-response","325","666338","0.0-18.0-0.140","7712","approach_avoid_sv1","
","
","
","
","
","","","","","","null","<div style=""font-size:60px;"">+</div>","null","","fixation","","",""
"memory-trial","326","670233","0.0-18.0-1.140","7712","approach_avoid_sv1","
","
","
","
","
","","","","","","2891.8000000715256","images/bush2.png","","","memory_trial","1","definitely_old",""
"html-keyboard-response","327","670735","0.0-18.0-0.141","7712","approach_avoid_sv1","
","
","
","
","
","","","","","","null","<div style=""font-size:60px;"">+</div>","null","","fixation","","",""
"memory-trial","328","675071","0.0-18.0-1.141","7712","approach_avoid_sv1","
","
","
","
","
","","","","","","3330.600000023842","images/train7.png","","","memory_trial","2","maybe_old",""
"html-button-response","329","676797","0.0-18.0-2.141-0.141","7712","approach_avoid_sv1","
","
","
","
","
","","","","","","1724.6000000238419","<p> Take a break! </p><p> Click the button to continue. </p>","0","","break","","",""
"html-keyboard-response","330","677298","0.0-18.0-0.142","7712","approach_avoid_sv1","
","
","
","
","
","","","","","","null","<div style=""font-size:60px;"">+</div>","null","","fixation","","",""
"memory-trial","331","679709","0.0-18.0-1.142","7712","approach_avoid_sv1","
","
","
","
","
","","","","","","1405.7999999523163","images/chair2.png","","","memory_trial","4","definitely_new",""
"html-keyboard-response","332","680211","0.0-18.0-0.143","7712","approach_avoid_sv1","
","
","
","
","
","","","","","","null","<div style=""font-size:60px;"">+</div>","null","","fixation","","",""
"memory-trial","333","682714","0.0-18.0-1.143","7712","approach_avoid_sv1","
","
","
","
","
","","","","","","1498","images/straw5.png","","","memory_trial","2","maybe_old",""
"html-keyboard-response","334","683216","0.0-18.0-0.144","7712","approach_avoid_sv1","
","
","
","
","
","","","","","","null","<div style=""font-size:60px;"">+</div>","null","","fixation","","",""
"memory-trial","335","686078","0.0-18.0-1.144","7712","approach_avoid_sv1","
","
","
","
","
","","","","","","1857.5999999046326","images/train5.png","","","memory_trial","4","definitely_new",""
"html-keyboard-response","336","686579","0.0-18.0-0.145","7712","approach_avoid_sv1","
","
","
","
","
","","","","","","null","<div style=""font-size:60px;"">+</div>","null","","fixation","","",""
"memory-trial","337","691271","0.0-18.0-1.145","7712","approach_avoid_sv1","
","
","
","
","
","","","","","","3687","images/tree3.png","","","memory_trial","3","maybe_new",""
"html-keyboard-response","338","691773","0.0-18.0-0.146","7712","approach_avoid_sv1","
","
","
","
","
","","","","","","null","<div style=""font-size:60px;"">+</div>","null","","fixation","","",""
"memory-trial","339","695003","0.0-18.0-1.146","7712","approach_avoid_sv1","
","
","
","
","
","","","","","","2225.100000023842","images/rabbit8.png","","","memory_trial","2","maybe_old",""
"html-keyboard-response","340","695505","0.0-18.0-0.147","7712","approach_avoid_sv1","
","
","
","
","
","","","","","","null","<div style=""font-size:60px;"">+</div>","null","","fixation","","",""
"memory-trial","341","697870","0.0-18.0-1.147","7712","approach_avoid_sv1","
","
","
","
","
","","","","","","1360.2999999523163","images/bed8.png","","","memory_trial","4","definitely_new",""
"html-keyboard-response","342","698371","0.0-18.0-0.148","7712","approach_avoid_sv1","
","
","
","
","
","","","","","","null","<div style=""font-size:60px;"">+</div>","null","","fixation","","",""
"memory-trial","343","700397","0.0-18.0-1.148","7712","approach_avoid_sv1","
","
","
","
","
","","","","","","1020.3999999761581","images/sheep4.png","","","memory_trial","4","definitely_new",""
"html-keyboard-response","344","700899","0.0-18.0-0.149","7712","approach_avoid_sv1","
","
","
","
","
","","","","","","null","<div style=""font-size:60px;"">+</div>","null","","fixation","","",""
"memory-trial","345","704009","0.0-18.0-1.149","7712","approach_avoid_sv1","
","
","
","
","
","","","","","","2105.6999999284744","images/bush4.png","","","memory_trial","2","maybe_old",""
"html-keyboard-response","346","704511","0.0-18.0-0.150","7712","approach_avoid_sv1","
","
","
","
","
","","","","","","null","<div style=""font-size:60px;"">+</div>","null","","fixation","","",""
"memory-trial","347","706586","0.0-18.0-1.150","7712","approach_avoid_sv1","
","
","
","
","
","","","","","","1070.6999999284744","images/dog1.png","","","memory_trial","4","definitely_new",""
"html-keyboard-response","348","707088","0.0-18.0-0.151","7712","approach_avoid_sv1","
","
","
","
","
","","","","","","null","<div style=""font-size:60px;"">+</div>","null","","fixation","","",""
"memory-trial","349","709771","0.0-18.0-1.151","7712","approach_avoid_sv1","
","
","
","
","
","","","","","","1678.3999999761581","images/cactus1.png","","","memory_trial","2","maybe_old",""
"html-keyboard-response","350","710273","0.0-18.0-0.152","7712","approach_avoid_sv1","
","
","
","
","
","","","","","","null","<div style=""font-size:60px;"">+</div>","null","","fixation","","",""
"memory-trial","351","713014","0.0-18.0-1.152","7712","approach_avoid_sv1","
","
","
","
","
","","","","","","1736.7000000476837","images/apple6.png","","","memory_trial","4","definitely_new",""
"html-keyboard-response","352","713516","0.0-18.0-0.153","7712","approach_avoid_sv1","
","
","
","
","
","","","","","","null","<div style=""font-size:60px;"">+</div>","null","","fixation","","",""
"memory-trial","353","715568","0.0-18.0-1.153","7712","approach_avoid_sv1","
","
","
","
","
","","","","","","1047.5","images/dog4.png","","","memory_trial","4","definitely_new",""
"html-keyboard-response","354","716070","0.0-18.0-0.154","7712","approach_avoid_sv1","
","
","
","
","
","","","","","","null","<div style=""font-size:60px;"">+</div>","null","","fixation","","",""
"memory-trial","355","718866","0.0-18.0-1.154","7712","approach_avoid_sv1","
","
","
","
","
","","","","","","1792.2000000476837","images/orange5.png","","","memory_trial","4","definitely_new",""
"html-keyboard-response","356","719368","0.0-18.0-0.155","7712","approach_avoid_sv1","
","
","
","
","
","","","","","","null","<div style=""font-size:60px;"">+</div>","null","","fixation","","",""
"memory-trial","357","729372","0.0-18.0-1.155","7712","approach_avoid_sv1","
","
","
","
","
","","","","","","9161.599999904633","images/boat2.png","","","memory_trial","4","definitely_new",""
"html-keyboard-response","358","729874","0.0-18.0-0.156","7712","approach_avoid_sv1","
","
","
","
","
","","","","","","null","<div style=""font-size:60px;"">+</div>","null","","fixation","","",""
"memory-trial","359","731554","0.0-18.0-1.156","7712","approach_avoid_sv1","
","
","
","
","
","","","","","","674.6999999284744","images/cow6.png","","","memory_trial","4","definitely_new",""
"html-keyboard-response","360","732055","0.0-18.0-0.157","7712","approach_avoid_sv1","
","
","
","
","
","","","","","","null","<div style=""font-size:60px;"">+</div>","null","","fixation","","",""
"memory-trial","361","734102","0.0-18.0-1.157","7712","approach_avoid_sv1","
","
","
","
","
","","","","","","1042.5","images/table2.png","","","memory_trial","4","definitely_new",""
"html-keyboard-response","362","734604","0.0-18.0-0.158","7712","approach_avoid_sv1","
","
","
","
","
","","","","","","null","<div style=""font-size:60px;"">+</div>","null","","fixation","","",""
"memory-trial","363","737416","0.0-18.0-1.158","7712","approach_avoid_sv1","
","
","
","
","
","","","","","","1808.7999999523163","images/horse5.png","","","memory_trial","4","definitely_new",""
"html-keyboard-response","364","737918","0.0-18.0-0.159","7712","approach_avoid_sv1","
","
","
","
","
","","","","","","null","<div style=""font-size:60px;"">+</div>","null","","fixation","","",""
"memory-trial","365","740212","0.0-18.0-1.159","7712","approach_avoid_sv1","
","
","
","
","
","","","","","","1290.2999999523163","images/plane5.png","","","memory_trial","4","definitely_new",""
"html-keyboard-response","366","740714","0.0-18.0-0.160","7712","approach_avoid_sv1","
","
","
","
","
","","","","","","null","<div style=""font-size:60px;"">+</div>","null","","fixation","","",""
"memory-trial","367","742481","0.0-18.0-1.160","7712","approach_avoid_sv1","
","
","
","
","
","","","","","","762.1999999284744","images/horse8.png","","","memory_trial","4","definitely_new",""
"html-keyboard-response","368","742983","0.0-18.0-0.161","7712","approach_avoid_sv1","
","
","
","
","
","","","","","","null","<div style=""font-size:60px;"">+</div>","null","","fixation","","",""
"memory-trial","369","744730","0.0-18.0-1.161","7712","approach_avoid_sv1","
","
","
","
","
","","","","","","743.7999999523163","images/train3.png","","","memory_trial","4","definitely_new",""
"html-keyboard-response","370","745232","0.0-18.0-0.162","7712","approach_avoid_sv1","
","
","
","
","
","","","","","","null","<div style=""font-size:60px;"">+</div>","null","","fixation","","",""
"memory-trial","371","747199","0.0-18.0-1.162","7712","approach_avoid_sv1","
","
","
","
","
","","","","","","962.8999999761581","images/plane1.png","","","memory_trial","4","definitely_new",""
"html-keyboard-response","372","747700","0.0-18.0-0.163","7712","approach_avoid_sv1","
","
","
","
","
","","","","","","null","<div style=""font-size:60px;"">+</div>","null","","fixation","","",""
"memory-trial","373","749746","0.0-18.0-1.163","7712","approach_avoid_sv1","
","
","
","
","
","","","","","","1042","images/rodent4.png","","","memory_trial","4","definitely_new",""
"html-keyboard-response","374","750248","0.0-18.0-0.164","7712","approach_avoid_sv1","
","
","
","
","
","","","","","","null","<div style=""font-size:60px;"">+</div>","null","","fixation","","",""
"memory-trial","375","753648","0.0-18.0-1.164","7712","approach_avoid_sv1","
","
","
","
","
","","","","","","2395","images/table4.png","","","memory_trial","3","maybe_new",""
"html-keyboard-response","376","754150","0.0-18.0-0.165","7712","approach_avoid_sv1","
","
","
","
","
","","","","","","null","<div style=""font-size:60px;"">+</div>","null","","fixation","","",""
"memory-trial","377","758175","0.0-18.0-1.165","7712","approach_avoid_sv1","
","
","
","
","
","","","","","","3020.600000023842","images/apple8.png","","","memory_trial","2","maybe_old",""
"html-keyboard-response","378","758677","0.0-18.0-0.166","7712","approach_avoid_sv1","
","
","
","
","
","","","","","","null","<div style=""font-size:60px;"">+</div>","null","","fixation","","",""
"memory-trial","379","761478","0.0-18.0-1.166","7712","approach_avoid_sv1","
","
","
","
","
","","","","","","1797.5","images/tree6.png","","","memory_trial","2","maybe_old",""
"html-keyboard-response","380","761980","0.0-18.0-0.167","7712","approach_avoid_sv1","
","
","
","
","
","","","","","","null","<div style=""font-size:60px;"">+</div>","null","","fixation","","",""
"memory-trial","381","764227","0.0-18.0-1.167","7712","approach_avoid_sv1","
","
","
","
","
","","","","","","1241.0999999046326","images/flower1.png","","","memory_trial","4","definitely_new",""
"html-keyboard-response","382","764728","0.0-18.0-0.168","7712","approach_avoid_sv1","
","
","
","
","
","","","","","","null","<div style=""font-size:60px;"">+</div>","null","","fixation","","",""
"memory-trial","383","768146","0.0-18.0-1.168","7712","approach_avoid_sv1","
","
","
","
","
","","","","","","2414.2000000476837","images/table5.png","","","memory_trial","2","maybe_old",""
"html-keyboard-response","384","768648","0.0-18.0-0.169","7712","approach_avoid_sv1","
","
","
","
","
","","","","","","null","<div style=""font-size:60px;"">+</div>","null","","fixation","","",""
"memory-trial","385","771360","0.0-18.0-1.169","7712","approach_avoid_sv1","
","
","
","
","
","","","","","","1707.2999999523163","images/rodent2.png","","","memory_trial","4","definitely_new",""
"html-keyboard-response","386","771862","0.0-18.0-0.170","7712","approach_avoid_sv1","
","
","
","
","
","","","","","","null","<div style=""font-size:60px;"">+</div>","null","","fixation","","",""
"memory-trial","387","775242","0.0-18.0-1.170","7712","approach_avoid_sv1","
","
","
","
","
","","","","","","2376.100000023842","images/sofa5.png","","","memory_trial","2","maybe_old",""
"html-keyboard-response","388","775745","0.0-18.0-0.171","7712","approach_avoid_sv1","
","
","
","
","
","","","","","","null","<div style=""font-size:60px;"">+</div>","null","","fixation","","",""
"memory-trial","389","779332","0.0-18.0-1.171","7712","approach_avoid_sv1","
","
","
","
","
","","","","","","2582.399999976158","images/cactus3.png","","","memory_trial","4","definitely_new",""
"html-keyboard-response","390","779834","0.0-18.0-0.172","7712","approach_avoid_sv1","
","
","
","
","
","","","","","","null","<div style=""font-size:60px;"">+</div>","null","","fixation","","",""
"memory-trial","391","786068","0.0-18.0-1.172","7712","approach_avoid_sv1","
","
","
","
","
","","","","","","5230.200000047684","images/banana2.png","","","memory_trial","4","definitely_new",""
"html-keyboard-response","392","786570","0.0-18.0-0.173","7712","approach_avoid_sv1","
","
","
","
","
","","","","","","null","<div style=""font-size:60px;"">+</div>","null","","fixation","","",""
"memory-trial","393","789999","0.0-18.0-1.173","7712","approach_avoid_sv1","
","
","
","
","
","","","","","","2424.399999976158","images/banana7.png","","","memory_trial","2","maybe_old",""
"html-keyboard-response","394","790501","0.0-18.0-0.174","7712","approach_avoid_sv1","
","
","
","
","
","","","","","","null","<div style=""font-size:60px;"">+</div>","null","","fixation","","",""
"memory-trial","395","792228","0.0-18.0-1.174","7712","approach_avoid_sv1","
","
","
","
","
","","","","","","724.2999999523163","images/dog6.png","","","memory_trial","4","definitely_new",""
"html-keyboard-response","396","792730","0.0-18.0-0.175","7712","approach_avoid_sv1","
","
","
","
","
","","","","","","null","<div style=""font-size:60px;"">+</div>","null","","fixation","","",""
"memory-trial","397","796388","0.0-18.0-1.175","7712","approach_avoid_sv1","
","
","
","
","
","","","","","","2653.6999999284744","images/apple2.png","","","memory_trial","4","definitely_new",""
"html-keyboard-response","398","796890","0.0-18.0-0.176","7712","approach_avoid_sv1","
","
","
","
","
","","","","","","null","<div style=""font-size:60px;"">+</div>","null","","fixation","","",""
"memory-trial","399","799622","0.0-18.0-1.176","7712","approach_avoid_sv1","
","
","
","
","
","","","","","","1727.3999999761581","images/bed2.png","","","memory_trial","3","maybe_new",""
"html-keyboard-response","400","800124","0.0-18.0-0.177","7712","approach_avoid_sv1","
","
","
","
","
","","","","","","null","<div style=""font-size:60px;"">+</div>","null","","fixation","","",""
"memory-trial","401","802368","0.0-18.0-1.177","7712","approach_avoid_sv1","
","
","
","
","
","","","","","","1241.0999999046326","images/orange4.png","","","memory_trial","4","definitely_new",""
"html-keyboard-response","402","802870","0.0-18.0-0.178","7712","approach_avoid_sv1","
","
","
","
","
","","","","","","null","<div style=""font-size:60px;"">+</div>","null","","fixation","","",""
"memory-trial","403","806210","0.0-18.0-1.178","7712","approach_avoid_sv1","
","
","
","
","
","","","","","","2335.8000000715256","images/banana3.png","","","memory_trial","2","maybe_old",""
"html-keyboard-response","404","806712","0.0-18.0-0.179","7712","approach_avoid_sv1","
","
","
","
","
","","","","","","null","<div style=""font-size:60px;"">+</div>","null","","fixation","","",""
"memory-trial","405","808867","0.0-18.0-1.179","7712","approach_avoid_sv1","
","
","
","
","
","","","","","","1150.5","images/flower3.png","","","memory_trial","4","definitely_new",""
"html-keyboard-response","406","809369","0.0-18.0-0.180","7712","approach_avoid_sv1","
","
","
","
","
","","","","","","null","<div style=""font-size:60px;"">+</div>","null","","fixation","","",""
"memory-trial","407","814012","0.0-18.0-1.180","7712","approach_avoid_sv1","
","
","
","
","
","","","","","","3639.399999976158","images/tree8.png","","","memory_trial","2","maybe_old",""
"html-keyboard-response","408","814513","0.0-18.0-0.181","7712","approach_avoid_sv1","
","
","
","
","
","","","","","","null","<div style=""font-size:60px;"">+</div>","null","","fixation","","",""
"memory-trial","409","817028","0.0-18.0-1.181","7712","approach_avoid_sv1","
","
","
","
","
","","","","","","1509.5","images/bush6.png","","","memory_trial","4","definitely_new",""
"html-keyboard-response","410","817530","0.0-18.0-0.182","7712","approach_avoid_sv1","
","
","
","
","
","","","","","","null","<div style=""font-size:60px;"">+</div>","null","","fixation","","",""
"memory-trial","411","819334","0.0-18.0-1.182","7712","approach_avoid_sv1","
","
","
","
","
","","","","","","799.5","images/horse7.png","","","memory_trial","4","definitely_new",""
"html-keyboard-response","412","819836","0.0-18.0-0.183","7712","approach_avoid_sv1","
","
","
","
","
","","","","","","null","<div style=""font-size:60px;"">+</div>","null","","fixation","","",""
"memory-trial","413","823954","0.0-18.0-1.183","7712","approach_avoid_sv1","
","
","
","
","
","","","","","","3115.2000000476837","images/table8.png","","","memory_trial","3","maybe_new",""
"html-keyboard-response","414","824456","0.0-18.0-0.184","7712","approach_avoid_sv1","
","
","
","
","
","","","","","","null","<div style=""font-size:60px;"">+</div>","null","","fixation","","",""
"memory-trial","415","827488","0.0-18.0-1.184","7712","approach_avoid_sv1","
","
","
","
","
","","","","","","2025.8999999761581","images/bed5.png","","","memory_trial","2","maybe_old",""
"html-keyboard-response","416","827990","0.0-18.0-0.185","7712","approach_avoid_sv1","
","
","
","
","
","","","","","","null","<div style=""font-size:60px;"">+</div>","null","","fixation","","",""
"memory-trial","417","830591","0.0-18.0-1.185","7712","approach_avoid_sv1","
","
","
","
","
","","","","","","1596.8999999761581","images/banana8.png","","","memory_trial","4","definitely_new",""
"html-keyboard-response","418","831093","0.0-18.0-0.186","7712","approach_avoid_sv1","
","
","
","
","
","","","","","","null","<div style=""font-size:60px;"">+</div>","null","","fixation","","",""
"memory-trial","419","832950","0.0-18.0-1.186","7712","approach_avoid_sv1","
","
","
","
","
","","","","","","852.7000000476837","images/cow7.png","","","memory_trial","4","definitely_new",""
"html-keyboard-response","420","833452","0.0-18.0-0.187","7712","approach_avoid_sv1","
","
","
","
","
","","","","","","null","<div style=""font-size:60px;"">+</div>","null","","fixation","","",""
"memory-trial","421","836723","0.0-18.0-1.187","7712","approach_avoid_sv1","
","
","
","
","
","","","","","","2266.899999976158","images/sofa6.png","","","memory_trial","3","maybe_new",""
"html-keyboard-response","422","837225","0.0-18.0-0.188","7712","approach_avoid_sv1","
","
","
","
","
","","","","","","null","<div style=""font-size:60px;"">+</div>","null","","fixation","","",""
"memory-trial","423","839379","0.0-18.0-1.188","7712","approach_avoid_sv1","
","
","
","
","
","","","","","","1150.5","images/dog8.png","","","memory_trial","4","definitely_new",""
"html-keyboard-response","424","839888","0.0-18.0-0.189","7712","approach_avoid_sv1","
","
","
","
","
","","","","","","null","<div style=""font-size:60px;"">+</div>","null","","fixation","","",""
"memory-trial","425","842028","0.0-18.0-1.189","7712","approach_avoid_sv1","
","
","
","
","
","","","","","","1135.2999999523163","images/table3.png","","","memory_trial","4","definitely_new",""
"html-keyboard-response","426","842529","0.0-18.0-0.190","7712","approach_avoid_sv1","
","
","
","
","
","","","","","","null","<div style=""font-size:60px;"">+</div>","null","","fixation","","",""
"memory-trial","427","846057","0.0-18.0-1.190","7712","approach_avoid_sv1","
","
","
","
","
","","","","","","2523.899999976158","images/rabbit2.png","","","memory_trial","3","maybe_new",""
"html-keyboard-response","428","846558","0.0-18.0-0.191","7712","approach_avoid_sv1","
","
","
","
","
","","","","","","null","<div style=""font-size:60px;"">+</div>","null","","fixation","","",""
"memory-trial","429","848386","0.0-18.0-1.191","7712","approach_avoid_sv1","
","
","
","
","
","","","","","","823","images/horse4.png","","","memory_trial","4","definitely_new",""
"html-button-response","430","859523","0.0-18.0-2.191-0.191","7712","approach_avoid_sv1","
","
","
","
","
","","","","","","11135.5","<p> Take a break! </p><p> Click the button to continue. </p>","0","","break","","",""
