"trial_type","trial_index","time_elapsed","internal_node_id","subject_id","task_version","interactions","blur_events","focus_events","fullscreenenter_events","fullscreenexit_events","success","timeout","failed_images","failed_audio","failed_video","rt","stimulus","response","button_pressed","task_part","key_press","answer","correct"
"pavlovia","0","3","0.0-0.0","4161","approach_avoid_sv1","""event"",""trial"",""time""
""fullscreenenter"",""1"",""3217""
","
","
","""event"",""trial"",""time""
""fullscreenenter"",""1"",""3217""
","
","","","","","","","","","","","","",""
"fullscreen","1","4045","0.0-1.0","4161","approach_avoid_sv1","""event"",""trial"",""time""
""fullscreenenter"",""1"",""3217""
","
","
","""event"",""trial"",""time""
""fullscreenenter"",""1"",""3217""
","
","true","","","","","","","","","","","",""
"preload","2","6047","0.0-2.0","4161","approach_avoid_sv1","""event"",""trial"",""time""
""fullscreenenter"",""1"",""3217""
","
","
","""event"",""trial"",""time""
""fullscreenenter"",""1"",""3217""
","
","true","false","[]","[]","[]","","","","","","","",""
"preload","3","7597","0.0-3.0","4161","approach_avoid_sv1","""event"",""trial"",""time""
""fullscreenenter"",""1"",""3217""
","
","
","""event"",""trial"",""time""
""fullscreenenter"",""1"",""3217""
","
","true","false","[]","[]","[]","","","","","","","",""
"preload","4","8014","0.0-4.0","4161","approach_avoid_sv1","""event"",""trial"",""time""
""fullscreenenter"",""1"",""3217""
","
","
","""event"",""trial"",""time""
""fullscreenenter"",""1"",""3217""
","
","true","false","[]","[]","[]","","","","","","","",""
"audio-keyboard-response","5","21712","0.0-5.0","4161","approach_avoid_sv1","""event"",""trial"",""time""
""fullscreenenter"",""1"",""3217""
","
","
","""event"",""trial"",""time""
""fullscreenenter"",""1"",""3217""
","
","","","","","","13698.666666666666","audio/beep_loop.wav","enter","","","","",""
"audio-button-response","6","24399","0.0-6.0","4161","approach_avoid_sv1","""event"",""trial"",""time""
""fullscreenenter"",""1"",""3217""
","
","
","""event"",""trial"",""time""
""fullscreenenter"",""1"",""3217""
","
","","","","","","2680","audio/turtle.wav","3","","","","",""
"audio-button-response","7","26761","0.0-7.0","4161","approach_avoid_sv1","""event"",""trial"",""time""
""fullscreenenter"",""1"",""3217""
","
","
","""event"",""trial"",""time""
""fullscreenenter"",""1"",""3217""
","
","","","","","","1339","audio/shark.wav","2","","","","",""
"preload","8","29793","0.0-8.0","4161","approach_avoid_sv1","""event"",""trial"",""time""
""fullscreenenter"",""1"",""3217""
","
","
","""event"",""trial"",""time""
""fullscreenenter"",""1"",""3217""
","
","true","false","[]","[]","[]","","","","","","","",""
"learning-instructions","9","36925","0.0-9.0-0.0","4161","approach_avoid_sv1","""event"",""trial"",""time""
""fullscreenenter"",""1"",""3217""
","
","
","""event"",""trial"",""time""
""fullscreenenter"",""1"",""3217""
","
","","","","","","2654","<p> Welcome back! </p><p> Last week, you had to make choices about lots of different items.  </p>","","0","instructions","","",""
"learning-instructions","10","42969","0.0-9.0-0.1","4161","approach_avoid_sv1","""event"",""trial"",""time""
""fullscreenenter"",""1"",""3217""
","
","
","""event"",""trial"",""time""
""fullscreenenter"",""1"",""3217""
","
","","","","","","1918.5","<p> Today, we are going to ask you to try to remember all the items. </p>","","0","instructions","","",""
"learning-instructions","11","54013","0.0-9.0-0.2","4161","approach_avoid_sv1","""event"",""trial"",""time""
""fullscreenenter"",""1"",""3217""
","
","
","""event"",""trial"",""time""
""fullscreenenter"",""1"",""3217""
","
","","","","","","892.5","<p> On every trial, you will see an image. </p><p> The image may be an OLD image you saw during the games last week or it may be a NEW image that was not presented. </p>","","0","instructions","","",""
"learning-instructions","12","64910","0.0-9.0-0.3","4161","approach_avoid_sv1","""event"",""trial"",""time""
""fullscreenenter"",""1"",""3217""
","
","
","""event"",""trial"",""time""
""fullscreenenter"",""1"",""3217""
","
","","","","","","2368.2000002861023","<p> You need to select whether the image is:  </p><p>  'Definitely old', 'Maybe old', 'Maybe new', or 'Definitely new.'  </p><div class=""mem-choice-instructions-grid""><div class=""choice-option"" id=""choice-option-1"" ><img src=""images/definitely_old_1.png"" id=""choice-option-img-1"" class=""choice-option-img"" stage=""1""></div><div class=""choice-option"" id=""choice-option-2"" ><img src=""images/maybe_old_1.png"" id=""choice-option-img-2"" class=""choice-option-img"" stage=""1""></div><div class=""choice-option"" id=""choice-option-3"" ><img src=""images/maybe_new_1.png"" id=""choice-option-img-3"" class=""choice-option-img"" stage=""1""></div><div class=""choice-option"" id=""choice-option-4"" > <img src=""images/definitely_new_1.png"" id=""choice-option-img-4"" class=""choice-option-img"" stage=""1""></div></div>","","0","instructions","","",""
"learning-instructions","13","72986","0.0-9.0-0.4","4161","approach_avoid_sv1","""event"",""trial"",""time""
""fullscreenenter"",""1"",""3217""
","
","
","""event"",""trial"",""time""
""fullscreenenter"",""1"",""3217""
","
","","","","","","1554.3000001907349","<p> You should use the 1, 2, 3, and 4 keys to make your responses.  </p><div class=""mem-choice-instructions-grid""><div class=""choice-option"" id=""choice-option-1"" ><img src=""images/definitely_old.png"" id=""choice-option-img-1"" class=""choice-option-img"" stage=""1""></div><div class=""choice-option"" id=""choice-option-2"" ><img src=""images/maybe_old.png"" id=""choice-option-img-2"" class=""choice-option-img"" stage=""1""></div><div class=""choice-option"" id=""choice-option-3"" ><img src=""images/maybe_new.png"" id=""choice-option-img-3"" class=""choice-option-img"" stage=""1""></div><div class=""choice-option"" id=""choice-option-4"" > <img src=""images/definitely_new.png"" id=""choice-option-img-4"" class=""choice-option-img"" stage=""1""></div></div>","","0","instructions","","",""
"learning-instructions","14","80222","0.0-9.0-0.5","4161","approach_avoid_sv1","""event"",""trial"",""time""
""fullscreenenter"",""1"",""3217""
","
","
","""event"",""trial"",""time""
""fullscreenenter"",""1"",""3217""
","
","","","","","","900.7000002861023","<p> You will have 10 seconds to make each response.  </p><p>  Make sure to respond before time runs out! </p>","","0","instructions","","",""
"learning-instructions","15","87978","0.0-9.0-0.6","4161","approach_avoid_sv1","""event"",""trial"",""time""
""fullscreenenter"",""1"",""3217""
","
","
","""event"",""trial"",""time""
""fullscreenenter"",""1"",""3217""
","
","","","","","","676.6000003814697","<p> Today, you will see each image ONCE only.  </p><p>  That means none of the images will repeat. </p>","","0","instructions","","",""
"learning-instructions","16","101614","0.0-9.0-0.7","4161","approach_avoid_sv1","""event"",""trial"",""time""
""fullscreenenter"",""1"",""3217""
","
","
","""event"",""trial"",""time""
""fullscreenenter"",""1"",""3217""
","
","","","","","","962.5","<p> Before you play the real game, it is time to practice. </p><p>  Just like in the real game, some of the images in the practice will be ones you have seen before. </p><p>  Others will be entirely new. </p>","","0","instructions","","",""
"html-button-response","17","118542","0.0-10.0","4161","approach_avoid_sv1","""event"",""trial"",""time""
""fullscreenenter"",""1"",""3217""
","
","
","""event"",""trial"",""time""
""fullscreenenter"",""1"",""3217""
","
","","","","","","16802.099999904633","<p> Ready to practice? </p><p> Remember, use the 1, 2, 3, and 4 keys to make your responses. </p>","0","","instructions","","",""
"html-keyboard-response","18","119169","0.0-11.0-0.0","4161","approach_avoid_sv1","""event"",""trial"",""time""
""fullscreenenter"",""1"",""3217""
","
","
","""event"",""trial"",""time""
""fullscreenenter"",""1"",""3217""
","
","","","","","","null","<div style=""font-size:60px;"">+</div>","null","","fixation","","",""
"memory-trial","19","129189","0.0-11.0-1.0","4161","approach_avoid_sv1","""event"",""trial"",""time""
""fullscreenenter"",""1"",""3217""
","
","
","""event"",""trial"",""time""
""fullscreenenter"",""1"",""3217""
","
","","","","","","9290.900000095367","images/racket2.png","","","practice","1","definitely_old",""
"html-keyboard-response","20","129699","0.0-11.0-0.1","4161","approach_avoid_sv1","""event"",""trial"",""time""
""fullscreenenter"",""1"",""3217""
","
","
","""event"",""trial"",""time""
""fullscreenenter"",""1"",""3217""
","
","","","","","","null","<div style=""font-size:60px;"">+</div>","null","","fixation","","",""
"memory-trial","21","132367","0.0-11.0-1.1","4161","approach_avoid_sv1","""event"",""trial"",""time""
""fullscreenenter"",""1"",""3217""
","
","
","""event"",""trial"",""time""
""fullscreenenter"",""1"",""3217""
","
","","","","","","1666.7999997138977","images/ball2.png","","","practice","1","definitely_old",""
"html-keyboard-response","22","132870","0.0-11.0-0.2","4161","approach_avoid_sv1","""event"",""trial"",""time""
""fullscreenenter"",""1"",""3217""
","
","
","""event"",""trial"",""time""
""fullscreenenter"",""1"",""3217""
","
","","","","","","null","<div style=""font-size:60px;"">+</div>","null","","fixation","","",""
"memory-trial","23","135375","0.0-11.0-1.2","4161","approach_avoid_sv1","""event"",""trial"",""time""
""fullscreenenter"",""1"",""3217""
","
","
","""event"",""trial"",""time""
""fullscreenenter"",""1"",""3217""
","
","","","","","","1500.0999999046326","images/ball5.png","","","practice","1","definitely_old",""
"html-keyboard-response","24","135887","0.0-11.0-0.3","4161","approach_avoid_sv1","""event"",""trial"",""time""
""fullscreenenter"",""1"",""3217""
","
","
","""event"",""trial"",""time""
""fullscreenenter"",""1"",""3217""
","
","","","","","","null","<div style=""font-size:60px;"">+</div>","null","","fixation","","",""
"memory-trial","25","138550","0.0-11.0-1.3","4161","approach_avoid_sv1","""event"",""trial"",""time""
""fullscreenenter"",""1"",""3217""
","
","
","""event"",""trial"",""time""
""fullscreenenter"",""1"",""3217""
","
","","","","","","1659.4000000953674","images/racket1.png","","","practice","1","definitely_old",""
"html-keyboard-response","26","139065","0.0-11.0-0.4","4161","approach_avoid_sv1","""event"",""trial"",""time""
""fullscreenenter"",""1"",""3217""
","
","
","""event"",""trial"",""time""
""fullscreenenter"",""1"",""3217""
","
","","","","","","null","<div style=""font-size:60px;"">+</div>","null","","fixation","","",""
"memory-trial","27","141015","0.0-11.0-1.4","4161","approach_avoid_sv1","""event"",""trial"",""time""
""fullscreenenter"",""1"",""3217""
","
","
","""event"",""trial"",""time""
""fullscreenenter"",""1"",""3217""
","
","","","","","","937.7999997138977","images/racket3.png","","","practice","1","definitely_old",""
"html-keyboard-response","28","141519","0.0-11.0-0.5","4161","approach_avoid_sv1","""event"",""trial"",""time""
""fullscreenenter"",""1"",""3217""
","
","
","""event"",""trial"",""time""
""fullscreenenter"",""1"",""3217""
","
","","","","","","null","<div style=""font-size:60px;"">+</div>","null","","fixation","","",""
"memory-trial","29","143454","0.0-11.0-1.5","4161","approach_avoid_sv1","""event"",""trial"",""time""
""fullscreenenter"",""1"",""3217""
","
","
","""event"",""trial"",""time""
""fullscreenenter"",""1"",""3217""
","
","","","","","","932.0999999046326","images/ball3.png","","","practice","1","definitely_old",""
"html-keyboard-response","30","143959","0.0-11.0-0.6","4161","approach_avoid_sv1","""event"",""trial"",""time""
""fullscreenenter"",""1"",""3217""
","
","
","""event"",""trial"",""time""
""fullscreenenter"",""1"",""3217""
","
","","","","","","null","<div style=""font-size:60px;"">+</div>","null","","fixation","","",""
"memory-trial","31","145758","0.0-11.0-1.6","4161","approach_avoid_sv1","""event"",""trial"",""time""
""fullscreenenter"",""1"",""3217""
","
","
","""event"",""trial"",""time""
""fullscreenenter"",""1"",""3217""
","
","","","","","","795.3000001907349","images/ball1.png","","","practice","1","definitely_old",""
"html-keyboard-response","32","146270","0.0-11.0-0.7","4161","approach_avoid_sv1","""event"",""trial"",""time""
""fullscreenenter"",""1"",""3217""
","
","
","""event"",""trial"",""time""
""fullscreenenter"",""1"",""3217""
","
","","","","","","null","<div style=""font-size:60px;"">+</div>","null","","fixation","","",""
"memory-trial","33","150694","0.0-11.0-1.7","4161","approach_avoid_sv1","""event"",""trial"",""time""
""fullscreenenter"",""1"",""3217""
","
","
","""event"",""trial"",""time""
""fullscreenenter"",""1"",""3217""
","
","","","","","","3421.0999999046326","images/racket5.png","","","practice","3","maybe_new",""
"learning-instructions","34","160312","0.0-12.0-0.0","4161","approach_avoid_sv1","""event"",""trial"",""time""
""fullscreenenter"",""1"",""3217""
","
","
","""event"",""trial"",""time""
""fullscreenenter"",""1"",""3217""
","
","","","","","","2260.699999809265","<p> Great! You have completed the practice. </p><p> Before you start, we're going to ask you a few questions about how the game works.  </p>","","0","instructions","","",""
"preload","35","161816","0.0-13.0","4161","approach_avoid_sv1","""event"",""trial"",""time""
""fullscreenenter"",""1"",""3217""
","
","
","""event"",""trial"",""time""
""fullscreenenter"",""1"",""3217""
","
","true","false","[]","[]","[]","","","","","","","",""
"comp-q","36","169958","0.0-14.0-0.0","4161","approach_avoid_sv1","""event"",""trial"",""time""
""fullscreenenter"",""1"",""3217""
","
","
","""event"",""trial"",""time""
""fullscreenenter"",""1"",""3217""
","
","","","","","","2315.4000000953674","<p> <b> True or False? </b> </p><p> In this game, you will only see each image once. </p>","","0","comp_question","","","true"
"comp-q","37","186032","0.0-14.0-1.0","4161","approach_avoid_sv1","""event"",""trial"",""time""
""fullscreenenter"",""1"",""3217""
","
","
","""event"",""trial"",""time""
""fullscreenenter"",""1"",""3217""
","
","","","","","","9709.099999904633","<p> <b> That's right! </b> You will see many different images <i> one time each </i> in this game. </p>","","0","comp_answer","","",""
"comp-q","38","192652","0.0-15.0-0.0","4161","approach_avoid_sv1","""event"",""trial"",""time""
""fullscreenenter"",""1"",""3217""
","
","
","""event"",""trial"",""time""
""fullscreenenter"",""1"",""3217""
","
","","","","","","1607.5999999046326","<p> <b> True or False? </b> </p><p> You should use the mouse and click to make your response. </p>","","0","comp_question","","","false"
"comp-q","39","200445","0.0-15.0-1.0","4161","approach_avoid_sv1","""event"",""trial"",""time""
""fullscreenenter"",""1"",""3217""
","
","
","""event"",""trial"",""time""
""fullscreenenter"",""1"",""3217""
","
","","","","","","1241.1999998092651","<p><b> Incorrect. </b> You should use the '1', '2', '3', and '4' keys to make your response. </p>","","0","comp_answer","","",""
"comp-q","40","207196","0.0-15.1-0.1","4161","approach_avoid_sv1","""event"",""trial"",""time""
""fullscreenenter"",""1"",""3217""
","
","
","""event"",""trial"",""time""
""fullscreenenter"",""1"",""3217""
","
","","","","","","1721.9000000953674","<p> <b> True or False? </b> </p><p> You should use the mouse and click to make your response. </p>","","1","comp_question","","","true"
"comp-q","41","215060","0.0-15.1-1.1","4161","approach_avoid_sv1","""event"",""trial"",""time""
""fullscreenenter"",""1"",""3217""
","
","
","""event"",""trial"",""time""
""fullscreenenter"",""1"",""3217""
","
","","","","","","1347","<p><b> That's right! </b> You should use the '1', '2', '3', and '4' keys to make your response. </p>","","0","comp_answer","","",""
"comp-q","42","221496","0.0-16.0-0.0","4161","approach_avoid_sv1","""event"",""trial"",""time""
""fullscreenenter"",""1"",""3217""
","
","
","""event"",""trial"",""time""
""fullscreenenter"",""1"",""3217""
","
","","","","","","752.0999999046326","<p> <b> True or False? </b> </p><p> You will have as much time as you want to make each choice. </p>","","1","comp_question","","","true"
"comp-q","43","227516","0.0-16.0-1.0","4161","approach_avoid_sv1","""event"",""trial"",""time""
""fullscreenenter"",""1"",""3217""
","
","
","""event"",""trial"",""time""
""fullscreenenter"",""1"",""3217""
","
","","","","","","1322.0999999046326","<p> <b> That's right! </b> You will only have 10 seconds to make each choice. </p>","","0","comp_answer","","",""
"learning-instructions","44","237712","0.0-17.0","4161","approach_avoid_sv1","""event"",""trial"",""time""
""fullscreenenter"",""1"",""3217""
","
","
","""event"",""trial"",""time""
""fullscreenenter"",""1"",""3217""
","
","","","","","","1507.5","<p> Great! You are now ready to begin the game. </p><p> Remember, use the 1, 2, 3, and 4 keys to make your responses. </p>","","0","instructions","","",""
"html-keyboard-response","45","238342","0.0-18.0-0.0","4161","approach_avoid_sv1","""event"",""trial"",""time""
""fullscreenenter"",""1"",""3217""
","
","
","""event"",""trial"",""time""
""fullscreenenter"",""1"",""3217""
","
","","","","","","null","<div style=""font-size:60px;"">+</div>","null","","fixation","","",""
"memory-trial","46","242752","0.0-18.0-1.0","4161","approach_avoid_sv1","""event"",""trial"",""time""
""fullscreenenter"",""1"",""3217""
","
","
","""event"",""trial"",""time""
""fullscreenenter"",""1"",""3217""
","
","","","","","","3389.2999997138977","images/rodent4.png","","","memory_trial","3","maybe_new",""
"html-keyboard-response","47","243272","0.0-18.0-0.1","4161","approach_avoid_sv1","""event"",""trial"",""time""
""fullscreenenter"",""1"",""3217""
","
","
","""event"",""trial"",""time""
""fullscreenenter"",""1"",""3217""
","
","","","","","","null","<div style=""font-size:60px;"">+</div>","null","","fixation","","",""
"memory-trial","48","246262","0.0-18.0-1.1","4161","approach_avoid_sv1","""event"",""trial"",""time""
""fullscreenenter"",""1"",""3217""
","
","
","""event"",""trial"",""time""
""fullscreenenter"",""1"",""3217""
","
","","","","","","1971.0999999046326","images/chair1.png","","","memory_trial","1","definitely_old",""
"html-keyboard-response","49","246771","0.0-18.0-0.2","4161","approach_avoid_sv1","""event"",""trial"",""time""
""fullscreenenter"",""1"",""3217""
","
","
","""event"",""trial"",""time""
""fullscreenenter"",""1"",""3217""
","
","","","","","","null","<div style=""font-size:60px;"">+</div>","null","","fixation","","",""
"memory-trial","50","249072","0.0-18.0-1.2","4161","approach_avoid_sv1","""event"",""trial"",""time""
""fullscreenenter"",""1"",""3217""
","
","
","""event"",""trial"",""time""
""fullscreenenter"",""1"",""3217""
","
","","","","","","1280.7999997138977","images/train6.png","","","memory_trial","1","definitely_old",""
"html-keyboard-response","51","249578","0.0-18.0-0.3","4161","approach_avoid_sv1","""event"",""trial"",""time""
""fullscreenenter"",""1"",""3217""
","
","
","""event"",""trial"",""time""
""fullscreenenter"",""1"",""3217""
","
","","","","","","null","<div style=""font-size:60px;"">+</div>","null","","fixation","","",""
"memory-trial","52","251752","0.0-18.0-1.3","4161","approach_avoid_sv1","""event"",""trial"",""time""
""fullscreenenter"",""1"",""3217""
","
","
","""event"",""trial"",""time""
""fullscreenenter"",""1"",""3217""
","
","","","","","","1153.4000000953674","images/table1.png","","","memory_trial","1","definitely_old",""
"html-keyboard-response","53","252272","0.0-18.0-0.4","4161","approach_avoid_sv1","""event"",""trial"",""time""
""fullscreenenter"",""1"",""3217""
","
","
","""event"",""trial"",""time""
""fullscreenenter"",""1"",""3217""
","
","","","","","","null","<div style=""font-size:60px;"">+</div>","null","","fixation","","",""
"memory-trial","54","254523","0.0-18.0-1.4","4161","approach_avoid_sv1","""event"",""trial"",""time""
""fullscreenenter"",""1"",""3217""
","
","
","""event"",""trial"",""time""
""fullscreenenter"",""1"",""3217""
","
","","","","","","1236.8000001907349","images/horse3.png","","","memory_trial","1","definitely_old",""
"html-keyboard-response","55","255032","0.0-18.0-0.5","4161","approach_avoid_sv1","""event"",""trial"",""time""
""fullscreenenter"",""1"",""3217""
","
","
","""event"",""trial"",""time""
""fullscreenenter"",""1"",""3217""
","
","","","","","","null","<div style=""font-size:60px;"">+</div>","null","","fixation","","",""
"memory-trial","56","256832","0.0-18.0-1.5","4161","approach_avoid_sv1","""event"",""trial"",""time""
""fullscreenenter"",""1"",""3217""
","
","
","""event"",""trial"",""time""
""fullscreenenter"",""1"",""3217""
","
","","","","","","787.0999999046326","images/orange4.png","","","memory_trial","1","definitely_old",""
"html-keyboard-response","57","257352","0.0-18.0-0.6","4161","approach_avoid_sv1","""event"",""trial"",""time""
""fullscreenenter"",""1"",""3217""
","
","
","""event"",""trial"",""time""
""fullscreenenter"",""1"",""3217""
","
","","","","","","null","<div style=""font-size:60px;"">+</div>","null","","fixation","","",""
"memory-trial","58","260042","0.0-18.0-1.6","4161","approach_avoid_sv1","""event"",""trial"",""time""
""fullscreenenter"",""1"",""3217""
","
","
","""event"",""trial"",""time""
""fullscreenenter"",""1"",""3217""
","
","","","","","","1661.3000001907349","images/apple6.png","","","memory_trial","1","definitely_old",""
"html-keyboard-response","59","260552","0.0-18.0-0.7","4161","approach_avoid_sv1","""event"",""trial"",""time""
""fullscreenenter"",""1"",""3217""
","
","
","""event"",""trial"",""time""
""fullscreenenter"",""1"",""3217""
","
","","","","","","null","<div style=""font-size:60px;"">+</div>","null","","fixation","","",""
"memory-trial","60","263782","0.0-18.0-1.7","4161","approach_avoid_sv1","""event"",""trial"",""time""
""fullscreenenter"",""1"",""3217""
","
","
","""event"",""trial"",""time""
""fullscreenenter"",""1"",""3217""
","
","","","","","","2219.9000000953674","images/rodent7.png","","","memory_trial","3","maybe_new",""
"html-keyboard-response","61","264303","0.0-18.0-0.8","4161","approach_avoid_sv1","""event"",""trial"",""time""
""fullscreenenter"",""1"",""3217""
","
","
","""event"",""trial"",""time""
""fullscreenenter"",""1"",""3217""
","
","","","","","","null","<div style=""font-size:60px;"">+</div>","null","","fixation","","",""
"memory-trial","62","267592","0.0-18.0-1.8","4161","approach_avoid_sv1","""event"",""trial"",""time""
""fullscreenenter"",""1"",""3217""
","
","
","""event"",""trial"",""time""
""fullscreenenter"",""1"",""3217""
","
","","","","","","2278.5999999046326","images/plane7.png","","","memory_trial","1","definitely_old",""
"html-keyboard-response","63","268096","0.0-18.0-0.9","4161","approach_avoid_sv1","""event"",""trial"",""time""
""fullscreenenter"",""1"",""3217""
","
","
","""event"",""trial"",""time""
""fullscreenenter"",""1"",""3217""
","
","","","","","","null","<div style=""font-size:60px;"">+</div>","null","","fixation","","",""
"memory-trial","64","270521","0.0-18.0-1.9","4161","approach_avoid_sv1","""event"",""trial"",""time""
""fullscreenenter"",""1"",""3217""
","
","
","""event"",""trial"",""time""
""fullscreenenter"",""1"",""3217""
","
","","","","","","1412.6999998092651","images/table3.png","","","memory_trial","1","definitely_old",""
"html-keyboard-response","65","271024","0.0-18.0-0.10","4161","approach_avoid_sv1","""event"",""trial"",""time""
""fullscreenenter"",""1"",""3217""
","
","
","""event"",""trial"",""time""
""fullscreenenter"",""1"",""3217""
","
","","","","","","null","<div style=""font-size:60px;"">+</div>","null","","fixation","","",""
"memory-trial","66","272984","0.0-18.0-1.10","4161","approach_avoid_sv1","""event"",""trial"",""time""
""fullscreenenter"",""1"",""3217""
","
","
","""event"",""trial"",""time""
""fullscreenenter"",""1"",""3217""
","
","","","","","","955.9000000953674","images/bush2.png","","","memory_trial","1","definitely_old",""
"html-keyboard-response","67","273488","0.0-18.0-0.11","4161","approach_avoid_sv1","""event"",""trial"",""time""
""fullscreenenter"",""1"",""3217""
","
","
","""event"",""trial"",""time""
""fullscreenenter"",""1"",""3217""
","
","","","","","","null","<div style=""font-size:60px;"">+</div>","null","","fixation","","",""
"memory-trial","68","275744","0.0-18.0-1.11","4161","approach_avoid_sv1","""event"",""trial"",""time""
""fullscreenenter"",""1"",""3217""
","
","
","""event"",""trial"",""time""
""fullscreenenter"",""1"",""3217""
","
","","","","","","1253","images/dog8.png","","","memory_trial","1","definitely_old",""
"html-keyboard-response","69","276248","0.0-18.0-0.12","4161","approach_avoid_sv1","""event"",""trial"",""time""
""fullscreenenter"",""1"",""3217""
","
","
","""event"",""trial"",""time""
""fullscreenenter"",""1"",""3217""
","
","","","","","","null","<div style=""font-size:60px;"">+</div>","null","","fixation","","",""
"memory-trial","70","280096","0.0-18.0-1.12","4161","approach_avoid_sv1","""event"",""trial"",""time""
""fullscreenenter"",""1"",""3217""
","
","
","""event"",""trial"",""time""
""fullscreenenter"",""1"",""3217""
","
","","","","","","2845.0999999046326","images/cat3.png","","","memory_trial","3","maybe_new",""
"html-keyboard-response","71","280604","0.0-18.0-0.13","4161","approach_avoid_sv1","""event"",""trial"",""time""
""fullscreenenter"",""1"",""3217""
","
","
","""event"",""trial"",""time""
""fullscreenenter"",""1"",""3217""
","
","","","","","","null","<div style=""font-size:60px;"">+</div>","null","","fixation","","",""
"memory-trial","72","282640","0.0-18.0-1.13","4161","approach_avoid_sv1","""event"",""trial"",""time""
""fullscreenenter"",""1"",""3217""
","
","
","""event"",""trial"",""time""
""fullscreenenter"",""1"",""3217""
","
","","","","","","1023.9000000953674","images/banana6.png","","","memory_trial","1","definitely_old",""
"html-keyboard-response","73","283145","0.0-18.0-0.14","4161","approach_avoid_sv1","""event"",""trial"",""time""
""fullscreenenter"",""1"",""3217""
","
","
","""event"",""trial"",""time""
""fullscreenenter"",""1"",""3217""
","
","","","","","","null","<div style=""font-size:60px;"">+</div>","null","","fixation","","",""
"memory-trial","74","284984","0.0-18.0-1.14","4161","approach_avoid_sv1","""event"",""trial"",""time""
""fullscreenenter"",""1"",""3217""
","
","
","""event"",""trial"",""time""
""fullscreenenter"",""1"",""3217""
","
","","","","","","835.5","images/straw8.png","","","memory_trial","1","definitely_old",""
"html-keyboard-response","75","285488","0.0-18.0-0.15","4161","approach_avoid_sv1","""event"",""trial"",""time""
""fullscreenenter"",""1"",""3217""
","
","
","""event"",""trial"",""time""
""fullscreenenter"",""1"",""3217""
","
","","","","","","null","<div style=""font-size:60px;"">+</div>","null","","fixation","","",""
"memory-trial","76","287880","0.0-18.0-1.15","4161","approach_avoid_sv1","""event"",""trial"",""time""
""fullscreenenter"",""1"",""3217""
","
","
","""event"",""trial"",""time""
""fullscreenenter"",""1"",""3217""
","
","","","","","","1389.2999997138977","images/sheep8.png","","","memory_trial","1","definitely_old",""
"html-keyboard-response","77","288385","0.0-18.0-0.16","4161","approach_avoid_sv1","""event"",""trial"",""time""
""fullscreenenter"",""1"",""3217""
","
","
","""event"",""trial"",""time""
""fullscreenenter"",""1"",""3217""
","
","","","","","","null","<div style=""font-size:60px;"">+</div>","null","","fixation","","",""
"memory-trial","78","290913","0.0-18.0-1.16","4161","approach_avoid_sv1","""event"",""trial"",""time""
""fullscreenenter"",""1"",""3217""
","
","
","""event"",""trial"",""time""
""fullscreenenter"",""1"",""3217""
","
","","","","","","1524.5","images/truck1.png","","","memory_trial","3","maybe_new",""
"html-keyboard-response","79","291415","0.0-18.0-0.17","4161","approach_avoid_sv1","""event"",""trial"",""time""
""fullscreenenter"",""1"",""3217""
","
","
","""event"",""trial"",""time""
""fullscreenenter"",""1"",""3217""
","
","","","","","","null","<div style=""font-size:60px;"">+</div>","null","","fixation","","",""
"memory-trial","80","294104","0.0-18.0-1.17","4161","approach_avoid_sv1","""event"",""trial"",""time""
""fullscreenenter"",""1"",""3217""
","
","
","""event"",""trial"",""time""
""fullscreenenter"",""1"",""3217""
","
","","","","","","1669.5999999046326","images/sofa1.png","","","memory_trial","3","maybe_new",""
"html-keyboard-response","81","294608","0.0-18.0-0.18","4161","approach_avoid_sv1","""event"",""trial"",""time""
""fullscreenenter"",""1"",""3217""
","
","
","""event"",""trial"",""time""
""fullscreenenter"",""1"",""3217""
","
","","","","","","null","<div style=""font-size:60px;"">+</div>","null","","fixation","","",""
"memory-trial","82","296488","0.0-18.0-1.18","4161","approach_avoid_sv1","""event"",""trial"",""time""
""fullscreenenter"",""1"",""3217""
","
","
","""event"",""trial"",""time""
""fullscreenenter"",""1"",""3217""
","
","","","","","","877.4000000953674","images/sheep2.png","","","memory_trial","1","definitely_old",""
"html-keyboard-response","83","296992","0.0-18.0-0.19","4161","approach_avoid_sv1","""event"",""trial"",""time""
""fullscreenenter"",""1"",""3217""
","
","
","""event"",""trial"",""time""
""fullscreenenter"",""1"",""3217""
","
","","","","","","null","<div style=""font-size:60px;"">+</div>","null","","fixation","","",""
"memory-trial","84","299484","0.0-18.0-1.19","4161","approach_avoid_sv1","""event"",""trial"",""time""
""fullscreenenter"",""1"",""3217""
","
","
","""event"",""trial"",""time""
""fullscreenenter"",""1"",""3217""
","
","","","","","","1476.5","images/plane6.png","","","memory_trial","3","maybe_new",""
"html-keyboard-response","85","299992","0.0-18.0-0.20","4161","approach_avoid_sv1","""event"",""trial"",""time""
""fullscreenenter"",""1"",""3217""
","
","
","""event"",""trial"",""time""
""fullscreenenter"",""1"",""3217""
","
","","","","","","null","<div style=""font-size:60px;"">+</div>","null","","fixation","","",""
"memory-trial","86","302448","0.0-18.0-1.20","4161","approach_avoid_sv1","""event"",""trial"",""time""
""fullscreenenter"",""1"",""3217""
","
","
","""event"",""trial"",""time""
""fullscreenenter"",""1"",""3217""
","
","","","","","","1453.5","images/sheep7.png","","","memory_trial","3","maybe_new",""
"html-keyboard-response","87","302951","0.0-18.0-0.21","4161","approach_avoid_sv1","""event"",""trial"",""time""
""fullscreenenter"",""1"",""3217""
","
","
","""event"",""trial"",""time""
""fullscreenenter"",""1"",""3217""
","
","","","","","","null","<div style=""font-size:60px;"">+</div>","null","","fixation","","",""
"memory-trial","88","305608","0.0-18.0-1.21","4161","approach_avoid_sv1","""event"",""trial"",""time""
""fullscreenenter"",""1"",""3217""
","
","
","""event"",""trial"",""time""
""fullscreenenter"",""1"",""3217""
","
","","","","","","1645.6999998092651","images/orange3.png","","","memory_trial","3","maybe_new",""
"html-keyboard-response","89","306124","0.0-18.0-0.22","4161","approach_avoid_sv1","""event"",""trial"",""time""
""fullscreenenter"",""1"",""3217""
","
","
","""event"",""trial"",""time""
""fullscreenenter"",""1"",""3217""
","
","","","","","","null","<div style=""font-size:60px;"">+</div>","null","","fixation","","",""
"memory-trial","90","308032","0.0-18.0-1.22","4161","approach_avoid_sv1","""event"",""trial"",""time""
""fullscreenenter"",""1"",""3217""
","
","
","""event"",""trial"",""time""
""fullscreenenter"",""1"",""3217""
","
","","","","","","906.3000001907349","images/flower3.png","","","memory_trial","1","definitely_old",""
"html-keyboard-response","91","308536","0.0-18.0-0.23","4161","approach_avoid_sv1","""event"",""trial"",""time""
""fullscreenenter"",""1"",""3217""
","
","
","""event"",""trial"",""time""
""fullscreenenter"",""1"",""3217""
","
","","","","","","null","<div style=""font-size:60px;"">+</div>","null","","fixation","","",""
"memory-trial","92","310602","0.0-18.0-1.23","4161","approach_avoid_sv1","""event"",""trial"",""time""
""fullscreenenter"",""1"",""3217""
","
","
","""event"",""trial"",""time""
""fullscreenenter"",""1"",""3217""
","
","","","","","","1061.5999999046326","images/plane1.png","","","memory_trial","1","definitely_old",""
"html-keyboard-response","93","311105","0.0-18.0-0.24","4161","approach_avoid_sv1","""event"",""trial"",""time""
""fullscreenenter"",""1"",""3217""
","
","
","""event"",""trial"",""time""
""fullscreenenter"",""1"",""3217""
","
","","","","","","null","<div style=""font-size:60px;"">+</div>","null","","fixation","","",""
"memory-trial","94","312995","0.0-18.0-1.24","4161","approach_avoid_sv1","""event"",""trial"",""time""
""fullscreenenter"",""1"",""3217""
","
","
","""event"",""trial"",""time""
""fullscreenenter"",""1"",""3217""
","
","","","","","","882.6999998092651","images/tree3.png","","","memory_trial","1","definitely_old",""
"html-keyboard-response","95","313505","0.0-18.0-0.25","4161","approach_avoid_sv1","""event"",""trial"",""time""
""fullscreenenter"",""1"",""3217""
","
","
","""event"",""trial"",""time""
""fullscreenenter"",""1"",""3217""
","
","","","","","","null","<div style=""font-size:60px;"">+</div>","null","","fixation","","",""
"memory-trial","96","315882","0.0-18.0-1.25","4161","approach_avoid_sv1","""event"",""trial"",""time""
""fullscreenenter"",""1"",""3217""
","
","
","""event"",""trial"",""time""
""fullscreenenter"",""1"",""3217""
","
","","","","","","1357.7000002861023","images/rodent6.png","","","memory_trial","3","maybe_new",""
"html-keyboard-response","97","316385","0.0-18.0-0.26","4161","approach_avoid_sv1","""event"",""trial"",""time""
""fullscreenenter"",""1"",""3217""
","
","
","""event"",""trial"",""time""
""fullscreenenter"",""1"",""3217""
","
","","","","","","null","<div style=""font-size:60px;"">+</div>","null","","fixation","","",""
"memory-trial","98","318376","0.0-18.0-1.26","4161","approach_avoid_sv1","""event"",""trial"",""time""
""fullscreenenter"",""1"",""3217""
","
","
","""event"",""trial"",""time""
""fullscreenenter"",""1"",""3217""
","
","","","","","","988.9000000953674","images/horse6.png","","","memory_trial","1","definitely_old",""
"html-keyboard-response","99","318895","0.0-18.0-0.27","4161","approach_avoid_sv1","""event"",""trial"",""time""
""fullscreenenter"",""1"",""3217""
","
","
","""event"",""trial"",""time""
""fullscreenenter"",""1"",""3217""
","
","","","","","","null","<div style=""font-size:60px;"">+</div>","null","","fixation","","",""
"memory-trial","100","320864","0.0-18.0-1.27","4161","approach_avoid_sv1","""event"",""trial"",""time""
""fullscreenenter"",""1"",""3217""
","
","
","""event"",""trial"",""time""
""fullscreenenter"",""1"",""3217""
","
","","","","","","965.6000003814697","images/straw2.png","","","memory_trial","1","definitely_old",""
"html-keyboard-response","101","321368","0.0-18.0-0.28","4161","approach_avoid_sv1","""event"",""trial"",""time""
""fullscreenenter"",""1"",""3217""
","
","
","""event"",""trial"",""time""
""fullscreenenter"",""1"",""3217""
","
","","","","","","null","<div style=""font-size:60px;"">+</div>","null","","fixation","","",""
"memory-trial","102","323264","0.0-18.0-1.28","4161","approach_avoid_sv1","""event"",""trial"",""time""
""fullscreenenter"",""1"",""3217""
","
","
","""event"",""trial"",""time""
""fullscreenenter"",""1"",""3217""
","
","","","","","","893.5","images/goat8.png","","","memory_trial","1","definitely_old",""
"html-keyboard-response","103","323769","0.0-18.0-0.29","4161","approach_avoid_sv1","""event"",""trial"",""time""
""fullscreenenter"",""1"",""3217""
","
","
","""event"",""trial"",""time""
""fullscreenenter"",""1"",""3217""
","
","","","","","","null","<div style=""font-size:60px;"">+</div>","null","","fixation","","",""
"memory-trial","104","326218","0.0-18.0-1.29","4161","approach_avoid_sv1","""event"",""trial"",""time""
""fullscreenenter"",""1"",""3217""
","
","
","""event"",""trial"",""time""
""fullscreenenter"",""1"",""3217""
","
","","","","","","1437.3999996185303","images/train8.png","","","memory_trial","3","maybe_new",""
"html-keyboard-response","105","326720","0.0-18.0-0.30","4161","approach_avoid_sv1","""event"",""trial"",""time""
""fullscreenenter"",""1"",""3217""
","
","
","""event"",""trial"",""time""
""fullscreenenter"",""1"",""3217""
","
","","","","","","null","<div style=""font-size:60px;"">+</div>","null","","fixation","","",""
"memory-trial","106","328689","0.0-18.0-1.30","4161","approach_avoid_sv1","""event"",""trial"",""time""
""fullscreenenter"",""1"",""3217""
","
","
","""event"",""trial"",""time""
""fullscreenenter"",""1"",""3217""
","
","","","","","","957.5999999046326","images/bed5.png","","","memory_trial","3","maybe_new",""
"html-keyboard-response","107","329206","0.0-18.0-0.31","4161","approach_avoid_sv1","""event"",""trial"",""time""
""fullscreenenter"",""1"",""3217""
","
","
","""event"",""trial"",""time""
""fullscreenenter"",""1"",""3217""
","
","","","","","","null","<div style=""font-size:60px;"">+</div>","null","","fixation","","",""
"memory-trial","108","331141","0.0-18.0-1.31","4161","approach_avoid_sv1","""event"",""trial"",""time""
""fullscreenenter"",""1"",""3217""
","
","
","""event"",""trial"",""time""
""fullscreenenter"",""1"",""3217""
","
","","","","","","911","images/cactus6.png","","","memory_trial","3","maybe_new",""
"html-keyboard-response","109","331650","0.0-18.0-0.32","4161","approach_avoid_sv1","""event"",""trial"",""time""
""fullscreenenter"",""1"",""3217""
","
","
","""event"",""trial"",""time""
""fullscreenenter"",""1"",""3217""
","
","","","","","","null","<div style=""font-size:60px;"">+</div>","null","","fixation","","",""
"memory-trial","110","334224","0.0-18.0-1.32","4161","approach_avoid_sv1","""event"",""trial"",""time""
""fullscreenenter"",""1"",""3217""
","
","
","""event"",""trial"",""time""
""fullscreenenter"",""1"",""3217""
","
","","","","","","1571.6999998092651","images/train5.png","","","memory_trial","1","definitely_old",""
"html-keyboard-response","111","334728","0.0-18.0-0.33","4161","approach_avoid_sv1","""event"",""trial"",""time""
""fullscreenenter"",""1"",""3217""
","
","
","""event"",""trial"",""time""
""fullscreenenter"",""1"",""3217""
","
","","","","","","null","<div style=""font-size:60px;"">+</div>","null","","fixation","","",""
"memory-trial","112","336642","0.0-18.0-1.33","4161","approach_avoid_sv1","""event"",""trial"",""time""
""fullscreenenter"",""1"",""3217""
","
","
","""event"",""trial"",""time""
""fullscreenenter"",""1"",""3217""
","
","","","","","","902.5","images/rodent3.png","","","memory_trial","3","maybe_new",""
"html-keyboard-response","113","337144","0.0-18.0-0.34","4161","approach_avoid_sv1","""event"",""trial"",""time""
""fullscreenenter"",""1"",""3217""
","
","
","""event"",""trial"",""time""
""fullscreenenter"",""1"",""3217""
","
","","","","","","null","<div style=""font-size:60px;"">+</div>","null","","fixation","","",""
"memory-trial","114","341744","0.0-18.0-1.34","4161","approach_avoid_sv1","""event"",""trial"",""time""
""fullscreenenter"",""1"",""3217""
","
","
","""event"",""trial"",""time""
""fullscreenenter"",""1"",""3217""
","
","","","","","","3596.1000003814697","images/straw3.png","","","memory_trial","3","maybe_new",""
"html-keyboard-response","115","342250","0.0-18.0-0.35","4161","approach_avoid_sv1","""event"",""trial"",""time""
""fullscreenenter"",""1"",""3217""
","
","
","""event"",""trial"",""time""
""fullscreenenter"",""1"",""3217""
","
","","","","","","null","<div style=""font-size:60px;"">+</div>","null","","fixation","","",""
"memory-trial","116","344216","0.0-18.0-1.35","4161","approach_avoid_sv1","""event"",""trial"",""time""
""fullscreenenter"",""1"",""3217""
","
","
","""event"",""trial"",""time""
""fullscreenenter"",""1"",""3217""
","
","","","","","","961.7999997138977","images/rabbit3.png","","","memory_trial","1","definitely_old",""
"html-keyboard-response","117","344720","0.0-18.0-0.36","4161","approach_avoid_sv1","""event"",""trial"",""time""
""fullscreenenter"",""1"",""3217""
","
","
","""event"",""trial"",""time""
""fullscreenenter"",""1"",""3217""
","
","","","","","","null","<div style=""font-size:60px;"">+</div>","null","","fixation","","",""
"memory-trial","118","346624","0.0-18.0-1.36","4161","approach_avoid_sv1","""event"",""trial"",""time""
""fullscreenenter"",""1"",""3217""
","
","
","""event"",""trial"",""time""
""fullscreenenter"",""1"",""3217""
","
","","","","","","901.0999999046326","images/bed4.png","","","memory_trial","3","maybe_new",""
"html-keyboard-response","119","347129","0.0-18.0-0.37","4161","approach_avoid_sv1","""event"",""trial"",""time""
""fullscreenenter"",""1"",""3217""
","
","
","""event"",""trial"",""time""
""fullscreenenter"",""1"",""3217""
","
","","","","","","null","<div style=""font-size:60px;"">+</div>","null","","fixation","","",""
"memory-trial","120","349096","0.0-18.0-1.37","4161","approach_avoid_sv1","""event"",""trial"",""time""
""fullscreenenter"",""1"",""3217""
","
","
","""event"",""trial"",""time""
""fullscreenenter"",""1"",""3217""
","
","","","","","","956.8000001907349","images/cow6.png","","","memory_trial","1","definitely_old",""
"html-keyboard-response","121","349600","0.0-18.0-0.38","4161","approach_avoid_sv1","""event"",""trial"",""time""
""fullscreenenter"",""1"",""3217""
","
","
","""event"",""trial"",""time""
""fullscreenenter"",""1"",""3217""
","
","","","","","","null","<div style=""font-size:60px;"">+</div>","null","","fixation","","",""
"memory-trial","122","352032","0.0-18.0-1.38","4161","approach_avoid_sv1","""event"",""trial"",""time""
""fullscreenenter"",""1"",""3217""
","
","
","""event"",""trial"",""time""
""fullscreenenter"",""1"",""3217""
","
","","","","","","1429.1000003814697","images/plane2.png","","","memory_trial","1","definitely_old",""
"html-keyboard-response","123","352536","0.0-18.0-0.39","4161","approach_avoid_sv1","""event"",""trial"",""time""
""fullscreenenter"",""1"",""3217""
","
","
","""event"",""trial"",""time""
""fullscreenenter"",""1"",""3217""
","
","","","","","","null","<div style=""font-size:60px;"">+</div>","null","","fixation","","",""
"memory-trial","124","357458","0.0-18.0-1.39","4161","approach_avoid_sv1","""event"",""trial"",""time""
""fullscreenenter"",""1"",""3217""
","
","
","""event"",""trial"",""time""
""fullscreenenter"",""1"",""3217""
","
","","","","","","3910","images/flower6.png","","","memory_trial","3","maybe_new",""
"html-keyboard-response","125","357973","0.0-18.0-0.40","4161","approach_avoid_sv1","""event"",""trial"",""time""
""fullscreenenter"",""1"",""3217""
","
","
","""event"",""trial"",""time""
""fullscreenenter"",""1"",""3217""
","
","","","","","","null","<div style=""font-size:60px;"">+</div>","null","","fixation","","",""
"memory-trial","126","359654","0.0-18.0-1.40","4161","approach_avoid_sv1","""event"",""trial"",""time""
""fullscreenenter"",""1"",""3217""
","
","
","""event"",""trial"",""time""
""fullscreenenter"",""1"",""3217""
","
","","","","","","655.7000002861023","images/straw4.png","","","memory_trial","1","definitely_old",""
"html-keyboard-response","127","360171","0.0-18.0-0.41","4161","approach_avoid_sv1","""event"",""trial"",""time""
""fullscreenenter"",""1"",""3217""
","
","
","""event"",""trial"",""time""
""fullscreenenter"",""1"",""3217""
","
","","","","","","null","<div style=""font-size:60px;"">+</div>","null","","fixation","","",""
"memory-trial","128","361887","0.0-18.0-1.41","4161","approach_avoid_sv1","""event"",""trial"",""time""
""fullscreenenter"",""1"",""3217""
","
","
","""event"",""trial"",""time""
""fullscreenenter"",""1"",""3217""
","
","","","","","","706.7000002861023","images/banana5.png","","","memory_trial","1","definitely_old",""
"html-button-response","129","363665","0.0-18.0-2.41-0.41","4161","approach_avoid_sv1","""event"",""trial"",""time""
""fullscreenenter"",""1"",""3217""
","
","
","""event"",""trial"",""time""
""fullscreenenter"",""1"",""3217""
","
","","","","","","1776.6999998092651","<p> Take a break! </p><p> Click the button to continue. </p>","0","","break","","",""
"html-keyboard-response","130","364168","0.0-18.0-0.42","4161","approach_avoid_sv1","""event"",""trial"",""time""
""fullscreenenter"",""1"",""3217""
","
","
","""event"",""trial"",""time""
""fullscreenenter"",""1"",""3217""
","
","","","","","","null","<div style=""font-size:60px;"">+</div>","null","","fixation","","",""
"memory-trial","131","366497","0.0-18.0-1.42","4161","approach_avoid_sv1","""event"",""trial"",""time""
""fullscreenenter"",""1"",""3217""
","
","
","""event"",""trial"",""time""
""fullscreenenter"",""1"",""3217""
","
","","","","","","1316.0999999046326","images/chair2.png","","","memory_trial","1","definitely_old",""
"html-keyboard-response","132","367000","0.0-18.0-0.43","4161","approach_avoid_sv1","""event"",""trial"",""time""
""fullscreenenter"",""1"",""3217""
","
","
","""event"",""trial"",""time""
""fullscreenenter"",""1"",""3217""
","
","","","","","","null","<div style=""font-size:60px;"">+</div>","null","","fixation","","",""
"memory-trial","133","370018","0.0-18.0-1.43","4161","approach_avoid_sv1","""event"",""trial"",""time""
""fullscreenenter"",""1"",""3217""
","
","
","""event"",""trial"",""time""
""fullscreenenter"",""1"",""3217""
","
","","","","","","2005.4000000953674","images/chair8.png","","","memory_trial","3","maybe_new",""
"html-keyboard-response","134","370520","0.0-18.0-0.44","4161","approach_avoid_sv1","""event"",""trial"",""time""
""fullscreenenter"",""1"",""3217""
","
","
","""event"",""trial"",""time""
""fullscreenenter"",""1"",""3217""
","
","","","","","","null","<div style=""font-size:60px;"">+</div>","null","","fixation","","",""
"memory-trial","135","373850","0.0-18.0-1.44","4161","approach_avoid_sv1","""event"",""trial"",""time""
""fullscreenenter"",""1"",""3217""
","
","
","""event"",""trial"",""time""
""fullscreenenter"",""1"",""3217""
","
","","","","","","2325.1000003814697","images/straw1.png","","","memory_trial","3","maybe_new",""
"html-keyboard-response","136","374352","0.0-18.0-0.45","4161","approach_avoid_sv1","""event"",""trial"",""time""
""fullscreenenter"",""1"",""3217""
","
","
","""event"",""trial"",""time""
""fullscreenenter"",""1"",""3217""
","
","","","","","","null","<div style=""font-size:60px;"">+</div>","null","","fixation","","",""
"memory-trial","137","376088","0.0-18.0-1.45","4161","approach_avoid_sv1","""event"",""trial"",""time""
""fullscreenenter"",""1"",""3217""
","
","
","""event"",""trial"",""time""
""fullscreenenter"",""1"",""3217""
","
","","","","","","732.4000000953674","images/tree6.png","","","memory_trial","1","definitely_old",""
"html-keyboard-response","138","376601","0.0-18.0-0.46","4161","approach_avoid_sv1","""event"",""trial"",""time""
""fullscreenenter"",""1"",""3217""
","
","
","""event"",""trial"",""time""
""fullscreenenter"",""1"",""3217""
","
","","","","","","null","<div style=""font-size:60px;"">+</div>","null","","fixation","","",""
"memory-trial","139","379192","0.0-18.0-1.46","4161","approach_avoid_sv1","""event"",""trial"",""time""
""fullscreenenter"",""1"",""3217""
","
","
","""event"",""trial"",""time""
""fullscreenenter"",""1"",""3217""
","
","","","","","","1580.6000003814697","images/straw6.png","","","memory_trial","1","definitely_old",""
"html-keyboard-response","140","379697","0.0-18.0-0.47","4161","approach_avoid_sv1","""event"",""trial"",""time""
""fullscreenenter"",""1"",""3217""
","
","
","""event"",""trial"",""time""
""fullscreenenter"",""1"",""3217""
","
","","","","","","null","<div style=""font-size:60px;"">+</div>","null","","fixation","","",""
"memory-trial","141","383501","0.0-18.0-1.47","4161","approach_avoid_sv1","""event"",""trial"",""time""
""fullscreenenter"",""1"",""3217""
","
","
","""event"",""trial"",""time""
""fullscreenenter"",""1"",""3217""
","
","","","","","","2788.5999999046326","images/dog2.png","","","memory_trial","3","maybe_new",""
"html-keyboard-response","142","384008","0.0-18.0-0.48","4161","approach_avoid_sv1","""event"",""trial"",""time""
""fullscreenenter"",""1"",""3217""
","
","
","""event"",""trial"",""time""
""fullscreenenter"",""1"",""3217""
","
","","","","","","null","<div style=""font-size:60px;"">+</div>","null","","fixation","","",""
"memory-trial","143","386384","0.0-18.0-1.48","4161","approach_avoid_sv1","""event"",""trial"",""time""
""fullscreenenter"",""1"",""3217""
","
","
","""event"",""trial"",""time""
""fullscreenenter"",""1"",""3217""
","
","","","","","","1364.5","images/orange5.png","","","memory_trial","3","maybe_new",""
"html-keyboard-response","144","386888","0.0-18.0-0.49","4161","approach_avoid_sv1","""event"",""trial"",""time""
""fullscreenenter"",""1"",""3217""
","
","
","""event"",""trial"",""time""
""fullscreenenter"",""1"",""3217""
","
","","","","","","null","<div style=""font-size:60px;"">+</div>","null","","fixation","","",""
"memory-trial","145","388660","0.0-18.0-1.49","4161","approach_avoid_sv1","""event"",""trial"",""time""
""fullscreenenter"",""1"",""3217""
","
","
","""event"",""trial"",""time""
""fullscreenenter"",""1"",""3217""
","
","","","","","","757.0999999046326","images/rodent8.png","","","memory_trial","3","maybe_new",""
"html-keyboard-response","146","389168","0.0-18.0-0.50","4161","approach_avoid_sv1","""event"",""trial"",""time""
""fullscreenenter"",""1"",""3217""
","
","
","""event"",""trial"",""time""
""fullscreenenter"",""1"",""3217""
","
","","","","","","null","<div style=""font-size:60px;"">+</div>","null","","fixation","","",""
"memory-trial","147","392200","0.0-18.0-1.50","4161","approach_avoid_sv1","""event"",""trial"",""time""
""fullscreenenter"",""1"",""3217""
","
","
","""event"",""trial"",""time""
""fullscreenenter"",""1"",""3217""
","
","","","","","","2028.1000003814697","images/train2.png","","","memory_trial","1","definitely_old",""
"html-keyboard-response","148","392704","0.0-18.0-0.51","4161","approach_avoid_sv1","""event"",""trial"",""time""
""fullscreenenter"",""1"",""3217""
","
","
","""event"",""trial"",""time""
""fullscreenenter"",""1"",""3217""
","
","","","","","","null","<div style=""font-size:60px;"">+</div>","null","","fixation","","",""
"memory-trial","149","394522","0.0-18.0-1.51","4161","approach_avoid_sv1","""event"",""trial"",""time""
""fullscreenenter"",""1"",""3217""
","
","
","""event"",""trial"",""time""
""fullscreenenter"",""1"",""3217""
","
","","","","","","806.3000001907349","images/apple1.png","","","memory_trial","3","maybe_new",""
"html-keyboard-response","150","395024","0.0-18.0-0.52","4161","approach_avoid_sv1","""event"",""trial"",""time""
""fullscreenenter"",""1"",""3217""
","
","
","""event"",""trial"",""time""
""fullscreenenter"",""1"",""3217""
","
","","","","","","null","<div style=""font-size:60px;"">+</div>","null","","fixation","","",""
"memory-trial","151","399548","0.0-18.0-1.52","4161","approach_avoid_sv1","""event"",""trial"",""time""
""fullscreenenter"",""1"",""3217""
","
","
","""event"",""trial"",""time""
""fullscreenenter"",""1"",""3217""
","
","","","","","","3501.5999999046326","images/dog6.png","","","memory_trial","1","definitely_old",""
"html-keyboard-response","152","400056","0.0-18.0-0.53","4161","approach_avoid_sv1","""event"",""trial"",""time""
""fullscreenenter"",""1"",""3217""
","
","
","""event"",""trial"",""time""
""fullscreenenter"",""1"",""3217""
","
","","","","","","null","<div style=""font-size:60px;"">+</div>","null","","fixation","","",""
"memory-trial","153","402280","0.0-18.0-1.53","4161","approach_avoid_sv1","""event"",""trial"",""time""
""fullscreenenter"",""1"",""3217""
","
","
","""event"",""trial"",""time""
""fullscreenenter"",""1"",""3217""
","
","","","","","","1212.6999998092651","images/chair3.png","","","memory_trial","1","definitely_old",""
"html-keyboard-response","154","402789","0.0-18.0-0.54","4161","approach_avoid_sv1","""event"",""trial"",""time""
""fullscreenenter"",""1"",""3217""
","
","
","""event"",""trial"",""time""
""fullscreenenter"",""1"",""3217""
","
","","","","","","null","<div style=""font-size:60px;"">+</div>","null","","fixation","","",""
"memory-trial","155","405064","0.0-18.0-1.54","4161","approach_avoid_sv1","""event"",""trial"",""time""
""fullscreenenter"",""1"",""3217""
","
","
","""event"",""trial"",""time""
""fullscreenenter"",""1"",""3217""
","
","","","","","","1265.0999999046326","images/apple5.png","","","memory_trial","4","definitely_new",""
"html-keyboard-response","156","405573","0.0-18.0-0.55","4161","approach_avoid_sv1","""event"",""trial"",""time""
""fullscreenenter"",""1"",""3217""
","
","
","""event"",""trial"",""time""
""fullscreenenter"",""1"",""3217""
","
","","","","","","null","<div style=""font-size:60px;"">+</div>","null","","fixation","","",""
"memory-trial","157","407472","0.0-18.0-1.55","4161","approach_avoid_sv1","""event"",""trial"",""time""
""fullscreenenter"",""1"",""3217""
","
","
","""event"",""trial"",""time""
""fullscreenenter"",""1"",""3217""
","
","","","","","","887.5999999046326","images/table2.png","","","memory_trial","1","definitely_old",""
"html-keyboard-response","158","407976","0.0-18.0-0.56","4161","approach_avoid_sv1","""event"",""trial"",""time""
""fullscreenenter"",""1"",""3217""
","
","
","""event"",""trial"",""time""
""fullscreenenter"",""1"",""3217""
","
","","","","","","null","<div style=""font-size:60px;"">+</div>","null","","fixation","","",""
"memory-trial","159","409769","0.0-18.0-1.56","4161","approach_avoid_sv1","""event"",""trial"",""time""
""fullscreenenter"",""1"",""3217""
","
","
","""event"",""trial"",""time""
""fullscreenenter"",""1"",""3217""
","
","","","","","","789.2000002861023","images/bush3.png","","","memory_trial","1","definitely_old",""
"html-keyboard-response","160","410272","0.0-18.0-0.57","4161","approach_avoid_sv1","""event"",""trial"",""time""
""fullscreenenter"",""1"",""3217""
","
","
","""event"",""trial"",""time""
""fullscreenenter"",""1"",""3217""
","
","","","","","","null","<div style=""font-size:60px;"">+</div>","null","","fixation","","",""
"memory-trial","161","413418","0.0-18.0-1.57","4161","approach_avoid_sv1","""event"",""trial"",""time""
""fullscreenenter"",""1"",""3217""
","
","
","""event"",""trial"",""time""
""fullscreenenter"",""1"",""3217""
","
","","","","","","2141.4000000953674","images/orange8.png","","","memory_trial","4","definitely_new",""
"html-keyboard-response","162","413921","0.0-18.0-0.58","4161","approach_avoid_sv1","""event"",""trial"",""time""
""fullscreenenter"",""1"",""3217""
","
","
","""event"",""trial"",""time""
""fullscreenenter"",""1"",""3217""
","
","","","","","","null","<div style=""font-size:60px;"">+</div>","null","","fixation","","",""
"memory-trial","163","416072","0.0-18.0-1.58","4161","approach_avoid_sv1","""event"",""trial"",""time""
""fullscreenenter"",""1"",""3217""
","
","
","""event"",""trial"",""time""
""fullscreenenter"",""1"",""3217""
","
","","","","","","1141.1999998092651","images/boat3.png","","","memory_trial","1","definitely_old",""
"html-keyboard-response","164","416576","0.0-18.0-0.59","4161","approach_avoid_sv1","""event"",""trial"",""time""
""fullscreenenter"",""1"",""3217""
","
","
","""event"",""trial"",""time""
""fullscreenenter"",""1"",""3217""
","
","","","","","","null","<div style=""font-size:60px;"">+</div>","null","","fixation","","",""
"memory-trial","165","418608","0.0-18.0-1.59","4161","approach_avoid_sv1","""event"",""trial"",""time""
""fullscreenenter"",""1"",""3217""
","
","
","""event"",""trial"",""time""
""fullscreenenter"",""1"",""3217""
","
","","","","","","1021.4000000953674","images/banana2.png","","","memory_trial","1","definitely_old",""
"html-keyboard-response","166","419117","0.0-18.0-0.60","4161","approach_avoid_sv1","""event"",""trial"",""time""
""fullscreenenter"",""1"",""3217""
","
","
","""event"",""trial"",""time""
""fullscreenenter"",""1"",""3217""
","
","","","","","","null","<div style=""font-size:60px;"">+</div>","null","","fixation","","",""
"memory-trial","167","421232","0.0-18.0-1.60","4161","approach_avoid_sv1","""event"",""trial"",""time""
""fullscreenenter"",""1"",""3217""
","
","
","""event"",""trial"",""time""
""fullscreenenter"",""1"",""3217""
","
","","","","","","1104.8000001907349","images/apple3.png","","","memory_trial","4","definitely_new",""
"html-keyboard-response","168","421738","0.0-18.0-0.61","4161","approach_avoid_sv1","""event"",""trial"",""time""
""fullscreenenter"",""1"",""3217""
","
","
","""event"",""trial"",""time""
""fullscreenenter"",""1"",""3217""
","
","","","","","","null","<div style=""font-size:60px;"">+</div>","null","","fixation","","",""
"memory-trial","169","423585","0.0-18.0-1.61","4161","approach_avoid_sv1","""event"",""trial"",""time""
""fullscreenenter"",""1"",""3217""
","
","
","""event"",""trial"",""time""
""fullscreenenter"",""1"",""3217""
","
","","","","","","834.4000000953674","images/apple2.png","","","memory_trial","4","definitely_new",""
"html-keyboard-response","170","424092","0.0-18.0-0.62","4161","approach_avoid_sv1","""event"",""trial"",""time""
""fullscreenenter"",""1"",""3217""
","
","
","""event"",""trial"",""time""
""fullscreenenter"",""1"",""3217""
","
","","","","","","null","<div style=""font-size:60px;"">+</div>","null","","fixation","","",""
"memory-trial","171","426504","0.0-18.0-1.62","4161","approach_avoid_sv1","""event"",""trial"",""time""
""fullscreenenter"",""1"",""3217""
","
","
","""event"",""trial"",""time""
""fullscreenenter"",""1"",""3217""
","
","","","","","","1402","images/rabbit5.png","","","memory_trial","4","definitely_new",""
"html-keyboard-response","172","427011","0.0-18.0-0.63","4161","approach_avoid_sv1","""event"",""trial"",""time""
""fullscreenenter"",""1"",""3217""
","
","
","""event"",""trial"",""time""
""fullscreenenter"",""1"",""3217""
","
","","","","","","null","<div style=""font-size:60px;"">+</div>","null","","fixation","","",""
"memory-trial","173","428914","0.0-18.0-1.63","4161","approach_avoid_sv1","""event"",""trial"",""time""
""fullscreenenter"",""1"",""3217""
","
","
","""event"",""trial"",""time""
""fullscreenenter"",""1"",""3217""
","
","","","","","","898.5","images/orange7.png","","","memory_trial","4","definitely_new",""
"html-keyboard-response","174","429416","0.0-18.0-0.64","4161","approach_avoid_sv1","""event"",""trial"",""time""
""fullscreenenter"",""1"",""3217""
","
","
","""event"",""trial"",""time""
""fullscreenenter"",""1"",""3217""
","
","","","","","","null","<div style=""font-size:60px;"">+</div>","null","","fixation","","",""
"memory-trial","175","431072","0.0-18.0-1.64","4161","approach_avoid_sv1","""event"",""trial"",""time""
""fullscreenenter"",""1"",""3217""
","
","
","""event"",""trial"",""time""
""fullscreenenter"",""1"",""3217""
","
","","","","","","652.5","images/bed7.png","","","memory_trial","4","definitely_new",""
"html-keyboard-response","176","431576","0.0-18.0-0.65","4161","approach_avoid_sv1","""event"",""trial"",""time""
""fullscreenenter"",""1"",""3217""
","
","
","""event"",""trial"",""time""
""fullscreenenter"",""1"",""3217""
","
","","","","","","null","<div style=""font-size:60px;"">+</div>","null","","fixation","","",""
"memory-trial","177","434489","0.0-18.0-1.65","4161","approach_avoid_sv1","""event"",""trial"",""time""
""fullscreenenter"",""1"",""3217""
","
","
","""event"",""trial"",""time""
""fullscreenenter"",""1"",""3217""
","
","","","","","","1901.4000000953674","images/tree1.png","","","memory_trial","1","definitely_old",""
"html-keyboard-response","178","434993","0.0-18.0-0.66","4161","approach_avoid_sv1","""event"",""trial"",""time""
""fullscreenenter"",""1"",""3217""
","
","
","""event"",""trial"",""time""
""fullscreenenter"",""1"",""3217""
","
","","","","","","null","<div style=""font-size:60px;"">+</div>","null","","fixation","","",""
"memory-trial","179","437265","0.0-18.0-1.66","4161","approach_avoid_sv1","""event"",""trial"",""time""
""fullscreenenter"",""1"",""3217""
","
","
","""event"",""trial"",""time""
""fullscreenenter"",""1"",""3217""
","
","","","","","","1268.8000001907349","images/banana4.png","","","memory_trial","1","definitely_old",""
"html-keyboard-response","180","437769","0.0-18.0-0.67","4161","approach_avoid_sv1","""event"",""trial"",""time""
""fullscreenenter"",""1"",""3217""
","
","
","""event"",""trial"",""time""
""fullscreenenter"",""1"",""3217""
","
","","","","","","null","<div style=""font-size:60px;"">+</div>","null","","fixation","","",""
"memory-trial","181","439772","0.0-18.0-1.67","4161","approach_avoid_sv1","""event"",""trial"",""time""
""fullscreenenter"",""1"",""3217""
","
","
","""event"",""trial"",""time""
""fullscreenenter"",""1"",""3217""
","
","","","","","","989.5","images/horse1.png","","","memory_trial","4","definitely_new",""
"html-keyboard-response","182","440280","0.0-18.0-0.68","4161","approach_avoid_sv1","""event"",""trial"",""time""
""fullscreenenter"",""1"",""3217""
","
","
","""event"",""trial"",""time""
""fullscreenenter"",""1"",""3217""
","
","","","","","","null","<div style=""font-size:60px;"">+</div>","null","","fixation","","",""
"memory-trial","183","442096","0.0-18.0-1.68","4161","approach_avoid_sv1","""event"",""trial"",""time""
""fullscreenenter"",""1"",""3217""
","
","
","""event"",""trial"",""time""
""fullscreenenter"",""1"",""3217""
","
","","","","","","813.3000001907349","images/bed8.png","","","memory_trial","4","definitely_new",""
"html-keyboard-response","184","442600","0.0-18.0-0.69","4161","approach_avoid_sv1","""event"",""trial"",""time""
""fullscreenenter"",""1"",""3217""
","
","
","""event"",""trial"",""time""
""fullscreenenter"",""1"",""3217""
","
","","","","","","null","<div style=""font-size:60px;"">+</div>","null","","fixation","","",""
"memory-trial","185","444496","0.0-18.0-1.69","4161","approach_avoid_sv1","""event"",""trial"",""time""
""fullscreenenter"",""1"",""3217""
","
","
","""event"",""trial"",""time""
""fullscreenenter"",""1"",""3217""
","
","","","","","","885.7000002861023","images/chair6.png","","","memory_trial","1","definitely_old",""
"html-keyboard-response","186","445000","0.0-18.0-0.70","4161","approach_avoid_sv1","""event"",""trial"",""time""
""fullscreenenter"",""1"",""3217""
","
","
","""event"",""trial"",""time""
""fullscreenenter"",""1"",""3217""
","
","","","","","","null","<div style=""font-size:60px;"">+</div>","null","","fixation","","",""
"memory-trial","187","446984","0.0-18.0-1.70","4161","approach_avoid_sv1","""event"",""trial"",""time""
""fullscreenenter"",""1"",""3217""
","
","
","""event"",""trial"",""time""
""fullscreenenter"",""1"",""3217""
","
","","","","","","973.8000001907349","images/dog3.png","","","memory_trial","1","definitely_old",""
"html-keyboard-response","188","447488","0.0-18.0-0.71","4161","approach_avoid_sv1","""event"",""trial"",""time""
""fullscreenenter"",""1"",""3217""
","
","
","""event"",""trial"",""time""
""fullscreenenter"",""1"",""3217""
","
","","","","","","null","<div style=""font-size:60px;"">+</div>","null","","fixation","","",""
"memory-trial","189","451160","0.0-18.0-1.71","4161","approach_avoid_sv1","""event"",""trial"",""time""
""fullscreenenter"",""1"",""3217""
","
","
","""event"",""trial"",""time""
""fullscreenenter"",""1"",""3217""
","
","","","","","","2661.800000190735","images/train4.png","","","memory_trial","4","definitely_new",""
"html-keyboard-response","190","451676","0.0-18.0-0.72","4161","approach_avoid_sv1","""event"",""trial"",""time""
""fullscreenenter"",""1"",""3217""
","
","
","""event"",""trial"",""time""
""fullscreenenter"",""1"",""3217""
","
","","","","","","null","<div style=""font-size:60px;"">+</div>","null","","fixation","","",""
"memory-trial","191","453494","0.0-18.0-1.72","4161","approach_avoid_sv1","""event"",""trial"",""time""
""fullscreenenter"",""1"",""3217""
","
","
","""event"",""trial"",""time""
""fullscreenenter"",""1"",""3217""
","
","","","","","","801.0999999046326","images/dog7.png","","","memory_trial","1","definitely_old",""
"html-keyboard-response","192","454010","0.0-18.0-0.73","4161","approach_avoid_sv1","""event"",""trial"",""time""
""fullscreenenter"",""1"",""3217""
","
","
","""event"",""trial"",""time""
""fullscreenenter"",""1"",""3217""
","
","","","","","","null","<div style=""font-size:60px;"">+</div>","null","","fixation","","",""
"memory-trial","193","456224","0.0-18.0-1.73","4161","approach_avoid_sv1","""event"",""trial"",""time""
""fullscreenenter"",""1"",""3217""
","
","
","""event"",""trial"",""time""
""fullscreenenter"",""1"",""3217""
","
","","","","","","1203.0999999046326","images/horse8.png","","","memory_trial","4","definitely_new",""
"html-keyboard-response","194","456731","0.0-18.0-0.74","4161","approach_avoid_sv1","""event"",""trial"",""time""
""fullscreenenter"",""1"",""3217""
","
","
","""event"",""trial"",""time""
""fullscreenenter"",""1"",""3217""
","
","","","","","","null","<div style=""font-size:60px;"">+</div>","null","","fixation","","",""
"memory-trial","195","460290","0.0-18.0-1.74","4161","approach_avoid_sv1","""event"",""trial"",""time""
""fullscreenenter"",""1"",""3217""
","
","
","""event"",""trial"",""time""
""fullscreenenter"",""1"",""3217""
","
","","","","","","2546.7999997138977","images/plane8.png","","","memory_trial","4","definitely_new",""
"html-keyboard-response","196","460793","0.0-18.0-0.75","4161","approach_avoid_sv1","""event"",""trial"",""time""
""fullscreenenter"",""1"",""3217""
","
","
","""event"",""trial"",""time""
""fullscreenenter"",""1"",""3217""
","
","","","","","","null","<div style=""font-size:60px;"">+</div>","null","","fixation","","",""
"memory-trial","197","462833","0.0-18.0-1.75","4161","approach_avoid_sv1","""event"",""trial"",""time""
""fullscreenenter"",""1"",""3217""
","
","
","""event"",""trial"",""time""
""fullscreenenter"",""1"",""3217""
","
","","","","","","1028.7000002861023","images/bush7.png","","","memory_trial","4","definitely_new",""
"html-keyboard-response","198","463351","0.0-18.0-0.76","4161","approach_avoid_sv1","""event"",""trial"",""time""
""fullscreenenter"",""1"",""3217""
","
","
","""event"",""trial"",""time""
""fullscreenenter"",""1"",""3217""
","
","","","","","","null","<div style=""font-size:60px;"">+</div>","null","","fixation","","",""
"memory-trial","199","465096","0.0-18.0-1.76","4161","approach_avoid_sv1","""event"",""trial"",""time""
""fullscreenenter"",""1"",""3217""
","
","
","""event"",""trial"",""time""
""fullscreenenter"",""1"",""3217""
","
","","","","","","734.5","images/cow4.png","","","memory_trial","1","definitely_old",""
"html-keyboard-response","200","465600","0.0-18.0-0.77","4161","approach_avoid_sv1","""event"",""trial"",""time""
""fullscreenenter"",""1"",""3217""
","
","
","""event"",""trial"",""time""
""fullscreenenter"",""1"",""3217""
","
","","","","","","null","<div style=""font-size:60px;"">+</div>","null","","fixation","","",""
"memory-trial","201","467768","0.0-18.0-1.77","4161","approach_avoid_sv1","""event"",""trial"",""time""
""fullscreenenter"",""1"",""3217""
","
","
","""event"",""trial"",""time""
""fullscreenenter"",""1"",""3217""
","
","","","","","","1164.4000000953674","images/sofa4.png","","","memory_trial","1","definitely_old",""
"html-keyboard-response","202","468277","0.0-18.0-0.78","4161","approach_avoid_sv1","""event"",""trial"",""time""
""fullscreenenter"",""1"",""3217""
","
","
","""event"",""trial"",""time""
""fullscreenenter"",""1"",""3217""
","
","","","","","","null","<div style=""font-size:60px;"">+</div>","null","","fixation","","",""
"memory-trial","203","472602","0.0-18.0-1.78","4161","approach_avoid_sv1","""event"",""trial"",""time""
""fullscreenenter"",""1"",""3217""
","
","
","""event"",""trial"",""time""
""fullscreenenter"",""1"",""3217""
","
","","","","","","3311.9000000953674","images/table7.png","","","memory_trial","3","maybe_new",""
"html-keyboard-response","204","473104","0.0-18.0-0.79","4161","approach_avoid_sv1","""event"",""trial"",""time""
""fullscreenenter"",""1"",""3217""
","
","
","""event"",""trial"",""time""
""fullscreenenter"",""1"",""3217""
","
","","","","","","null","<div style=""font-size:60px;"">+</div>","null","","fixation","","",""
"memory-trial","205","475064","0.0-18.0-1.79","4161","approach_avoid_sv1","""event"",""trial"",""time""
""fullscreenenter"",""1"",""3217""
","
","
","""event"",""trial"",""time""
""fullscreenenter"",""1"",""3217""
","
","","","","","","949.6999998092651","images/sofa5.png","","","memory_trial","1","definitely_old",""
"html-keyboard-response","206","475568","0.0-18.0-0.80","4161","approach_avoid_sv1","""event"",""trial"",""time""
""fullscreenenter"",""1"",""3217""
","
","
","""event"",""trial"",""time""
""fullscreenenter"",""1"",""3217""
","
","","","","","","null","<div style=""font-size:60px;"">+</div>","null","","fixation","","",""
"memory-trial","207","477810","0.0-18.0-1.80","4161","approach_avoid_sv1","""event"",""trial"",""time""
""fullscreenenter"",""1"",""3217""
","
","
","""event"",""trial"",""time""
""fullscreenenter"",""1"",""3217""
","
","","","","","","1228.8000001907349","images/cactus5.png","","","memory_trial","4","definitely_new",""
"html-keyboard-response","208","478312","0.0-18.0-0.81","4161","approach_avoid_sv1","""event"",""trial"",""time""
""fullscreenenter"",""1"",""3217""
","
","
","""event"",""trial"",""time""
""fullscreenenter"",""1"",""3217""
","
","","","","","","null","<div style=""font-size:60px;"">+</div>","null","","fixation","","",""
"memory-trial","209","480160","0.0-18.0-1.81","4161","approach_avoid_sv1","""event"",""trial"",""time""
""fullscreenenter"",""1"",""3217""
","
","
","""event"",""trial"",""time""
""fullscreenenter"",""1"",""3217""
","
","","","","","","837.4000000953674","images/banana7.png","","","memory_trial","1","definitely_old",""
"html-keyboard-response","210","480664","0.0-18.0-0.82","4161","approach_avoid_sv1","""event"",""trial"",""time""
""fullscreenenter"",""1"",""3217""
","
","
","""event"",""trial"",""time""
""fullscreenenter"",""1"",""3217""
","
","","","","","","null","<div style=""font-size:60px;"">+</div>","null","","fixation","","",""
"memory-trial","211","482698","0.0-18.0-1.82","4161","approach_avoid_sv1","""event"",""trial"",""time""
""fullscreenenter"",""1"",""3217""
","
","
","""event"",""trial"",""time""
""fullscreenenter"",""1"",""3217""
","
","","","","","","1013.6999998092651","images/truck3.png","","","memory_trial","4","definitely_new",""
"html-keyboard-response","212","483200","0.0-18.0-0.83","4161","approach_avoid_sv1","""event"",""trial"",""time""
""fullscreenenter"",""1"",""3217""
","
","
","""event"",""trial"",""time""
""fullscreenenter"",""1"",""3217""
","
","","","","","","null","<div style=""font-size:60px;"">+</div>","null","","fixation","","",""
"memory-trial","213","485448","0.0-18.0-1.83","4161","approach_avoid_sv1","""event"",""trial"",""time""
""fullscreenenter"",""1"",""3217""
","
","
","""event"",""trial"",""time""
""fullscreenenter"",""1"",""3217""
","
","","","","","","1238.5","images/chair4.png","","","memory_trial","1","definitely_old",""
"html-keyboard-response","214","485958","0.0-18.0-0.84","4161","approach_avoid_sv1","""event"",""trial"",""time""
""fullscreenenter"",""1"",""3217""
","
","
","""event"",""trial"",""time""
""fullscreenenter"",""1"",""3217""
","
","","","","","","null","<div style=""font-size:60px;"">+</div>","null","","fixation","","",""
"memory-trial","215","487749","0.0-18.0-1.84","4161","approach_avoid_sv1","""event"",""trial"",""time""
""fullscreenenter"",""1"",""3217""
","
","
","""event"",""trial"",""time""
""fullscreenenter"",""1"",""3217""
","
","","","","","","767","images/apple8.png","","","memory_trial","4","definitely_new",""
"html-keyboard-response","216","488256","0.0-18.0-0.85","4161","approach_avoid_sv1","""event"",""trial"",""time""
""fullscreenenter"",""1"",""3217""
","
","
","""event"",""trial"",""time""
""fullscreenenter"",""1"",""3217""
","
","","","","","","null","<div style=""font-size:60px;"">+</div>","null","","fixation","","",""
"memory-trial","217","490296","0.0-18.0-1.85","4161","approach_avoid_sv1","""event"",""trial"",""time""
""fullscreenenter"",""1"",""3217""
","
","
","""event"",""trial"",""time""
""fullscreenenter"",""1"",""3217""
","
","","","","","","1021.5999999046326","images/boat6.png","","","memory_trial","1","definitely_old",""
"html-keyboard-response","218","490801","0.0-18.0-0.86","4161","approach_avoid_sv1","""event"",""trial"",""time""
""fullscreenenter"",""1"",""3217""
","
","
","""event"",""trial"",""time""
""fullscreenenter"",""1"",""3217""
","
","","","","","","null","<div style=""font-size:60px;"">+</div>","null","","fixation","","",""
"memory-trial","219","492480","0.0-18.0-1.86","4161","approach_avoid_sv1","""event"",""trial"",""time""
""fullscreenenter"",""1"",""3217""
","
","
","""event"",""trial"",""time""
""fullscreenenter"",""1"",""3217""
","
","","","","","","676.2999997138977","images/cactus7.png","","","memory_trial","4","definitely_new",""
"html-keyboard-response","220","492984","0.0-18.0-0.87","4161","approach_avoid_sv1","""event"",""trial"",""time""
""fullscreenenter"",""1"",""3217""
","
","
","""event"",""trial"",""time""
""fullscreenenter"",""1"",""3217""
","
","","","","","","null","<div style=""font-size:60px;"">+</div>","null","","fixation","","",""
"memory-trial","221","496884","0.0-18.0-1.87","4161","approach_avoid_sv1","""event"",""trial"",""time""
""fullscreenenter"",""1"",""3217""
","
","
","""event"",""trial"",""time""
""fullscreenenter"",""1"",""3217""
","
","","","","","","2878.2999997138977","images/rabbit1.png","","","memory_trial","1","definitely_old",""
"html-keyboard-response","222","497392","0.0-18.0-0.88","4161","approach_avoid_sv1","""event"",""trial"",""time""
""fullscreenenter"",""1"",""3217""
","
","
","""event"",""trial"",""time""
""fullscreenenter"",""1"",""3217""
","
","","","","","","null","<div style=""font-size:60px;"">+</div>","null","","fixation","","",""
"memory-trial","223","499104","0.0-18.0-1.88","4161","approach_avoid_sv1","""event"",""trial"",""time""
""fullscreenenter"",""1"",""3217""
","
","
","""event"",""trial"",""time""
""fullscreenenter"",""1"",""3217""
","
","","","","","","700.2999997138977","images/tree7.png","","","memory_trial","1","definitely_old",""
"html-keyboard-response","224","499613","0.0-18.0-0.89","4161","approach_avoid_sv1","""event"",""trial"",""time""
""fullscreenenter"",""1"",""3217""
","
","
","""event"",""trial"",""time""
""fullscreenenter"",""1"",""3217""
","
","","","","","","null","<div style=""font-size:60px;"">+</div>","null","","fixation","","",""
"memory-trial","225","501833","0.0-18.0-1.89","4161","approach_avoid_sv1","""event"",""trial"",""time""
""fullscreenenter"",""1"",""3217""
","
","
","""event"",""trial"",""time""
""fullscreenenter"",""1"",""3217""
","
","","","","","","1199.5","images/plane3.png","","","memory_trial","1","definitely_old",""
"html-keyboard-response","226","502337","0.0-18.0-0.90","4161","approach_avoid_sv1","""event"",""trial"",""time""
""fullscreenenter"",""1"",""3217""
","
","
","""event"",""trial"",""time""
""fullscreenenter"",""1"",""3217""
","
","","","","","","null","<div style=""font-size:60px;"">+</div>","null","","fixation","","",""
"memory-trial","227","505712","0.0-18.0-1.90","4161","approach_avoid_sv1","""event"",""trial"",""time""
""fullscreenenter"",""1"",""3217""
","
","
","""event"",""trial"",""time""
""fullscreenenter"",""1"",""3217""
","
","","","","","","2364.0999999046326","images/train1.png","","","memory_trial","1","definitely_old",""
"html-keyboard-response","228","506216","0.0-18.0-0.91","4161","approach_avoid_sv1","""event"",""trial"",""time""
""fullscreenenter"",""1"",""3217""
","
","
","""event"",""trial"",""time""
""fullscreenenter"",""1"",""3217""
","
","","","","","","null","<div style=""font-size:60px;"">+</div>","null","","fixation","","",""
"memory-trial","229","507950","0.0-18.0-1.91","4161","approach_avoid_sv1","""event"",""trial"",""time""
""fullscreenenter"",""1"",""3217""
","
","
","""event"",""trial"",""time""
""fullscreenenter"",""1"",""3217""
","
","","","","","","711.4000000953674","images/cow8.png","","","memory_trial","1","definitely_old",""
"html-button-response","230","509809","0.0-18.0-2.91-0.91","4161","approach_avoid_sv1","""event"",""trial"",""time""
""fullscreenenter"",""1"",""3217""
","
","
","""event"",""trial"",""time""
""fullscreenenter"",""1"",""3217""
","
","","","","","","1858.2000002861023","<p> Take a break! </p><p> Click the button to continue. </p>","0","","break","","",""
"html-keyboard-response","231","510312","0.0-18.0-0.92","4161","approach_avoid_sv1","""event"",""trial"",""time""
""fullscreenenter"",""1"",""3217""
","
","
","""event"",""trial"",""time""
""fullscreenenter"",""1"",""3217""
","
","","","","","","null","<div style=""font-size:60px;"">+</div>","null","","fixation","","",""
"memory-trial","232","513616","0.0-18.0-1.92","4161","approach_avoid_sv1","""event"",""trial"",""time""
""fullscreenenter"",""1"",""3217""
","
","
","""event"",""trial"",""time""
""fullscreenenter"",""1"",""3217""
","
","","","","","","2292","images/plane4.png","","","memory_trial","4","definitely_new",""
"html-keyboard-response","233","514120","0.0-18.0-0.93","4161","approach_avoid_sv1","""event"",""trial"",""time""
""fullscreenenter"",""1"",""3217""
","
","
","""event"",""trial"",""time""
""fullscreenenter"",""1"",""3217""
","
","","","","","","null","<div style=""font-size:60px;"">+</div>","null","","fixation","","",""
"memory-trial","234","516268","0.0-18.0-1.93","4161","approach_avoid_sv1","""event"",""trial"",""time""
""fullscreenenter"",""1"",""3217""
","
","
","""event"",""trial"",""time""
""fullscreenenter"",""1"",""3217""
","
","","","","","","1132.5","images/flower1.png","","","memory_trial","4","definitely_new",""
"html-keyboard-response","235","516776","0.0-18.0-0.94","4161","approach_avoid_sv1","""event"",""trial"",""time""
""fullscreenenter"",""1"",""3217""
","
","
","""event"",""trial"",""time""
""fullscreenenter"",""1"",""3217""
","
","","","","","","null","<div style=""font-size:60px;"">+</div>","null","","fixation","","",""
"memory-trial","236","518488","0.0-18.0-1.94","4161","approach_avoid_sv1","""event"",""trial"",""time""
""fullscreenenter"",""1"",""3217""
","
","
","""event"",""trial"",""time""
""fullscreenenter"",""1"",""3217""
","
","","","","","","702.3000001907349","images/cactus8.png","","","memory_trial","4","definitely_new",""
"html-keyboard-response","237","518992","0.0-18.0-0.95","4161","approach_avoid_sv1","""event"",""trial"",""time""
""fullscreenenter"",""1"",""3217""
","
","
","""event"",""trial"",""time""
""fullscreenenter"",""1"",""3217""
","
","","","","","","null","<div style=""font-size:60px;"">+</div>","null","","fixation","","",""
"memory-trial","238","521105","0.0-18.0-1.95","4161","approach_avoid_sv1","""event"",""trial"",""time""
""fullscreenenter"",""1"",""3217""
","
","
","""event"",""trial"",""time""
""fullscreenenter"",""1"",""3217""
","
","","","","","","1102","images/rabbit8.png","","","memory_trial","1","definitely_old",""
"html-keyboard-response","239","521608","0.0-18.0-0.96","4161","approach_avoid_sv1","""event"",""trial"",""time""
""fullscreenenter"",""1"",""3217""
","
","
","""event"",""trial"",""time""
""fullscreenenter"",""1"",""3217""
","
","","","","","","null","<div style=""font-size:60px;"">+</div>","null","","fixation","","",""
"memory-trial","240","523868","0.0-18.0-1.96","4161","approach_avoid_sv1","""event"",""trial"",""time""
""fullscreenenter"",""1"",""3217""
","
","
","""event"",""trial"",""time""
""fullscreenenter"",""1"",""3217""
","
","","","","","","1238.5","images/bush6.png","","","memory_trial","4","definitely_new",""
"html-keyboard-response","241","524376","0.0-18.0-0.97","4161","approach_avoid_sv1","""event"",""trial"",""time""
""fullscreenenter"",""1"",""3217""
","
","
","""event"",""trial"",""time""
""fullscreenenter"",""1"",""3217""
","
","","","","","","null","<div style=""font-size:60px;"">+</div>","null","","fixation","","",""
"memory-trial","242","526269","0.0-18.0-1.97","4161","approach_avoid_sv1","""event"",""trial"",""time""
""fullscreenenter"",""1"",""3217""
","
","
","""event"",""trial"",""time""
""fullscreenenter"",""1"",""3217""
","
","","","","","","868.7999997138977","images/table6.png","","","memory_trial","1","definitely_old",""
"html-keyboard-response","243","526789","0.0-18.0-0.98","4161","approach_avoid_sv1","""event"",""trial"",""time""
""fullscreenenter"",""1"",""3217""
","
","
","""event"",""trial"",""time""
""fullscreenenter"",""1"",""3217""
","
","","","","","","null","<div style=""font-size:60px;"">+</div>","null","","fixation","","",""
"memory-trial","244","528563","0.0-18.0-1.98","4161","approach_avoid_sv1","""event"",""trial"",""time""
""fullscreenenter"",""1"",""3217""
","
","
","""event"",""trial"",""time""
""fullscreenenter"",""1"",""3217""
","
","","","","","","761.3999996185303","images/apple4.png","","","memory_trial","4","definitely_new",""
"html-keyboard-response","245","529072","0.0-18.0-0.99","4161","approach_avoid_sv1","""event"",""trial"",""time""
""fullscreenenter"",""1"",""3217""
","
","
","""event"",""trial"",""time""
""fullscreenenter"",""1"",""3217""
","
","","","","","","null","<div style=""font-size:60px;"">+</div>","null","","fixation","","",""
"memory-trial","246","530872","0.0-18.0-1.99","4161","approach_avoid_sv1","""event"",""trial"",""time""
""fullscreenenter"",""1"",""3217""
","
","
","""event"",""trial"",""time""
""fullscreenenter"",""1"",""3217""
","
","","","","","","789.6999998092651","images/horse2.png","","","memory_trial","4","definitely_new",""
"html-keyboard-response","247","531390","0.0-18.0-0.100","4161","approach_avoid_sv1","""event"",""trial"",""time""
""fullscreenenter"",""1"",""3217""
","
","
","""event"",""trial"",""time""
""fullscreenenter"",""1"",""3217""
","
","","","","","","null","<div style=""font-size:60px;"">+</div>","null","","fixation","","",""
"memory-trial","248","533488","0.0-18.0-1.100","4161","approach_avoid_sv1","""event"",""trial"",""time""
""fullscreenenter"",""1"",""3217""
","
","
","""event"",""trial"",""time""
""fullscreenenter"",""1"",""3217""
","
","","","","","","1087.5999999046326","images/cow5.png","","","memory_trial","1","definitely_old",""
"html-keyboard-response","249","534002","0.0-18.0-0.101","4161","approach_avoid_sv1","""event"",""trial"",""time""
""fullscreenenter"",""1"",""3217""
","
","
","""event"",""trial"",""time""
""fullscreenenter"",""1"",""3217""
","
","","","","","","null","<div style=""font-size:60px;"">+</div>","null","","fixation","","",""
"memory-trial","250","538712","0.0-18.0-1.101","4161","approach_avoid_sv1","""event"",""trial"",""time""
""fullscreenenter"",""1"",""3217""
","
","
","""event"",""trial"",""time""
""fullscreenenter"",""1"",""3217""
","
","","","","","","3705.5999999046326","images/flower2.png","","","memory_trial","4","definitely_new",""
"html-keyboard-response","251","539216","0.0-18.0-0.102","4161","approach_avoid_sv1","""event"",""trial"",""time""
""fullscreenenter"",""1"",""3217""
","
","
","""event"",""trial"",""time""
""fullscreenenter"",""1"",""3217""
","
","","","","","","null","<div style=""font-size:60px;"">+</div>","null","","fixation","","",""
"memory-trial","252","541158","0.0-18.0-1.102","4161","approach_avoid_sv1","""event"",""trial"",""time""
""fullscreenenter"",""1"",""3217""
","
","
","""event"",""trial"",""time""
""fullscreenenter"",""1"",""3217""
","
","","","","","","924.6999998092651","images/train7.png","","","memory_trial","1","definitely_old",""
"html-keyboard-response","253","541664","0.0-18.0-0.103","4161","approach_avoid_sv1","""event"",""trial"",""time""
""fullscreenenter"",""1"",""3217""
","
","
","""event"",""trial"",""time""
""fullscreenenter"",""1"",""3217""
","
","","","","","","null","<div style=""font-size:60px;"">+</div>","null","","fixation","","",""
"memory-trial","254","543489","0.0-18.0-1.103","4161","approach_avoid_sv1","""event"",""trial"",""time""
""fullscreenenter"",""1"",""3217""
","
","
","""event"",""trial"",""time""
""fullscreenenter"",""1"",""3217""
","
","","","","","","813","images/train3.png","","","memory_trial","1","definitely_old",""
"html-keyboard-response","255","544007","0.0-18.0-0.104","4161","approach_avoid_sv1","""event"",""trial"",""time""
""fullscreenenter"",""1"",""3217""
","
","
","""event"",""trial"",""time""
""fullscreenenter"",""1"",""3217""
","
","","","","","","null","<div style=""font-size:60px;"">+</div>","null","","fixation","","",""
"memory-trial","256","545688","0.0-18.0-1.104","4161","approach_avoid_sv1","""event"",""trial"",""time""
""fullscreenenter"",""1"",""3217""
","
","
","""event"",""trial"",""time""
""fullscreenenter"",""1"",""3217""
","
","","","","","","677.2000002861023","images/sheep6.png","","","memory_trial","1","definitely_old",""
"html-keyboard-response","257","546195","0.0-18.0-0.105","4161","approach_avoid_sv1","""event"",""trial"",""time""
""fullscreenenter"",""1"",""3217""
","
","
","""event"",""trial"",""time""
""fullscreenenter"",""1"",""3217""
","
","","","","","","null","<div style=""font-size:60px;"">+</div>","null","","fixation","","",""
"memory-trial","258","547928","0.0-18.0-1.105","4161","approach_avoid_sv1","""event"",""trial"",""time""
""fullscreenenter"",""1"",""3217""
","
","
","""event"",""trial"",""time""
""fullscreenenter"",""1"",""3217""
","
","","","","","","723","images/bush8.png","","","memory_trial","1","definitely_old",""
"html-keyboard-response","259","548445","0.0-18.0-0.106","4161","approach_avoid_sv1","""event"",""trial"",""time""
""fullscreenenter"",""1"",""3217""
","
","
","""event"",""trial"",""time""
""fullscreenenter"",""1"",""3217""
","
","","","","","","null","<div style=""font-size:60px;"">+</div>","null","","fixation","","",""
"memory-trial","260","550233","0.0-18.0-1.106","4161","approach_avoid_sv1","""event"",""trial"",""time""
""fullscreenenter"",""1"",""3217""
","
","
","""event"",""trial"",""time""
""fullscreenenter"",""1"",""3217""
","
","","","","","","777.5","images/cactus4.png","","","memory_trial","4","definitely_new",""
"html-keyboard-response","261","550736","0.0-18.0-0.107","4161","approach_avoid_sv1","""event"",""trial"",""time""
""fullscreenenter"",""1"",""3217""
","
","
","""event"",""trial"",""time""
""fullscreenenter"",""1"",""3217""
","
","","","","","","null","<div style=""font-size:60px;"">+</div>","null","","fixation","","",""
"memory-trial","262","552770","0.0-18.0-1.107","4161","approach_avoid_sv1","""event"",""trial"",""time""
""fullscreenenter"",""1"",""3217""
","
","
","""event"",""trial"",""time""
""fullscreenenter"",""1"",""3217""
","
","","","","","","1013.7000002861023","images/rabbit4.png","","","memory_trial","4","definitely_new",""
"html-keyboard-response","263","553275","0.0-18.0-0.108","4161","approach_avoid_sv1","""event"",""trial"",""time""
""fullscreenenter"",""1"",""3217""
","
","
","""event"",""trial"",""time""
""fullscreenenter"",""1"",""3217""
","
","","","","","","null","<div style=""font-size:60px;"">+</div>","null","","fixation","","",""
"memory-trial","264","555720","0.0-18.0-1.108","4161","approach_avoid_sv1","""event"",""trial"",""time""
""fullscreenenter"",""1"",""3217""
","
","
","""event"",""trial"",""time""
""fullscreenenter"",""1"",""3217""
","
","","","","","","1434.3999996185303","images/plane5.png","","","memory_trial","1","definitely_old",""
"html-keyboard-response","265","556224","0.0-18.0-0.109","4161","approach_avoid_sv1","""event"",""trial"",""time""
""fullscreenenter"",""1"",""3217""
","
","
","""event"",""trial"",""time""
""fullscreenenter"",""1"",""3217""
","
","","","","","","null","<div style=""font-size:60px;"">+</div>","null","","fixation","","",""
"memory-trial","266","557918","0.0-18.0-1.109","4161","approach_avoid_sv1","""event"",""trial"",""time""
""fullscreenenter"",""1"",""3217""
","
","
","""event"",""trial"",""time""
""fullscreenenter"",""1"",""3217""
","
","","","","","","670.9000000953674","images/banana3.png","","","memory_trial","1","definitely_old",""
"html-keyboard-response","267","558435","0.0-18.0-0.110","4161","approach_avoid_sv1","""event"",""trial"",""time""
""fullscreenenter"",""1"",""3217""
","
","
","""event"",""trial"",""time""
""fullscreenenter"",""1"",""3217""
","
","","","","","","null","<div style=""font-size:60px;"">+</div>","null","","fixation","","",""
"memory-trial","268","560529","0.0-18.0-1.110","4161","approach_avoid_sv1","""event"",""trial"",""time""
""fullscreenenter"",""1"",""3217""
","
","
","""event"",""trial"",""time""
""fullscreenenter"",""1"",""3217""
","
","","","","","","1083.0999999046326","images/rabbit7.png","","","memory_trial","1","definitely_old",""
"html-keyboard-response","269","561033","0.0-18.0-0.111","4161","approach_avoid_sv1","""event"",""trial"",""time""
""fullscreenenter"",""1"",""3217""
","
","
","""event"",""trial"",""time""
""fullscreenenter"",""1"",""3217""
","
","","","","","","null","<div style=""font-size:60px;"">+</div>","null","","fixation","","",""
"memory-trial","270","562768","0.0-18.0-1.111","4161","approach_avoid_sv1","""event"",""trial"",""time""
""fullscreenenter"",""1"",""3217""
","
","
","""event"",""trial"",""time""
""fullscreenenter"",""1"",""3217""
","
","","","","","","732.2999997138977","images/bed1.png","","","memory_trial","4","definitely_new",""
"html-keyboard-response","271","563272","0.0-18.0-0.112","4161","approach_avoid_sv1","""event"",""trial"",""time""
""fullscreenenter"",""1"",""3217""
","
","
","""event"",""trial"",""time""
""fullscreenenter"",""1"",""3217""
","
","","","","","","null","<div style=""font-size:60px;"">+</div>","null","","fixation","","",""
"memory-trial","272","567161","0.0-18.0-1.112","4161","approach_avoid_sv1","""event"",""trial"",""time""
""fullscreenenter"",""1"",""3217""
","
","
","""event"",""trial"",""time""
""fullscreenenter"",""1"",""3217""
","
","","","","","","2884.699999809265","images/sheep3.png","","","memory_trial","3","maybe_new",""
"html-keyboard-response","273","567664","0.0-18.0-0.113","4161","approach_avoid_sv1","""event"",""trial"",""time""
""fullscreenenter"",""1"",""3217""
","
","
","""event"",""trial"",""time""
""fullscreenenter"",""1"",""3217""
","
","","","","","","null","<div style=""font-size:60px;"">+</div>","null","","fixation","","",""
"memory-trial","274","570033","0.0-18.0-1.113","4161","approach_avoid_sv1","""event"",""trial"",""time""
""fullscreenenter"",""1"",""3217""
","
","
","""event"",""trial"",""time""
""fullscreenenter"",""1"",""3217""
","
","","","","","","1356.4000000953674","images/flower4.png","","","memory_trial","3","maybe_new",""
"html-keyboard-response","275","570538","0.0-18.0-0.114","4161","approach_avoid_sv1","""event"",""trial"",""time""
""fullscreenenter"",""1"",""3217""
","
","
","""event"",""trial"",""time""
""fullscreenenter"",""1"",""3217""
","
","","","","","","null","<div style=""font-size:60px;"">+</div>","null","","fixation","","",""
"memory-trial","276","572720","0.0-18.0-1.114","4161","approach_avoid_sv1","""event"",""trial"",""time""
""fullscreenenter"",""1"",""3217""
","
","
","""event"",""trial"",""time""
""fullscreenenter"",""1"",""3217""
","
","","","","","","1178.3000001907349","images/flower7.png","","","memory_trial","3","maybe_new",""
"html-keyboard-response","277","573224","0.0-18.0-0.115","4161","approach_avoid_sv1","""event"",""trial"",""time""
""fullscreenenter"",""1"",""3217""
","
","
","""event"",""trial"",""time""
""fullscreenenter"",""1"",""3217""
","
","","","","","","null","<div style=""font-size:60px;"">+</div>","null","","fixation","","",""
"memory-trial","278","575408","0.0-18.0-1.115","4161","approach_avoid_sv1","""event"",""trial"",""time""
""fullscreenenter"",""1"",""3217""
","
","
","""event"",""trial"",""time""
""fullscreenenter"",""1"",""3217""
","
","","","","","","1174.1999998092651","images/bush4.png","","","memory_trial","3","maybe_new",""
"html-keyboard-response","279","575912","0.0-18.0-0.116","4161","approach_avoid_sv1","""event"",""trial"",""time""
""fullscreenenter"",""1"",""3217""
","
","
","""event"",""trial"",""time""
""fullscreenenter"",""1"",""3217""
","
","","","","","","null","<div style=""font-size:60px;"">+</div>","null","","fixation","","",""
"memory-trial","280","577619","0.0-18.0-1.116","4161","approach_avoid_sv1","""event"",""trial"",""time""
""fullscreenenter"",""1"",""3217""
","
","
","""event"",""trial"",""time""
""fullscreenenter"",""1"",""3217""
","
","","","","","","693.0999999046326","images/cactus1.png","","","memory_trial","3","maybe_new",""
"html-keyboard-response","281","578128","0.0-18.0-0.117","4161","approach_avoid_sv1","""event"",""trial"",""time""
""fullscreenenter"",""1"",""3217""
","
","
","""event"",""trial"",""time""
""fullscreenenter"",""1"",""3217""
","
","","","","","","null","<div style=""font-size:60px;"">+</div>","null","","fixation","","",""
"memory-trial","282","580258","0.0-18.0-1.117","4161","approach_avoid_sv1","""event"",""trial"",""time""
""fullscreenenter"",""1"",""3217""
","
","
","""event"",""trial"",""time""
""fullscreenenter"",""1"",""3217""
","
","","","","","","1110.7000002861023","images/goat3.png","","","memory_trial","1","definitely_old",""
"html-keyboard-response","283","580760","0.0-18.0-0.118","4161","approach_avoid_sv1","""event"",""trial"",""time""
""fullscreenenter"",""1"",""3217""
","
","
","""event"",""trial"",""time""
""fullscreenenter"",""1"",""3217""
","
","","","","","","null","<div style=""font-size:60px;"">+</div>","null","","fixation","","",""
"memory-trial","284","582458","0.0-18.0-1.118","4161","approach_avoid_sv1","""event"",""trial"",""time""
""fullscreenenter"",""1"",""3217""
","
","
","""event"",""trial"",""time""
""fullscreenenter"",""1"",""3217""
","
","","","","","","685.8000001907349","images/goat4.png","","","memory_trial","1","definitely_old",""
"html-keyboard-response","285","582962","0.0-18.0-0.119","4161","approach_avoid_sv1","""event"",""trial"",""time""
""fullscreenenter"",""1"",""3217""
","
","
","""event"",""trial"",""time""
""fullscreenenter"",""1"",""3217""
","
","","","","","","null","<div style=""font-size:60px;"">+</div>","null","","fixation","","",""
"memory-trial","286","585913","0.0-18.0-1.119","4161","approach_avoid_sv1","""event"",""trial"",""time""
""fullscreenenter"",""1"",""3217""
","
","
","""event"",""trial"",""time""
""fullscreenenter"",""1"",""3217""
","
","","","","","","1940.1999998092651","images/sofa7.png","","","memory_trial","3","maybe_new",""
"html-keyboard-response","287","586416","0.0-18.0-0.120","4161","approach_avoid_sv1","""event"",""trial"",""time""
""fullscreenenter"",""1"",""3217""
","
","
","""event"",""trial"",""time""
""fullscreenenter"",""1"",""3217""
","
","","","","","","null","<div style=""font-size:60px;"">+</div>","null","","fixation","","",""
"memory-trial","288","588952","0.0-18.0-1.120","4161","approach_avoid_sv1","""event"",""trial"",""time""
""fullscreenenter"",""1"",""3217""
","
","
","""event"",""trial"",""time""
""fullscreenenter"",""1"",""3217""
","
","","","","","","1516.8999996185303","images/truck5.png","","","memory_trial","4","definitely_new",""
"html-keyboard-response","289","589472","0.0-18.0-0.121","4161","approach_avoid_sv1","""event"",""trial"",""time""
""fullscreenenter"",""1"",""3217""
","
","
","""event"",""trial"",""time""
""fullscreenenter"",""1"",""3217""
","
","","","","","","null","<div style=""font-size:60px;"">+</div>","null","","fixation","","",""
"memory-trial","290","591456","0.0-18.0-1.121","4161","approach_avoid_sv1","""event"",""trial"",""time""
""fullscreenenter"",""1"",""3217""
","
","
","""event"",""trial"",""time""
""fullscreenenter"",""1"",""3217""
","
","","","","","","974.1000003814697","images/flower8.png","","","memory_trial","4","definitely_new",""
"html-keyboard-response","291","591960","0.0-18.0-0.122","4161","approach_avoid_sv1","""event"",""trial"",""time""
""fullscreenenter"",""1"",""3217""
","
","
","""event"",""trial"",""time""
""fullscreenenter"",""1"",""3217""
","
","","","","","","null","<div style=""font-size:60px;"">+</div>","null","","fixation","","",""
"memory-trial","292","593808","0.0-18.0-1.122","4161","approach_avoid_sv1","""event"",""trial"",""time""
""fullscreenenter"",""1"",""3217""
","
","
","""event"",""trial"",""time""
""fullscreenenter"",""1"",""3217""
","
","","","","","","836.8000001907349","images/truck4.png","","","memory_trial","4","definitely_new",""
"html-keyboard-response","293","594312","0.0-18.0-0.123","4161","approach_avoid_sv1","""event"",""trial"",""time""
""fullscreenenter"",""1"",""3217""
","
","
","""event"",""trial"",""time""
""fullscreenenter"",""1"",""3217""
","
","","","","","","null","<div style=""font-size:60px;"">+</div>","null","","fixation","","",""
"memory-trial","294","597074","0.0-18.0-1.123","4161","approach_avoid_sv1","""event"",""trial"",""time""
""fullscreenenter"",""1"",""3217""
","
","
","""event"",""trial"",""time""
""fullscreenenter"",""1"",""3217""
","
","","","","","","1742.5999999046326","images/chair7.png","","","memory_trial","3","maybe_new",""
"html-keyboard-response","295","597576","0.0-18.0-0.124","4161","approach_avoid_sv1","""event"",""trial"",""time""
""fullscreenenter"",""1"",""3217""
","
","
","""event"",""trial"",""time""
""fullscreenenter"",""1"",""3217""
","
","","","","","","null","<div style=""font-size:60px;"">+</div>","null","","fixation","","",""
"memory-trial","296","599554","0.0-18.0-1.124","4161","approach_avoid_sv1","""event"",""trial"",""time""
""fullscreenenter"",""1"",""3217""
","
","
","""event"",""trial"",""time""
""fullscreenenter"",""1"",""3217""
","
