"trial_type","trial_index","time_elapsed","internal_node_id","subject_id","task_version","interactions","blur_events","focus_events","fullscreenenter_events","fullscreenexit_events","success","timeout","failed_images","failed_audio","failed_video","rt","stimulus","response","button_pressed","task_part","key_press","answer","correct"
"pavlovia","0","4","0.0-0.0","5375","approach_avoid_sv1","""event"",""trial"",""time""
""fullscreenenter"",""1"",""3610""
","
","
","""event"",""trial"",""time""
""fullscreenenter"",""1"",""3610""
","
","","","","","","","","","","","","",""
"fullscreen","1","4579","0.0-1.0","5375","approach_avoid_sv1","""event"",""trial"",""time""
""fullscreenenter"",""1"",""3610""
","
","
","""event"",""trial"",""time""
""fullscreenenter"",""1"",""3610""
","
","true","","","","","","","","","","","",""
"preload","2","6523","0.0-2.0","5375","approach_avoid_sv1","""event"",""trial"",""time""
""fullscreenenter"",""1"",""3610""
","
","
","""event"",""trial"",""time""
""fullscreenenter"",""1"",""3610""
","
","true","false","[]","[]","[]","","","","","","","",""
"preload","3","8257","0.0-3.0","5375","approach_avoid_sv1","""event"",""trial"",""time""
""fullscreenenter"",""1"",""3610""
","
","
","""event"",""trial"",""time""
""fullscreenenter"",""1"",""3610""
","
","true","false","[]","[]","[]","","","","","","","",""
"preload","4","8508","0.0-4.0","5375","approach_avoid_sv1","""event"",""trial"",""time""
""fullscreenenter"",""1"",""3610""
","
","
","""event"",""trial"",""time""
""fullscreenenter"",""1"",""3610""
","
","true","false","[]","[]","[]","","","","","","","",""
"audio-keyboard-response","5","12567","0.0-5.0","5375","approach_avoid_sv1","""event"",""trial"",""time""
""fullscreenenter"",""1"",""3610""
","
","
","""event"",""trial"",""time""
""fullscreenenter"",""1"",""3610""
","
","","","","","","4047.999999999999","audio/beep_loop.wav","audiovolumeup","","","","",""
"audio-button-response","6","15169","0.0-6.0","5375","approach_avoid_sv1","""event"",""trial"",""time""
""fullscreenenter"",""1"",""3610""
","
","
","""event"",""trial"",""time""
""fullscreenenter"",""1"",""3610""
","
","","","","","","2600","audio/turtle.wav","3","","","","",""
"audio-button-response","7","18391","0.0-7.0","5375","approach_avoid_sv1","""event"",""trial"",""time""
""fullscreenenter"",""1"",""3610""
","
","
","""event"",""trial"",""time""
""fullscreenenter"",""1"",""3610""
","
","","","","","","2221","audio/shark.wav","2","","","","",""
"preload","8","27065","0.0-8.0","5375","approach_avoid_sv1","""event"",""trial"",""time""
""fullscreenenter"",""1"",""3610""
","
","
","""event"",""trial"",""time""
""fullscreenenter"",""1"",""3610""
","
","true","false","[]","[]","[]","","","","","","","",""
"learning-instructions","9","35829","0.0-9.0-0.0","5375","approach_avoid_sv1","""event"",""trial"",""time""
""fullscreenenter"",""1"",""3610""
","
","
","""event"",""trial"",""time""
""fullscreenenter"",""1"",""3610""
","
","","","","","","4289.899999976158","<p> Welcome back! </p><p> Last week, you had to make choices about lots of different items.  </p>","","0","instructions","","",""
"learning-instructions","10","41812","0.0-9.0-0.1","5375","approach_avoid_sv1","""event"",""trial"",""time""
""fullscreenenter"",""1"",""3610""
","
","
","""event"",""trial"",""time""
""fullscreenenter"",""1"",""3610""
","
","","","","","","1873.5","<p> Today, we are going to ask you to try to remember all the items. </p>","","0","instructions","","",""
"learning-instructions","11","53549","0.0-9.0-0.2","5375","approach_avoid_sv1","""event"",""trial"",""time""
""fullscreenenter"",""1"",""3610""
","
","
","""event"",""trial"",""time""
""fullscreenenter"",""1"",""3610""
","
","","","","","","1589.199999988079","<p> On every trial, you will see an image. </p><p> The image may be an OLD image you saw during the games last week or it may be a NEW image that was not presented. </p>","","0","instructions","","",""
"learning-instructions","12","63996","0.0-9.0-0.3","5375","approach_avoid_sv1","""event"",""trial"",""time""
""fullscreenenter"",""1"",""3610""
","
","
","""event"",""trial"",""time""
""fullscreenenter"",""1"",""3610""
","
","","","","","","1934.800000011921","<p> You need to select whether the image is:  </p><p>  'Definitely old', 'Maybe old', 'Maybe new', or 'Definitely new.'  </p><div class=""mem-choice-instructions-grid""><div class=""choice-option"" id=""choice-option-1"" ><img src=""images/definitely_old_1.png"" id=""choice-option-img-1"" class=""choice-option-img"" stage=""1""></div><div class=""choice-option"" id=""choice-option-2"" ><img src=""images/maybe_old_1.png"" id=""choice-option-img-2"" class=""choice-option-img"" stage=""1""></div><div class=""choice-option"" id=""choice-option-3"" ><img src=""images/maybe_new_1.png"" id=""choice-option-img-3"" class=""choice-option-img"" stage=""1""></div><div class=""choice-option"" id=""choice-option-4"" > <img src=""images/definitely_new_1.png"" id=""choice-option-img-4"" class=""choice-option-img"" stage=""1""></div></div>","","0","instructions","","",""
"learning-instructions","13","74109","0.0-9.0-0.4","5375","approach_avoid_sv1","""event"",""trial"",""time""
""fullscreenenter"",""1"",""3610""
","
","
","""event"",""trial"",""time""
""fullscreenenter"",""1"",""3610""
","
","","","","","","3588","<p> You should use the 1, 2, 3, and 4 keys to make your responses.  </p><div class=""mem-choice-instructions-grid""><div class=""choice-option"" id=""choice-option-1"" ><img src=""images/definitely_old.png"" id=""choice-option-img-1"" class=""choice-option-img"" stage=""1""></div><div class=""choice-option"" id=""choice-option-2"" ><img src=""images/maybe_old.png"" id=""choice-option-img-2"" class=""choice-option-img"" stage=""1""></div><div class=""choice-option"" id=""choice-option-3"" ><img src=""images/maybe_new.png"" id=""choice-option-img-3"" class=""choice-option-img"" stage=""1""></div><div class=""choice-option"" id=""choice-option-4"" > <img src=""images/definitely_new.png"" id=""choice-option-img-4"" class=""choice-option-img"" stage=""1""></div></div>","","0","instructions","","",""
"learning-instructions","14","82360","0.0-9.0-0.5","5375","approach_avoid_sv1","""event"",""trial"",""time""
""fullscreenenter"",""1"",""3610""
","
","
","""event"",""trial"",""time""
""fullscreenenter"",""1"",""3610""
","
","","","","","","1899.4000000357628","<p> You will have 10 seconds to make each response.  </p><p>  Make sure to respond before time runs out! </p>","","0","instructions","","",""
"learning-instructions","15","97587","0.0-9.0-0.6","5375","approach_avoid_sv1","""event"",""trial"",""time""
""fullscreenenter"",""1"",""3610""
","
","
","""event"",""trial"",""time""
""fullscreenenter"",""1"",""3610""
","
","","","","","","8137.400000035763","<p> Today, you will see each image ONCE only.  </p><p>  That means none of the images will repeat. </p>","","0","instructions","","",""
"learning-instructions","16","114804","0.0-9.0-0.7","5375","approach_avoid_sv1","""event"",""trial"",""time""
""fullscreenenter"",""1"",""3610""
","
","
","""event"",""trial"",""time""
""fullscreenenter"",""1"",""3610""
","
","","","","","","4534.5","<p> Before you play the real game, it is time to practice. </p><p>  Just like in the real game, some of the images in the practice will be ones you have seen before. </p><p>  Others will be entirely new. </p>","","0","instructions","","",""
"html-button-response","17","122560","0.0-10.0","5375","approach_avoid_sv1","""event"",""trial"",""time""
""fullscreenenter"",""1"",""3610""
","
","
","""event"",""trial"",""time""
""fullscreenenter"",""1"",""3610""
","
","","","","","","7638.800000011921","<p> Ready to practice? </p><p> Remember, use the 1, 2, 3, and 4 keys to make your responses. </p>","0","","instructions","","",""
"html-keyboard-response","18","123179","0.0-11.0-0.0","5375","approach_avoid_sv1","""event"",""trial"",""time""
""fullscreenenter"",""1"",""3610""
","
","
","""event"",""trial"",""time""
""fullscreenenter"",""1"",""3610""
","
","","","","","","null","<div style=""font-size:60px;"">+</div>","null","","fixation","","",""
"memory-trial","19","128004","0.0-11.0-1.0","5375","approach_avoid_sv1","""event"",""trial"",""time""
""fullscreenenter"",""1"",""3610""
","
","
","""event"",""trial"",""time""
""fullscreenenter"",""1"",""3610""
","
","","","","","","3806.100000023842","images/racket3.png","","","practice","1","definitely_old",""
"html-keyboard-response","20","128515","0.0-11.0-0.1","5375","approach_avoid_sv1","""event"",""trial"",""time""
""fullscreenenter"",""1"",""3610""
","
","
","""event"",""trial"",""time""
""fullscreenenter"",""1"",""3610""
","
","","","","","","null","<div style=""font-size:60px;"">+</div>","null","","fixation","","",""
"memory-trial","21","130568","0.0-11.0-1.1","5375","approach_avoid_sv1","""event"",""trial"",""time""
""fullscreenenter"",""1"",""3610""
","
","
","""event"",""trial"",""time""
""fullscreenenter"",""1"",""3610""
","
","","","","","","1046.1000000238419","images/ball5.png","","","practice","1","definitely_old",""
"html-keyboard-response","22","131084","0.0-11.0-0.2","5375","approach_avoid_sv1","""event"",""trial"",""time""
""fullscreenenter"",""1"",""3610""
","
","
","""event"",""trial"",""time""
""fullscreenenter"",""1"",""3610""
","
","","","","","","null","<div style=""font-size:60px;"">+</div>","null","","fixation","","",""
"memory-trial","23","133235","0.0-11.0-1.2","5375","approach_avoid_sv1","""event"",""trial"",""time""
""fullscreenenter"",""1"",""3610""
","
","
","""event"",""trial"",""time""
""fullscreenenter"",""1"",""3610""
","
","","","","","","1140.800000011921","images/ball3.png","","","practice","1","definitely_old",""
"html-keyboard-response","24","133750","0.0-11.0-0.3","5375","approach_avoid_sv1","""event"",""trial"",""time""
""fullscreenenter"",""1"",""3610""
","
","
","""event"",""trial"",""time""
""fullscreenenter"",""1"",""3610""
","
","","","","","","null","<div style=""font-size:60px;"">+</div>","null","","fixation","","",""
"memory-trial","25","136018","0.0-11.0-1.3","5375","approach_avoid_sv1","""event"",""trial"",""time""
""fullscreenenter"",""1"",""3610""
","
","
","""event"",""trial"",""time""
""fullscreenenter"",""1"",""3610""
","
","","","","","","1257.6000000238419","images/racket2.png","","","practice","1","definitely_old",""
"html-keyboard-response","26","136532","0.0-11.0-0.4","5375","approach_avoid_sv1","""event"",""trial"",""time""
""fullscreenenter"",""1"",""3610""
","
","
","""event"",""trial"",""time""
""fullscreenenter"",""1"",""3610""
","
","","","","","","null","<div style=""font-size:60px;"">+</div>","null","","fixation","","",""
"memory-trial","27","143855","0.0-11.0-1.4","5375","approach_avoid_sv1","""event"",""trial"",""time""
""fullscreenenter"",""1"",""3610""
","
","
","""event"",""trial"",""time""
""fullscreenenter"",""1"",""3610""
","
","","","","","","6313.399999976158","images/racket1.png","","","practice","2","maybe_old",""
"html-keyboard-response","28","144359","0.0-11.0-0.5","5375","approach_avoid_sv1","""event"",""trial"",""time""
""fullscreenenter"",""1"",""3610""
","
","
","""event"",""trial"",""time""
""fullscreenenter"",""1"",""3610""
","
","","","","","","null","<div style=""font-size:60px;"">+</div>","null","","fixation","","",""
"memory-trial","29","146799","0.0-11.0-1.5","5375","approach_avoid_sv1","""event"",""trial"",""time""
""fullscreenenter"",""1"",""3610""
","
","
","""event"",""trial"",""time""
""fullscreenenter"",""1"",""3610""
","
","","","","","","1435.699999988079","images/ball1.png","","","practice","1","definitely_old",""
"html-keyboard-response","30","147302","0.0-11.0-0.6","5375","approach_avoid_sv1","""event"",""trial"",""time""
""fullscreenenter"",""1"",""3610""
","
","
","""event"",""trial"",""time""
""fullscreenenter"",""1"",""3610""
","
","","","","","","null","<div style=""font-size:60px;"">+</div>","null","","fixation","","",""
"memory-trial","31","149015","0.0-11.0-1.6","5375","approach_avoid_sv1","""event"",""trial"",""time""
""fullscreenenter"",""1"",""3610""
","
","
","""event"",""trial"",""time""
""fullscreenenter"",""1"",""3610""
","
","","","","","","705.6000000238419","images/ball2.png","","","practice","1","definitely_old",""
"html-keyboard-response","32","149519","0.0-11.0-0.7","5375","approach_avoid_sv1","""event"",""trial"",""time""
""fullscreenenter"",""1"",""3610""
","
","
","""event"",""trial"",""time""
""fullscreenenter"",""1"",""3610""
","
","","","","","","null","<div style=""font-size:60px;"">+</div>","null","","fixation","","",""
"memory-trial","33","152150","0.0-11.0-1.7","5375","approach_avoid_sv1","""event"",""trial"",""time""
""fullscreenenter"",""1"",""3610""
","
","
","""event"",""trial"",""time""
""fullscreenenter"",""1"",""3610""
","
","","","","","","1627.7000000476837","images/racket5.png","","","practice","1","definitely_old",""
"learning-instructions","34","164008","0.0-12.0-0.0","5375","approach_avoid_sv1","""event"",""trial"",""time""
""fullscreenenter"",""1"",""3610""
","
","
","""event"",""trial"",""time""
""fullscreenenter"",""1"",""3610""
","
","","","","","","4503.300000011921","<p> Great! You have completed the practice. </p><p> Before you start, we're going to ask you a few questions about how the game works.  </p>","","0","instructions","","",""
"preload","35","167725","0.0-13.0","5375","approach_avoid_sv1","""event"",""trial"",""time""
""fullscreenenter"",""1"",""3610""
","
","
","""event"",""trial"",""time""
""fullscreenenter"",""1"",""3610""
","
","true","false","[]","[]","[]","","","","","","","",""
"comp-q","36","176299","0.0-14.0-0.0","5375","approach_avoid_sv1","""event"",""trial"",""time""
""fullscreenenter"",""1"",""3610""
","
","
","""event"",""trial"",""time""
""fullscreenenter"",""1"",""3610""
","
","","","","","","2744.5","<p> <b> True or False? </b> </p><p> In this game, you will only see each image once. </p>","","0","comp_question","","","true"
"comp-q","37","184401","0.0-14.0-1.0","5375","approach_avoid_sv1","""event"",""trial"",""time""
""fullscreenenter"",""1"",""3610""
","
","
","""event"",""trial"",""time""
""fullscreenenter"",""1"",""3610""
","
","","","","","","1746.3999999761581","<p> <b> That's right! </b> You will see many different images <i> one time each </i> in this game. </p>","","0","comp_answer","","",""
"comp-q","38","191910","0.0-15.0-0.0","5375","approach_avoid_sv1","""event"",""trial"",""time""
""fullscreenenter"",""1"",""3610""
","
","
","""event"",""trial"",""time""
""fullscreenenter"",""1"",""3610""
","
","","","","","","2496.199999988079","<p> <b> True or False? </b> </p><p> You should use the mouse and click to make your response. </p>","","1","comp_question","","","true"
"comp-q","39","200757","0.0-15.0-1.0","5375","approach_avoid_sv1","""event"",""trial"",""time""
""fullscreenenter"",""1"",""3610""
","
","
","""event"",""trial"",""time""
""fullscreenenter"",""1"",""3610""
","
","","","","","","2343.399999976158","<p><b> That's right! </b> You should use the '1', '2', '3', and '4' keys to make your response. </p>","","0","comp_answer","","",""
"comp-q","40","209706","0.0-16.0-0.0","5375","approach_avoid_sv1","""event"",""trial"",""time""
""fullscreenenter"",""1"",""3610""
","
","
","""event"",""trial"",""time""
""fullscreenenter"",""1"",""3610""
","
","","","","","","3262.199999988079","<p> <b> True or False? </b> </p><p> You will have as much time as you want to make each choice. </p>","","1","comp_question","","","true"
"comp-q","41","216499","0.0-16.0-1.0","5375","approach_avoid_sv1","""event"",""trial"",""time""
""fullscreenenter"",""1"",""3610""
","
","
","""event"",""trial"",""time""
""fullscreenenter"",""1"",""3610""
","
","","","","","","2084.599999964237","<p> <b> That's right! </b> You will only have 10 seconds to make each choice. </p>","","0","comp_answer","","",""
"learning-instructions","42","228413","0.0-17.0","5375","approach_avoid_sv1","""event"",""trial"",""time""
""fullscreenenter"",""1"",""3610""
","
","
","""event"",""trial"",""time""
""fullscreenenter"",""1"",""3610""
","
","","","","","","3238.300000011921","<p> Great! You are now ready to begin the game. </p><p> Remember, use the 1, 2, 3, and 4 keys to make your responses. </p>","","0","instructions","","",""
"html-keyboard-response","43","229035","0.0-18.0-0.0","5375","approach_avoid_sv1","""event"",""trial"",""time""
""fullscreenenter"",""1"",""3610""
","
","
","""event"",""trial"",""time""
""fullscreenenter"",""1"",""3610""
","
","","","","","","null","<div style=""font-size:60px;"">+</div>","null","","fixation","","",""
"memory-trial","44","232529","0.0-18.0-1.0","5375","approach_avoid_sv1","""event"",""trial"",""time""
""fullscreenenter"",""1"",""3610""
","
","
","""event"",""trial"",""time""
""fullscreenenter"",""1"",""3610""
","
","","","","","","2484.300000011921","images/flower6.png","","","memory_trial","1","definitely_old",""
"html-keyboard-response","45","233042","0.0-18.0-0.1","5375","approach_avoid_sv1","""event"",""trial"",""time""
""fullscreenenter"",""1"",""3610""
","
","
","""event"",""trial"",""time""
""fullscreenenter"",""1"",""3610""
","
","","","","","","null","<div style=""font-size:60px;"">+</div>","null","","fixation","","",""
"memory-trial","46","236141","0.0-18.0-1.1","5375","approach_avoid_sv1","""event"",""trial"",""time""
""fullscreenenter"",""1"",""3610""
","
","
","""event"",""trial"",""time""
""fullscreenenter"",""1"",""3610""
","
","","","","","","2085.399999976158","images/rodent8.png","","","memory_trial","1","definitely_old",""
"html-keyboard-response","47","236656","0.0-18.0-0.2","5375","approach_avoid_sv1","""event"",""trial"",""time""
""fullscreenenter"",""1"",""3610""
","
","
","""event"",""trial"",""time""
""fullscreenenter"",""1"",""3610""
","
","","","","","","null","<div style=""font-size:60px;"">+</div>","null","","fixation","","",""
"memory-trial","48","238950","0.0-18.0-1.2","5375","approach_avoid_sv1","""event"",""trial"",""time""
""fullscreenenter"",""1"",""3610""
","
","
","""event"",""trial"",""time""
""fullscreenenter"",""1"",""3610""
","
","","","","","","1275.300000011921","images/cat5.png","","","memory_trial","1","definitely_old",""
"html-keyboard-response","49","239468","0.0-18.0-0.3","5375","approach_avoid_sv1","""event"",""trial"",""time""
""fullscreenenter"",""1"",""3610""
","
","
","""event"",""trial"",""time""
""fullscreenenter"",""1"",""3610""
","
","","","","","","null","<div style=""font-size:60px;"">+</div>","null","","fixation","","",""
"memory-trial","50","243659","0.0-18.0-1.3","5375","approach_avoid_sv1","""event"",""trial"",""time""
""fullscreenenter"",""1"",""3610""
","
","
","""event"",""trial"",""time""
""fullscreenenter"",""1"",""3610""
","
","","","","","","3174.2000000476837","images/truck6.png","","","memory_trial","3","maybe_new",""
"html-keyboard-response","51","244170","0.0-18.0-0.4","5375","approach_avoid_sv1","""event"",""trial"",""time""
""fullscreenenter"",""1"",""3610""
","
","
","""event"",""trial"",""time""
""fullscreenenter"",""1"",""3610""
","
","","","","","","null","<div style=""font-size:60px;"">+</div>","null","","fixation","","",""
"memory-trial","52","248336","0.0-18.0-1.4","5375","approach_avoid_sv1","""event"",""trial"",""time""
""fullscreenenter"",""1"",""3610""
","
","
","""event"",""trial"",""time""
""fullscreenenter"",""1"",""3610""
","
","","","","","","3151.600000023842","images/plane2.png","","","memory_trial","1","definitely_old",""
"html-keyboard-response","53","248849","0.0-18.0-0.5","5375","approach_avoid_sv1","""event"",""trial"",""time""
""fullscreenenter"",""1"",""3610""
","
","
","""event"",""trial"",""time""
""fullscreenenter"",""1"",""3610""
","
","","","","","","null","<div style=""font-size:60px;"">+</div>","null","","fixation","","",""
"memory-trial","54","253134","0.0-18.0-1.5","5375","approach_avoid_sv1","""event"",""trial"",""time""
""fullscreenenter"",""1"",""3610""
","
","
","""event"",""trial"",""time""
""fullscreenenter"",""1"",""3610""
","
","","","","","","3266.099999964237","images/plane1.png","","","memory_trial","4","definitely_new",""
"html-keyboard-response","55","253653","0.0-18.0-0.6","5375","approach_avoid_sv1","""event"",""trial"",""time""
""fullscreenenter"",""1"",""3610""
","
","
","""event"",""trial"",""time""
""fullscreenenter"",""1"",""3610""
","
","","","","","","null","<div style=""font-size:60px;"">+</div>","null","","fixation","","",""
"memory-trial","56","257348","0.0-18.0-1.6","5375","approach_avoid_sv1","""event"",""trial"",""time""
""fullscreenenter"",""1"",""3610""
","
","
","""event"",""trial"",""time""
""fullscreenenter"",""1"",""3610""
","
","","","","","","2684.100000023842","images/truck4.png","","","memory_trial","4","definitely_new",""
"html-keyboard-response","57","257856","0.0-18.0-0.7","5375","approach_avoid_sv1","""event"",""trial"",""time""
""fullscreenenter"",""1"",""3610""
","
","
","""event"",""trial"",""time""
""fullscreenenter"",""1"",""3610""
","
","","","","","","null","<div style=""font-size:60px;"">+</div>","null","","fixation","","",""
"memory-trial","58","260296","0.0-18.0-1.7","5375","approach_avoid_sv1","""event"",""trial"",""time""
""fullscreenenter"",""1"",""3610""
","
","
","""event"",""trial"",""time""
""fullscreenenter"",""1"",""3610""
","
","","","","","","1431.800000011921","images/straw2.png","","","memory_trial","1","definitely_old",""
"html-keyboard-response","59","260800","0.0-18.0-0.8","5375","approach_avoid_sv1","""event"",""trial"",""time""
""fullscreenenter"",""1"",""3610""
","
","
","""event"",""trial"",""time""
""fullscreenenter"",""1"",""3610""
","
","","","","","","null","<div style=""font-size:60px;"">+</div>","null","","fixation","","",""
"memory-trial","60","263279","0.0-18.0-1.8","5375","approach_avoid_sv1","""event"",""trial"",""time""
""fullscreenenter"",""1"",""3610""
","
","
","""event"",""trial"",""time""
""fullscreenenter"",""1"",""3610""
","
","","","","","","1470.4000000357628","images/sofa2.png","","","memory_trial","1","definitely_old",""
"html-keyboard-response","61","263783","0.0-18.0-0.9","5375","approach_avoid_sv1","""event"",""trial"",""time""
""fullscreenenter"",""1"",""3610""
","
","
","""event"",""trial"",""time""
""fullscreenenter"",""1"",""3610""
","
","","","","","","null","<div style=""font-size:60px;"">+</div>","null","","fixation","","",""
"memory-trial","62","267143","0.0-18.0-1.9","5375","approach_avoid_sv1","""event"",""trial"",""time""
""fullscreenenter"",""1"",""3610""
","
","
","""event"",""trial"",""time""
""fullscreenenter"",""1"",""3610""
","
","","","","","","2348.099999964237","images/bush2.png","","","memory_trial","1","definitely_old",""
"html-keyboard-response","63","267647","0.0-18.0-0.10","5375","approach_avoid_sv1","""event"",""trial"",""time""
""fullscreenenter"",""1"",""3610""
","
","
","""event"",""trial"",""time""
""fullscreenenter"",""1"",""3610""
","
","","","","","","null","<div style=""font-size:60px;"">+</div>","null","","fixation","","",""
"memory-trial","64","269719","0.0-18.0-1.10","5375","approach_avoid_sv1","""event"",""trial"",""time""
""fullscreenenter"",""1"",""3610""
","
","
","""event"",""trial"",""time""
""fullscreenenter"",""1"",""3610""
","
","","","","","","1060.199999988079","images/bed3.png","","","memory_trial","1","definitely_old",""
"html-keyboard-response","65","270224","0.0-18.0-0.11","5375","approach_avoid_sv1","""event"",""trial"",""time""
""fullscreenenter"",""1"",""3610""
","
","
","""event"",""trial"",""time""
""fullscreenenter"",""1"",""3610""
","
","","","","","","null","<div style=""font-size:60px;"">+</div>","null","","fixation","","",""
"memory-trial","66","272927","0.0-18.0-1.11","5375","approach_avoid_sv1","""event"",""trial"",""time""
""fullscreenenter"",""1"",""3610""
","
","
","""event"",""trial"",""time""
""fullscreenenter"",""1"",""3610""
","
","","","","","","1697.199999988079","images/boat3.png","","","memory_trial","3","maybe_new",""
"html-keyboard-response","67","273432","0.0-18.0-0.12","5375","approach_avoid_sv1","""event"",""trial"",""time""
""fullscreenenter"",""1"",""3610""
","
","
","""event"",""trial"",""time""
""fullscreenenter"",""1"",""3610""
","
","","","","","","null","<div style=""font-size:60px;"">+</div>","null","","fixation","","",""
"memory-trial","68","276151","0.0-18.0-1.12","5375","approach_avoid_sv1","""event"",""trial"",""time""
""fullscreenenter"",""1"",""3610""
","
","
","""event"",""trial"",""time""
""fullscreenenter"",""1"",""3610""
","
","","","","","","1709.300000011921","images/tree4.png","","","memory_trial","1","definitely_old",""
"html-keyboard-response","69","276655","0.0-18.0-0.13","5375","approach_avoid_sv1","""event"",""trial"",""time""
""fullscreenenter"",""1"",""3610""
","
","
","""event"",""trial"",""time""
""fullscreenenter"",""1"",""3610""
","
","","","","","","null","<div style=""font-size:60px;"">+</div>","null","","fixation","","",""
"memory-trial","70","279279","0.0-18.0-1.13","5375","approach_avoid_sv1","""event"",""trial"",""time""
""fullscreenenter"",""1"",""3610""
","
","
","""event"",""trial"",""time""
""fullscreenenter"",""1"",""3610""
","
","","","","","","1617.5999999642372","images/chair4.png","","","memory_trial","4","definitely_new",""
"html-keyboard-response","71","279783","0.0-18.0-0.14","5375","approach_avoid_sv1","""event"",""trial"",""time""
""fullscreenenter"",""1"",""3610""
","
","
","""event"",""trial"",""time""
""fullscreenenter"",""1"",""3610""
","
","","","","","","null","<div style=""font-size:60px;"">+</div>","null","","fixation","","",""
"memory-trial","72","281927","0.0-18.0-1.14","5375","approach_avoid_sv1","""event"",""trial"",""time""
""fullscreenenter"",""1"",""3610""
","
","
","""event"",""trial"",""time""
""fullscreenenter"",""1"",""3610""
","
","","","","","","1136.2000000476837","images/straw3.png","","","memory_trial","1","definitely_old",""
"html-keyboard-response","73","282431","0.0-18.0-0.15","5375","approach_avoid_sv1","""event"",""trial"",""time""
""fullscreenenter"",""1"",""3610""
","
","
","""event"",""trial"",""time""
""fullscreenenter"",""1"",""3610""
","
","","","","","","null","<div style=""font-size:60px;"">+</div>","null","","fixation","","",""
"memory-trial","74","284856","0.0-18.0-1.15","5375","approach_avoid_sv1","""event"",""trial"",""time""
""fullscreenenter"",""1"",""3610""
","
","
","""event"",""trial"",""time""
""fullscreenenter"",""1"",""3610""
","
","","","","","","1419.5","images/orange7.png","","","memory_trial","4","definitely_new",""
"html-keyboard-response","75","285359","0.0-18.0-0.16","5375","approach_avoid_sv1","""event"",""trial"",""time""
""fullscreenenter"",""1"",""3610""
","
","
","""event"",""trial"",""time""
""fullscreenenter"",""1"",""3610""
","
","","","","","","null","<div style=""font-size:60px;"">+</div>","null","","fixation","","",""
"memory-trial","76","287591","0.0-18.0-1.16","5375","approach_avoid_sv1","""event"",""trial"",""time""
""fullscreenenter"",""1"",""3610""
","
","
","""event"",""trial"",""time""
""fullscreenenter"",""1"",""3610""
","
","","","","","","1224.1000000238419","images/dog7.png","","","memory_trial","1","definitely_old",""
"html-keyboard-response","77","288096","0.0-18.0-0.17","5375","approach_avoid_sv1","""event"",""trial"",""time""
""fullscreenenter"",""1"",""3610""
","
","
","""event"",""trial"",""time""
""fullscreenenter"",""1"",""3610""
","
","","","","","","null","<div style=""font-size:60px;"">+</div>","null","","fixation","","",""
"memory-trial","78","290303","0.0-18.0-1.17","5375","approach_avoid_sv1","""event"",""trial"",""time""
""fullscreenenter"",""1"",""3610""
","
","
","""event"",""trial"",""time""
""fullscreenenter"",""1"",""3610""
","
","","","","","","1196.3999999761581","images/sheep4.png","","","memory_trial","1","definitely_old",""
"html-keyboard-response","79","290807","0.0-18.0-0.18","5375","approach_avoid_sv1","""event"",""trial"",""time""
""fullscreenenter"",""1"",""3610""
","
","
","""event"",""trial"",""time""
""fullscreenenter"",""1"",""3610""
","
","","","","","","null","<div style=""font-size:60px;"">+</div>","null","","fixation","","",""
"memory-trial","80","292984","0.0-18.0-1.18","5375","approach_avoid_sv1","""event"",""trial"",""time""
""fullscreenenter"",""1"",""3610""
","
","
","""event"",""trial"",""time""
""fullscreenenter"",""1"",""3610""
","
","","","","","","1167.1000000238419","images/bush6.png","","","memory_trial","4","definitely_new",""
"html-keyboard-response","81","293487","0.0-18.0-0.19","5375","approach_avoid_sv1","""event"",""trial"",""time""
""fullscreenenter"",""1"",""3610""
","
","
","""event"",""trial"",""time""
""fullscreenenter"",""1"",""3610""
","
","","","","","","null","<div style=""font-size:60px;"">+</div>","null","","fixation","","",""
"memory-trial","82","295951","0.0-18.0-1.19","5375","approach_avoid_sv1","""event"",""trial"",""time""
""fullscreenenter"",""1"",""3610""
","
","
","""event"",""trial"",""time""
""fullscreenenter"",""1"",""3610""
","
","","","","","","1453.5999999642372","images/sofa6.png","","","memory_trial","1","definitely_old",""
"html-keyboard-response","83","296455","0.0-18.0-0.20","5375","approach_avoid_sv1","""event"",""trial"",""time""
""fullscreenenter"",""1"",""3610""
","
","
","""event"",""trial"",""time""
""fullscreenenter"",""1"",""3610""
","
","","","","","","null","<div style=""font-size:60px;"">+</div>","null","","fixation","","",""
"memory-trial","84","299199","0.0-18.0-1.20","5375","approach_avoid_sv1","""event"",""trial"",""time""
""fullscreenenter"",""1"",""3610""
","
","
","""event"",""trial"",""time""
""fullscreenenter"",""1"",""3610""
","
","","","","","","1736.300000011921","images/tree1.png","","","memory_trial","1","definitely_old",""
"html-keyboard-response","85","299703","0.0-18.0-0.21","5375","approach_avoid_sv1","""event"",""trial"",""time""
""fullscreenenter"",""1"",""3610""
","
","
","""event"",""trial"",""time""
""fullscreenenter"",""1"",""3610""
","
","","","","","","null","<div style=""font-size:60px;"">+</div>","null","","fixation","","",""
"memory-trial","86","302688","0.0-18.0-1.21","5375","approach_avoid_sv1","""event"",""trial"",""time""
""fullscreenenter"",""1"",""3610""
","
","
","""event"",""trial"",""time""
""fullscreenenter"",""1"",""3610""
","
","","","","","","1971.8999999761581","images/chair3.png","","","memory_trial","4","definitely_new",""
"html-keyboard-response","87","303191","0.0-18.0-0.22","5375","approach_avoid_sv1","""event"",""trial"",""time""
""fullscreenenter"",""1"",""3610""
","
","
","""event"",""trial"",""time""
""fullscreenenter"",""1"",""3610""
","
","","","","","","null","<div style=""font-size:60px;"">+</div>","null","","fixation","","",""
"memory-trial","88","305360","0.0-18.0-1.22","5375","approach_avoid_sv1","""event"",""trial"",""time""
""fullscreenenter"",""1"",""3610""
","
","
","""event"",""trial"",""time""
""fullscreenenter"",""1"",""3610""
","
","","","","","","1164.5","images/sofa4.png","","","memory_trial","1","definitely_old",""
"html-keyboard-response","89","305863","0.0-18.0-0.23","5375","approach_avoid_sv1","""event"",""trial"",""time""
""fullscreenenter"",""1"",""3610""
","
","
","""event"",""trial"",""time""
""fullscreenenter"",""1"",""3610""
","
","","","","","","null","<div style=""font-size:60px;"">+</div>","null","","fixation","","",""
"memory-trial","90","308830","0.0-18.0-1.23","5375","approach_avoid_sv1","""event"",""trial"",""time""
""fullscreenenter"",""1"",""3610""
","
","
","""event"",""trial"",""time""
""fullscreenenter"",""1"",""3610""
","
","","","","","","1946.300000011921","images/boat2.png","","","memory_trial","4","definitely_new",""
"html-keyboard-response","91","309335","0.0-18.0-0.24","5375","approach_avoid_sv1","""event"",""trial"",""time""
""fullscreenenter"",""1"",""3610""
","
","
","""event"",""trial"",""time""
""fullscreenenter"",""1"",""3610""
","
","","","","","","null","<div style=""font-size:60px;"">+</div>","null","","fixation","","",""
"memory-trial","92","311575","0.0-18.0-1.24","5375","approach_avoid_sv1","""event"",""trial"",""time""
""fullscreenenter"",""1"",""3610""
","
","
","""event"",""trial"",""time""
""fullscreenenter"",""1"",""3610""
","
","","","","","","1236.2999999523163","images/sheep7.png","","","memory_trial","1","definitely_old",""
"html-keyboard-response","93","312079","0.0-18.0-0.25","5375","approach_avoid_sv1","""event"",""trial"",""time""
""fullscreenenter"",""1"",""3610""
","
","
","""event"",""trial"",""time""
""fullscreenenter"",""1"",""3610""
","
","","","","","","null","<div style=""font-size:60px;"">+</div>","null","","fixation","","",""
"memory-trial","94","314391","0.0-18.0-1.25","5375","approach_avoid_sv1","""event"",""trial"",""time""
""fullscreenenter"",""1"",""3610""
","
","
","""event"",""trial"",""time""
""fullscreenenter"",""1"",""3610""
","
","","","","","","1300.6000000238419","images/bush8.png","","","memory_trial","4","definitely_new",""
"html-keyboard-response","95","314895","0.0-18.0-0.26","5375","approach_avoid_sv1","""event"",""trial"",""time""
""fullscreenenter"",""1"",""3610""
","
","
","""event"",""trial"",""time""
""fullscreenenter"",""1"",""3610""
","
","","","","","","null","<div style=""font-size:60px;"">+</div>","null","","fixation","","",""
"memory-trial","96","317503","0.0-18.0-1.26","5375","approach_avoid_sv1","""event"",""trial"",""time""
""fullscreenenter"",""1"",""3610""
","
","
","""event"",""trial"",""time""
""fullscreenenter"",""1"",""3610""
","
","","","","","","1601.2000000476837","images/apple4.png","","","memory_trial","4","definitely_new",""
"html-keyboard-response","97","318006","0.0-18.0-0.27","5375","approach_avoid_sv1","""event"",""trial"",""time""
""fullscreenenter"",""1"",""3610""
","
","
","""event"",""trial"",""time""
""fullscreenenter"",""1"",""3610""
","
","","","","","","null","<div style=""font-size:60px;"">+</div>","null","","fixation","","",""
"memory-trial","98","320511","0.0-18.0-1.27","5375","approach_avoid_sv1","""event"",""trial"",""time""
""fullscreenenter"",""1"",""3610""
","
","
","""event"",""trial"",""time""
""fullscreenenter"",""1"",""3610""
","
","","","","","","1492.1000000238419","images/plane7.png","","","memory_trial","1","definitely_old",""
"html-keyboard-response","99","321015","0.0-18.0-0.28","5375","approach_avoid_sv1","""event"",""trial"",""time""
""fullscreenenter"",""1"",""3610""
","
","
","""event"",""trial"",""time""
""fullscreenenter"",""1"",""3610""
","
","","","","","","null","<div style=""font-size:60px;"">+</div>","null","","fixation","","",""
"memory-trial","100","323479","0.0-18.0-1.28","5375","approach_avoid_sv1","""event"",""trial"",""time""
""fullscreenenter"",""1"",""3610""
","
","
","""event"",""trial"",""time""
""fullscreenenter"",""1"",""3610""
","
","","","","","","1456.5","images/sheep5.png","","","memory_trial","1","definitely_old",""
"html-keyboard-response","101","323983","0.0-18.0-0.29","5375","approach_avoid_sv1","""event"",""trial"",""time""
""fullscreenenter"",""1"",""3610""
","
","
","""event"",""trial"",""time""
""fullscreenenter"",""1"",""3610""
","
","","","","","","null","<div style=""font-size:60px;"">+</div>","null","","fixation","","",""
"memory-trial","102","326263","0.0-18.0-1.29","5375","approach_avoid_sv1","""event"",""trial"",""time""
""fullscreenenter"",""1"",""3610""
","
","
","""event"",""trial"",""time""
""fullscreenenter"",""1"",""3610""
","
","","","","","","1274.9000000357628","images/tree8.png","","","memory_trial","1","definitely_old",""
"html-keyboard-response","103","326767","0.0-18.0-0.30","5375","approach_avoid_sv1","""event"",""trial"",""time""
""fullscreenenter"",""1"",""3610""
","
","
","""event"",""trial"",""time""
""fullscreenenter"",""1"",""3610""
","
","","","","","","null","<div style=""font-size:60px;"">+</div>","null","","fixation","","",""
"memory-trial","104","330423","0.0-18.0-1.30","5375","approach_avoid_sv1","""event"",""trial"",""time""
""fullscreenenter"",""1"",""3610""
","
","
","""event"",""trial"",""time""
""fullscreenenter"",""1"",""3610""
","
","","","","","","2645.400000035763","images/orange5.png","","","memory_trial","1","definitely_old",""
"html-keyboard-response","105","330927","0.0-18.0-0.31","5375","approach_avoid_sv1","""event"",""trial"",""time""
""fullscreenenter"",""1"",""3610""
","
","
","""event"",""trial"",""time""
""fullscreenenter"",""1"",""3610""
","
","","","","","","null","<div style=""font-size:60px;"">+</div>","null","","fixation","","",""
"memory-trial","106","332951","0.0-18.0-1.31","5375","approach_avoid_sv1","""event"",""trial"",""time""
""fullscreenenter"",""1"",""3610""
","
","
","""event"",""trial"",""time""
""fullscreenenter"",""1"",""3610""
","
","","","","","","1013","images/dog3.png","","","memory_trial","1","definitely_old",""
"html-keyboard-response","107","333455","0.0-18.0-0.32","5375","approach_avoid_sv1","""event"",""trial"",""time""
""fullscreenenter"",""1"",""3610""
","
","
","""event"",""trial"",""time""
""fullscreenenter"",""1"",""3610""
","
","","","","","","null","<div style=""font-size:60px;"">+</div>","null","","fixation","","",""
"memory-trial","108","335585","0.0-18.0-1.32","5375","approach_avoid_sv1","""event"",""trial"",""time""
""fullscreenenter"",""1"",""3610""
","
","
","""event"",""trial"",""time""
""fullscreenenter"",""1"",""3610""
","
","","","","","","1116.800000011921","images/apple2.png","","","memory_trial","1","definitely_old",""
"html-keyboard-response","109","336095","0.0-18.0-0.33","5375","approach_avoid_sv1","""event"",""trial"",""time""
""fullscreenenter"",""1"",""3610""
","
","
","""event"",""trial"",""time""
""fullscreenenter"",""1"",""3610""
","
","","","","","","null","<div style=""font-size:60px;"">+</div>","null","","fixation","","",""
"memory-trial","110","338591","0.0-18.0-1.33","5375","approach_avoid_sv1","""event"",""trial"",""time""
""fullscreenenter"",""1"",""3610""
","
","
","""event"",""trial"",""time""
""fullscreenenter"",""1"",""3610""
","
","","","","","","1488.1000000238419","images/rabbit8.png","","","memory_trial","4","definitely_new",""
"html-keyboard-response","111","339095","0.0-18.0-0.34","5375","approach_avoid_sv1","""event"",""trial"",""time""
""fullscreenenter"",""1"",""3610""
","
","
","""event"",""trial"",""time""
""fullscreenenter"",""1"",""3610""
","
","","","","","","null","<div style=""font-size:60px;"">+</div>","null","","fixation","","",""
"memory-trial","112","341903","0.0-18.0-1.34","5375","approach_avoid_sv1","""event"",""trial"",""time""
""fullscreenenter"",""1"",""3610""
","
","
","""event"",""trial"",""time""
""fullscreenenter"",""1"",""3610""
","
","","","","","","1803.699999988079","images/sheep2.png","","","memory_trial","4","definitely_new",""
"html-keyboard-response","113","342407","0.0-18.0-0.35","5375","approach_avoid_sv1","""event"",""trial"",""time""
""fullscreenenter"",""1"",""3610""
","
","
","""event"",""trial"",""time""
""fullscreenenter"",""1"",""3610""
","
","","","","","","null","<div style=""font-size:60px;"">+</div>","null","","fixation","","",""
"memory-trial","114","344735","0.0-18.0-1.35","5375","approach_avoid_sv1","""event"",""trial"",""time""
""fullscreenenter"",""1"",""3610""
","
","
","""event"",""trial"",""time""
""fullscreenenter"",""1"",""3610""
","
","","","","","","1318.3999999761581","images/flower8.png","","","memory_trial","1","definitely_old",""
"html-keyboard-response","115","345239","0.0-18.0-0.36","5375","approach_avoid_sv1","""event"",""trial"",""time""
""fullscreenenter"",""1"",""3610""
","
","
","""event"",""trial"",""time""
""fullscreenenter"",""1"",""3610""
","
","","","","","","null","<div style=""font-size:60px;"">+</div>","null","","fixation","","",""
"memory-trial","116","347343","0.0-18.0-1.36","5375","approach_avoid_sv1","""event"",""trial"",""time""
""fullscreenenter"",""1"",""3610""
","
","
","""event"",""trial"",""time""
""fullscreenenter"",""1"",""3610""
","
","","","","","","1096.6000000238419","images/horse4.png","","","memory_trial","1","definitely_old",""
"html-keyboard-response","117","347847","0.0-18.0-0.37","5375","approach_avoid_sv1","""event"",""trial"",""time""
""fullscreenenter"",""1"",""3610""
","
","
","""event"",""trial"",""time""
""fullscreenenter"",""1"",""3610""
","
","","","","","","null","<div style=""font-size:60px;"">+</div>","null","","fixation","","",""
"memory-trial","118","350015","0.0-18.0-1.37","5375","approach_avoid_sv1","""event"",""trial"",""time""
""fullscreenenter"",""1"",""3610""
","
","
","""event"",""trial"",""time""
""fullscreenenter"",""1"",""3610""
","
","","","","","","1160.7999999523163","images/table8.png","","","memory_trial","4","definitely_new",""
"html-keyboard-response","119","350519","0.0-18.0-0.38","5375","approach_avoid_sv1","""event"",""trial"",""time""
""fullscreenenter"",""1"",""3610""
","
","
","""event"",""trial"",""time""
""fullscreenenter"",""1"",""3610""
","
","","","","","","null","<div style=""font-size:60px;"">+</div>","null","","fixation","","",""
"memory-trial","120","352855","0.0-18.0-1.38","5375","approach_avoid_sv1","""event"",""trial"",""time""
""fullscreenenter"",""1"",""3610""
","
","
","""event"",""trial"",""time""
""fullscreenenter"",""1"",""3610""
","
","","","","","","1329.3999999761581","images/dog4.png","","","memory_trial","1","definitely_old",""
"html-keyboard-response","121","353359","0.0-18.0-0.39","5375","approach_avoid_sv1","""event"",""trial"",""time""
""fullscreenenter"",""1"",""3610""
","
","
","""event"",""trial"",""time""
""fullscreenenter"",""1"",""3610""
","
","","","","","","null","<div style=""font-size:60px;"">+</div>","null","","fixation","","",""
"memory-trial","122","356399","0.0-18.0-1.39","5375","approach_avoid_sv1","""event"",""trial"",""time""
""fullscreenenter"",""1"",""3610""
","
","
","""event"",""trial"",""time""
""fullscreenenter"",""1"",""3610""
","
","","","","","","2030.0999999642372","images/sheep6.png","","","memory_trial","4","definitely_new",""
"html-keyboard-response","123","356903","0.0-18.0-0.40","5375","approach_avoid_sv1","""event"",""trial"",""time""
""fullscreenenter"",""1"",""3610""
","
","
","""event"",""trial"",""time""
""fullscreenenter"",""1"",""3610""
","
","","","","","","null","<div style=""font-size:60px;"">+</div>","null","","fixation","","",""
"memory-trial","124","358071","0.0-18.0-1.40","5375","approach_avoid_sv1","""event"",""trial"",""time""
""fullscreenenter"",""1"",""3610""
","
","
","""event"",""trial"",""time""
""fullscreenenter"",""1"",""3610""
","
","","","","","","158.5","images/bed6.png","","","memory_trial","1","definitely_old",""
"html-keyboard-response","125","358576","0.0-18.0-0.41","5375","approach_avoid_sv1","""event"",""trial"",""time""
""fullscreenenter"",""1"",""3610""
","
","
","""event"",""trial"",""time""
""fullscreenenter"",""1"",""3610""
","
","","","","","","null","<div style=""font-size:60px;"">+</div>","null","","fixation","","",""
"memory-trial","126","361000","0.0-18.0-1.41","5375","approach_avoid_sv1","""event"",""trial"",""time""
""fullscreenenter"",""1"",""3610""
","
","
","""event"",""trial"",""time""
""fullscreenenter"",""1"",""3610""
","
","","","","","","1412.8999999761581","images/plane3.png","","","memory_trial","1","definitely_old",""
"html-button-response","127","368553","0.0-18.0-2.41-0.41","5375","approach_avoid_sv1","""event"",""trial"",""time""
""fullscreenenter"",""1"",""3610""
","
","
","""event"",""trial"",""time""
""fullscreenenter"",""1"",""3610""
","
","","","","","","7551.199999988079","<p> Take a break! </p><p> Click the button to continue. </p>","0","","break","","",""
"html-keyboard-response","128","369055","0.0-18.0-0.42","5375","approach_avoid_sv1","""event"",""trial"",""time""
""fullscreenenter"",""1"",""3610""
","
","
","""event"",""trial"",""time""
""fullscreenenter"",""1"",""3610""
","
","","","","","","null","<div style=""font-size:60px;"">+</div>","null","","fixation","","",""
"memory-trial","129","373696","0.0-18.0-1.42","5375","approach_avoid_sv1","""event"",""trial"",""time""
""fullscreenenter"",""1"",""3610""
","
","
","""event"",""trial"",""time""
""fullscreenenter"",""1"",""3610""
","
","","","","","","3634.699999988079","images/cow2.png","","","memory_trial","1","definitely_old",""
"html-keyboard-response","130","374199","0.0-18.0-0.43","5375","approach_avoid_sv1","""event"",""trial"",""time""
""fullscreenenter"",""1"",""3610""
","
","
","""event"",""trial"",""time""
""fullscreenenter"",""1"",""3610""
","
","","","","","","null","<div style=""font-size:60px;"">+</div>","null","","fixation","","",""
"memory-trial","131","377224","0.0-18.0-1.43","5375","approach_avoid_sv1","""event"",""trial"",""time""
""fullscreenenter"",""1"",""3610""
","
","
","""event"",""trial"",""time""
""fullscreenenter"",""1"",""3610""
","
","","","","","","2020.5","images/chair6.png","","","memory_trial","4","definitely_new",""
"html-keyboard-response","132","377728","0.0-18.0-0.44","5375","approach_avoid_sv1","""event"",""trial"",""time""
""fullscreenenter"",""1"",""3610""
","
","
","""event"",""trial"",""time""
""fullscreenenter"",""1"",""3610""
","
","","","","","","null","<div style=""font-size:60px;"">+</div>","null","","fixation","","",""
"memory-trial","133","382495","0.0-18.0-1.44","5375","approach_avoid_sv1","""event"",""trial"",""time""
""fullscreenenter"",""1"",""3610""
","
","
","""event"",""trial"",""time""
""fullscreenenter"",""1"",""3610""
","
","","","","","","3754.5","images/chair2.png","","","memory_trial","3","maybe_new",""
"html-keyboard-response","134","382999","0.0-18.0-0.45","5375","approach_avoid_sv1","""event"",""trial"",""time""
""fullscreenenter"",""1"",""3610""
","
","
","""event"",""trial"",""time""
""fullscreenenter"",""1"",""3610""
","
","","","","","","null","<div style=""font-size:60px;"">+</div>","null","","fixation","","",""
"memory-trial","135","387360","0.0-18.0-1.45","5375","approach_avoid_sv1","""event"",""trial"",""time""
""fullscreenenter"",""1"",""3610""
","
","
","""event"",""trial"",""time""
""fullscreenenter"",""1"",""3610""
","
","","","","","","3347","images/banana5.png","","","memory_trial","1","definitely_old",""
"html-keyboard-response","136","387863","0.0-18.0-0.46","5375","approach_avoid_sv1","""event"",""trial"",""time""
""fullscreenenter"",""1"",""3610""
","
","
","""event"",""trial"",""time""
""fullscreenenter"",""1"",""3610""
","
","","","","","","null","<div style=""font-size:60px;"">+</div>","null","","fixation","","",""
"memory-trial","137","389999","0.0-18.0-1.46","5375","approach_avoid_sv1","""event"",""trial"",""time""
""fullscreenenter"",""1"",""3610""
","
","
","""event"",""trial"",""time""
""fullscreenenter"",""1"",""3610""
","
","","","","","","1127","images/orange1.png","","","memory_trial","1","definitely_old",""
"html-keyboard-response","138","390503","0.0-18.0-0.47","5375","approach_avoid_sv1","""event"",""trial"",""time""
""fullscreenenter"",""1"",""3610""
","
","
","""event"",""trial"",""time""
""fullscreenenter"",""1"",""3610""
","
","","","","","","null","<div style=""font-size:60px;"">+</div>","null","","fixation","","",""
"memory-trial","139","392279","0.0-18.0-1.47","5375","approach_avoid_sv1","""event"",""trial"",""time""
""fullscreenenter"",""1"",""3610""
","
","
","""event"",""trial"",""time""
""fullscreenenter"",""1"",""3610""
","
","","","","","","763.5","images/horse8.png","","","memory_trial","1","definitely_old",""
"html-keyboard-response","140","392783","0.0-18.0-0.48","5375","approach_avoid_sv1","""event"",""trial"",""time""
""fullscreenenter"",""1"",""3610""
""blur"",""141"",""395045""
","""event"",""trial"",""time""
""blur"",""141"",""395045""
","
","""event"",""trial"",""time""
""fullscreenenter"",""1"",""3610""
","
","","","","","","null","<div style=""font-size:60px;"">+</div>","null","","fixation","","",""
"memory-trial","141","403799","0.0-18.0-1.48","5375","approach_avoid_sv1","""event"",""trial"",""time""
""fullscreenenter"",""1"",""3610""
""blur"",""141"",""395045""
","""event"",""trial"",""time""
""blur"",""141"",""395045""
","
","""event"",""trial"",""time""
""fullscreenenter"",""1"",""3610""
","
","","","","","","null","images/dog8.png","","","memory_trial","null","null",""
"html-keyboard-response","142","405761","0.0-18.0-0.49","5375","approach_avoid_sv1","""event"",""trial"",""time""
""fullscreenenter"",""1"",""3610""
""blur"",""141"",""395045""
","""event"",""trial"",""time""
""blur"",""141"",""395045""
","
","""event"",""trial"",""time""
""fullscreenenter"",""1"",""3610""
","
","","","","","","null","<div style=""font-size:60px;"">+</div>","null","","fixation","","",""
"memory-trial","143","416047","0.0-18.0-1.49","5375","approach_avoid_sv1","""event"",""trial"",""time""
""fullscreenenter"",""1"",""3610""
""blur"",""141"",""395045""
","""event"",""trial"",""time""
""blur"",""141"",""395045""
","
","""event"",""trial"",""time""
""fullscreenenter"",""1"",""3610""
","
","","","","","","null","images/truck5.png","","","memory_trial","null","null",""
"html-keyboard-response","144","417047","0.0-18.0-0.50","5375","approach_avoid_sv1","""event"",""trial"",""time""
""fullscreenenter"",""1"",""3610""
""blur"",""141"",""395045""
""focus"",""145"",""419735""
","""event"",""trial"",""time""
""blur"",""141"",""395045""
","""event"",""trial"",""time""
""focus"",""145"",""419735""
","""event"",""trial"",""time""
""fullscreenenter"",""1"",""3610""
","
","","","","","","null","<div style=""font-size:60px;"">+</div>","null","","fixation","","",""
"memory-trial","145","426071","0.0-18.0-1.50","5375","approach_avoid_sv1","""event"",""trial"",""time""
""fullscreenenter"",""1"",""3610""
""blur"",""141"",""395045""
""focus"",""145"",""419735""
","""event"",""trial"",""time""
""blur"",""141"",""395045""
","""event"",""trial"",""time""
""focus"",""145"",""419735""
","""event"",""trial"",""time""
""fullscreenenter"",""1"",""3610""
","
","","","","","","8018.800000011921","images/goat5.png","","","memory_trial","4","definitely_new",""
"html-keyboard-response","146","426576","0.0-18.0-0.51","5375","approach_avoid_sv1","""event"",""trial"",""time""
""fullscreenenter"",""1"",""3610""
""blur"",""141"",""395045""
""focus"",""145"",""419735""
","""event"",""trial"",""time""
""blur"",""141"",""395045""
","""event"",""trial"",""time""
""focus"",""145"",""419735""
","""event"",""trial"",""time""
""fullscreenenter"",""1"",""3610""
","
","","","","","","null","<div style=""font-size:60px;"">+</div>","null","","fixation","","",""
"memory-trial","147","429640","0.0-18.0-1.51","5375","approach_avoid_sv1","""event"",""trial"",""time""
""fullscreenenter"",""1"",""3610""
""blur"",""141"",""395045""
""focus"",""145"",""419735""
","""event"",""trial"",""time""
""blur"",""141"",""395045""
","""event"",""trial"",""time""
""focus"",""145"",""419735""
","""event"",""trial"",""time""
""fullscreenenter"",""1"",""3610""
","
","","","","","","2051.7999999523163","images/flower3.png","","","memory_trial","1","definitely_old",""
"html-keyboard-response","148","430143","0.0-18.0-0.52","5375","approach_avoid_sv1","""event"",""trial"",""time""
""fullscreenenter"",""1"",""3610""
""blur"",""141"",""395045""
""focus"",""145"",""419735""
","""event"",""trial"",""time""
""blur"",""141"",""395045""
","""event"",""trial"",""time""
""focus"",""145"",""419735""
","""event"",""trial"",""time""
""fullscreenenter"",""1"",""3610""
","
","","","","","","null","<div style=""font-size:60px;"">+</div>","null","","fixation","","",""
"memory-trial","149","432824","0.0-18.0-1.52","5375","approach_avoid_sv1","""event"",""trial"",""time""
""fullscreenenter"",""1"",""3610""
""blur"",""141"",""395045""
""focus"",""145"",""419735""
","""event"",""trial"",""time""
""blur"",""141"",""395045""
","""event"",""trial"",""time""
""focus"",""145"",""419735""
","""event"",""trial"",""time""
""fullscreenenter"",""1"",""3610""
","
","","","","","","1671.199999988079","images/bed1.png","","","memory_trial","1","definitely_old",""
"html-keyboard-response","150","433327","0.0-18.0-0.53","5375","approach_avoid_sv1","""event"",""trial"",""time""
""fullscreenenter"",""1"",""3610""
""blur"",""141"",""395045""
""focus"",""145"",""419735""
","""event"",""trial"",""time""
""blur"",""141"",""395045""
","""event"",""trial"",""time""
""focus"",""145"",""419735""
","""event"",""trial"",""time""
""fullscreenenter"",""1"",""3610""
","
","","","","","","null","<div style=""font-size:60px;"">+</div>","null","","fixation","","",""
"memory-trial","151","439086","0.0-18.0-1.53","5375","approach_avoid_sv1","""event"",""trial"",""time""
""fullscreenenter"",""1"",""3610""
""blur"",""141"",""395045""
""focus"",""145"",""419735""
","""event"",""trial"",""time""
""blur"",""141"",""395045""
","""event"",""trial"",""time""
""focus"",""145"",""419735""
","""event"",""trial"",""time""
""fullscreenenter"",""1"",""3610""
","
","","","","","","4751.300000011921","images/flower1.png","","","memory_trial","1","definitely_old",""
"html-keyboard-response","152","439591","0.0-18.0-0.54","5375","approach_avoid_sv1","""event"",""trial"",""time""
""fullscreenenter"",""1"",""3610""
""blur"",""141"",""395045""
""focus"",""145"",""419735""
","""event"",""trial"",""time""
""blur"",""141"",""395045""
","""event"",""trial"",""time""
""focus"",""145"",""419735""
","""event"",""trial"",""time""
""fullscreenenter"",""1"",""3610""
","
","","","","","","null","<div style=""font-size:60px;"">+</div>","null","","fixation","","",""
"memory-trial","153","449599","0.0-18.0-1.54","5375","approach_avoid_sv1","""event"",""trial"",""time""
""fullscreenenter"",""1"",""3610""
""blur"",""141"",""395045""
""focus"",""145"",""419735""
","""event"",""trial"",""time""
""blur"",""141"",""395045""
","""event"",""trial"",""time""
""focus"",""145"",""419735""
","""event"",""trial"",""time""
""fullscreenenter"",""1"",""3610""
","
","","","","","","9251.800000011921","images/cat3.png","","","memory_trial","1","definitely_old",""
"html-keyboard-response","154","450103","0.0-18.0-0.55","5375","approach_avoid_sv1","""event"",""trial"",""time""
""fullscreenenter"",""1"",""3610""
""blur"",""141"",""395045""
""focus"",""145"",""419735""
","""event"",""trial"",""time""
""blur"",""141"",""395045""
","""event"",""trial"",""time""
""focus"",""145"",""419735""
","""event"",""trial"",""time""
""fullscreenenter"",""1"",""3610""
","
","","","","","","null","<div style=""font-size:60px;"">+</div>","null","","fixation","","",""
"memory-trial","155","452783","0.0-18.0-1.55","5375","approach_avoid_sv1","""event"",""trial"",""time""
""fullscreenenter"",""1"",""3610""
""blur"",""141"",""395045""
""focus"",""145"",""419735""
","""event"",""trial"",""time""
""blur"",""141"",""395045""
","""event"",""trial"",""time""
""focus"",""145"",""419735""
","""event"",""trial"",""time""
""fullscreenenter"",""1"",""3610""
","
","","","","","","1674.3999999761581","images/train2.png","","","memory_trial","1","definitely_old",""
"html-keyboard-response","156","453286","0.0-18.0-0.56","5375","approach_avoid_sv1","""event"",""trial"",""time""
""fullscreenenter"",""1"",""3610""
""blur"",""141"",""395045""
""focus"",""145"",""419735""
","""event"",""trial"",""time""
""blur"",""141"",""395045""
","""event"",""trial"",""time""
""focus"",""145"",""419735""
","""event"",""trial"",""time""
""fullscreenenter"",""1"",""3610""
","
","","","","","","null","<div style=""font-size:60px;"">+</div>","null","","fixation","","",""
"memory-trial","157","458359","0.0-18.0-1.56","5375","approach_avoid_sv1","""event"",""trial"",""time""
""fullscreenenter"",""1"",""3610""
""blur"",""141"",""395045""
""focus"",""145"",""419735""
","""event"",""trial"",""time""
""blur"",""141"",""395045""
","""event"",""trial"",""time""
""focus"",""145"",""419735""
","""event"",""trial"",""time""
""fullscreenenter"",""1"",""3610""
","
","","","","","","4067","images/flower7.png","","","memory_trial","4","definitely_new",""
"html-keyboard-response","158","458863","0.0-18.0-0.57","5375","approach_avoid_sv1","""event"",""trial"",""time""
""fullscreenenter"",""1"",""3610""
""blur"",""141"",""395045""
""focus"",""145"",""419735""
","""event"",""trial"",""time""
""blur"",""141"",""395045""
","""event"",""trial"",""time""
""focus"",""145"",""419735""
","""event"",""trial"",""time""
""fullscreenenter"",""1"",""3610""
","
","","","","","","null","<div style=""font-size:60px;"">+</div>","null","","fixation","","",""
"memory-trial","159","467328","0.0-18.0-1.57","5375","approach_avoid_sv1","""event"",""trial"",""time""
""fullscreenenter"",""1"",""3610""
""blur"",""141"",""395045""
""focus"",""145"",""419735""
","""event"",""trial"",""time""
""blur"",""141"",""395045""
","""event"",""trial"",""time""
""focus"",""145"",""419735""
","""event"",""trial"",""time""
""fullscreenenter"",""1"",""3610""
","
","","","","","","7457.800000011921","images/dog1.png","","","memory_trial","3","maybe_new",""
"html-keyboard-response","160","467830","0.0-18.0-0.58","5375","approach_avoid_sv1","""event"",""trial"",""time""
""fullscreenenter"",""1"",""3610""
""blur"",""141"",""395045""
""focus"",""145"",""419735""
","""event"",""trial"",""time""
""blur"",""141"",""395045""
","""event"",""trial"",""time""
""focus"",""145"",""419735""
","""event"",""trial"",""time""
""fullscreenenter"",""1"",""3610""
","
","","","","","","null","<div style=""font-size:60px;"">+</div>","null","","fixation","","",""
"memory-trial","161","472887","0.0-18.0-1.58","5375","approach_avoid_sv1","""event"",""trial"",""time""
""fullscreenenter"",""1"",""3610""
""blur"",""141"",""395045""
""focus"",""145"",""419735""
","""event"",""trial"",""time""
""blur"",""141"",""395045""
","""event"",""trial"",""time""
""focus"",""145"",""419735""
","""event"",""trial"",""time""
""fullscreenenter"",""1"",""3610""
","
","","","","","","4053.599999964237","images/bed2.png","","","memory_trial","1","definitely_old",""
"html-keyboard-response","162","473391","0.0-18.0-0.59","5375","approach_avoid_sv1","""event"",""trial"",""time""
""fullscreenenter"",""1"",""3610""
""blur"",""141"",""395045""
""focus"",""145"",""419735""
","""event"",""trial"",""time""
""blur"",""141"",""395045""
","""event"",""trial"",""time""
""focus"",""145"",""419735""
","""event"",""trial"",""time""
""fullscreenenter"",""1"",""3610""
","
","","","","","","null","<div style=""font-size:60px;"">+</div>","null","","fixation","","",""
"memory-trial","163","476696","0.0-18.0-1.59","5375","approach_avoid_sv1","""event"",""trial"",""time""
""fullscreenenter"",""1"",""3610""
""blur"",""141"",""395045""
""focus"",""145"",""419735""
","""event"",""trial"",""time""
""blur"",""141"",""395045""
","""event"",""trial"",""time""
""focus"",""145"",""419735""
","""event"",""trial"",""time""
""fullscreenenter"",""1"",""3610""
","
","","","","","","2294.900000035763","images/banana7.png","","","memory_trial","1","definitely_old",""
"html-keyboard-response","164","477199","0.0-18.0-0.60","5375","approach_avoid_sv1","""event"",""trial"",""time""
""fullscreenenter"",""1"",""3610""
""blur"",""141"",""395045""
""focus"",""145"",""419735""
","""event"",""trial"",""time""
""blur"",""141"",""395045""
","""event"",""trial"",""time""
""focus"",""145"",""419735""
","""event"",""trial"",""time""
""fullscreenenter"",""1"",""3610""
","
","","","","","","null","<div style=""font-size:60px;"">+</div>","null","","fixation","","",""
"memory-trial","165","482311","0.0-18.0-1.60","5375","approach_avoid_sv1","""event"",""trial"",""time""
""fullscreenenter"",""1"",""3610""
""blur"",""141"",""395045""
""focus"",""145"",""419735""
","""event"",""trial"",""time""
""blur"",""141"",""395045""
","""event"",""trial"",""time""
""focus"",""145"",""419735""
","""event"",""trial"",""time""
""fullscreenenter"",""1"",""3610""
","
","","","","","","4101.299999952316","images/dog6.png","","","memory_trial","3","maybe_new",""
"html-keyboard-response","166","482821","0.0-18.0-0.61","5375","approach_avoid_sv1","""event"",""trial"",""time""
""fullscreenenter"",""1"",""3610""
""blur"",""141"",""395045""
""focus"",""145"",""419735""
","""event"",""trial"",""time""
""blur"",""141"",""395045""
","""event"",""trial"",""time""
""focus"",""145"",""419735""
","""event"",""trial"",""time""
""fullscreenenter"",""1"",""3610""
","
","","","","","","null","<div style=""font-size:60px;"">+</div>","null","","fixation","","",""
"memory-trial","167","492831","0.0-18.0-1.61","5375","approach_avoid_sv1","""event"",""trial"",""time""
""fullscreenenter"",""1"",""3610""
""blur"",""141"",""395045""
""focus"",""145"",""419735""
","""event"",""trial"",""time""
""blur"",""141"",""395045""
","""event"",""trial"",""time""
""focus"",""145"",""419735""
","""event"",""trial"",""time""
""fullscreenenter"",""1"",""3610""
","
","","","","","","null","images/rodent7.png","","","memory_trial","null","null",""
"html-keyboard-response","168","493335","0.0-18.0-0.62","5375","approach_avoid_sv1","""event"",""trial"",""time""
""fullscreenenter"",""1"",""3610""
""blur"",""141"",""395045""
""focus"",""145"",""419735""
","""event"",""trial"",""time""
""blur"",""141"",""395045""
","""event"",""trial"",""time""
""focus"",""145"",""419735""
","""event"",""trial"",""time""
""fullscreenenter"",""1"",""3610""
","
","","","","","","null","<div style=""font-size:60px;"">+</div>","null","","fixation","","",""
"memory-trial","169","499263","0.0-18.0-1.62","5375","approach_avoid_sv1","""event"",""trial"",""time""
""fullscreenenter"",""1"",""3610""
""blur"",""141"",""395045""
""focus"",""145"",""419735""
","""event"",""trial"",""time""
""blur"",""141"",""395045""
","""event"",""trial"",""time""
""focus"",""145"",""419735""
","""event"",""trial"",""time""
""fullscreenenter"",""1"",""3610""
","
","","","","","","4920.199999988079","images/sofa5.png","","","memory_trial","3","maybe_new",""
"html-keyboard-response","170","499767","0.0-18.0-0.63","5375","approach_avoid_sv1","""event"",""trial"",""time""
""fullscreenenter"",""1"",""3610""
""blur"",""141"",""395045""
""focus"",""145"",""419735""
","""event"",""trial"",""time""
""blur"",""141"",""395045""
","""event"",""trial"",""time""
""focus"",""145"",""419735""
","""event"",""trial"",""time""
""fullscreenenter"",""1"",""3610""
","
","","","","","","null","<div style=""font-size:60px;"">+</div>","null","","fixation","","",""
"memory-trial","171","505279","0.0-18.0-1.63","5375","approach_avoid_sv1","""event"",""trial"",""time""
""fullscreenenter"",""1"",""3610""
""blur"",""141"",""395045""
""focus"",""145"",""419735""
","""event"",""trial"",""time""
""blur"",""141"",""395045""
","""event"",""trial"",""time""
""focus"",""145"",""419735""
","""event"",""trial"",""time""
""fullscreenenter"",""1"",""3610""
","
","","","","","","4503.800000011921","images/rabbit7.png","","","memory_trial","4","definitely_new",""
"html-keyboard-response","172","505783","0.0-18.0-0.64","5375","approach_avoid_sv1","""event"",""trial"",""time""
""fullscreenenter"",""1"",""3610""
""blur"",""141"",""395045""
""focus"",""145"",""419735""
","""event"",""trial"",""time""
""blur"",""141"",""395045""
","""event"",""trial"",""time""
""focus"",""145"",""419735""
","""event"",""trial"",""time""
""fullscreenenter"",""1"",""3610""
","
","","","","","","null","<div style=""font-size:60px;"">+</div>","null","","fixation","","",""
"memory-trial","173","509903","0.0-18.0-1.64","5375","approach_avoid_sv1","""event"",""trial"",""time""
""fullscreenenter"",""1"",""3610""
""blur"",""141"",""395045""
""focus"",""145"",""419735""
","""event"",""trial"",""time""
""blur"",""141"",""395045""
","""event"",""trial"",""time""
""focus"",""145"",""419735""
","""event"",""trial"",""time""
""fullscreenenter"",""1"",""3610""
","
","","","","","","3110","images/straw4.png","","","memory_trial","1","definitely_old",""
"html-keyboard-response","174","510407","0.0-18.0-0.65","5375","approach_avoid_sv1","""event"",""trial"",""time""
""fullscreenenter"",""1"",""3610""
""blur"",""141"",""395045""
""focus"",""145"",""419735""
","""event"",""trial"",""time""
""blur"",""141"",""395045""
","""event"",""trial"",""time""
""focus"",""145"",""419735""
","""event"",""trial"",""time""
""fullscreenenter"",""1"",""3610""
","
","","","","","","null","<div style=""font-size:60px;"">+</div>","null","","fixation","","",""
"memory-trial","175","518143","0.0-18.0-1.65","5375","approach_avoid_sv1","""event"",""trial"",""time""
""fullscreenenter"",""1"",""3610""
""blur"",""141"",""395045""
""focus"",""145"",""419735""
","""event"",""trial"",""time""
""blur"",""141"",""395045""
","""event"",""trial"",""time""
""focus"",""145"",""419735""
","""event"",""trial"",""time""
""fullscreenenter"",""1"",""3610""
","
","","","","","","6724.399999976158","images/goat3.png","","","memory_trial","1","definitely_old",""
"html-keyboard-response","176","518647","0.0-18.0-0.66","5375","approach_avoid_sv1","""event"",""trial"",""time""
""fullscreenenter"",""1"",""3610""
""blur"",""141"",""395045""
""focus"",""145"",""419735""
","""event"",""trial"",""time""
""blur"",""141"",""395045""
","""event"",""trial"",""time""
""focus"",""145"",""419735""
","""event"",""trial"",""time""
""fullscreenenter"",""1"",""3610""
","
","","","","","","null","<div style=""font-size:60px;"">+</div>","null","","fixation","","",""
"memory-trial","177","527150","0.0-18.0-1.66","5375","approach_avoid_sv1","""event"",""trial"",""time""
""fullscreenenter"",""1"",""3610""
""blur"",""141"",""395045""
""focus"",""145"",""419735""
","""event"",""trial"",""time""
""blur"",""141"",""395045""
","""event"",""trial"",""time""
""focus"",""145"",""419735""
","""event"",""trial"",""time""
""fullscreenenter"",""1"",""3610""
","
","","","","","","7497.699999988079","images/rabbit4.png","","","memory_trial","3","maybe_new",""
"html-keyboard-response","178","527655","0.0-18.0-0.67","5375","approach_avoid_sv1","""event"",""trial"",""time""
""fullscreenenter"",""1"",""3610""
""blur"",""141"",""395045""
""focus"",""145"",""419735""
","""event"",""trial"",""time""
""blur"",""141"",""395045""
","""event"",""trial"",""time""
""focus"",""145"",""419735""
","""event"",""trial"",""time""
""fullscreenenter"",""1"",""3610""
","
","","","","","","null","<div style=""font-size:60px;"">+</div>","null","","fixation","","",""
"memory-trial","179","534911","0.0-18.0-1.67","5375","approach_avoid_sv1","""event"",""trial"",""time""
""fullscreenenter"",""1"",""3610""
""blur"",""141"",""395045""
""focus"",""145"",""419735""
","""event"",""trial"",""time""
""blur"",""141"",""395045""
","""event"",""trial"",""time""
""focus"",""145"",""419735""
","""event"",""trial"",""time""
""fullscreenenter"",""1"",""3610""
","
","","","","","","6246.899999976158","images/cactus3.png","","","memory_trial","2","maybe_old",""
"html-keyboard-response","180","535429","0.0-18.0-0.68","5375","approach_avoid_sv1","""event"",""trial"",""time""
""fullscreenenter"",""1"",""3610""
""blur"",""141"",""395045""
""focus"",""145"",""419735""
","""event"",""trial"",""time""
""blur"",""141"",""395045""
","""event"",""trial"",""time""
""focus"",""145"",""419735""
","""event"",""trial"",""time""
""fullscreenenter"",""1"",""3610""
","
","","","","","","null","<div style=""font-size:60px;"">+</div>","null","","fixation","","",""
"memory-trial","181","538686","0.0-18.0-1.68","5375","approach_avoid_sv1","""event"",""trial"",""time""
""fullscreenenter"",""1"",""3610""
""blur"",""141"",""395045""
""focus"",""145"",""419735""
","""event"",""trial"",""time""
""blur"",""141"",""395045""
","""event"",""trial"",""time""
""focus"",""145"",""419735""
","""event"",""trial"",""time""
""fullscreenenter"",""1"",""3610""
","
","","","","","","2246.100000023842","images/cow5.png","","","memory_trial","1","definitely_old",""
"html-keyboard-response","182","539191","0.0-18.0-0.69","5375","approach_avoid_sv1","""event"",""trial"",""time""
""fullscreenenter"",""1"",""3610""
""blur"",""141"",""395045""
""focus"",""145"",""419735""
","""event"",""trial"",""time""
""blur"",""141"",""395045""
","""event"",""trial"",""time""
""focus"",""145"",""419735""
","""event"",""trial"",""time""
""fullscreenenter"",""1"",""3610""
","
","","","","","","null","<div style=""font-size:60px;"">+</div>","null","","fixation","","",""
"memory-trial","183","544815","0.0-18.0-1.69","5375","approach_avoid_sv1","""event"",""trial"",""time""
""fullscreenenter"",""1"",""3610""
""blur"",""141"",""395045""
""focus"",""145"",""419735""
","""event"",""trial"",""time""
""blur"",""141"",""395045""
","""event"",""trial"",""time""
""focus"",""145"",""419735""
","""event"",""trial"",""time""
""fullscreenenter"",""1"",""3610""
","
","","","","","","4612.5","images/truck7.png","","","memory_trial","2","maybe_old",""
"html-keyboard-response","184","545319","0.0-18.0-0.70","5375","approach_avoid_sv1","""event"",""trial"",""time""
""fullscreenenter"",""1"",""3610""
""blur"",""141"",""395045""
""focus"",""145"",""419735""
","""event"",""trial"",""time""
""blur"",""141"",""395045""
","""event"",""trial"",""time""
""focus"",""145"",""419735""
","""event"",""trial"",""time""
""fullscreenenter"",""1"",""3610""
","
","","","","","","null","<div style=""font-size:60px;"">+</div>","null","","fixation","","",""
"memory-trial","185","547726","0.0-18.0-1.70","5375","approach_avoid_sv1","""event"",""trial"",""time""
""fullscreenenter"",""1"",""3610""
""blur"",""141"",""395045""
""focus"",""145"",""419735""
","""event"",""trial"",""time""
""blur"",""141"",""395045""
","""event"",""trial"",""time""
""focus"",""145"",""419735""
","""event"",""trial"",""time""
""fullscreenenter"",""1"",""3610""
","
","","","","","","1399.699999988079","images/sofa3.png","","","memory_trial","1","definitely_old",""
"html-keyboard-response","186","548231","0.0-18.0-0.71","5375","approach_avoid_sv1","""event"",""trial"",""time""
""fullscreenenter"",""1"",""3610""
""blur"",""141"",""395045""
""focus"",""145"",""419735""
","""event"",""trial"",""time""
""blur"",""141"",""395045""
","""event"",""trial"",""time""
""focus"",""145"",""419735""
","""event"",""trial"",""time""
""fullscreenenter"",""1"",""3610""
","
","","","","","","null","<div style=""font-size:60px;"">+</div>","null","","fixation","","",""
"memory-trial","187","550183","0.0-18.0-1.71","5375","approach_avoid_sv1","""event"",""trial"",""time""
""fullscreenenter"",""1"",""3610""
""blur"",""141"",""395045""
""focus"",""145"",""419735""
","""event"",""trial"",""time""
""blur"",""141"",""395045""
","""event"",""trial"",""time""
""focus"",""145"",""419735""
","""event"",""trial"",""time""
""fullscreenenter"",""1"",""3610""
","
","","","","","","942.3999999761581","images/truck1.png","","","memory_trial","1","definitely_old",""
"html-keyboard-response","188","550687","0.0-18.0-0.72","5375","approach_avoid_sv1","""event"",""trial"",""time""
""fullscreenenter"",""1"",""3610""
""blur"",""141"",""395045""
""focus"",""145"",""419735""
","""event"",""trial"",""time""
""blur"",""141"",""395045""
","""event"",""trial"",""time""
""focus"",""145"",""419735""
","""event"",""trial"",""time""
""fullscreenenter"",""1"",""3610""
","
","","","","","","null","<div style=""font-size:60px;"">+</div>","null","","fixation","","",""
"memory-trial","189","555119","0.0-18.0-1.72","5375","approach_avoid_sv1","""event"",""trial"",""time""
""fullscreenenter"",""1"",""3610""
""blur"",""141"",""395045""
""focus"",""145"",""419735""
","""event"",""trial"",""time""
""blur"",""141"",""395045""
","""event"",""trial"",""time""
""focus"",""145"",""419735""
","""event"",""trial"",""time""
""fullscreenenter"",""1"",""3610""
","
","","","","","","3427","images/rabbit2.png","","","memory_trial","4","definitely_new",""
"html-keyboard-response","190","555623","0.0-18.0-0.73","5375","approach_avoid_sv1","""event"",""trial"",""time""
""fullscreenenter"",""1"",""3610""
""blur"",""141"",""395045""
""focus"",""145"",""419735""
","""event"",""trial"",""time""
""blur"",""141"",""395045""
","""event"",""trial"",""time""
""focus"",""145"",""419735""
","""event"",""trial"",""time""
""fullscreenenter"",""1"",""3610""
","
","","","","","","null","<div style=""font-size:60px;"">+</div>","null","","fixation","","",""
"memory-trial","191","560304","0.0-18.0-1.73","5375","approach_avoid_sv1","""event"",""trial"",""time""
""fullscreenenter"",""1"",""3610""
""blur"",""141"",""395045""
""focus"",""145"",""419735""
","""event"",""trial"",""time""
""blur"",""141"",""395045""
","""event"",""trial"",""time""
""focus"",""145"",""419735""
","""event"",""trial"",""time""
""fullscreenenter"",""1"",""3610""
","
","","","","","","3669.5","images/horse3.png","","","memory_trial","4","definitely_new",""
"html-keyboard-response","192","560806","0.0-18.0-0.74","5375","approach_avoid_sv1","""event"",""trial"",""time""
""fullscreenenter"",""1"",""3610""
""blur"",""141"",""395045""
""focus"",""145"",""419735""
","""event"",""trial"",""time""
""blur"",""141"",""395045""
","""event"",""trial"",""time""
""focus"",""145"",""419735""
","""event"",""trial"",""time""
""fullscreenenter"",""1"",""3610""
","
","","","","","","null","<div style=""font-size:60px;"">+</div>","null","","fixation","","",""
"memory-trial","193","563910","0.0-18.0-1.74","5375","approach_avoid_sv1","""event"",""trial"",""time""
""fullscreenenter"",""1"",""3610""
""blur"",""141"",""395045""
""focus"",""145"",""419735""
","""event"",""trial"",""time""
""blur"",""141"",""395045""
","""event"",""trial"",""time""
""focus"",""145"",""419735""
","""event"",""trial"",""time""
""fullscreenenter"",""1"",""3610""
","
","","","","","","2094.699999988079","images/cow7.png","","","memory_trial","3","maybe_new",""
"html-keyboard-response","194","564414","0.0-18.0-0.75","5375","approach_avoid_sv1","""event"",""trial"",""time""
""fullscreenenter"",""1"",""3610""
""blur"",""141"",""395045""
""focus"",""145"",""419735""
","""event"",""trial"",""time""
""blur"",""141"",""395045""
","""event"",""trial"",""time""
""focus"",""145"",""419735""
","""event"",""trial"",""time""
""fullscreenenter"",""1"",""3610""
","
","","","","","","null","<div style=""font-size:60px;"">+</div>","null","","fixation","","",""
"memory-trial","195","567215","0.0-18.0-1.75","5375","approach_avoid_sv1","""event"",""trial"",""time""
""fullscreenenter"",""1"",""3610""
""blur"",""141"",""395045""
""focus"",""145"",""419735""
","""event"",""trial"",""time""
""blur"",""141"",""395045""
","""event"",""trial"",""time""
""focus"",""145"",""419735""
","""event"",""trial"",""time""
""fullscreenenter"",""1"",""3610""
","
","","","","","","1793","images/banana8.png","","","memory_trial","1","definitely_old",""
"html-keyboard-response","196","567719","0.0-18.0-0.76","5375","approach_avoid_sv1","""event"",""trial"",""time""
""fullscreenenter"",""1"",""3610""
""blur"",""141"",""395045""
""focus"",""145"",""419735""
","""event"",""trial"",""time""
""blur"",""141"",""395045""
","""event"",""trial"",""time""
""focus"",""145"",""419735""
","""event"",""trial"",""time""
""fullscreenenter"",""1"",""3610""
","
","","","","","","null","<div style=""font-size:60px;"">+</div>","null","","fixation","","",""
"memory-trial","197","570398","0.0-18.0-1.76","5375","approach_avoid_sv1","""event"",""trial"",""time""
""fullscreenenter"",""1"",""3610""
""blur"",""141"",""395045""
""focus"",""145"",""419735""
","""event"",""trial"",""time""
""blur"",""141"",""395045""
","""event"",""trial"",""time""
""focus"",""145"",""419735""
","""event"",""trial"",""time""
""fullscreenenter"",""1"",""3610""
","
","","","","","","1669.0999999642372","images/rodent4.png","","","memory_trial","4","definitely_new",""
"html-keyboard-response","198","570903","0.0-18.0-0.77","5375","approach_avoid_sv1","""event"",""trial"",""time""
""fullscreenenter"",""1"",""3610""
""blur"",""141"",""395045""
""focus"",""145"",""419735""
","""event"",""trial"",""time""
""blur"",""141"",""395045""
","""event"",""trial"",""time""
""focus"",""145"",""419735""
","""event"",""trial"",""time""
""fullscreenenter"",""1"",""3610""
","
","","","","","","null","<div style=""font-size:60px;"">+</div>","null","","fixation","","",""
"memory-trial","199","574543","0.0-18.0-1.77","5375","approach_avoid_sv1","""event"",""trial"",""time""
""fullscreenenter"",""1"",""3610""
""blur"",""141"",""395045""
""focus"",""145"",""419735""
","""event"",""trial"",""time""
""blur"",""141"",""395045""
","""event"",""trial"",""time""
""focus"",""145"",""419735""
","""event"",""trial"",""time""
""fullscreenenter"",""1"",""3610""
","
","","","","","","2634.899999976158","images/chair1.png","","","memory_trial","3","maybe_new",""
"html-keyboard-response","200","575046","0.0-18.0-0.78","5375","approach_avoid_sv1","""event"",""trial"",""time""
""fullscreenenter"",""1"",""3610""
""blur"",""141"",""395045""
""focus"",""145"",""419735""
","""event"",""trial"",""time""
""blur"",""141"",""395045""
","""event"",""trial"",""time""
""focus"",""145"",""419735""
","""event"",""trial"",""time""
""fullscreenenter"",""1"",""3610""
","
","","","","","","null","<div style=""font-size:60px;"">+</div>","null","","fixation","","",""
"memory-trial","201","576223","0.0-18.0-1.78","5375","approach_avoid_sv1","""event"",""trial"",""time""
""fullscreenenter"",""1"",""3610""
""blur"",""141"",""395045""
""focus"",""145"",""419735""
","""event"",""trial"",""time""
""blur"",""141"",""395045""
","""event"",""trial"",""time""
""focus"",""145"",""419735""
","""event"",""trial"",""time""
""fullscreenenter"",""1"",""3610""
","
","","","","","","163.9000000357628","images/table3.png","","","memory_trial","4","definitely_new",""
"html-keyboard-response","202","576726","0.0-18.0-0.79","5375","approach_avoid_sv1","""event"",""trial"",""time""
""fullscreenenter"",""1"",""3610""
""blur"",""141"",""395045""
""focus"",""145"",""419735""
","""event"",""trial"",""time""
""blur"",""141"",""395045""
","""event"",""trial"",""time""
""focus"",""145"",""419735""
","""event"",""trial"",""time""
""fullscreenenter"",""1"",""3610""
","
","","","","","","null","<div style=""font-size:60px;"">+</div>","null","","fixation","","",""
"memory-trial","203","578839","0.0-18.0-1.79","5375","approach_avoid_sv1","""event"",""trial"",""time""
""fullscreenenter"",""1"",""3610""
""blur"",""141"",""395045""
""focus"",""145"",""419735""
","""event"",""trial"",""time""
""blur"",""141"",""395045""
","""event"",""trial"",""time""
""focus"",""145"",""419735""
","""event"",""trial"",""time""
""fullscreenenter"",""1"",""3610""
","
","","","","","","1106.5999999642372","images/rabbit3.png","","","memory_trial","4","definitely_new",""
"html-keyboard-response","204","579343","0.0-18.0-0.80","5375","approach_avoid_sv1","""event"",""trial"",""time""
""fullscreenenter"",""1"",""3610""
""blur"",""141"",""395045""
""focus"",""145"",""419735""
","""event"",""trial"",""time""
""blur"",""141"",""395045""
","""event"",""trial"",""time""
""focus"",""145"",""419735""
","""event"",""trial"",""time""
""fullscreenenter"",""1"",""3610""
","
","","","","","","null","<div style=""font-size:60px;"">+</div>","null","","fixation","","",""
"memory-trial","205","581231","0.0-18.0-1.80","5375","approach_avoid_sv1","""event"",""trial"",""time""
""fullscreenenter"",""1"",""3610""
""blur"",""141"",""395045""
""focus"",""145"",""419735""
","""event"",""trial"",""time""
""blur"",""141"",""395045""
","""event"",""trial"",""time""
""focus"",""145"",""419735""
","""event"",""trial"",""time""
""fullscreenenter"",""1"",""3610""
","
","","","","","","882","images/bush7.png","","","memory_trial","4","definitely_new",""
"html-keyboard-response","206","581735","0.0-18.0-0.81","5375","approach_avoid_sv1","""event"",""trial"",""time""
""fullscreenenter"",""1"",""3610""
""blur"",""141"",""395045""
""focus"",""145"",""419735""
","""event"",""trial"",""time""
""blur"",""141"",""395045""
","""event"",""trial"",""time""
""focus"",""145"",""419735""
","""event"",""trial"",""time""
""fullscreenenter"",""1"",""3610""
","
","","","","","","null","<div style=""font-size:60px;"">+</div>","null","","fixation","","",""
"memory-trial","207","584607","0.0-18.0-1.81","5375","approach_avoid_sv1","""event"",""trial"",""time""
""fullscreenenter"",""1"",""3610""
""blur"",""141"",""395045""
""focus"",""145"",""419735""
","""event"",""trial"",""time""
""blur"",""141"",""395045""
","""event"",""trial"",""time""
""focus"",""145"",""419735""
","""event"",""trial"",""time""
""fullscreenenter"",""1"",""3610""
","
","","","","","","1859.0999999642372","images/sheep8.png","","","memory_trial","1","definitely_old",""
"html-keyboard-response","208","585110","0.0-18.0-0.82","5375","approach_avoid_sv1","""event"",""trial"",""time""
""fullscreenenter"",""1"",""3610""
""blur"",""141"",""395045""
""focus"",""145"",""419735""
","""event"",""trial"",""time""
""blur"",""141"",""395045""
","""event"",""trial"",""time""
""focus"",""145"",""419735""
","""event"",""trial"",""time""
""fullscreenenter"",""1"",""3610""
","
","","","","","","null","<div style=""font-size:60px;"">+</div>","null","","fixation","","",""
"memory-trial","209","588175","0.0-18.0-1.82","5375","approach_avoid_sv1","""event"",""trial"",""time""
""fullscreenenter"",""1"",""3610""
""blur"",""141"",""395045""
""focus"",""145"",""419735""
","""event"",""trial"",""time""
""blur"",""141"",""395045""
","""event"",""trial"",""time""
""focus"",""145"",""419735""
","""event"",""trial"",""time""
""fullscreenenter"",""1"",""3610""
","
","","","","","","2053.2999999523163","images/cat2.png","","","memory_trial","4","definitely_new",""
"html-keyboard-response","210","588679","0.0-18.0-0.83","5375","approach_avoid_sv1","""event"",""trial"",""time""
""fullscreenenter"",""1"",""3610""
""blur"",""141"",""395045""
""focus"",""145"",""419735""
","""event"",""trial"",""time""
""blur"",""141"",""395045""
","""event"",""trial"",""time""
""focus"",""145"",""419735""
","""event"",""trial"",""time""
""fullscreenenter"",""1"",""3610""
","
","","","","","","null","<div style=""font-size:60px;"">+</div>","null","","fixation","","",""
"memory-trial","211","591247","0.0-18.0-1.83","5375","approach_avoid_sv1","""event"",""trial"",""time""
""fullscreenenter"",""1"",""3610""
""blur"",""141"",""395045""
""focus"",""145"",""419735""
","""event"",""trial"",""time""
""blur"",""141"",""395045""
","""event"",""trial"",""time""
""focus"",""145"",""419735""
","""event"",""trial"",""time""
""fullscreenenter"",""1"",""3610""
","
","","","","","","1555","images/rodent1.png","","","memory_trial","4","definitely_new",""
"html-keyboard-response","212","591750","0.0-18.0-0.84","5375","approach_avoid_sv1","""event"",""trial"",""time""
""fullscreenenter"",""1"",""3610""
""blur"",""141"",""395045""
""focus"",""145"",""419735""
","""event"",""trial"",""time""
""blur"",""141"",""395045""
","""event"",""trial"",""time""
""focus"",""145"",""419735""
","""event"",""trial"",""time""
""fullscreenenter"",""1"",""3610""
","
","","","","","","null","<div style=""font-size:60px;"">+</div>","null","","fixation","","",""
"memory-trial","213","595263","0.0-18.0-1.84","5375","approach_avoid_sv1","""event"",""trial"",""time""
""fullscreenenter"",""1"",""3610""
""blur"",""141"",""395045""
""focus"",""145"",""419735""
","""event"",""trial"",""time""
""blur"",""141"",""395045""
","""event"",""trial"",""time""
""focus"",""145"",""419735""
","""event"",""trial"",""time""
""fullscreenenter"",""1"",""3610""
","
","","","","","","2507.2000000476837","images/cow6.png","","","memory_trial","1","definitely_old",""
"html-keyboard-response","214","595766","0.0-18.0-0.85","5375","approach_avoid_sv1","""event"",""trial"",""time""
""fullscreenenter"",""1"",""3610""
""blur"",""141"",""395045""
""focus"",""145"",""419735""
","""event"",""trial"",""time""
""blur"",""141"",""395045""
","""event"",""trial"",""time""
""focus"",""145"",""419735""
","""event"",""trial"",""time""
""fullscreenenter"",""1"",""3610""
","
","","","","","","null","<div style=""font-size:60px;"">+</div>","null","","fixation","","",""
"memory-trial","215","603687","0.0-18.0-1.85","5375","approach_avoid_sv1","""event"",""trial"",""time""
""fullscreenenter"",""1"",""3610""
""blur"",""141"",""395045""
""focus"",""145"",""419735""
","""event"",""trial"",""time""
""blur"",""141"",""395045""
","""event"",""trial"",""time""
""focus"",""145"",""419735""
","""event"",""trial"",""time""
""fullscreenenter"",""1"",""3610""
","
","","","","","","6908.300000011921","images/cat6.png","","","memory_trial","4","definitely_new",""
"html-keyboard-response","216","604191","0.0-18.0-0.86","5375","approach_avoid_sv1","""event"",""trial"",""time""
""fullscreenenter"",""1"",""3610""
""blur"",""141"",""395045""
""focus"",""145"",""419735""
""blur"",""217"",""610261""
","""event"",""trial"",""time""
""blur"",""141"",""395045""
""blur"",""217"",""610261""
","""event"",""trial"",""time""
""focus"",""145"",""419735""
","""event"",""trial"",""time""
""fullscreenenter"",""1"",""3610""
","
","","","","","","null","<div style=""font-size:60px;"">+</div>","null","","fixation","","",""
"memory-trial","217","614199","0.0-18.0-1.86","5375","approach_avoid_sv1","""event"",""trial"",""time""
""fullscreenenter"",""1"",""3610""
""blur"",""141"",""395045""
""focus"",""145"",""419735""
""blur"",""217"",""610261""
","""event"",""trial"",""time""
""blur"",""141"",""395045""
""blur"",""217"",""610261""
","""event"",""trial"",""time""
""focus"",""145"",""419735""
","""event"",""trial"",""time""
""fullscreenenter"",""1"",""3610""
","
","","","","","","null","images/rodent2.png","","","memory_trial","null","null",""
"html-keyboard-response","218","614703","0.0-18.0-0.87","5375","approach_avoid_sv1","""event"",""trial"",""time""
""fullscreenenter"",""1"",""3610""
""blur"",""141"",""395045""
""focus"",""145"",""419735""
""blur"",""217"",""610261""
""focus"",""219"",""621418""
","""event"",""trial"",""time""
""blur"",""141"",""395045""
""blur"",""217"",""610261""
","""event"",""trial"",""time""
""focus"",""145"",""419735""
""focus"",""219"",""621418""
","""event"",""trial"",""time""
""fullscreenenter"",""1"",""3610""
","
","","","","","","null","<div style=""font-size:60px;"">+</div>","null","","fixation","","",""
"memory-trial","219","623278","0.0-18.0-1.87","5375","approach_avoid_sv1","""event"",""trial"",""time""
""fullscreenenter"",""1"",""3610""
""blur"",""141"",""395045""
""focus"",""145"",""419735""
""blur"",""217"",""610261""
""focus"",""219"",""621418""
","""event"",""trial"",""time""
""blur"",""141"",""395045""
""blur"",""217"",""610261""
","""event"",""trial"",""time""
""focus"",""145"",""419735""
""focus"",""219"",""621418""
","""event"",""trial"",""time""
""fullscreenenter"",""1"",""3610""
","
","","","","","","7569.399999976158","images/cactus1.png","","","memory_trial","1","definitely_old",""
"html-keyboard-response","220","623782","0.0-18.0-0.88","5375","approach_avoid_sv1","""event"",""trial"",""time""
""fullscreenenter"",""1"",""3610""
""blur"",""141"",""395045""
""focus"",""145"",""419735""
""blur"",""217"",""610261""
""focus"",""219"",""621418""
","""event"",""trial"",""time""
""blur"",""141"",""395045""
""blur"",""217"",""610261""
","""event"",""trial"",""time""
""focus"",""145"",""419735""
""focus"",""219"",""621418""
","""event"",""trial"",""time""
""fullscreenenter"",""1"",""3610""
","
","","","","","","null","<div style=""font-size:60px;"">+</div>","null","","fixation","","",""
"memory-trial","221","629318","0.0-18.0-1.88","5375","approach_avoid_sv1","""event"",""trial"",""time""
""fullscreenenter"",""1"",""3610""
""blur"",""141"",""395045""
""focus"",""145"",""419735""
""blur"",""217"",""610261""
""focus"",""219"",""621418""
","""event"",""trial"",""time""
""blur"",""141"",""395045""
""blur"",""217"",""610261""
","""event"",""trial"",""time""
""focus"",""145"",""419735""
""focus"",""219"",""621418""
","""event"",""trial"",""time""
""fullscreenenter"",""1"",""3610""
","
","","","","","","4530.199999988079","images/banana6.png","","","memory_trial","1","definitely_old",""
"html-keyboard-response","222","629822","0.0-18.0-0.89","5375","approach_avoid_sv1","""event"",""trial"",""time""
""fullscreenenter"",""1"",""3610""
""blur"",""141"",""395045""
""focus"",""145"",""419735""
""blur"",""217"",""610261""
""focus"",""219"",""621418""
","""event"",""trial"",""time""
""blur"",""141"",""395045""
""blur"",""217"",""610261""
","""event"",""trial"",""time""
""focus"",""145"",""419735""
""focus"",""219"",""621418""
","""event"",""trial"",""time""
""fullscreenenter"",""1"",""3610""
","
","","","","","","null","<div style=""font-size:60px;"">+</div>","null","","fixation","","",""
"memory-trial","223","637246","0.0-18.0-1.89","5375","approach_avoid_sv1","""event"",""trial"",""time""
""fullscreenenter"",""1"",""3610""
""blur"",""141"",""395045""
""focus"",""145"",""419735""
""blur"",""217"",""610261""
""focus"",""219"",""621418""
","""event"",""trial"",""time""
""blur"",""141"",""395045""
""blur"",""217"",""610261""
","""event"",""trial"",""time""
""focus"",""145"",""419735""
""focus"",""219"",""621418""
","""event"",""trial"",""time""
""fullscreenenter"",""1"",""3610""
","
","","","","","","6414.300000011921","images/plane4.png","","","memory_trial","4","definitely_new",""
"html-keyboard-response","224","637750","0.0-18.0-0.90","5375","approach_avoid_sv1","""event"",""trial"",""time""
""fullscreenenter"",""1"",""3610""
""blur"",""141"",""395045""
""focus"",""145"",""419735""
""blur"",""217"",""610261""
""focus"",""219"",""621418""
""blur"",""225"",""646589""
""focus"",""225"",""646591""
""blur"",""225"",""646730""
""focus"",""225"",""646731""
""blur"",""225"",""647319""
""focus"",""225"",""647322""
","""event"",""trial"",""time""
""blur"",""141"",""395045""
""blur"",""217"",""610261""
""blur"",""225"",""646589""
""blur"",""225"",""646730""
""blur"",""225"",""647319""
","""event"",""trial"",""time""
""focus"",""145"",""419735""
""focus"",""219"",""621418""
""focus"",""225"",""646591""
""focus"",""225"",""646731""
""focus"",""225"",""647322""
","""event"",""trial"",""time""
""fullscreenenter"",""1"",""3610""
","
","","","","","","null","<div style=""font-size:60px;"">+</div>","null","","fixation","","",""
"memory-trial","225","647758","0.0-18.0-1.90","5375","approach_avoid_sv1","""event"",""trial"",""time""
""fullscreenenter"",""1"",""3610""
""blur"",""141"",""395045""
""focus"",""145"",""419735""
""blur"",""217"",""610261""
""focus"",""219"",""621418""
""blur"",""225"",""646589""
""focus"",""225"",""646591""
""blur"",""225"",""646730""
""focus"",""225"",""646731""
""blur"",""225"",""647319""
""focus"",""225"",""647322""
""blur"",""226"",""647822""
""focus"",""226"",""647823""
""blur"",""226"",""647852""
""focus"",""226"",""647853""
""blur"",""226"",""647883""
""focus"",""226"",""647884""
""blur"",""226"",""647914""
""focus"",""226"",""647916""
""blur"",""226"",""647944""
""focus"",""226"",""647947""
""blur"",""226"",""647975""
""focus"",""226"",""647977""
""blur"",""226"",""648004""
""focus"",""226"",""648006""
","""event"",""trial"",""time""
""blur"",""141"",""395045""
""blur"",""217"",""610261""
""blur"",""225"",""646589""
""blur"",""225"",""646730""
""blur"",""225"",""647319""
""blur"",""226"",""647822""
""blur"",""226"",""647852""
""blur"",""226"",""647883""
""blur"",""226"",""647914""
""blur"",""226"",""647944""
""blur"",""226"",""647975""
""blur"",""226"",""648004""
","""event"",""trial"",""time""
""focus"",""145"",""419735""
""focus"",""219"",""621418""
""focus"",""225"",""646591""
""focus"",""225"",""646731""
""focus"",""225"",""647322""
""focus"",""226"",""647823""
""focus"",""226"",""647853""
""focus"",""226"",""647884""
""focus"",""226"",""647916""
""focus"",""226"",""647947""
""focus"",""226"",""647977""
""focus"",""226"",""648006""
","""event"",""trial"",""time""
""fullscreenenter"",""1"",""3610""
","
","","","","","","9551.300000011921","images/banana2.png","","","memory_trial","1","definitely_old",""
"html-keyboard-response","226","648262","0.0-18.0-0.91","5375","approach_avoid_sv1","""event"",""trial"",""time""
""fullscreenenter"",""1"",""3610""
""blur"",""141"",""395045""
""focus"",""145"",""419735""
""blur"",""217"",""610261""
""focus"",""219"",""621418""
""blur"",""225"",""646589""
""focus"",""225"",""646591""
""blur"",""225"",""646730""
""focus"",""225"",""646731""
""blur"",""225"",""647319""
""focus"",""225"",""647322""
""blur"",""226"",""647822""
""focus"",""226"",""647823""
""blur"",""226"",""647852""
""focus"",""226"",""647853""
""blur"",""226"",""647883""
""focus"",""226"",""647884""
""blur"",""226"",""647914""
""focus"",""226"",""647916""
""blur"",""226"",""647944""
""focus"",""226"",""647947""
""blur"",""226"",""647975""
""focus"",""226"",""647977""
""blur"",""226"",""648004""
""focus"",""226"",""648006""
","""event"",""trial"",""time""
""blur"",""141"",""395045""
""blur"",""217"",""610261""
""blur"",""225"",""646589""
""blur"",""225"",""646730""
""blur"",""225"",""647319""
""blur"",""226"",""647822""
""blur"",""226"",""647852""
""blur"",""226"",""647883""
""blur"",""226"",""647914""
""blur"",""226"",""647944""
""blur"",""226"",""647975""
""blur"",""226"",""648004""
","""event"",""trial"",""time""
""focus"",""145"",""419735""
""focus"",""219"",""621418""
""focus"",""225"",""646591""
""focus"",""225"",""646731""
""focus"",""225"",""647322""
""focus"",""226"",""647823""
""focus"",""226"",""647853""
""focus"",""226"",""647884""
""focus"",""226"",""647916""
""focus"",""226"",""647947""
""focus"",""226"",""647977""
""focus"",""226"",""648006""
","""event"",""trial"",""time""
""fullscreenenter"",""1"",""3610""
","
","","","","","","null","<div style=""font-size:60px;"">+</div>","null","","fixation","","",""
"memory-trial","227","649567","0.0-18.0-1.91","5375","approach_avoid_sv1","""event"",""trial"",""time""
""fullscreenenter"",""1"",""3610""
""blur"",""141"",""395045""
""focus"",""145"",""419735""
""blur"",""217"",""610261""
""focus"",""219"",""621418""
""blur"",""225"",""646589""
""focus"",""225"",""646591""
""blur"",""225"",""646730""
""focus"",""225"",""646731""
""blur"",""225"",""647319""
""focus"",""225"",""647322""
""blur"",""226"",""647822""
""focus"",""226"",""647823""
""blur"",""226"",""647852""
""focus"",""226"",""647853""
""blur"",""226"",""647883""
""focus"",""226"",""647884""
""blur"",""226"",""647914""
""focus"",""226"",""647916""
""blur"",""226"",""647944""
""focus"",""226"",""647947""
""blur"",""226"",""647975""
""focus"",""226"",""647977""
""blur"",""226"",""648004""
""focus"",""226"",""648006""
","""event"",""trial"",""time""
""blur"",""141"",""395045""
""blur"",""217"",""610261""
""blur"",""225"",""646589""
""blur"",""225"",""646730""
""blur"",""225"",""647319""
""blur"",""226"",""647822""
""blur"",""226"",""647852""
""blur"",""226"",""647883""
""blur"",""226"",""647914""
""blur"",""226"",""647944""
""blur"",""226"",""647975""
""blur"",""226"",""648004""
","""event"",""trial"",""time""
""focus"",""145"",""419735""
""focus"",""219"",""621418""
""focus"",""225"",""646591""
""focus"",""225"",""646731""
""focus"",""225"",""647322""
""focus"",""226"",""647823""
""focus"",""226"",""647853""
""focus"",""226"",""647884""
""focus"",""226"",""647916""
""focus"",""226"",""647947""
""focus"",""226"",""647977""
""focus"",""226"",""648006""
","""event"",""trial"",""time""
""fullscreenenter"",""1"",""3610""
","
","","","","","","294.5999999642372","images/goat7.png","","","memory_trial","1","definitely_old",""
"html-button-response","228","654863","0.0-18.0-2.91-0.91","5375","approach_avoid_sv1","""event"",""trial"",""time""
""fullscreenenter"",""1"",""3610""
""blur"",""141"",""395045""
""focus"",""145"",""419735""
""blur"",""217"",""610261""
""focus"",""219"",""621418""
""blur"",""225"",""646589""
""focus"",""225"",""646591""
""blur"",""225"",""646730""
""focus"",""225"",""646731""
""blur"",""225"",""647319""
""focus"",""225"",""647322""
""blur"",""226"",""647822""
""focus"",""226"",""647823""
""blur"",""226"",""647852""
""focus"",""226"",""647853""
""blur"",""226"",""647883""
""focus"",""226"",""647884""
""blur"",""226"",""647914""
""focus"",""226"",""647916""
""blur"",""226"",""647944""
""focus"",""226"",""647947""
""blur"",""226"",""647975""
""focus"",""226"",""647977""
""blur"",""226"",""648004""
""focus"",""226"",""648006""
","""event"",""trial"",""time""
""blur"",""141"",""395045""
""blur"",""217"",""610261""
""blur"",""225"",""646589""
""blur"",""225"",""646730""
""blur"",""225"",""647319""
""blur"",""226"",""647822""
""blur"",""226"",""647852""
""blur"",""226"",""647883""
""blur"",""226"",""647914""
""blur"",""226"",""647944""
""blur"",""226"",""647975""
""blur"",""226"",""648004""
","""event"",""trial"",""time""
""focus"",""145"",""419735""
""focus"",""219"",""621418""
""focus"",""225"",""646591""
""focus"",""225"",""646731""
""focus"",""225"",""647322""
""focus"",""226"",""647823""
""focus"",""226"",""647853""
""focus"",""226"",""647884""
""focus"",""226"",""647916""
""focus"",""226"",""647947""
""focus"",""226"",""647977""
""focus"",""226"",""648006""
","""event"",""trial"",""time""
""fullscreenenter"",""1"",""3610""
","
","","","","","","5294.199999988079","<p> Take a break! </p><p> Click the button to continue. </p>","0","","break","","",""
"html-keyboard-response","229","655367","0.0-18.0-0.92","5375","approach_avoid_sv1","""event"",""trial"",""time""
""fullscreenenter"",""1"",""3610""
""blur"",""141"",""395045""
""focus"",""145"",""419735""
""blur"",""217"",""610261""
""focus"",""219"",""621418""
""blur"",""225"",""646589""
""focus"",""225"",""646591""
""blur"",""225"",""646730""
""focus"",""225"",""646731""
""blur"",""225"",""647319""
""focus"",""225"",""647322""
""blur"",""226"",""647822""
""focus"",""226"",""647823""
""blur"",""226"",""647852""
""focus"",""226"",""647853""
""blur"",""226"",""647883""
""focus"",""226"",""647884""
""blur"",""226"",""647914""
""focus"",""226"",""647916""
""blur"",""226"",""647944""
""focus"",""226"",""647947""
""blur"",""226"",""647975""
""focus"",""226"",""647977""
""blur"",""226"",""648004""
