"trial_type","trial_index","time_elapsed","internal_node_id","subject_id","task_version","interactions","blur_events","focus_events","fullscreenenter_events","fullscreenexit_events","success","timeout","failed_images","failed_audio","failed_video","rt","stimulus","response","button_pressed","task_part","key_press","answer","correct"
"pavlovia","0","12","0.0-0.0","4606","approach_avoid_sv1","""event"",""trial"",""time""
""blur"",""1"",""19867""
""focus"",""1"",""57722""
""fullscreenenter"",""1"",""82868""
","""event"",""trial"",""time""
""blur"",""1"",""19867""
","""event"",""trial"",""time""
""focus"",""1"",""57722""
","""event"",""trial"",""time""
""fullscreenenter"",""1"",""82868""
","
","","","","","","","","","","","","",""
"fullscreen","1","83850","0.0-1.0","4606","approach_avoid_sv1","""event"",""trial"",""time""
""blur"",""1"",""19867""
""focus"",""1"",""57722""
""fullscreenenter"",""1"",""82868""
","""event"",""trial"",""time""
""blur"",""1"",""19867""
","""event"",""trial"",""time""
""focus"",""1"",""57722""
","""event"",""trial"",""time""
""fullscreenenter"",""1"",""82868""
","
","true","","","","","","","","","","","",""
"preload","2","89825","0.0-2.0","4606","approach_avoid_sv1","""event"",""trial"",""time""
""blur"",""1"",""19867""
""focus"",""1"",""57722""
""fullscreenenter"",""1"",""82868""
","""event"",""trial"",""time""
""blur"",""1"",""19867""
","""event"",""trial"",""time""
""focus"",""1"",""57722""
","""event"",""trial"",""time""
""fullscreenenter"",""1"",""82868""
","
","true","false","[]","[]","[]","","","","","","","",""
"preload","3","92244","0.0-3.0","4606","approach_avoid_sv1","""event"",""trial"",""time""
""blur"",""1"",""19867""
""focus"",""1"",""57722""
""fullscreenenter"",""1"",""82868""
","""event"",""trial"",""time""
""blur"",""1"",""19867""
","""event"",""trial"",""time""
""focus"",""1"",""57722""
","""event"",""trial"",""time""
""fullscreenenter"",""1"",""82868""
","
","true","false","[]","[]","[]","","","","","","","",""
"preload","4","93193","0.0-4.0","4606","approach_avoid_sv1","""event"",""trial"",""time""
""blur"",""1"",""19867""
""focus"",""1"",""57722""
""fullscreenenter"",""1"",""82868""
","""event"",""trial"",""time""
""blur"",""1"",""19867""
","""event"",""trial"",""time""
""focus"",""1"",""57722""
","""event"",""trial"",""time""
""fullscreenenter"",""1"",""82868""
","
","true","false","[]","[]","[]","","","","","","","",""
"audio-keyboard-response","5","95323","0.0-5.0","4606","approach_avoid_sv1","""event"",""trial"",""time""
""blur"",""1"",""19867""
""focus"",""1"",""57722""
""fullscreenenter"",""1"",""82868""
","""event"",""trial"",""time""
""blur"",""1"",""19867""
","""event"",""trial"",""time""
""focus"",""1"",""57722""
","""event"",""trial"",""time""
""fullscreenenter"",""1"",""82868""
","
","","","","","","2109.3333333333335","audio/beep_loop.wav","audiovolumeup","","","","",""
"audio-button-response","6","99430","0.0-6.0","4606","approach_avoid_sv1","""event"",""trial"",""time""
""blur"",""1"",""19867""
""focus"",""1"",""57722""
""fullscreenenter"",""1"",""82868""
","""event"",""trial"",""time""
""blur"",""1"",""19867""
","""event"",""trial"",""time""
""focus"",""1"",""57722""
","""event"",""trial"",""time""
""fullscreenenter"",""1"",""82868""
","
","","","","","","4099","audio/turtle.wav","3","","","","",""
"audio-button-response","7","106096","0.0-7.0","4606","approach_avoid_sv1","""event"",""trial"",""time""
""blur"",""1"",""19867""
""focus"",""1"",""57722""
""fullscreenenter"",""1"",""82868""
","""event"",""trial"",""time""
""blur"",""1"",""19867""
","""event"",""trial"",""time""
""focus"",""1"",""57722""
","""event"",""trial"",""time""
""fullscreenenter"",""1"",""82868""
","
","","","","","","5651","audio/shark.wav","2","","","","",""
"preload","8","109892","0.0-8.0","4606","approach_avoid_sv1","""event"",""trial"",""time""
""blur"",""1"",""19867""
""focus"",""1"",""57722""
""fullscreenenter"",""1"",""82868""
","""event"",""trial"",""time""
""blur"",""1"",""19867""
","""event"",""trial"",""time""
""focus"",""1"",""57722""
","""event"",""trial"",""time""
""fullscreenenter"",""1"",""82868""
","
","true","false","[]","[]","[]","","","","","","","",""
"learning-instructions","9","117196","0.0-9.0-0.0","4606","approach_avoid_sv1","""event"",""trial"",""time""
""blur"",""1"",""19867""
""focus"",""1"",""57722""
""fullscreenenter"",""1"",""82868""
","""event"",""trial"",""time""
""blur"",""1"",""19867""
","""event"",""trial"",""time""
""focus"",""1"",""57722""
","""event"",""trial"",""time""
""fullscreenenter"",""1"",""82868""
","
","","","","","","2827.899999856949","<p> Welcome back! </p><p> Last week, you had to make choices about lots of different items.  </p>","","0","instructions","","",""
"learning-instructions","10","123174","0.0-9.0-0.1","4606","approach_avoid_sv1","""event"",""trial"",""time""
""blur"",""1"",""19867""
""focus"",""1"",""57722""
""fullscreenenter"",""1"",""82868""
","""event"",""trial"",""time""
""blur"",""1"",""19867""
","""event"",""trial"",""time""
""focus"",""1"",""57722""
","""event"",""trial"",""time""
""fullscreenenter"",""1"",""82868""
","
","","","","","","1856","<p> Today, we are going to ask you to try to remember all the items. </p>","","0","instructions","","",""
"learning-instructions","11","134993","0.0-9.0-0.2","4606","approach_avoid_sv1","""event"",""trial"",""time""
""blur"",""1"",""19867""
""focus"",""1"",""57722""
""fullscreenenter"",""1"",""82868""
","""event"",""trial"",""time""
""blur"",""1"",""19867""
","""event"",""trial"",""time""
""focus"",""1"",""57722""
","""event"",""trial"",""time""
""fullscreenenter"",""1"",""82868""
","
","","","","","","1675.2000000476837","<p> On every trial, you will see an image. </p><p> The image may be an OLD image you saw during the games last week or it may be a NEW image that was not presented. </p>","","0","instructions","","",""
"learning-instructions","12","145057","0.0-9.0-0.3","4606","approach_avoid_sv1","""event"",""trial"",""time""
""blur"",""1"",""19867""
""focus"",""1"",""57722""
""fullscreenenter"",""1"",""82868""
","""event"",""trial"",""time""
""blur"",""1"",""19867""
","""event"",""trial"",""time""
""focus"",""1"",""57722""
","""event"",""trial"",""time""
""fullscreenenter"",""1"",""82868""
","
","","","","","","1559.1000001430511","<p> You need to select whether the image is:  </p><p>  'Definitely old', 'Maybe old', 'Maybe new', or 'Definitely new.'  </p><div class=""mem-choice-instructions-grid""><div class=""choice-option"" id=""choice-option-1"" ><img src=""images/definitely_old_1.png"" id=""choice-option-img-1"" class=""choice-option-img"" stage=""1""></div><div class=""choice-option"" id=""choice-option-2"" ><img src=""images/maybe_old_1.png"" id=""choice-option-img-2"" class=""choice-option-img"" stage=""1""></div><div class=""choice-option"" id=""choice-option-3"" ><img src=""images/maybe_new_1.png"" id=""choice-option-img-3"" class=""choice-option-img"" stage=""1""></div><div class=""choice-option"" id=""choice-option-4"" > <img src=""images/definitely_new_1.png"" id=""choice-option-img-4"" class=""choice-option-img"" stage=""1""></div></div>","","0","instructions","","",""
"learning-instructions","13","152793","0.0-9.0-0.4","4606","approach_avoid_sv1","""event"",""trial"",""time""
""blur"",""1"",""19867""
""focus"",""1"",""57722""
""fullscreenenter"",""1"",""82868""
","""event"",""trial"",""time""
""blur"",""1"",""19867""
","""event"",""trial"",""time""
""focus"",""1"",""57722""
","""event"",""trial"",""time""
""fullscreenenter"",""1"",""82868""
","
","","","","","","1225.7000000476837","<p> You should use the 1, 2, 3, and 4 keys to make your responses.  </p><div class=""mem-choice-instructions-grid""><div class=""choice-option"" id=""choice-option-1"" ><img src=""images/definitely_old.png"" id=""choice-option-img-1"" class=""choice-option-img"" stage=""1""></div><div class=""choice-option"" id=""choice-option-2"" ><img src=""images/maybe_old.png"" id=""choice-option-img-2"" class=""choice-option-img"" stage=""1""></div><div class=""choice-option"" id=""choice-option-3"" ><img src=""images/maybe_new.png"" id=""choice-option-img-3"" class=""choice-option-img"" stage=""1""></div><div class=""choice-option"" id=""choice-option-4"" > <img src=""images/definitely_new.png"" id=""choice-option-img-4"" class=""choice-option-img"" stage=""1""></div></div>","","0","instructions","","",""
"learning-instructions","14","163068","0.0-9.0-0.5","4606","approach_avoid_sv1","""event"",""trial"",""time""
""blur"",""1"",""19867""
""focus"",""1"",""57722""
""fullscreenenter"",""1"",""82868""
","""event"",""trial"",""time""
""blur"",""1"",""19867""
","""event"",""trial"",""time""
""focus"",""1"",""57722""
","""event"",""trial"",""time""
""fullscreenenter"",""1"",""82868""
","
","","","","","","3931.0999999046326","<p> You will have 10 seconds to make each response.  </p><p>  Make sure to respond before time runs out! </p>","","0","instructions","","",""
"learning-instructions","15","172046","0.0-9.0-0.6","4606","approach_avoid_sv1","""event"",""trial"",""time""
""blur"",""1"",""19867""
""focus"",""1"",""57722""
""fullscreenenter"",""1"",""82868""
","""event"",""trial"",""time""
""blur"",""1"",""19867""
","""event"",""trial"",""time""
""focus"",""1"",""57722""
","""event"",""trial"",""time""
""fullscreenenter"",""1"",""82868""
","
","","","","","","1888.7000000476837","<p> Today, you will see each image ONCE only.  </p><p>  That means none of the images will repeat. </p>","","0","instructions","","",""
"learning-instructions","16","184905","0.0-9.0-0.7","4606","approach_avoid_sv1","""event"",""trial"",""time""
""blur"",""1"",""19867""
""focus"",""1"",""57722""
""fullscreenenter"",""1"",""82868""
","""event"",""trial"",""time""
""blur"",""1"",""19867""
","""event"",""trial"",""time""
""focus"",""1"",""57722""
","""event"",""trial"",""time""
""fullscreenenter"",""1"",""82868""
","
","","","","","","178.59999990463257","<p> Before you play the real game, it is time to practice. </p><p>  Just like in the real game, some of the images in the practice will be ones you have seen before. </p><p>  Others will be entirely new. </p>","","0","instructions","","",""
"html-button-response","17","187049","0.0-10.0","4606","approach_avoid_sv1","""event"",""trial"",""time""
""blur"",""1"",""19867""
""focus"",""1"",""57722""
""fullscreenenter"",""1"",""82868""
","""event"",""trial"",""time""
""blur"",""1"",""19867""
","""event"",""trial"",""time""
""focus"",""1"",""57722""
","""event"",""trial"",""time""
""fullscreenenter"",""1"",""82868""
","
","","","","","","2022.7999999523163","<p> Ready to practice? </p><p> Remember, use the 1, 2, 3, and 4 keys to make your responses. </p>","0","","instructions","","",""
"html-keyboard-response","18","187675","0.0-11.0-0.0","4606","approach_avoid_sv1","""event"",""trial"",""time""
""blur"",""1"",""19867""
""focus"",""1"",""57722""
""fullscreenenter"",""1"",""82868""
","""event"",""trial"",""time""
""blur"",""1"",""19867""
","""event"",""trial"",""time""
""focus"",""1"",""57722""
","""event"",""trial"",""time""
""fullscreenenter"",""1"",""82868""
","
","","","","","","null","<div style=""font-size:60px;"">+</div>","null","","fixation","","",""
"memory-trial","19","190665","0.0-11.0-1.0","4606","approach_avoid_sv1","""event"",""trial"",""time""
""blur"",""1"",""19867""
""focus"",""1"",""57722""
""fullscreenenter"",""1"",""82868""
","""event"",""trial"",""time""
""blur"",""1"",""19867""
","""event"",""trial"",""time""
""focus"",""1"",""57722""
","""event"",""trial"",""time""
""fullscreenenter"",""1"",""82868""
","
","","","","","","1979.7999999523163","images/racket3.png","","","practice","1","definitely_old",""
"html-keyboard-response","20","191174","0.0-11.0-0.1","4606","approach_avoid_sv1","""event"",""trial"",""time""
""blur"",""1"",""19867""
""focus"",""1"",""57722""
""fullscreenenter"",""1"",""82868""
","""event"",""trial"",""time""
""blur"",""1"",""19867""
","""event"",""trial"",""time""
""focus"",""1"",""57722""
","""event"",""trial"",""time""
""fullscreenenter"",""1"",""82868""
","
","","","","","","null","<div style=""font-size:60px;"">+</div>","null","","fixation","","",""
"memory-trial","21","193765","0.0-11.0-1.1","4606","approach_avoid_sv1","""event"",""trial"",""time""
""blur"",""1"",""19867""
""focus"",""1"",""57722""
""fullscreenenter"",""1"",""82868""
","""event"",""trial"",""time""
""blur"",""1"",""19867""
","""event"",""trial"",""time""
""focus"",""1"",""57722""
","""event"",""trial"",""time""
""fullscreenenter"",""1"",""82868""
","
","","","","","","1576.5","images/ball1.png","","","practice","1","definitely_old",""
"html-keyboard-response","22","194275","0.0-11.0-0.2","4606","approach_avoid_sv1","""event"",""trial"",""time""
""blur"",""1"",""19867""
""focus"",""1"",""57722""
""fullscreenenter"",""1"",""82868""
","""event"",""trial"",""time""
""blur"",""1"",""19867""
","""event"",""trial"",""time""
""focus"",""1"",""57722""
","""event"",""trial"",""time""
""fullscreenenter"",""1"",""82868""
","
","","","","","","null","<div style=""font-size:60px;"">+</div>","null","","fixation","","",""
"memory-trial","23","197785","0.0-11.0-1.2","4606","approach_avoid_sv1","""event"",""trial"",""time""
""blur"",""1"",""19867""
""focus"",""1"",""57722""
""fullscreenenter"",""1"",""82868""
","""event"",""trial"",""time""
""blur"",""1"",""19867""
","""event"",""trial"",""time""
""focus"",""1"",""57722""
","""event"",""trial"",""time""
""fullscreenenter"",""1"",""82868""
","
","","","","","","2499.199999809265","images/ball3.png","","","practice","4","definitely_new",""
"html-keyboard-response","24","198313","0.0-11.0-0.3","4606","approach_avoid_sv1","""event"",""trial"",""time""
""blur"",""1"",""19867""
""focus"",""1"",""57722""
""fullscreenenter"",""1"",""82868""
","""event"",""trial"",""time""
""blur"",""1"",""19867""
","""event"",""trial"",""time""
""focus"",""1"",""57722""
","""event"",""trial"",""time""
""fullscreenenter"",""1"",""82868""
","
","","","","","","null","<div style=""font-size:60px;"">+</div>","null","","fixation","","",""
"memory-trial","25","201165","0.0-11.0-1.3","4606","approach_avoid_sv1","""event"",""trial"",""time""
""blur"",""1"",""19867""
""focus"",""1"",""57722""
""fullscreenenter"",""1"",""82868""
","""event"",""trial"",""time""
""blur"",""1"",""19867""
","""event"",""trial"",""time""
""focus"",""1"",""57722""
","""event"",""trial"",""time""
""fullscreenenter"",""1"",""82868""
","
","","","","","","1833.0999999046326","images/racket2.png","","","practice","4","definitely_new",""
"html-keyboard-response","26","201685","0.0-11.0-0.4","4606","approach_avoid_sv1","""event"",""trial"",""time""
""blur"",""1"",""19867""
""focus"",""1"",""57722""
""fullscreenenter"",""1"",""82868""
","""event"",""trial"",""time""
""blur"",""1"",""19867""
","""event"",""trial"",""time""
""focus"",""1"",""57722""
","""event"",""trial"",""time""
""fullscreenenter"",""1"",""82868""
","
","","","","","","null","<div style=""font-size:60px;"">+</div>","null","","fixation","","",""
"memory-trial","27","204222","0.0-11.0-1.4","4606","approach_avoid_sv1","""event"",""trial"",""time""
""blur"",""1"",""19867""
""focus"",""1"",""57722""
""fullscreenenter"",""1"",""82868""
","""event"",""trial"",""time""
""blur"",""1"",""19867""
","""event"",""trial"",""time""
""focus"",""1"",""57722""
","""event"",""trial"",""time""
""fullscreenenter"",""1"",""82868""
","
","","","","","","1511.0999999046326","images/ball2.png","","","practice","1","definitely_old",""
"html-keyboard-response","28","204745","0.0-11.0-0.5","4606","approach_avoid_sv1","""event"",""trial"",""time""
""blur"",""1"",""19867""
""focus"",""1"",""57722""
""fullscreenenter"",""1"",""82868""
","""event"",""trial"",""time""
""blur"",""1"",""19867""
","""event"",""trial"",""time""
""focus"",""1"",""57722""
","""event"",""trial"",""time""
""fullscreenenter"",""1"",""82868""
","
","","","","","","null","<div style=""font-size:60px;"">+</div>","null","","fixation","","",""
"memory-trial","29","207794","0.0-11.0-1.5","4606","approach_avoid_sv1","""event"",""trial"",""time""
""blur"",""1"",""19867""
""focus"",""1"",""57722""
""fullscreenenter"",""1"",""82868""
","""event"",""trial"",""time""
""blur"",""1"",""19867""
","""event"",""trial"",""time""
""focus"",""1"",""57722""
","""event"",""trial"",""time""
""fullscreenenter"",""1"",""82868""
","
","","","","","","2019.5999999046326","images/racket5.png","","","practice","4","definitely_new",""
"html-keyboard-response","30","208315","0.0-11.0-0.6","4606","approach_avoid_sv1","""event"",""trial"",""time""
""blur"",""1"",""19867""
""focus"",""1"",""57722""
""fullscreenenter"",""1"",""82868""
","""event"",""trial"",""time""
""blur"",""1"",""19867""
","""event"",""trial"",""time""
""focus"",""1"",""57722""
","""event"",""trial"",""time""
""fullscreenenter"",""1"",""82868""
","
","","","","","","null","<div style=""font-size:60px;"">+</div>","null","","fixation","","",""
"memory-trial","31","211113","0.0-11.0-1.6","4606","approach_avoid_sv1","""event"",""trial"",""time""
""blur"",""1"",""19867""
""focus"",""1"",""57722""
""fullscreenenter"",""1"",""82868""
","""event"",""trial"",""time""
""blur"",""1"",""19867""
","""event"",""trial"",""time""
""focus"",""1"",""57722""
","""event"",""trial"",""time""
""fullscreenenter"",""1"",""82868""
","
","","","","","","1772","images/racket1.png","","","practice","1","definitely_old",""
"html-keyboard-response","32","211622","0.0-11.0-0.7","4606","approach_avoid_sv1","""event"",""trial"",""time""
""blur"",""1"",""19867""
""focus"",""1"",""57722""
""fullscreenenter"",""1"",""82868""
","""event"",""trial"",""time""
""blur"",""1"",""19867""
","""event"",""trial"",""time""
""focus"",""1"",""57722""
","""event"",""trial"",""time""
""fullscreenenter"",""1"",""82868""
","
","","","","","","null","<div style=""font-size:60px;"">+</div>","null","","fixation","","",""
"memory-trial","33","214711","0.0-11.0-1.7","4606","approach_avoid_sv1","""event"",""trial"",""time""
""blur"",""1"",""19867""
""focus"",""1"",""57722""
""fullscreenenter"",""1"",""82868""
","""event"",""trial"",""time""
""blur"",""1"",""19867""
","""event"",""trial"",""time""
""focus"",""1"",""57722""
","""event"",""trial"",""time""
""fullscreenenter"",""1"",""82868""
","
","","","","","","2083.7000000476837","images/ball5.png","","","practice","2","maybe_old",""
"learning-instructions","34","226159","0.0-12.0-0.0","4606","approach_avoid_sv1","""event"",""trial"",""time""
""blur"",""1"",""19867""
""focus"",""1"",""57722""
""fullscreenenter"",""1"",""82868""
","""event"",""trial"",""time""
""blur"",""1"",""19867""
","""event"",""trial"",""time""
""focus"",""1"",""57722""
","""event"",""trial"",""time""
""fullscreenenter"",""1"",""82868""
","
","","","","","","4121.900000095367","<p> Great! You have completed the practice. </p><p> Before you start, we're going to ask you a few questions about how the game works.  </p>","","0","instructions","","",""
"preload","35","227721","0.0-13.0","4606","approach_avoid_sv1","""event"",""trial"",""time""
""blur"",""1"",""19867""
""focus"",""1"",""57722""
""fullscreenenter"",""1"",""82868""
","""event"",""trial"",""time""
""blur"",""1"",""19867""
","""event"",""trial"",""time""
""focus"",""1"",""57722""
","""event"",""trial"",""time""
""fullscreenenter"",""1"",""82868""
","
","true","false","[]","[]","[]","","","","","","","",""
"comp-q","36","236663","0.0-14.0-0.0","4606","approach_avoid_sv1","""event"",""trial"",""time""
""blur"",""1"",""19867""
""focus"",""1"",""57722""
""fullscreenenter"",""1"",""82868""
","""event"",""trial"",""time""
""blur"",""1"",""19867""
","""event"",""trial"",""time""
""focus"",""1"",""57722""
","""event"",""trial"",""time""
""fullscreenenter"",""1"",""82868""
","
","","","","","","3115.2000000476837","<p> <b> True or False? </b> </p><p> In this game, you will only see each image once. </p>","","0","comp_question","","","true"
"comp-q","37","244427","0.0-14.0-1.0","4606","approach_avoid_sv1","""event"",""trial"",""time""
""blur"",""1"",""19867""
""focus"",""1"",""57722""
""fullscreenenter"",""1"",""82868""
","""event"",""trial"",""time""
""blur"",""1"",""19867""
","""event"",""trial"",""time""
""focus"",""1"",""57722""
","""event"",""trial"",""time""
""fullscreenenter"",""1"",""82868""
","
","","","","","","1409.6000001430511","<p> <b> That's right! </b> You will see many different images <i> one time each </i> in this game. </p>","","0","comp_answer","","",""
"comp-q","38","250290","0.0-15.0-0.0","4606","approach_avoid_sv1","""event"",""trial"",""time""
""blur"",""1"",""19867""
""focus"",""1"",""57722""
""fullscreenenter"",""1"",""82868""
","""event"",""trial"",""time""
""blur"",""1"",""19867""
","""event"",""trial"",""time""
""focus"",""1"",""57722""
","""event"",""trial"",""time""
""fullscreenenter"",""1"",""82868""
","
","","","","","","832.2000000476837","<p> <b> True or False? </b> </p><p> You should use the mouse and click to make your response. </p>","","1","comp_question","","","true"
"comp-q","39","258760","0.0-15.0-1.0","4606","approach_avoid_sv1","""event"",""trial"",""time""
""blur"",""1"",""19867""
""focus"",""1"",""57722""
""fullscreenenter"",""1"",""82868""
","""event"",""trial"",""time""
""blur"",""1"",""19867""
","""event"",""trial"",""time""
""focus"",""1"",""57722""
","""event"",""trial"",""time""
""fullscreenenter"",""1"",""82868""
","
","","","","","","1942.2999999523163","<p><b> That's right! </b> You should use the '1', '2', '3', and '4' keys to make your response. </p>","","0","comp_answer","","",""
"comp-q","40","267339","0.0-16.0-0.0","4606","approach_avoid_sv1","""event"",""trial"",""time""
""blur"",""1"",""19867""
""focus"",""1"",""57722""
""fullscreenenter"",""1"",""82868""
","""event"",""trial"",""time""
""blur"",""1"",""19867""
","""event"",""trial"",""time""
""focus"",""1"",""57722""
","""event"",""trial"",""time""
""fullscreenenter"",""1"",""82868""
","
","","","","","","2892","<p> <b> True or False? </b> </p><p> You will have as much time as you want to make each choice. </p>","","1","comp_question","","","true"
"comp-q","41","275381","0.0-16.0-1.0","4606","approach_avoid_sv1","""event"",""trial"",""time""
""blur"",""1"",""19867""
""focus"",""1"",""57722""
""fullscreenenter"",""1"",""82868""
","""event"",""trial"",""time""
""blur"",""1"",""19867""
","""event"",""trial"",""time""
""focus"",""1"",""57722""
","""event"",""trial"",""time""
""fullscreenenter"",""1"",""82868""
","
","","","","","","3333.5","<p> <b> That's right! </b> You will only have 10 seconds to make each choice. </p>","","0","comp_answer","","",""
"learning-instructions","42","286516","0.0-17.0","4606","approach_avoid_sv1","""event"",""trial"",""time""
""blur"",""1"",""19867""
""focus"",""1"",""57722""
""fullscreenenter"",""1"",""82868""
","""event"",""trial"",""time""
""blur"",""1"",""19867""
","""event"",""trial"",""time""
""focus"",""1"",""57722""
","""event"",""trial"",""time""
""fullscreenenter"",""1"",""82868""
","
","","","","","","2448.899999856949","<p> Great! You are now ready to begin the game. </p><p> Remember, use the 1, 2, 3, and 4 keys to make your responses. </p>","","0","instructions","","",""
"html-keyboard-response","43","287152","0.0-18.0-0.0","4606","approach_avoid_sv1","""event"",""trial"",""time""
""blur"",""1"",""19867""
""focus"",""1"",""57722""
""fullscreenenter"",""1"",""82868""
","""event"",""trial"",""time""
""blur"",""1"",""19867""
","""event"",""trial"",""time""
""focus"",""1"",""57722""
","""event"",""trial"",""time""
""fullscreenenter"",""1"",""82868""
","
","","","","","","null","<div style=""font-size:60px;"">+</div>","null","","fixation","","",""
"memory-trial","44","290335","0.0-18.0-1.0","4606","approach_avoid_sv1","""event"",""trial"",""time""
""blur"",""1"",""19867""
""focus"",""1"",""57722""
""fullscreenenter"",""1"",""82868""
","""event"",""trial"",""time""
""blur"",""1"",""19867""
","""event"",""trial"",""time""
""focus"",""1"",""57722""
","""event"",""trial"",""time""
""fullscreenenter"",""1"",""82868""
","
","","","","","","2158","images/bed8.png","","","memory_trial","2","maybe_old",""
"html-keyboard-response","45","290841","0.0-18.0-0.1","4606","approach_avoid_sv1","""event"",""trial"",""time""
""blur"",""1"",""19867""
""focus"",""1"",""57722""
""fullscreenenter"",""1"",""82868""
","""event"",""trial"",""time""
""blur"",""1"",""19867""
","""event"",""trial"",""time""
""focus"",""1"",""57722""
","""event"",""trial"",""time""
""fullscreenenter"",""1"",""82868""
","
","","","","","","null","<div style=""font-size:60px;"">+</div>","null","","fixation","","",""
"memory-trial","46","293565","0.0-18.0-1.1","4606","approach_avoid_sv1","""event"",""trial"",""time""
""blur"",""1"",""19867""
""focus"",""1"",""57722""
""fullscreenenter"",""1"",""82868""
","""event"",""trial"",""time""
""blur"",""1"",""19867""
","""event"",""trial"",""time""
""focus"",""1"",""57722""
","""event"",""trial"",""time""
""fullscreenenter"",""1"",""82868""
","
","","","","","","1705.3999998569489","images/plane4.png","","","memory_trial","1","definitely_old",""
"html-keyboard-response","47","294075","0.0-18.0-0.2","4606","approach_avoid_sv1","""event"",""trial"",""time""
""blur"",""1"",""19867""
""focus"",""1"",""57722""
""fullscreenenter"",""1"",""82868""
","""event"",""trial"",""time""
""blur"",""1"",""19867""
","""event"",""trial"",""time""
""focus"",""1"",""57722""
","""event"",""trial"",""time""
""fullscreenenter"",""1"",""82868""
","
","","","","","","null","<div style=""font-size:60px;"">+</div>","null","","fixation","","",""
"memory-trial","48","297675","0.0-18.0-1.2","4606","approach_avoid_sv1","""event"",""trial"",""time""
""blur"",""1"",""19867""
""focus"",""1"",""57722""
""fullscreenenter"",""1"",""82868""
","""event"",""trial"",""time""
""blur"",""1"",""19867""
","""event"",""trial"",""time""
""focus"",""1"",""57722""
","""event"",""trial"",""time""
""fullscreenenter"",""1"",""82868""
","
","","","","","","2590.2999999523163","images/straw2.png","","","memory_trial","2","maybe_old",""
"html-keyboard-response","49","298195","0.0-18.0-0.3","4606","approach_avoid_sv1","""event"",""trial"",""time""
""blur"",""1"",""19867""
""focus"",""1"",""57722""
""fullscreenenter"",""1"",""82868""
","""event"",""trial"",""time""
""blur"",""1"",""19867""
","""event"",""trial"",""time""
""focus"",""1"",""57722""
","""event"",""trial"",""time""
""fullscreenenter"",""1"",""82868""
","
","","","","","","null","<div style=""font-size:60px;"">+</div>","null","","fixation","","",""
"memory-trial","50","300845","0.0-18.0-1.3","4606","approach_avoid_sv1","""event"",""trial"",""time""
""blur"",""1"",""19867""
""focus"",""1"",""57722""
""fullscreenenter"",""1"",""82868""
","""event"",""trial"",""time""
""blur"",""1"",""19867""
","""event"",""trial"",""time""
""focus"",""1"",""57722""
","""event"",""trial"",""time""
""fullscreenenter"",""1"",""82868""
","
","","","","","","1638.8999998569489","images/goat2.png","","","memory_trial","4","definitely_new",""
"html-keyboard-response","51","301365","0.0-18.0-0.4","4606","approach_avoid_sv1","""event"",""trial"",""time""
""blur"",""1"",""19867""
""focus"",""1"",""57722""
""fullscreenenter"",""1"",""82868""
","""event"",""trial"",""time""
""blur"",""1"",""19867""
","""event"",""trial"",""time""
""focus"",""1"",""57722""
","""event"",""trial"",""time""
""fullscreenenter"",""1"",""82868""
","
","","","","","","null","<div style=""font-size:60px;"">+</div>","null","","fixation","","",""
"memory-trial","52","303724","0.0-18.0-1.4","4606","approach_avoid_sv1","""event"",""trial"",""time""
""blur"",""1"",""19867""
""focus"",""1"",""57722""
""fullscreenenter"",""1"",""82868""
","""event"",""trial"",""time""
""blur"",""1"",""19867""
","""event"",""trial"",""time""
""focus"",""1"",""57722""
","""event"",""trial"",""time""
""fullscreenenter"",""1"",""82868""
","
","","","","","","1347.4000000953674","images/goat1.png","","","memory_trial","4","definitely_new",""
"html-keyboard-response","53","304235","0.0-18.0-0.5","4606","approach_avoid_sv1","""event"",""trial"",""time""
""blur"",""1"",""19867""
""focus"",""1"",""57722""
""fullscreenenter"",""1"",""82868""
","""event"",""trial"",""time""
""blur"",""1"",""19867""
","""event"",""trial"",""time""
""focus"",""1"",""57722""
","""event"",""trial"",""time""
""fullscreenenter"",""1"",""82868""
","
","","","","","","null","<div style=""font-size:60px;"">+</div>","null","","fixation","","",""
"memory-trial","54","307464","0.0-18.0-1.5","4606","approach_avoid_sv1","""event"",""trial"",""time""
""blur"",""1"",""19867""
""focus"",""1"",""57722""
""fullscreenenter"",""1"",""82868""
","""event"",""trial"",""time""
""blur"",""1"",""19867""
","""event"",""trial"",""time""
""focus"",""1"",""57722""
","""event"",""trial"",""time""
""fullscreenenter"",""1"",""82868""
","
","","","","","","2219.9000000953674","images/plane1.png","","","memory_trial","1","definitely_old",""
"html-keyboard-response","55","307974","0.0-18.0-0.6","4606","approach_avoid_sv1","""event"",""trial"",""time""
""blur"",""1"",""19867""
""focus"",""1"",""57722""
""fullscreenenter"",""1"",""82868""
","""event"",""trial"",""time""
""blur"",""1"",""19867""
","""event"",""trial"",""time""
""focus"",""1"",""57722""
","""event"",""trial"",""time""
""fullscreenenter"",""1"",""82868""
","
","","","","","","null","<div style=""font-size:60px;"">+</div>","null","","fixation","","",""
"memory-trial","56","310345","0.0-18.0-1.6","4606","approach_avoid_sv1","""event"",""trial"",""time""
""blur"",""1"",""19867""
""focus"",""1"",""57722""
""fullscreenenter"",""1"",""82868""
","""event"",""trial"",""time""
""blur"",""1"",""19867""
","""event"",""trial"",""time""
""focus"",""1"",""57722""
","""event"",""trial"",""time""
""fullscreenenter"",""1"",""82868""
","
","","","","","","1362.0999999046326","images/sheep4.png","","","memory_trial","1","definitely_old",""
"html-keyboard-response","57","310865","0.0-18.0-0.7","4606","approach_avoid_sv1","""event"",""trial"",""time""
""blur"",""1"",""19867""
""focus"",""1"",""57722""
""fullscreenenter"",""1"",""82868""
","""event"",""trial"",""time""
""blur"",""1"",""19867""
","""event"",""trial"",""time""
""focus"",""1"",""57722""
","""event"",""trial"",""time""
""fullscreenenter"",""1"",""82868""
","
","","","","","","null","<div style=""font-size:60px;"">+</div>","null","","fixation","","",""
"memory-trial","58","313622","0.0-18.0-1.7","4606","approach_avoid_sv1","""event"",""trial"",""time""
""blur"",""1"",""19867""
""focus"",""1"",""57722""
""fullscreenenter"",""1"",""82868""
","""event"",""trial"",""time""
""blur"",""1"",""19867""
","""event"",""trial"",""time""
""focus"",""1"",""57722""
","""event"",""trial"",""time""
""fullscreenenter"",""1"",""82868""
","
","","","","","","1744","images/bush4.png","","","memory_trial","1","definitely_old",""
"html-keyboard-response","59","314135","0.0-18.0-0.8","4606","approach_avoid_sv1","""event"",""trial"",""time""
""blur"",""1"",""19867""
""focus"",""1"",""57722""
""fullscreenenter"",""1"",""82868""
","""event"",""trial"",""time""
""blur"",""1"",""19867""
","""event"",""trial"",""time""
""focus"",""1"",""57722""
","""event"",""trial"",""time""
""fullscreenenter"",""1"",""82868""
","
","","","","","","null","<div style=""font-size:60px;"">+</div>","null","","fixation","","",""
"memory-trial","60","316695","0.0-18.0-1.8","4606","approach_avoid_sv1","""event"",""trial"",""time""
""blur"",""1"",""19867""
""focus"",""1"",""57722""
""fullscreenenter"",""1"",""82868""
","""event"",""trial"",""time""
""blur"",""1"",""19867""
","""event"",""trial"",""time""
""focus"",""1"",""57722""
","""event"",""trial"",""time""
""fullscreenenter"",""1"",""82868""
","
","","","","","","1550.3999998569489","images/goat3.png","","","memory_trial","4","definitely_new",""
"html-keyboard-response","61","317205","0.0-18.0-0.9","4606","approach_avoid_sv1","""event"",""trial"",""time""
""blur"",""1"",""19867""
""focus"",""1"",""57722""
""fullscreenenter"",""1"",""82868""
","""event"",""trial"",""time""
""blur"",""1"",""19867""
","""event"",""trial"",""time""
""focus"",""1"",""57722""
","""event"",""trial"",""time""
""fullscreenenter"",""1"",""82868""
","
","","","","","","null","<div style=""font-size:60px;"">+</div>","null","","fixation","","",""
"memory-trial","62","319756","0.0-18.0-1.9","4606","approach_avoid_sv1","""event"",""trial"",""time""
""blur"",""1"",""19867""
""focus"",""1"",""57722""
""fullscreenenter"",""1"",""82868""
","""event"",""trial"",""time""
""blur"",""1"",""19867""
","""event"",""trial"",""time""
""focus"",""1"",""57722""
","""event"",""trial"",""time""
""fullscreenenter"",""1"",""82868""
","
","","","","","","1540.3999998569489","images/banana7.png","","","memory_trial","1","definitely_old",""
"html-keyboard-response","63","320270","0.0-18.0-0.10","4606","approach_avoid_sv1","""event"",""trial"",""time""
""blur"",""1"",""19867""
""focus"",""1"",""57722""
""fullscreenenter"",""1"",""82868""
","""event"",""trial"",""time""
""blur"",""1"",""19867""
","""event"",""trial"",""time""
""focus"",""1"",""57722""
","""event"",""trial"",""time""
""fullscreenenter"",""1"",""82868""
","
","","","","","","null","<div style=""font-size:60px;"">+</div>","null","","fixation","","",""
"memory-trial","64","323974","0.0-18.0-1.10","4606","approach_avoid_sv1","""event"",""trial"",""time""
""blur"",""1"",""19867""
""focus"",""1"",""57722""
""fullscreenenter"",""1"",""82868""
","""event"",""trial"",""time""
""blur"",""1"",""19867""
","""event"",""trial"",""time""
""focus"",""1"",""57722""
","""event"",""trial"",""time""
""fullscreenenter"",""1"",""82868""
","
","","","","","","2683.699999809265","images/straw1.png","","","memory_trial","2","maybe_old",""
"html-keyboard-response","65","324486","0.0-18.0-0.11","4606","approach_avoid_sv1","""event"",""trial"",""time""
""blur"",""1"",""19867""
""focus"",""1"",""57722""
""fullscreenenter"",""1"",""82868""
","""event"",""trial"",""time""
""blur"",""1"",""19867""
","""event"",""trial"",""time""
""focus"",""1"",""57722""
","""event"",""trial"",""time""
""fullscreenenter"",""1"",""82868""
","
","","","","","","null","<div style=""font-size:60px;"">+</div>","null","","fixation","","",""
"memory-trial","66","327576","0.0-18.0-1.11","4606","approach_avoid_sv1","""event"",""trial"",""time""
""blur"",""1"",""19867""
""focus"",""1"",""57722""
""fullscreenenter"",""1"",""82868""
","""event"",""trial"",""time""
""blur"",""1"",""19867""
","""event"",""trial"",""time""
""focus"",""1"",""57722""
","""event"",""trial"",""time""
""fullscreenenter"",""1"",""82868""
","
","","","","","","2073.5999999046326","images/bush3.png","","","memory_trial","1","definitely_old",""
"html-keyboard-response","67","328084","0.0-18.0-0.12","4606","approach_avoid_sv1","""event"",""trial"",""time""
""blur"",""1"",""19867""
""focus"",""1"",""57722""
""fullscreenenter"",""1"",""82868""
","""event"",""trial"",""time""
""blur"",""1"",""19867""
","""event"",""trial"",""time""
""focus"",""1"",""57722""
","""event"",""trial"",""time""
""fullscreenenter"",""1"",""82868""
","
","","","","","","null","<div style=""font-size:60px;"">+</div>","null","","fixation","","",""
"memory-trial","68","331755","0.0-18.0-1.12","4606","approach_avoid_sv1","""event"",""trial"",""time""
""blur"",""1"",""19867""
""focus"",""1"",""57722""
""fullscreenenter"",""1"",""82868""
","""event"",""trial"",""time""
""blur"",""1"",""19867""
","""event"",""trial"",""time""
""focus"",""1"",""57722""
","""event"",""trial"",""time""
""fullscreenenter"",""1"",""82868""
","
","","","","","","2655.5999999046326","images/sofa2.png","","","memory_trial","2","maybe_old",""
"html-keyboard-response","69","332269","0.0-18.0-0.13","4606","approach_avoid_sv1","""event"",""trial"",""time""
""blur"",""1"",""19867""
""focus"",""1"",""57722""
""fullscreenenter"",""1"",""82868""
","""event"",""trial"",""time""
""blur"",""1"",""19867""
","""event"",""trial"",""time""
""focus"",""1"",""57722""
","""event"",""trial"",""time""
""fullscreenenter"",""1"",""82868""
","
","","","","","","null","<div style=""font-size:60px;"">+</div>","null","","fixation","","",""
"memory-trial","70","336773","0.0-18.0-1.13","4606","approach_avoid_sv1","""event"",""trial"",""time""
""blur"",""1"",""19867""
""focus"",""1"",""57722""
""fullscreenenter"",""1"",""82868""
","""event"",""trial"",""time""
""blur"",""1"",""19867""
","""event"",""trial"",""time""
""focus"",""1"",""57722""
","""event"",""trial"",""time""
""fullscreenenter"",""1"",""82868""
","
","","","","","","3485.800000190735","images/train7.png","","","memory_trial","4","definitely_new",""
"html-keyboard-response","71","337280","0.0-18.0-0.14","4606","approach_avoid_sv1","""event"",""trial"",""time""
""blur"",""1"",""19867""
""focus"",""1"",""57722""
""fullscreenenter"",""1"",""82868""
","""event"",""trial"",""time""
""blur"",""1"",""19867""
","""event"",""trial"",""time""
""focus"",""1"",""57722""
","""event"",""trial"",""time""
""fullscreenenter"",""1"",""82868""
","
","","","","","","null","<div style=""font-size:60px;"">+</div>","null","","fixation","","",""
"memory-trial","72","341534","0.0-18.0-1.14","4606","approach_avoid_sv1","""event"",""trial"",""time""
""blur"",""1"",""19867""
""focus"",""1"",""57722""
""fullscreenenter"",""1"",""82868""
","""event"",""trial"",""time""
""blur"",""1"",""19867""
","""event"",""trial"",""time""
""focus"",""1"",""57722""
","""event"",""trial"",""time""
""fullscreenenter"",""1"",""82868""
","
","","","","","","3231","images/straw4.png","","","memory_trial","1","definitely_old",""
"html-keyboard-response","73","342049","0.0-18.0-0.15","4606","approach_avoid_sv1","""event"",""trial"",""time""
""blur"",""1"",""19867""
""focus"",""1"",""57722""
""fullscreenenter"",""1"",""82868""
","""event"",""trial"",""time""
""blur"",""1"",""19867""
","""event"",""trial"",""time""
""focus"",""1"",""57722""
","""event"",""trial"",""time""
""fullscreenenter"",""1"",""82868""
","
","","","","","","null","<div style=""font-size:60px;"">+</div>","null","","fixation","","",""
"memory-trial","74","344466","0.0-18.0-1.15","4606","approach_avoid_sv1","""event"",""trial"",""time""
""blur"",""1"",""19867""
""focus"",""1"",""57722""
""fullscreenenter"",""1"",""82868""
","""event"",""trial"",""time""
""blur"",""1"",""19867""
","""event"",""trial"",""time""
""focus"",""1"",""57722""
","""event"",""trial"",""time""
""fullscreenenter"",""1"",""82868""
","
","","","","","","1405.7999999523163","images/plane5.png","","","memory_trial","1","definitely_old",""
"html-keyboard-response","75","344975","0.0-18.0-0.16","4606","approach_avoid_sv1","""event"",""trial"",""time""
""blur"",""1"",""19867""
""focus"",""1"",""57722""
""fullscreenenter"",""1"",""82868""
","""event"",""trial"",""time""
""blur"",""1"",""19867""
","""event"",""trial"",""time""
""focus"",""1"",""57722""
","""event"",""trial"",""time""
""fullscreenenter"",""1"",""82868""
","
","","","","","","null","<div style=""font-size:60px;"">+</div>","null","","fixation","","",""
"memory-trial","76","346849","0.0-18.0-1.16","4606","approach_avoid_sv1","""event"",""trial"",""time""
""blur"",""1"",""19867""
""focus"",""1"",""57722""
""fullscreenenter"",""1"",""82868""
","""event"",""trial"",""time""
""blur"",""1"",""19867""
","""event"",""trial"",""time""
""focus"",""1"",""57722""
","""event"",""trial"",""time""
""fullscreenenter"",""1"",""82868""
","
","","","","","","862.7999999523163","images/orange3.png","","","memory_trial","1","definitely_old",""
"html-keyboard-response","77","347354","0.0-18.0-0.17","4606","approach_avoid_sv1","""event"",""trial"",""time""
""blur"",""1"",""19867""
""focus"",""1"",""57722""
""fullscreenenter"",""1"",""82868""
","""event"",""trial"",""time""
""blur"",""1"",""19867""
","""event"",""trial"",""time""
""focus"",""1"",""57722""
","""event"",""trial"",""time""
""fullscreenenter"",""1"",""82868""
","
","","","","","","null","<div style=""font-size:60px;"">+</div>","null","","fixation","","",""
"memory-trial","78","351114","0.0-18.0-1.17","4606","approach_avoid_sv1","""event"",""trial"",""time""
""blur"",""1"",""19867""
""focus"",""1"",""57722""
""fullscreenenter"",""1"",""82868""
","""event"",""trial"",""time""
""blur"",""1"",""19867""
","""event"",""trial"",""time""
""focus"",""1"",""57722""
","""event"",""trial"",""time""
""fullscreenenter"",""1"",""82868""
","
","","","","","","2748.2000000476837","images/sheep2.png","","","memory_trial","1","definitely_old",""
"html-keyboard-response","79","351633","0.0-18.0-0.18","4606","approach_avoid_sv1","""event"",""trial"",""time""
""blur"",""1"",""19867""
""focus"",""1"",""57722""
""fullscreenenter"",""1"",""82868""
","""event"",""trial"",""time""
""blur"",""1"",""19867""
","""event"",""trial"",""time""
""focus"",""1"",""57722""
","""event"",""trial"",""time""
""fullscreenenter"",""1"",""82868""
","
","","","","","","null","<div style=""font-size:60px;"">+</div>","null","","fixation","","",""
"memory-trial","80","354808","0.0-18.0-1.18","4606","approach_avoid_sv1","""event"",""trial"",""time""
""blur"",""1"",""19867""
""focus"",""1"",""57722""
""fullscreenenter"",""1"",""82868""
","""event"",""trial"",""time""
""blur"",""1"",""19867""
","""event"",""trial"",""time""
""focus"",""1"",""57722""
","""event"",""trial"",""time""
""fullscreenenter"",""1"",""82868""
","
","","","","","","2154.4000000953674","images/orange7.png","","","memory_trial","1","definitely_old",""
"html-keyboard-response","81","355316","0.0-18.0-0.19","4606","approach_avoid_sv1","""event"",""trial"",""time""
""blur"",""1"",""19867""
""focus"",""1"",""57722""
""fullscreenenter"",""1"",""82868""
","""event"",""trial"",""time""
""blur"",""1"",""19867""
","""event"",""trial"",""time""
""focus"",""1"",""57722""
","""event"",""trial"",""time""
""fullscreenenter"",""1"",""82868""
","
","","","","","","null","<div style=""font-size:60px;"">+</div>","null","","fixation","","",""
"memory-trial","82","357871","0.0-18.0-1.19","4606","approach_avoid_sv1","""event"",""trial"",""time""
""blur"",""1"",""19867""
""focus"",""1"",""57722""
""fullscreenenter"",""1"",""82868""
","""event"",""trial"",""time""
""blur"",""1"",""19867""
","""event"",""trial"",""time""
""focus"",""1"",""57722""
","""event"",""trial"",""time""
""fullscreenenter"",""1"",""82868""
","
","","","","","","1551.4000000953674","images/cow3.png","","","memory_trial","2","maybe_old",""
"html-keyboard-response","83","358380","0.0-18.0-0.20","4606","approach_avoid_sv1","""event"",""trial"",""time""
""blur"",""1"",""19867""
""focus"",""1"",""57722""
""fullscreenenter"",""1"",""82868""
","""event"",""trial"",""time""
""blur"",""1"",""19867""
","""event"",""trial"",""time""
""focus"",""1"",""57722""
","""event"",""trial"",""time""
""fullscreenenter"",""1"",""82868""
","
","","","","","","null","<div style=""font-size:60px;"">+</div>","null","","fixation","","",""
"memory-trial","84","360828","0.0-18.0-1.20","4606","approach_avoid_sv1","""event"",""trial"",""time""
""blur"",""1"",""19867""
""focus"",""1"",""57722""
""fullscreenenter"",""1"",""82868""
","""event"",""trial"",""time""
""blur"",""1"",""19867""
","""event"",""trial"",""time""
""focus"",""1"",""57722""
","""event"",""trial"",""time""
""fullscreenenter"",""1"",""82868""
","
","","","","","","1430.5","images/chair2.png","","","memory_trial","1","definitely_old",""
"html-keyboard-response","85","361335","0.0-18.0-0.21","4606","approach_avoid_sv1","""event"",""trial"",""time""
""blur"",""1"",""19867""
""focus"",""1"",""57722""
""fullscreenenter"",""1"",""82868""
","""event"",""trial"",""time""
""blur"",""1"",""19867""
","""event"",""trial"",""time""
""focus"",""1"",""57722""
","""event"",""trial"",""time""
""fullscreenenter"",""1"",""82868""
","
","","","","","","null","<div style=""font-size:60px;"">+</div>","null","","fixation","","",""
"memory-trial","86","363441","0.0-18.0-1.21","4606","approach_avoid_sv1","""event"",""trial"",""time""
""blur"",""1"",""19867""
""focus"",""1"",""57722""
""fullscreenenter"",""1"",""82868""
","""event"",""trial"",""time""
""blur"",""1"",""19867""
","""event"",""trial"",""time""
""focus"",""1"",""57722""
","""event"",""trial"",""time""
""fullscreenenter"",""1"",""82868""
","
","","","","","","1094.1999998092651","images/bush1.png","","","memory_trial","1","definitely_old",""
"html-keyboard-response","87","363968","0.0-18.0-0.22","4606","approach_avoid_sv1","""event"",""trial"",""time""
""blur"",""1"",""19867""
""focus"",""1"",""57722""
""fullscreenenter"",""1"",""82868""
","""event"",""trial"",""time""
""blur"",""1"",""19867""
","""event"",""trial"",""time""
""focus"",""1"",""57722""
","""event"",""trial"",""time""
""fullscreenenter"",""1"",""82868""
","
","","","","","","null","<div style=""font-size:60px;"">+</div>","null","","fixation","","",""
"memory-trial","88","366703","0.0-18.0-1.22","4606","approach_avoid_sv1","""event"",""trial"",""time""
""blur"",""1"",""19867""
""focus"",""1"",""57722""
""fullscreenenter"",""1"",""82868""
","""event"",""trial"",""time""
""blur"",""1"",""19867""
","""event"",""trial"",""time""
""focus"",""1"",""57722""
","""event"",""trial"",""time""
""fullscreenenter"",""1"",""82868""
","
","","","","","","1726.6000001430511","images/sofa6.png","","","memory_trial","2","maybe_old",""
"html-keyboard-response","89","367212","0.0-18.0-0.23","4606","approach_avoid_sv1","""event"",""trial"",""time""
""blur"",""1"",""19867""
""focus"",""1"",""57722""
""fullscreenenter"",""1"",""82868""
","""event"",""trial"",""time""
""blur"",""1"",""19867""
","""event"",""trial"",""time""
""focus"",""1"",""57722""
","""event"",""trial"",""time""
""fullscreenenter"",""1"",""82868""
","
","","","","","","null","<div style=""font-size:60px;"">+</div>","null","","fixation","","",""
"memory-trial","90","369723","0.0-18.0-1.23","4606","approach_avoid_sv1","""event"",""trial"",""time""
""blur"",""1"",""19867""
""focus"",""1"",""57722""
""fullscreenenter"",""1"",""82868""
","""event"",""trial"",""time""
""blur"",""1"",""19867""
","""event"",""trial"",""time""
""focus"",""1"",""57722""
","""event"",""trial"",""time""
""fullscreenenter"",""1"",""82868""
","
","","","","","","1501.7000000476837","images/dog7.png","","","memory_trial","4","definitely_new",""
"html-keyboard-response","91","370237","0.0-18.0-0.24","4606","approach_avoid_sv1","""event"",""trial"",""time""
""blur"",""1"",""19867""
""focus"",""1"",""57722""
""fullscreenenter"",""1"",""82868""
","""event"",""trial"",""time""
""blur"",""1"",""19867""
","""event"",""trial"",""time""
""focus"",""1"",""57722""
","""event"",""trial"",""time""
""fullscreenenter"",""1"",""82868""
","
","","","","","","null","<div style=""font-size:60px;"">+</div>","null","","fixation","","",""
"memory-trial","92","372477","0.0-18.0-1.24","4606","approach_avoid_sv1","""event"",""trial"",""time""
""blur"",""1"",""19867""
""focus"",""1"",""57722""
""fullscreenenter"",""1"",""82868""
","""event"",""trial"",""time""
""blur"",""1"",""19867""
","""event"",""trial"",""time""
""focus"",""1"",""57722""
","""event"",""trial"",""time""
""fullscreenenter"",""1"",""82868""
","
","","","","","","1229.2000000476837","images/rodent1.png","","","memory_trial","2","maybe_old",""
"html-keyboard-response","93","372988","0.0-18.0-0.25","4606","approach_avoid_sv1","""event"",""trial"",""time""
""blur"",""1"",""19867""
""focus"",""1"",""57722""
""fullscreenenter"",""1"",""82868""
","""event"",""trial"",""time""
""blur"",""1"",""19867""
","""event"",""trial"",""time""
""focus"",""1"",""57722""
","""event"",""trial"",""time""
""fullscreenenter"",""1"",""82868""
","
","","","","","","null","<div style=""font-size:60px;"">+</div>","null","","fixation","","",""
"memory-trial","94","376464","0.0-18.0-1.25","4606","approach_avoid_sv1","""event"",""trial"",""time""
""blur"",""1"",""19867""
""focus"",""1"",""57722""
""fullscreenenter"",""1"",""82868""
","""event"",""trial"",""time""
""blur"",""1"",""19867""
","""event"",""trial"",""time""
""focus"",""1"",""57722""
","""event"",""trial"",""time""
""fullscreenenter"",""1"",""82868""
","
","","","","","","2464.7999999523163","images/cat6.png","","","memory_trial","4","definitely_new",""
"html-keyboard-response","95","376972","0.0-18.0-0.26","4606","approach_avoid_sv1","""event"",""trial"",""time""
""blur"",""1"",""19867""
""focus"",""1"",""57722""
""fullscreenenter"",""1"",""82868""
","""event"",""trial"",""time""
""blur"",""1"",""19867""
","""event"",""trial"",""time""
""focus"",""1"",""57722""
","""event"",""trial"",""time""
""fullscreenenter"",""1"",""82868""
","
","","","","","","null","<div style=""font-size:60px;"">+</div>","null","","fixation","","",""
"memory-trial","96","379126","0.0-18.0-1.26","4606","approach_avoid_sv1","""event"",""trial"",""time""
""blur"",""1"",""19867""
""focus"",""1"",""57722""
""fullscreenenter"",""1"",""82868""
","""event"",""trial"",""time""
""blur"",""1"",""19867""
","""event"",""trial"",""time""
""focus"",""1"",""57722""
","""event"",""trial"",""time""
""fullscreenenter"",""1"",""82868""
","
","","","","","","1141","images/truck4.png","","","memory_trial","1","definitely_old",""
"html-keyboard-response","97","379639","0.0-18.0-0.27","4606","approach_avoid_sv1","""event"",""trial"",""time""
""blur"",""1"",""19867""
""focus"",""1"",""57722""
""fullscreenenter"",""1"",""82868""
","""event"",""trial"",""time""
""blur"",""1"",""19867""
","""event"",""trial"",""time""
""focus"",""1"",""57722""
","""event"",""trial"",""time""
""fullscreenenter"",""1"",""82868""
","
","","","","","","null","<div style=""font-size:60px;"">+</div>","null","","fixation","","",""
"memory-trial","98","383508","0.0-18.0-1.27","4606","approach_avoid_sv1","""event"",""trial"",""time""
""blur"",""1"",""19867""
""focus"",""1"",""57722""
""fullscreenenter"",""1"",""82868""
","""event"",""trial"",""time""
""blur"",""1"",""19867""
","""event"",""trial"",""time""
""focus"",""1"",""57722""
","""event"",""trial"",""time""
""fullscreenenter"",""1"",""82868""
","
","","","","","","2860.300000190735","images/apple4.png","","","memory_trial","3","maybe_new",""
"html-keyboard-response","99","384026","0.0-18.0-0.28","4606","approach_avoid_sv1","""event"",""trial"",""time""
""blur"",""1"",""19867""
""focus"",""1"",""57722""
""fullscreenenter"",""1"",""82868""
","""event"",""trial"",""time""
""blur"",""1"",""19867""
","""event"",""trial"",""time""
""focus"",""1"",""57722""
","""event"",""trial"",""time""
""fullscreenenter"",""1"",""82868""
","
","","","","","","null","<div style=""font-size:60px;"">+</div>","null","","fixation","","",""
"memory-trial","100","386964","0.0-18.0-1.28","4606","approach_avoid_sv1","""event"",""trial"",""time""
""blur"",""1"",""19867""
""focus"",""1"",""57722""
""fullscreenenter"",""1"",""82868""
","""event"",""trial"",""time""
""blur"",""1"",""19867""
","""event"",""trial"",""time""
""focus"",""1"",""57722""
","""event"",""trial"",""time""
""fullscreenenter"",""1"",""82868""
","
","","","","","","1928.0999999046326","images/plane8.png","","","memory_trial","1","definitely_old",""
"html-keyboard-response","101","387474","0.0-18.0-0.29","4606","approach_avoid_sv1","""event"",""trial"",""time""
""blur"",""1"",""19867""
""focus"",""1"",""57722""
""fullscreenenter"",""1"",""82868""
","""event"",""trial"",""time""
""blur"",""1"",""19867""
","""event"",""trial"",""time""
""focus"",""1"",""57722""
","""event"",""trial"",""time""
""fullscreenenter"",""1"",""82868""
","
","","","","","","null","<div style=""font-size:60px;"">+</div>","null","","fixation","","",""
"memory-trial","102","390025","0.0-18.0-1.29","4606","approach_avoid_sv1","""event"",""trial"",""time""
""blur"",""1"",""19867""
""focus"",""1"",""57722""
""fullscreenenter"",""1"",""82868""
","""event"",""trial"",""time""
""blur"",""1"",""19867""
","""event"",""trial"",""time""
""focus"",""1"",""57722""
","""event"",""trial"",""time""
""fullscreenenter"",""1"",""82868""
","
","","","","","","1546.5","images/sheep1.png","","","memory_trial","1","definitely_old",""
"html-keyboard-response","103","390534","0.0-18.0-0.30","4606","approach_avoid_sv1","""event"",""trial"",""time""
""blur"",""1"",""19867""
""focus"",""1"",""57722""
""fullscreenenter"",""1"",""82868""
","""event"",""trial"",""time""
""blur"",""1"",""19867""
","""event"",""trial"",""time""
""focus"",""1"",""57722""
","""event"",""trial"",""time""
""fullscreenenter"",""1"",""82868""
","
","","","","","","null","<div style=""font-size:60px;"">+</div>","null","","fixation","","",""
"memory-trial","104","393214","0.0-18.0-1.30","4606","approach_avoid_sv1","""event"",""trial"",""time""
""blur"",""1"",""19867""
""focus"",""1"",""57722""
""fullscreenenter"",""1"",""82868""
","""event"",""trial"",""time""
""blur"",""1"",""19867""
","""event"",""trial"",""time""
""focus"",""1"",""57722""
","""event"",""trial"",""time""
""fullscreenenter"",""1"",""82868""
","
","","","","","","1663.5999999046326","images/train4.png","","","memory_trial","4","definitely_new",""
"html-keyboard-response","105","393735","0.0-18.0-0.31","4606","approach_avoid_sv1","""event"",""trial"",""time""
""blur"",""1"",""19867""
""focus"",""1"",""57722""
""fullscreenenter"",""1"",""82868""
","""event"",""trial"",""time""
""blur"",""1"",""19867""
","""event"",""trial"",""time""
""focus"",""1"",""57722""
","""event"",""trial"",""time""
""fullscreenenter"",""1"",""82868""
","
","","","","","","null","<div style=""font-size:60px;"">+</div>","null","","fixation","","",""
"memory-trial","106","396080","0.0-18.0-1.31","4606","approach_avoid_sv1","""event"",""trial"",""time""
""blur"",""1"",""19867""
""focus"",""1"",""57722""
""fullscreenenter"",""1"",""82868""
","""event"",""trial"",""time""
""blur"",""1"",""19867""
","""event"",""trial"",""time""
""focus"",""1"",""57722""
","""event"",""trial"",""time""
""fullscreenenter"",""1"",""82868""
","
","","","","","","1331.5","images/sofa3.png","","","memory_trial","3","maybe_new",""
"html-keyboard-response","107","396586","0.0-18.0-0.32","4606","approach_avoid_sv1","""event"",""trial"",""time""
""blur"",""1"",""19867""
""focus"",""1"",""57722""
""fullscreenenter"",""1"",""82868""
","""event"",""trial"",""time""
""blur"",""1"",""19867""
","""event"",""trial"",""time""
""focus"",""1"",""57722""
","""event"",""trial"",""time""
""fullscreenenter"",""1"",""82868""
","
","","","","","","null","<div style=""font-size:60px;"">+</div>","null","","fixation","","",""
"memory-trial","108","399272","0.0-18.0-1.32","4606","approach_avoid_sv1","""event"",""trial"",""time""
""blur"",""1"",""19867""
""focus"",""1"",""57722""
""fullscreenenter"",""1"",""82868""
","""event"",""trial"",""time""
""blur"",""1"",""19867""
","""event"",""trial"",""time""
""focus"",""1"",""57722""
","""event"",""trial"",""time""
""fullscreenenter"",""1"",""82868""
","
","","","","","","1675","images/plane3.png","","","memory_trial","1","definitely_old",""
"html-keyboard-response","109","399779","0.0-18.0-0.33","4606","approach_avoid_sv1","""event"",""trial"",""time""
""blur"",""1"",""19867""
""focus"",""1"",""57722""
""fullscreenenter"",""1"",""82868""
","""event"",""trial"",""time""
""blur"",""1"",""19867""
","""event"",""trial"",""time""
""focus"",""1"",""57722""
","""event"",""trial"",""time""
""fullscreenenter"",""1"",""82868""
","
","","","","","","null","<div style=""font-size:60px;"">+</div>","null","","fixation","","",""
"memory-trial","110","402496","0.0-18.0-1.33","4606","approach_avoid_sv1","""event"",""trial"",""time""
""blur"",""1"",""19867""
""focus"",""1"",""57722""
""fullscreenenter"",""1"",""82868""
","""event"",""trial"",""time""
""blur"",""1"",""19867""
","""event"",""trial"",""time""
""focus"",""1"",""57722""
","""event"",""trial"",""time""
""fullscreenenter"",""1"",""82868""
","
","","","","","","1704.8999998569489","images/plane2.png","","","memory_trial","4","definitely_new",""
"html-keyboard-response","111","403013","0.0-18.0-0.34","4606","approach_avoid_sv1","""event"",""trial"",""time""
""blur"",""1"",""19867""
""focus"",""1"",""57722""
""fullscreenenter"",""1"",""82868""
","""event"",""trial"",""time""
""blur"",""1"",""19867""
","""event"",""trial"",""time""
""focus"",""1"",""57722""
","""event"",""trial"",""time""
""fullscreenenter"",""1"",""82868""
","
","","","","","","null","<div style=""font-size:60px;"">+</div>","null","","fixation","","",""
"memory-trial","112","405585","0.0-18.0-1.34","4606","approach_avoid_sv1","""event"",""trial"",""time""
""blur"",""1"",""19867""
""focus"",""1"",""57722""
""fullscreenenter"",""1"",""82868""
","""event"",""trial"",""time""
""blur"",""1"",""19867""
","""event"",""trial"",""time""
""focus"",""1"",""57722""
","""event"",""trial"",""time""
""fullscreenenter"",""1"",""82868""
","
","","","","","","1564.1000001430511","images/cow4.png","","","memory_trial","2","maybe_old",""
"html-keyboard-response","113","406098","0.0-18.0-0.35","4606","approach_avoid_sv1","""event"",""trial"",""time""
""blur"",""1"",""19867""
""focus"",""1"",""57722""
""fullscreenenter"",""1"",""82868""
","""event"",""trial"",""time""
""blur"",""1"",""19867""
","""event"",""trial"",""time""
""focus"",""1"",""57722""
","""event"",""trial"",""time""
""fullscreenenter"",""1"",""82868""
","
","","","","","","null","<div style=""font-size:60px;"">+</div>","null","","fixation","","",""
"memory-trial","114","408207","0.0-18.0-1.35","4606","approach_avoid_sv1","""event"",""trial"",""time""
""blur"",""1"",""19867""
""focus"",""1"",""57722""
""fullscreenenter"",""1"",""82868""
","""event"",""trial"",""time""
""blur"",""1"",""19867""
","""event"",""trial"",""time""
""focus"",""1"",""57722""
","""event"",""trial"",""time""
""fullscreenenter"",""1"",""82868""
","
","","","","","","1093.9000000953674","images/table4.png","","","memory_trial","1","definitely_old",""
"html-keyboard-response","115","408713","0.0-18.0-0.36","4606","approach_avoid_sv1","""event"",""trial"",""time""
""blur"",""1"",""19867""
""focus"",""1"",""57722""
""fullscreenenter"",""1"",""82868""
","""event"",""trial"",""time""
""blur"",""1"",""19867""
","""event"",""trial"",""time""
""focus"",""1"",""57722""
","""event"",""trial"",""time""
""fullscreenenter"",""1"",""82868""
","
","","","","","","null","<div style=""font-size:60px;"">+</div>","null","","fixation","","",""
"memory-trial","116","411486","0.0-18.0-1.36","4606","approach_avoid_sv1","""event"",""trial"",""time""
""blur"",""1"",""19867""
""focus"",""1"",""57722""
""fullscreenenter"",""1"",""82868""
","""event"",""trial"",""time""
""blur"",""1"",""19867""
","""event"",""trial"",""time""
""focus"",""1"",""57722""
","""event"",""trial"",""time""
""fullscreenenter"",""1"",""82868""
","
","","","","","","1758.7999999523163","images/banana2.png","","","memory_trial","4","definitely_new",""
"html-keyboard-response","117","411991","0.0-18.0-0.37","4606","approach_avoid_sv1","""event"",""trial"",""time""
""blur"",""1"",""19867""
""focus"",""1"",""57722""
""fullscreenenter"",""1"",""82868""
","""event"",""trial"",""time""
""blur"",""1"",""19867""
","""event"",""trial"",""time""
""focus"",""1"",""57722""
","""event"",""trial"",""time""
""fullscreenenter"",""1"",""82868""
","
","","","","","","null","<div style=""font-size:60px;"">+</div>","null","","fixation","","",""
"memory-trial","118","414740","0.0-18.0-1.37","4606","approach_avoid_sv1","""event"",""trial"",""time""
""blur"",""1"",""19867""
""focus"",""1"",""57722""
""fullscreenenter"",""1"",""82868""
","""event"",""trial"",""time""
""blur"",""1"",""19867""
","""event"",""trial"",""time""
""focus"",""1"",""57722""
","""event"",""trial"",""time""
""fullscreenenter"",""1"",""82868""
","
","","","","","","1728.1000001430511","images/bed6.png","","","memory_trial","1","definitely_old",""
"html-keyboard-response","119","415256","0.0-18.0-0.38","4606","approach_avoid_sv1","""event"",""trial"",""time""
""blur"",""1"",""19867""
""focus"",""1"",""57722""
""fullscreenenter"",""1"",""82868""
","""event"",""trial"",""time""
""blur"",""1"",""19867""
","""event"",""trial"",""time""
""focus"",""1"",""57722""
","""event"",""trial"",""time""
""fullscreenenter"",""1"",""82868""
","
","","","","","","null","<div style=""font-size:60px;"">+</div>","null","","fixation","","",""
"memory-trial","120","418252","0.0-18.0-1.38","4606","approach_avoid_sv1","""event"",""trial"",""time""
""blur"",""1"",""19867""
""focus"",""1"",""57722""
""fullscreenenter"",""1"",""82868""
","""event"",""trial"",""time""
""blur"",""1"",""19867""
","""event"",""trial"",""time""
""focus"",""1"",""57722""
","""event"",""trial"",""time""
""fullscreenenter"",""1"",""82868""
","
","","","","","","1969.7000000476837","images/goat8.png","","","memory_trial","4","definitely_new",""
"html-keyboard-response","121","418770","0.0-18.0-0.39","4606","approach_avoid_sv1","""event"",""trial"",""time""
""blur"",""1"",""19867""
""focus"",""1"",""57722""
""fullscreenenter"",""1"",""82868""
","""event"",""trial"",""time""
""blur"",""1"",""19867""
","""event"",""trial"",""time""
""focus"",""1"",""57722""
","""event"",""trial"",""time""
""fullscreenenter"",""1"",""82868""
","
","","","","","","null","<div style=""font-size:60px;"">+</div>","null","","fixation","","",""
"memory-trial","122","421029","0.0-18.0-1.39","4606","approach_avoid_sv1","""event"",""trial"",""time""
""blur"",""1"",""19867""
""focus"",""1"",""57722""
""fullscreenenter"",""1"",""82868""
","""event"",""trial"",""time""
""blur"",""1"",""19867""
","""event"",""trial"",""time""
""focus"",""1"",""57722""
","""event"",""trial"",""time""
""fullscreenenter"",""1"",""82868""
","
","","","","","","1247.5","images/boat4.png","","","memory_trial","1","definitely_old",""
"html-keyboard-response","123","421536","0.0-18.0-0.40","4606","approach_avoid_sv1","""event"",""trial"",""time""
""blur"",""1"",""19867""
""focus"",""1"",""57722""
""fullscreenenter"",""1"",""82868""
","""event"",""trial"",""time""
""blur"",""1"",""19867""
","""event"",""trial"",""time""
""focus"",""1"",""57722""
","""event"",""trial"",""time""
""fullscreenenter"",""1"",""82868""
","
","","","","","","null","<div style=""font-size:60px;"">+</div>","null","","fixation","","",""
"memory-trial","124","424532","0.0-18.0-1.40","4606","approach_avoid_sv1","""event"",""trial"",""time""
""blur"",""1"",""19867""
""focus"",""1"",""57722""
""fullscreenenter"",""1"",""82868""
","""event"",""trial"",""time""
""blur"",""1"",""19867""
","""event"",""trial"",""time""
""focus"",""1"",""57722""
","""event"",""trial"",""time""
""fullscreenenter"",""1"",""82868""
","
","","","","","","1982.6999998092651","images/straw3.png","","","memory_trial","3","maybe_new",""
"html-keyboard-response","125","425048","0.0-18.0-0.41","4606","approach_avoid_sv1","""event"",""trial"",""time""
""blur"",""1"",""19867""
""focus"",""1"",""57722""
""fullscreenenter"",""1"",""82868""
","""event"",""trial"",""time""
""blur"",""1"",""19867""
","""event"",""trial"",""time""
""focus"",""1"",""57722""
","""event"",""trial"",""time""
""fullscreenenter"",""1"",""82868""
","
","","","","","","null","<div style=""font-size:60px;"">+</div>","null","","fixation","","",""
"memory-trial","126","427504","0.0-18.0-1.41","4606","approach_avoid_sv1","""event"",""trial"",""time""
""blur"",""1"",""19867""
""focus"",""1"",""57722""
""fullscreenenter"",""1"",""82868""
","""event"",""trial"",""time""
""blur"",""1"",""19867""
","""event"",""trial"",""time""
""focus"",""1"",""57722""
","""event"",""trial"",""time""
""fullscreenenter"",""1"",""82868""
","
","","","","","","1447.5999999046326","images/dog5.png","","","memory_trial","4","definitely_new",""
"html-button-response","127","447846","0.0-18.0-2.41-0.41","4606","approach_avoid_sv1","""event"",""trial"",""time""
""blur"",""1"",""19867""
""focus"",""1"",""57722""
""fullscreenenter"",""1"",""82868""
","""event"",""trial"",""time""
""blur"",""1"",""19867""
","""event"",""trial"",""time""
""focus"",""1"",""57722""
","""event"",""trial"",""time""
""fullscreenenter"",""1"",""82868""
","
","","","","","","20340.10000014305","<p> Take a break! </p><p> Click the button to continue. </p>","0","","break","","",""
"html-keyboard-response","128","448359","0.0-18.0-0.42","4606","approach_avoid_sv1","""event"",""trial"",""time""
""blur"",""1"",""19867""
""focus"",""1"",""57722""
""fullscreenenter"",""1"",""82868""
","""event"",""trial"",""time""
""blur"",""1"",""19867""
","""event"",""trial"",""time""
""focus"",""1"",""57722""
","""event"",""trial"",""time""
""fullscreenenter"",""1"",""82868""
","
","","","","","","null","<div style=""font-size:60px;"">+</div>","null","","fixation","","",""
"memory-trial","129","450658","0.0-18.0-1.42","4606","approach_avoid_sv1","""event"",""trial"",""time""
""blur"",""1"",""19867""
""focus"",""1"",""57722""
""fullscreenenter"",""1"",""82868""
","""event"",""trial"",""time""
""blur"",""1"",""19867""
","""event"",""trial"",""time""
""focus"",""1"",""57722""
","""event"",""trial"",""time""
""fullscreenenter"",""1"",""82868""
","
","","","","","","1289.7999999523163","images/table6.png","","","memory_trial","2","maybe_old",""
"html-keyboard-response","130","451168","0.0-18.0-0.43","4606","approach_avoid_sv1","""event"",""trial"",""time""
""blur"",""1"",""19867""
""focus"",""1"",""57722""
""fullscreenenter"",""1"",""82868""
","""event"",""trial"",""time""
""blur"",""1"",""19867""
","""event"",""trial"",""time""
""focus"",""1"",""57722""
","""event"",""trial"",""time""
""fullscreenenter"",""1"",""82868""
","
","","","","","","null","<div style=""font-size:60px;"">+</div>","null","","fixation","","",""
"memory-trial","131","454309","0.0-18.0-1.43","4606","approach_avoid_sv1","""event"",""trial"",""time""
""blur"",""1"",""19867""
""focus"",""1"",""57722""
""fullscreenenter"",""1"",""82868""
","""event"",""trial"",""time""
""blur"",""1"",""19867""
","""event"",""trial"",""time""
""focus"",""1"",""57722""
","""event"",""trial"",""time""
""fullscreenenter"",""1"",""82868""
","
","","","","","","2128.300000190735","images/apple1.png","","","memory_trial","1","definitely_old",""
"html-keyboard-response","132","454818","0.0-18.0-0.44","4606","approach_avoid_sv1","""event"",""trial"",""time""
""blur"",""1"",""19867""
""focus"",""1"",""57722""
""fullscreenenter"",""1"",""82868""
","""event"",""trial"",""time""
""blur"",""1"",""19867""
","""event"",""trial"",""time""
""focus"",""1"",""57722""
","""event"",""trial"",""time""
""fullscreenenter"",""1"",""82868""
","
","","","","","","null","<div style=""font-size:60px;"">+</div>","null","","fixation","","",""
"memory-trial","133","457119","0.0-18.0-1.44","4606","approach_avoid_sv1","""event"",""trial"",""time""
""blur"",""1"",""19867""
""focus"",""1"",""57722""
""fullscreenenter"",""1"",""82868""
","""event"",""trial"",""time""
""blur"",""1"",""19867""
","""event"",""trial"",""time""
""focus"",""1"",""57722""
","""event"",""trial"",""time""
""fullscreenenter"",""1"",""82868""
","
","","","","","","1285.4000000953674","images/horse5.png","","","memory_trial","1","definitely_old",""
"html-keyboard-response","134","457631","0.0-18.0-0.45","4606","approach_avoid_sv1","""event"",""trial"",""time""
""blur"",""1"",""19867""
""focus"",""1"",""57722""
""fullscreenenter"",""1"",""82868""
","""event"",""trial"",""time""
""blur"",""1"",""19867""
","""event"",""trial"",""time""
""focus"",""1"",""57722""
","""event"",""trial"",""time""
""fullscreenenter"",""1"",""82868""
","
","","","","","","null","<div style=""font-size:60px;"">+</div>","null","","fixation","","",""
"memory-trial","135","460384","0.0-18.0-1.45","4606","approach_avoid_sv1","""event"",""trial"",""time""
""blur"",""1"",""19867""
""focus"",""1"",""57722""
""fullscreenenter"",""1"",""82868""
","""event"",""trial"",""time""
""blur"",""1"",""19867""
","""event"",""trial"",""time""
""focus"",""1"",""57722""
","""event"",""trial"",""time""
""fullscreenenter"",""1"",""82868""
","
","","","","","","1749.2999999523163","images/cat8.png","","","memory_trial","3","maybe_new",""
"html-keyboard-response","136","460894","0.0-18.0-0.46","4606","approach_avoid_sv1","""event"",""trial"",""time""
""blur"",""1"",""19867""
""focus"",""1"",""57722""
""fullscreenenter"",""1"",""82868""
","""event"",""trial"",""time""
""blur"",""1"",""19867""
","""event"",""trial"",""time""
""focus"",""1"",""57722""
","""event"",""trial"",""time""
""fullscreenenter"",""1"",""82868""
","
","","","","","","null","<div style=""font-size:60px;"">+</div>","null","","fixation","","",""
"memory-trial","137","463202","0.0-18.0-1.46","4606","approach_avoid_sv1","""event"",""trial"",""time""
""blur"",""1"",""19867""
""focus"",""1"",""57722""
""fullscreenenter"",""1"",""82868""
","""event"",""trial"",""time""
""blur"",""1"",""19867""
","""event"",""trial"",""time""
""focus"",""1"",""57722""
","""event"",""trial"",""time""
""fullscreenenter"",""1"",""82868""
","
","","","","","","1292","images/rodent2.png","","","memory_trial","4","definitely_new",""
"html-keyboard-response","138","463703","0.0-18.0-0.47","4606","approach_avoid_sv1","""event"",""trial"",""time""
""blur"",""1"",""19867""
""focus"",""1"",""57722""
""fullscreenenter"",""1"",""82868""
","""event"",""trial"",""time""
""blur"",""1"",""19867""
","""event"",""trial"",""time""
""focus"",""1"",""57722""
","""event"",""trial"",""time""
""fullscreenenter"",""1"",""82868""
","
","","","","","","null","<div style=""font-size:60px;"">+</div>","null","","fixation","","",""
"memory-trial","139","465694","0.0-18.0-1.47","4606","approach_avoid_sv1","""event"",""trial"",""time""
""blur"",""1"",""19867""
""focus"",""1"",""57722""
""fullscreenenter"",""1"",""82868""
","""event"",""trial"",""time""
""blur"",""1"",""19867""
","""event"",""trial"",""time""
""focus"",""1"",""57722""
","""event"",""trial"",""time""
""fullscreenenter"",""1"",""82868""
","
","","","","","","976.7999999523163","images/orange5.png","","","memory_trial","1","definitely_old",""
"html-keyboard-response","140","466209","0.0-18.0-0.48","4606","approach_avoid_sv1","""event"",""trial"",""time""
""blur"",""1"",""19867""
""focus"",""1"",""57722""
""fullscreenenter"",""1"",""82868""
","""event"",""trial"",""time""
""blur"",""1"",""19867""
","""event"",""trial"",""time""
""focus"",""1"",""57722""
","""event"",""trial"",""time""
""fullscreenenter"",""1"",""82868""
","
","","","","","","null","<div style=""font-size:60px;"">+</div>","null","","fixation","","",""
"memory-trial","141","468639","0.0-18.0-1.48","4606","approach_avoid_sv1","""event"",""trial"",""time""
""blur"",""1"",""19867""
""focus"",""1"",""57722""
""fullscreenenter"",""1"",""82868""
","""event"",""trial"",""time""
""blur"",""1"",""19867""
","""event"",""trial"",""time""
""focus"",""1"",""57722""
","""event"",""trial"",""time""
""fullscreenenter"",""1"",""82868""
","
","","","","","","1418.2999999523163","images/rodent7.png","","","memory_trial","2","maybe_old",""
"html-keyboard-response","142","469144","0.0-18.0-0.49","4606","approach_avoid_sv1","""event"",""trial"",""time""
""blur"",""1"",""19867""
""focus"",""1"",""57722""
""fullscreenenter"",""1"",""82868""
","""event"",""trial"",""time""
""blur"",""1"",""19867""
","""event"",""trial"",""time""
""focus"",""1"",""57722""
","""event"",""trial"",""time""
""fullscreenenter"",""1"",""82868""
","
","","","","","","null","<div style=""font-size:60px;"">+</div>","null","","fixation","","",""
"memory-trial","143","471707","0.0-18.0-1.49","4606","approach_avoid_sv1","""event"",""trial"",""time""
""blur"",""1"",""19867""
""focus"",""1"",""57722""
""fullscreenenter"",""1"",""82868""
","""event"",""trial"",""time""
""blur"",""1"",""19867""
","""event"",""trial"",""time""
""focus"",""1"",""57722""
","""event"",""trial"",""time""
""fullscreenenter"",""1"",""82868""
","
","","","","","","1552.5","images/banana5.png","","","memory_trial","1","definitely_old",""
"html-keyboard-response","144","472221","0.0-18.0-0.50","4606","approach_avoid_sv1","""event"",""trial"",""time""
""blur"",""1"",""19867""
""focus"",""1"",""57722""
""fullscreenenter"",""1"",""82868""
","""event"",""trial"",""time""
""blur"",""1"",""19867""
","""event"",""trial"",""time""
""focus"",""1"",""57722""
","""event"",""trial"",""time""
""fullscreenenter"",""1"",""82868""
","
","","","","","","null","<div style=""font-size:60px;"">+</div>","null","","fixation","","",""
"memory-trial","145","474376","0.0-18.0-1.50","4606","approach_avoid_sv1","""event"",""trial"",""time""
""blur"",""1"",""19867""
""focus"",""1"",""57722""
""fullscreenenter"",""1"",""82868""
","""event"",""trial"",""time""
""blur"",""1"",""19867""
","""event"",""trial"",""time""
""focus"",""1"",""57722""
","""event"",""trial"",""time""
""fullscreenenter"",""1"",""82868""
","
","","","","","","1145.5999999046326","images/rodent6.png","","","memory_trial","4","definitely_new",""
"html-keyboard-response","146","474882","0.0-18.0-0.51","4606","approach_avoid_sv1","""event"",""trial"",""time""
""blur"",""1"",""19867""
""focus"",""1"",""57722""
""fullscreenenter"",""1"",""82868""
","""event"",""trial"",""time""
""blur"",""1"",""19867""
","""event"",""trial"",""time""
""focus"",""1"",""57722""
","""event"",""trial"",""time""
""fullscreenenter"",""1"",""82868""
","
","","","","","","null","<div style=""font-size:60px;"">+</div>","null","","fixation","","",""
"memory-trial","147","477788","0.0-18.0-1.51","4606","approach_avoid_sv1","""event"",""trial"",""time""
""blur"",""1"",""19867""
""focus"",""1"",""57722""
""fullscreenenter"",""1"",""82868""
","""event"",""trial"",""time""
""blur"",""1"",""19867""
","""event"",""trial"",""time""
""focus"",""1"",""57722""
","""event"",""trial"",""time""
""fullscreenenter"",""1"",""82868""
","
","","","","","","1889.7999999523163","images/goat6.png","","","memory_trial","4","definitely_new",""
"html-keyboard-response","148","478296","0.0-18.0-0.52","4606","approach_avoid_sv1","""event"",""trial"",""time""
""blur"",""1"",""19867""
""focus"",""1"",""57722""
""fullscreenenter"",""1"",""82868""
","""event"",""trial"",""time""
""blur"",""1"",""19867""
","""event"",""trial"",""time""
""focus"",""1"",""57722""
","""event"",""trial"",""time""
""fullscreenenter"",""1"",""82868""
","
","","","","","","null","<div style=""font-size:60px;"">+</div>","null","","fixation","","",""
"memory-trial","149","480548","0.0-18.0-1.52","4606","approach_avoid_sv1","""event"",""trial"",""time""
""blur"",""1"",""19867""
""focus"",""1"",""57722""
""fullscreenenter"",""1"",""82868""
","""event"",""trial"",""time""
""blur"",""1"",""19867""
","""event"",""trial"",""time""
""focus"",""1"",""57722""
","""event"",""trial"",""time""
""fullscreenenter"",""1"",""82868""
","
","","","","","","1241.7000000476837","images/horse4.png","","","memory_trial","1","definitely_old",""
"html-keyboard-response","150","481065","0.0-18.0-0.53","4606","approach_avoid_sv1","""event"",""trial"",""time""
""blur"",""1"",""19867""
""focus"",""1"",""57722""
""fullscreenenter"",""1"",""82868""
","""event"",""trial"",""time""
""blur"",""1"",""19867""
","""event"",""trial"",""time""
""focus"",""1"",""57722""
","""event"",""trial"",""time""
""fullscreenenter"",""1"",""82868""
","
","","","","","","null","<div style=""font-size:60px;"">+</div>","null","","fixation","","",""
"memory-trial","151","483976","0.0-18.0-1.53","4606","approach_avoid_sv1","""event"",""trial"",""time""
""blur"",""1"",""19867""
""focus"",""1"",""57722""
""fullscreenenter"",""1"",""82868""
","""event"",""trial"",""time""
""blur"",""1"",""19867""
","""event"",""trial"",""time""
""focus"",""1"",""57722""
","""event"",""trial"",""time""
""fullscreenenter"",""1"",""82868""
","
","","","","","","1898.6000001430511","images/truck6.png","","","memory_trial","1","definitely_old",""
"html-keyboard-response","152","484488","0.0-18.0-0.54","4606","approach_avoid_sv1","""event"",""trial"",""time""
""blur"",""1"",""19867""
""focus"",""1"",""57722""
""fullscreenenter"",""1"",""82868""
","""event"",""trial"",""time""
""blur"",""1"",""19867""
","""event"",""trial"",""time""
""focus"",""1"",""57722""
","""event"",""trial"",""time""
""fullscreenenter"",""1"",""82868""
","
","","","","","","null","<div style=""font-size:60px;"">+</div>","null","","fixation","","",""
"memory-trial","153","487531","0.0-18.0-1.54","4606","approach_avoid_sv1","""event"",""trial"",""time""
""blur"",""1"",""19867""
""focus"",""1"",""57722""
""fullscreenenter"",""1"",""82868""
","""event"",""trial"",""time""
""blur"",""1"",""19867""
","""event"",""trial"",""time""
""focus"",""1"",""57722""
","""event"",""trial"",""time""
""fullscreenenter"",""1"",""82868""
","
","","","","","","2031.1000001430511","images/truck5.png","","","memory_trial","2","maybe_old",""
"html-keyboard-response","154","488049","0.0-18.0-0.55","4606","approach_avoid_sv1","""event"",""trial"",""time""
""blur"",""1"",""19867""
""focus"",""1"",""57722""
""fullscreenenter"",""1"",""82868""
","""event"",""trial"",""time""
""blur"",""1"",""19867""
","""event"",""trial"",""time""
""focus"",""1"",""57722""
","""event"",""trial"",""time""
""fullscreenenter"",""1"",""82868""
","
","","","","","","null","<div style=""font-size:60px;"">+</div>","null","","fixation","","",""
"memory-trial","155","490804","0.0-18.0-1.55","4606","approach_avoid_sv1","""event"",""trial"",""time""
""blur"",""1"",""19867""
""focus"",""1"",""57722""
""fullscreenenter"",""1"",""82868""
","""event"",""trial"",""time""
""blur"",""1"",""19867""
","""event"",""trial"",""time""
""focus"",""1"",""57722""
","""event"",""trial"",""time""
""fullscreenenter"",""1"",""82868""
","
","","","","","","1744.1999998092651","images/tree5.png","","","memory_trial","4","definitely_new",""
"html-keyboard-response","156","491317","0.0-18.0-0.56","4606","approach_avoid_sv1","""event"",""trial"",""time""
""blur"",""1"",""19867""
""focus"",""1"",""57722""
""fullscreenenter"",""1"",""82868""
","""event"",""trial"",""time""
""blur"",""1"",""19867""
","""event"",""trial"",""time""
""focus"",""1"",""57722""
","""event"",""trial"",""time""
""fullscreenenter"",""1"",""82868""
","
","","","","","","null","<div style=""font-size:60px;"">+</div>","null","","fixation","","",""
"memory-trial","157","494846","0.0-18.0-1.56","4606","approach_avoid_sv1","""event"",""trial"",""time""
""blur"",""1"",""19867""
""focus"",""1"",""57722""
""fullscreenenter"",""1"",""82868""
","""event"",""trial"",""time""
""blur"",""1"",""19867""
","""event"",""trial"",""time""
""focus"",""1"",""57722""
","""event"",""trial"",""time""
""fullscreenenter"",""1"",""82868""
","
","","","","","","2516.5999999046326","images/train2.png","","","memory_trial","4","definitely_new",""
"html-keyboard-response","158","495356","0.0-18.0-0.57","4606","approach_avoid_sv1","""event"",""trial"",""time""
""blur"",""1"",""19867""
""focus"",""1"",""57722""
""fullscreenenter"",""1"",""82868""
","""event"",""trial"",""time""
""blur"",""1"",""19867""
","""event"",""trial"",""time""
""focus"",""1"",""57722""
","""event"",""trial"",""time""
""fullscreenenter"",""1"",""82868""
","
","","","","","","null","<div style=""font-size:60px;"">+</div>","null","","fixation","","",""
"memory-trial","159","498532","0.0-18.0-1.57","4606","approach_avoid_sv1","""event"",""trial"",""time""
""blur"",""1"",""19867""
""focus"",""1"",""57722""
""fullscreenenter"",""1"",""82868""
","""event"",""trial"",""time""
""blur"",""1"",""19867""
","""event"",""trial"",""time""
""focus"",""1"",""57722""
","""event"",""trial"",""time""
""fullscreenenter"",""1"",""82868""
","
","","","","","","2160.7000000476837","images/rabbit5.png","","","memory_trial","1","definitely_old",""
"html-keyboard-response","160","499046","0.0-18.0-0.58","4606","approach_avoid_sv1","""event"",""trial"",""time""
""blur"",""1"",""19867""
""focus"",""1"",""57722""
""fullscreenenter"",""1"",""82868""
","""event"",""trial"",""time""
""blur"",""1"",""19867""
","""event"",""trial"",""time""
""focus"",""1"",""57722""
","""event"",""trial"",""time""
""fullscreenenter"",""1"",""82868""
","
","","","","","","null","<div style=""font-size:60px;"">+</div>","null","","fixation","","",""
"memory-trial","161","501398","0.0-18.0-1.58","4606","approach_avoid_sv1","""event"",""trial"",""time""
""blur"",""1"",""19867""
""focus"",""1"",""57722""
""fullscreenenter"",""1"",""82868""
","""event"",""trial"",""time""
""blur"",""1"",""19867""
","""event"",""trial"",""time""
""focus"",""1"",""57722""
","""event"",""trial"",""time""
""fullscreenenter"",""1"",""82868""
","
","","","","","","1335.4000000953674","images/cow1.png","","","memory_trial","1","definitely_old",""
"html-keyboard-response","162","501906","0.0-18.0-0.59","4606","approach_avoid_sv1","""event"",""trial"",""time""
""blur"",""1"",""19867""
""focus"",""1"",""57722""
""fullscreenenter"",""1"",""82868""
","""event"",""trial"",""time""
""blur"",""1"",""19867""
","""event"",""trial"",""time""
""focus"",""1"",""57722""
","""event"",""trial"",""time""
""fullscreenenter"",""1"",""82868""
","
","","","","","","null","<div style=""font-size:60px;"">+</div>","null","","fixation","","",""
"memory-trial","163","504346","0.0-18.0-1.59","4606","approach_avoid_sv1","""event"",""trial"",""time""
""blur"",""1"",""19867""
""focus"",""1"",""57722""
""fullscreenenter"",""1"",""82868""
","""event"",""trial"",""time""
""blur"",""1"",""19867""
","""event"",""trial"",""time""
""focus"",""1"",""57722""
","""event"",""trial"",""time""
""fullscreenenter"",""1"",""82868""
","
","","","","","","1426.5","images/cat2.png","","","memory_trial","1","definitely_old",""
"html-keyboard-response","164","504861","0.0-18.0-0.60","4606","approach_avoid_sv1","""event"",""trial"",""time""
""blur"",""1"",""19867""
""focus"",""1"",""57722""
""fullscreenenter"",""1"",""82868""
","""event"",""trial"",""time""
""blur"",""1"",""19867""
","""event"",""trial"",""time""
""focus"",""1"",""57722""
","""event"",""trial"",""time""
""fullscreenenter"",""1"",""82868""
","
","","","","","","null","<div style=""font-size:60px;"">+</div>","null","","fixation","","",""
"memory-trial","165","506746","0.0-18.0-1.60","4606","approach_avoid_sv1","""event"",""trial"",""time""
""blur"",""1"",""19867""
""focus"",""1"",""57722""
""fullscreenenter"",""1"",""82868""
","""event"",""trial"",""time""
""blur"",""1"",""19867""
","""event"",""trial"",""time""
""focus"",""1"",""57722""
","""event"",""trial"",""time""
""fullscreenenter"",""1"",""82868""
","
","","","","","","871.2999999523163","images/apple2.png","","","memory_trial","1","definitely_old",""
"html-keyboard-response","166","507261","0.0-18.0-0.61","4606","approach_avoid_sv1","""event"",""trial"",""time""
""blur"",""1"",""19867""
""focus"",""1"",""57722""
""fullscreenenter"",""1"",""82868""
","""event"",""trial"",""time""
""blur"",""1"",""19867""
","""event"",""trial"",""time""
""focus"",""1"",""57722""
","""event"",""trial"",""time""
""fullscreenenter"",""1"",""82868""
","
","","","","","","null","<div style=""font-size:60px;"">+</div>","null","","fixation","","",""
"memory-trial","167","509625","0.0-18.0-1.61","4606","approach_avoid_sv1","""event"",""trial"",""time""
""blur"",""1"",""19867""
""focus"",""1"",""57722""
""fullscreenenter"",""1"",""82868""
","""event"",""trial"",""time""
""blur"",""1"",""19867""
","""event"",""trial"",""time""
""focus"",""1"",""57722""
","""event"",""trial"",""time""
""fullscreenenter"",""1"",""82868""
","
","","","","","","1353.5","images/rabbit2.png","","","memory_trial","1","definitely_old",""
"html-keyboard-response","168","510129","0.0-18.0-0.62","4606","approach_avoid_sv1","""event"",""trial"",""time""
""blur"",""1"",""19867""
""focus"",""1"",""57722""
""fullscreenenter"",""1"",""82868""
","""event"",""trial"",""time""
""blur"",""1"",""19867""
","""event"",""trial"",""time""
""focus"",""1"",""57722""
","""event"",""trial"",""time""
""fullscreenenter"",""1"",""82868""
","
","","","","","","null","<div style=""font-size:60px;"">+</div>","null","","fixation","","",""
"memory-trial","169","512266","0.0-18.0-1.62","4606","approach_avoid_sv1","""event"",""trial"",""time""
""blur"",""1"",""19867""
""focus"",""1"",""57722""
""fullscreenenter"",""1"",""82868""
","""event"",""trial"",""time""
""blur"",""1"",""19867""
","""event"",""trial"",""time""
""focus"",""1"",""57722""
","""event"",""trial"",""time""
""fullscreenenter"",""1"",""82868""
","
","","","","","","1126.5999999046326","images/tree6.png","","","memory_trial","4","definitely_new",""
"html-keyboard-response","170","512776","0.0-18.0-0.63","4606","approach_avoid_sv1","""event"",""trial"",""time""
""blur"",""1"",""19867""
""focus"",""1"",""57722""
""fullscreenenter"",""1"",""82868""
","""event"",""trial"",""time""
""blur"",""1"",""19867""
","""event"",""trial"",""time""
""focus"",""1"",""57722""
","""event"",""trial"",""time""
""fullscreenenter"",""1"",""82868""
","
","","","","","","null","<div style=""font-size:60px;"">+</div>","null","","fixation","","",""
"memory-trial","171","514596","0.0-18.0-1.63","4606","approach_avoid_sv1","""event"",""trial"",""time""
""blur"",""1"",""19867""
""focus"",""1"",""57722""
""fullscreenenter"",""1"",""82868""
","""event"",""trial"",""time""
""blur"",""1"",""19867""
","""event"",""trial"",""time""
""focus"",""1"",""57722""
","""event"",""trial"",""time""
""fullscreenenter"",""1"",""82868""
","
","","","","","","806.2999999523163","images/orange4.png","","","memory_trial","1","definitely_old",""
"html-keyboard-response","172","515106","0.0-18.0-0.64","4606","approach_avoid_sv1","""event"",""trial"",""time""
""blur"",""1"",""19867""
""focus"",""1"",""57722""
""fullscreenenter"",""1"",""82868""
","""event"",""trial"",""time""
""blur"",""1"",""19867""
","""event"",""trial"",""time""
""focus"",""1"",""57722""
","""event"",""trial"",""time""
""fullscreenenter"",""1"",""82868""
","
","","","","","","null","<div style=""font-size:60px;"">+</div>","null","","fixation","","",""
"memory-trial","173","518136","0.0-18.0-1.64","4606","approach_avoid_sv1","""event"",""trial"",""time""
""blur"",""1"",""19867""
""focus"",""1"",""57722""
""fullscreenenter"",""1"",""82868""
","""event"",""trial"",""time""
""blur"",""1"",""19867""
","""event"",""trial"",""time""
""focus"",""1"",""57722""
","""event"",""trial"",""time""
""fullscreenenter"",""1"",""82868""
","
","","","","","","2010.7999999523163","images/sheep6.png","","","memory_trial","1","definitely_old",""
"html-keyboard-response","174","518644","0.0-18.0-0.65","4606","approach_avoid_sv1","""event"",""trial"",""time""
""blur"",""1"",""19867""
""focus"",""1"",""57722""
""fullscreenenter"",""1"",""82868""
","""event"",""trial"",""time""
""blur"",""1"",""19867""
","""event"",""trial"",""time""
""focus"",""1"",""57722""
","""event"",""trial"",""time""
""fullscreenenter"",""1"",""82868""
","
","","","","","","null","<div style=""font-size:60px;"">+</div>","null","","fixation","","",""
"memory-trial","175","522297","0.0-18.0-1.65","4606","approach_avoid_sv1","""event"",""trial"",""time""
""blur"",""1"",""19867""
""focus"",""1"",""57722""
""fullscreenenter"",""1"",""82868""
","""event"",""trial"",""time""
""blur"",""1"",""19867""
","""event"",""trial"",""time""
""focus"",""1"",""57722""
","""event"",""trial"",""time""
""fullscreenenter"",""1"",""82868""
","
","","","","","","2639","images/bush6.png","","","memory_trial","2","maybe_old",""
"html-keyboard-response","176","522812","0.0-18.0-0.66","4606","approach_avoid_sv1","""event"",""trial"",""time""
""blur"",""1"",""19867""
""focus"",""1"",""57722""
""fullscreenenter"",""1"",""82868""
","""event"",""trial"",""time""
""blur"",""1"",""19867""
","""event"",""trial"",""time""
""focus"",""1"",""57722""
","""event"",""trial"",""time""
""fullscreenenter"",""1"",""82868""
","
","","","","","","null","<div style=""font-size:60px;"">+</div>","null","","fixation","","",""
"memory-trial","177","524682","0.0-18.0-1.66","4606","approach_avoid_sv1","""event"",""trial"",""time""
""blur"",""1"",""19867""
""focus"",""1"",""57722""
""fullscreenenter"",""1"",""82868""
","""event"",""trial"",""time""
""blur"",""1"",""19867""
","""event"",""trial"",""time""
""focus"",""1"",""57722""
","""event"",""trial"",""time""
""fullscreenenter"",""1"",""82868""
","
","","","","","","860","images/boat3.png","","","memory_trial","1","definitely_old",""
"html-keyboard-response","178","525191","0.0-18.0-0.67","4606","approach_avoid_sv1","""event"",""trial"",""time""
""blur"",""1"",""19867""
""focus"",""1"",""57722""
""fullscreenenter"",""1"",""82868""
","""event"",""trial"",""time""
""blur"",""1"",""19867""
","""event"",""trial"",""time""
""focus"",""1"",""57722""
","""event"",""trial"",""time""
""fullscreenenter"",""1"",""82868""
","
","","","","","","null","<div style=""font-size:60px;"">+</div>","null","","fixation","","",""
"memory-trial","179","528370","0.0-18.0-1.67","4606","approach_avoid_sv1","""event"",""trial"",""time""
""blur"",""1"",""19867""
""focus"",""1"",""57722""
""fullscreenenter"",""1"",""82868""
","""event"",""trial"",""time""
""blur"",""1"",""19867""
","""event"",""trial"",""time""
""focus"",""1"",""57722""
","""event"",""trial"",""time""
""fullscreenenter"",""1"",""82868""
","
","","","","","","2167.399999856949","images/truck7.png","","","memory_trial","1","definitely_old",""
"html-keyboard-response","180","528895","0.0-18.0-0.68","4606","approach_avoid_sv1","""event"",""trial"",""time""
""blur"",""1"",""19867""
""focus"",""1"",""57722""
""fullscreenenter"",""1"",""82868""
","""event"",""trial"",""time""
""blur"",""1"",""19867""
","""event"",""trial"",""time""
""focus"",""1"",""57722""
","""event"",""trial"",""time""
""fullscreenenter"",""1"",""82868""
","
","","","","","","null","<div style=""font-size:60px;"">+</div>","null","","fixation","","",""
"memory-trial","181","532302","0.0-18.0-1.68","4606","approach_avoid_sv1","""event"",""trial"",""time""
""blur"",""1"",""19867""
""focus"",""1"",""57722""
""fullscreenenter"",""1"",""82868""
","""event"",""trial"",""time""
""blur"",""1"",""19867""
","""event"",""trial"",""time""
""focus"",""1"",""57722""
","""event"",""trial"",""time""
""fullscreenenter"",""1"",""82868""
","
","","","","","","2390.0999999046326","images/cat5.png","","","memory_trial","4","definitely_new",""
"html-keyboard-response","182","532817","0.0-18.0-0.69","4606","approach_avoid_sv1","""event"",""trial"",""time""
""blur"",""1"",""19867""
""focus"",""1"",""57722""
""fullscreenenter"",""1"",""82868""
","""event"",""trial"",""time""
""blur"",""1"",""19867""
","""event"",""trial"",""time""
""focus"",""1"",""57722""
","""event"",""trial"",""time""
""fullscreenenter"",""1"",""82868""
","
","","","","","","null","<div style=""font-size:60px;"">+</div>","null","","fixation","","",""
"memory-trial","183","537096","0.0-18.0-1.69","4606","approach_avoid_sv1","""event"",""trial"",""time""
""blur"",""1"",""19867""
""focus"",""1"",""57722""
""fullscreenenter"",""1"",""82868""
","""event"",""trial"",""time""
""blur"",""1"",""19867""
","""event"",""trial"",""time""
""focus"",""1"",""57722""
","""event"",""trial"",""time""
""fullscreenenter"",""1"",""82868""
","
","","","","","","3256.5999999046326","images/apple7.png","","","memory_trial","3","maybe_new",""
"html-keyboard-response","184","537600","0.0-18.0-0.70","4606","approach_avoid_sv1","""event"",""trial"",""time""
""blur"",""1"",""19867""
""focus"",""1"",""57722""
""fullscreenenter"",""1"",""82868""
","""event"",""trial"",""time""
""blur"",""1"",""19867""
","""event"",""trial"",""time""
""focus"",""1"",""57722""
","""event"",""trial"",""time""
""fullscreenenter"",""1"",""82868""
","
","","","","","","null","<div style=""font-size:60px;"">+</div>","null","","fixation","","",""
"memory-trial","185","540806","0.0-18.0-1.70","4606","approach_avoid_sv1","""event"",""trial"",""time""
""blur"",""1"",""19867""
""focus"",""1"",""57722""
""fullscreenenter"",""1"",""82868""
","""event"",""trial"",""time""
""blur"",""1"",""19867""
","""event"",""trial"",""time""
""focus"",""1"",""57722""
","""event"",""trial"",""time""
""fullscreenenter"",""1"",""82868""
","
","","","","","","2200.5","images/straw8.png","","","memory_trial","4","definitely_new",""
"html-keyboard-response","186","541312","0.0-18.0-0.71","4606","approach_avoid_sv1","""event"",""trial"",""time""
""blur"",""1"",""19867""
""focus"",""1"",""57722""
""fullscreenenter"",""1"",""82868""
","""event"",""trial"",""time""
""blur"",""1"",""19867""
","""event"",""trial"",""time""
""focus"",""1"",""57722""
","""event"",""trial"",""time""
""fullscreenenter"",""1"",""82868""
","
","","","","","","null","<div style=""font-size:60px;"">+</div>","null","","fixation","","",""
"memory-trial","187","543177","0.0-18.0-1.71","4606","approach_avoid_sv1","""event"",""trial"",""time""
""blur"",""1"",""19867""
""focus"",""1"",""57722""
""fullscreenenter"",""1"",""82868""
","""event"",""trial"",""time""
""blur"",""1"",""19867""
","""event"",""trial"",""time""
""focus"",""1"",""57722""
","""event"",""trial"",""time""
""fullscreenenter"",""1"",""82868""
","
","","","","","","849.8999998569489","images/orange1.png","","","memory_trial","1","definitely_old",""
"html-keyboard-response","188","543690","0.0-18.0-0.72","4606","approach_avoid_sv1","""event"",""trial"",""time""
""blur"",""1"",""19867""
""focus"",""1"",""57722""
""fullscreenenter"",""1"",""82868""
","""event"",""trial"",""time""
""blur"",""1"",""19867""
","""event"",""trial"",""time""
""focus"",""1"",""57722""
","""event"",""trial"",""time""
""fullscreenenter"",""1"",""82868""
","
","","","","","","null","<div style=""font-size:60px;"">+</div>","null","","fixation","","",""
"memory-trial","189","545472","0.0-18.0-1.72","4606","approach_avoid_sv1","""event"",""trial"",""time""
""blur"",""1"",""19867""
""focus"",""1"",""57722""
""fullscreenenter"",""1"",""82868""
","""event"",""trial"",""time""
""blur"",""1"",""19867""
","""event"",""trial"",""time""
""focus"",""1"",""57722""
","""event"",""trial"",""time""
""fullscreenenter"",""1"",""82868""
","
","","","","","","773.5999999046326","images/cat7.png","","","memory_trial","1","definitely_old",""
"html-keyboard-response","190","545982","0.0-18.0-0.73","4606","approach_avoid_sv1","""event"",""trial"",""time""
""blur"",""1"",""19867""
""focus"",""1"",""57722""
""fullscreenenter"",""1"",""82868""
","""event"",""trial"",""time""
""blur"",""1"",""19867""
","""event"",""trial"",""time""
""focus"",""1"",""57722""
","""event"",""trial"",""time""
""fullscreenenter"",""1"",""82868""
","
","","","","","","null","<div style=""font-size:60px;"">+</div>","null","","fixation","","",""
"memory-trial","191","548800","0.0-18.0-1.73","4606","approach_avoid_sv1","""event"",""trial"",""time""
""blur"",""1"",""19867""
""focus"",""1"",""57722""
""fullscreenenter"",""1"",""82868""
","""event"",""trial"",""time""
""blur"",""1"",""19867""
","""event"",""trial"",""time""
""focus"",""1"",""57722""
","""event"",""trial"",""time""
""fullscreenenter"",""1"",""82868""
","
","","","","","","1808.5","images/sofa5.png","","","memory_trial","3","maybe_new",""
"html-keyboard-response","192","549317","0.0-18.0-0.74","4606","approach_avoid_sv1","""event"",""trial"",""time""
""blur"",""1"",""19867""
""focus"",""1"",""57722""
""fullscreenenter"",""1"",""82868""
","""event"",""trial"",""time""
""blur"",""1"",""19867""
","""event"",""trial"",""time""
""focus"",""1"",""57722""
","""event"",""trial"",""time""
""fullscreenenter"",""1"",""82868""
","
","","","","","","null","<div style=""font-size:60px;"">+</div>","null","","fixation","","",""
"memory-trial","193","552352","0.0-18.0-1.74","4606","approach_avoid_sv1","""event"",""trial"",""time""
""blur"",""1"",""19867""
""focus"",""1"",""57722""
""fullscreenenter"",""1"",""82868""
","""event"",""trial"",""time""
""blur"",""1"",""19867""
","""event"",""trial"",""time""
""focus"",""1"",""57722""
","""event"",""trial"",""time""
""fullscreenenter"",""1"",""82868""
","
","","","","","","2030","images/cow7.png","","","memory_trial","1","definitely_old",""
"html-keyboard-response","194","552855","0.0-18.0-0.75","4606","approach_avoid_sv1","""event"",""trial"",""time""
""blur"",""1"",""19867""
""focus"",""1"",""57722""
""fullscreenenter"",""1"",""82868""
","""event"",""trial"",""time""
""blur"",""1"",""19867""
","""event"",""trial"",""time""
""focus"",""1"",""57722""
","""event"",""trial"",""time""
""fullscreenenter"",""1"",""82868""
","
","","","","","","null","<div style=""font-size:60px;"">+</div>","null","","fixation","","",""
"memory-trial","195","554892","0.0-18.0-1.75","4606","approach_avoid_sv1","""event"",""trial"",""time""
""blur"",""1"",""19867""
""focus"",""1"",""57722""
""fullscreenenter"",""1"",""82868""
","""event"",""trial"",""time""
""blur"",""1"",""19867""
","""event"",""trial"",""time""
""focus"",""1"",""57722""
","""event"",""trial"",""time""
""fullscreenenter"",""1"",""82868""
","
","","","","","","1023.2999999523163","images/table8.png","","","memory_trial","1","definitely_old",""
"html-keyboard-response","196","555402","0.0-18.0-0.76","4606","approach_avoid_sv1","""event"",""trial"",""time""
""blur"",""1"",""19867""
""focus"",""1"",""57722""
""fullscreenenter"",""1"",""82868""
","""event"",""trial"",""time""
""blur"",""1"",""19867""
","""event"",""trial"",""time""
""focus"",""1"",""57722""
","""event"",""trial"",""time""
""fullscreenenter"",""1"",""82868""
","
","","","","","","null","<div style=""font-size:60px;"">+</div>","null","","fixation","","",""
"memory-trial","197","557498","0.0-18.0-1.76","4606","approach_avoid_sv1","""event"",""trial"",""time""
""blur"",""1"",""19867""
""focus"",""1"",""57722""
""fullscreenenter"",""1"",""82868""
","""event"",""trial"",""time""
""blur"",""1"",""19867""
","""event"",""trial"",""time""
""focus"",""1"",""57722""
","""event"",""trial"",""time""
""fullscreenenter"",""1"",""82868""
","
","","","","","","1088.6000001430511","images/sheep8.png","","","memory_trial","4","definitely_new",""
"html-keyboard-response","198","558009","0.0-18.0-0.77","4606","approach_avoid_sv1","""event"",""trial"",""time""
""blur"",""1"",""19867""
""focus"",""1"",""57722""
