"trial_type","trial_index","time_elapsed","internal_node_id","subject_id","task_version","interactions","blur_events","focus_events","fullscreenenter_events","fullscreenexit_events","success","timeout","failed_images","failed_audio","failed_video","rt","stimulus","response","button_pressed","task_part","key_press","answer","correct"
"pavlovia","0","11","0.0-0.0","6382","approach_avoid_sv1","""event"",""trial"",""time""
""fullscreenenter"",""1"",""4457""
","
","
","""event"",""trial"",""time""
""fullscreenenter"",""1"",""4457""
","
","","","","","","","","","","","","",""
"fullscreen","1","5127","0.0-1.0","6382","approach_avoid_sv1","""event"",""trial"",""time""
""fullscreenenter"",""1"",""4457""
","
","
","""event"",""trial"",""time""
""fullscreenenter"",""1"",""4457""
","
","true","","","","","","","","","","","",""
"preload","2","33154","0.0-2.0","6382","approach_avoid_sv1","""event"",""trial"",""time""
""fullscreenenter"",""1"",""4457""
","
","
","""event"",""trial"",""time""
""fullscreenenter"",""1"",""4457""
","
","true","false","[]","[]","[]","","","","","","","",""
"preload","3","63174","0.0-3.0","6382","approach_avoid_sv1","""event"",""trial"",""time""
""fullscreenenter"",""1"",""4457""
","
","
","""event"",""trial"",""time""
""fullscreenenter"",""1"",""4457""
","
","true","false","[]","[]","[]","","","","","","","",""
"preload","4","65911","0.0-4.0","6382","approach_avoid_sv1","""event"",""trial"",""time""
""fullscreenenter"",""1"",""4457""
","
","
","""event"",""trial"",""time""
""fullscreenenter"",""1"",""4457""
","
","true","false","[]","[]","[]","","","","","","","",""
"audio-keyboard-response","5","69530","0.0-5.0","6382","approach_avoid_sv1","""event"",""trial"",""time""
""fullscreenenter"",""1"",""4457""
","
","
","""event"",""trial"",""time""
""fullscreenenter"",""1"",""4457""
","
","","","","","","3610.6666666666665","audio/beep_loop.wav"," ","","","","",""
"audio-button-response","6","74638","0.0-6.0","6382","approach_avoid_sv1","""event"",""trial"",""time""
""fullscreenenter"",""1"",""4457""
","
","
","""event"",""trial"",""time""
""fullscreenenter"",""1"",""4457""
","
","","","","","","5099","audio/turtle.wav","3","","","","",""
"audio-button-response","7","77561","0.0-7.0","6382","approach_avoid_sv1","""event"",""trial"",""time""
""fullscreenenter"",""1"",""4457""
","
","
","""event"",""trial"",""time""
""fullscreenenter"",""1"",""4457""
","
","","","","","","1909","audio/shark.wav","2","","","","",""
"preload","8","116642","0.0-8.0","6382","approach_avoid_sv1","""event"",""trial"",""time""
""fullscreenenter"",""1"",""4457""
","
","
","""event"",""trial"",""time""
""fullscreenenter"",""1"",""4457""
","
","true","false","[]","[]","[]","","","","","","","",""
"learning-instructions","9","124973","0.0-9.0-0.0","6382","approach_avoid_sv1","""event"",""trial"",""time""
""fullscreenenter"",""1"",""4457""
","
","
","""event"",""trial"",""time""
""fullscreenenter"",""1"",""4457""
","
","","","","","","3546.100000023842","<p> Welcome back! </p><p> Last week, you had to make choices about lots of different items.  </p>","","0","instructions","","",""
"learning-instructions","10","129980","0.0-9.0-0.1","6382","approach_avoid_sv1","""event"",""trial"",""time""
""fullscreenenter"",""1"",""4457""
","
","
","""event"",""trial"",""time""
""fullscreenenter"",""1"",""4457""
","
","","","","","","873.8999999761581","<p> Today, we are going to ask you to try to remember all the items. </p>","","0","instructions","","",""
"learning-instructions","11","140897","0.0-9.0-0.2","6382","approach_avoid_sv1","""event"",""trial"",""time""
""fullscreenenter"",""1"",""4457""
","
","
","""event"",""trial"",""time""
""fullscreenenter"",""1"",""4457""
","
","","","","","","771.2000000476837","<p> On every trial, you will see an image. </p><p> The image may be an OLD image you saw during the games last week or it may be a NEW image that was not presented. </p>","","0","instructions","","",""
"learning-instructions","12","150145","0.0-9.0-0.3","6382","approach_avoid_sv1","""event"",""trial"",""time""
""fullscreenenter"",""1"",""4457""
","
","
","""event"",""trial"",""time""
""fullscreenenter"",""1"",""4457""
","
","","","","","","738.1000000238419","<p> You need to select whether the image is:  </p><p>  'Definitely old', 'Maybe old', 'Maybe new', or 'Definitely new.'  </p><div class=""mem-choice-instructions-grid""><div class=""choice-option"" id=""choice-option-1"" ><img src=""images/definitely_old_1.png"" id=""choice-option-img-1"" class=""choice-option-img"" stage=""1""></div><div class=""choice-option"" id=""choice-option-2"" ><img src=""images/maybe_old_1.png"" id=""choice-option-img-2"" class=""choice-option-img"" stage=""1""></div><div class=""choice-option"" id=""choice-option-3"" ><img src=""images/maybe_new_1.png"" id=""choice-option-img-3"" class=""choice-option-img"" stage=""1""></div><div class=""choice-option"" id=""choice-option-4"" > <img src=""images/definitely_new_1.png"" id=""choice-option-img-4"" class=""choice-option-img"" stage=""1""></div></div>","","0","instructions","","",""
"learning-instructions","13","161801","0.0-9.0-0.4","6382","approach_avoid_sv1","""event"",""trial"",""time""
""fullscreenenter"",""1"",""4457""
","
","
","""event"",""trial"",""time""
""fullscreenenter"",""1"",""4457""
","
","","","","","","5143.799999952316","<p> You should use the 1, 2, 3, and 4 keys to make your responses.  </p><div class=""mem-choice-instructions-grid""><div class=""choice-option"" id=""choice-option-1"" ><img src=""images/definitely_old.png"" id=""choice-option-img-1"" class=""choice-option-img"" stage=""1""></div><div class=""choice-option"" id=""choice-option-2"" ><img src=""images/maybe_old.png"" id=""choice-option-img-2"" class=""choice-option-img"" stage=""1""></div><div class=""choice-option"" id=""choice-option-3"" ><img src=""images/maybe_new.png"" id=""choice-option-img-3"" class=""choice-option-img"" stage=""1""></div><div class=""choice-option"" id=""choice-option-4"" > <img src=""images/definitely_new.png"" id=""choice-option-img-4"" class=""choice-option-img"" stage=""1""></div></div>","","0","instructions","","",""
"learning-instructions","14","169481","0.0-9.0-0.5","6382","approach_avoid_sv1","""event"",""trial"",""time""
""fullscreenenter"",""1"",""4457""
","
","
","""event"",""trial"",""time""
""fullscreenenter"",""1"",""4457""
","
","","","","","","1344.5","<p> You will have 10 seconds to make each response.  </p><p>  Make sure to respond before time runs out! </p>","","0","instructions","","",""
"learning-instructions","15","177374","0.0-9.0-0.6","6382","approach_avoid_sv1","""event"",""trial"",""time""
""fullscreenenter"",""1"",""4457""
","
","
","""event"",""trial"",""time""
""fullscreenenter"",""1"",""4457""
","
","","","","","","817.7999999523163","<p> Today, you will see each image ONCE only.  </p><p>  That means none of the images will repeat. </p>","","0","instructions","","",""
"learning-instructions","16","191741","0.0-9.0-0.7","6382","approach_avoid_sv1","""event"",""trial"",""time""
""fullscreenenter"",""1"",""4457""
","
","
","""event"",""trial"",""time""
""fullscreenenter"",""1"",""4457""
","
","","","","","","1695.0999999046326","<p> Before you play the real game, it is time to practice. </p><p>  Just like in the real game, some of the images in the practice will be ones you have seen before. </p><p>  Others will be entirely new. </p>","","0","instructions","","",""
"html-button-response","17","198455","0.0-10.0","6382","approach_avoid_sv1","""event"",""trial"",""time""
""fullscreenenter"",""1"",""4457""
","
","
","""event"",""trial"",""time""
""fullscreenenter"",""1"",""4457""
","
","","","","","","6608.100000023842","<p> Ready to practice? </p><p> Remember, use the 1, 2, 3, and 4 keys to make your responses. </p>","0","","instructions","","",""
"html-keyboard-response","18","199081","0.0-11.0-0.0","6382","approach_avoid_sv1","""event"",""trial"",""time""
""fullscreenenter"",""1"",""4457""
","
","
","""event"",""trial"",""time""
""fullscreenenter"",""1"",""4457""
","
","","","","","","null","<div style=""font-size:60px;"">+</div>","null","","fixation","","",""
"memory-trial","19","202033","0.0-11.0-1.0","6382","approach_avoid_sv1","""event"",""trial"",""time""
""fullscreenenter"",""1"",""4457""
","
","
","""event"",""trial"",""time""
""fullscreenenter"",""1"",""4457""
","
","","","","","","1943.3000000715256","images/racket2.png","","","practice","1","definitely_old",""
"html-keyboard-response","20","202543","0.0-11.0-0.1","6382","approach_avoid_sv1","""event"",""trial"",""time""
""fullscreenenter"",""1"",""4457""
","
","
","""event"",""trial"",""time""
""fullscreenenter"",""1"",""4457""
","
","","","","","","null","<div style=""font-size:60px;"">+</div>","null","","fixation","","",""
"memory-trial","21","205053","0.0-11.0-1.1","6382","approach_avoid_sv1","""event"",""trial"",""time""
""fullscreenenter"",""1"",""4457""
","
","
","""event"",""trial"",""time""
""fullscreenenter"",""1"",""4457""
","
","","","","","","1500.5","images/racket5.png","","","practice","1","definitely_old",""
"html-keyboard-response","22","205573","0.0-11.0-0.2","6382","approach_avoid_sv1","""event"",""trial"",""time""
""fullscreenenter"",""1"",""4457""
","
","
","""event"",""trial"",""time""
""fullscreenenter"",""1"",""4457""
","
","","","","","","null","<div style=""font-size:60px;"">+</div>","null","","fixation","","",""
"memory-trial","23","207803","0.0-11.0-1.2","6382","approach_avoid_sv1","""event"",""trial"",""time""
""fullscreenenter"",""1"",""4457""
","
","
","""event"",""trial"",""time""
""fullscreenenter"",""1"",""4457""
","
","","","","","","1208.2000000476837","images/ball3.png","","","practice","1","definitely_old",""
"html-keyboard-response","24","208314","0.0-11.0-0.3","6382","approach_avoid_sv1","""event"",""trial"",""time""
""fullscreenenter"",""1"",""4457""
","
","
","""event"",""trial"",""time""
""fullscreenenter"",""1"",""4457""
","
","","","","","","null","<div style=""font-size:60px;"">+</div>","null","","fixation","","",""
"memory-trial","25","210183","0.0-11.0-1.3","6382","approach_avoid_sv1","""event"",""trial"",""time""
""fullscreenenter"",""1"",""4457""
","
","
","""event"",""trial"",""time""
""fullscreenenter"",""1"",""4457""
","
","","","","","","858.8000000715256","images/ball2.png","","","practice","1","definitely_old",""
"html-keyboard-response","26","210703","0.0-11.0-0.4","6382","approach_avoid_sv1","""event"",""trial"",""time""
""fullscreenenter"",""1"",""4457""
","
","
","""event"",""trial"",""time""
""fullscreenenter"",""1"",""4457""
","
","","","","","","null","<div style=""font-size:60px;"">+</div>","null","","fixation","","",""
"memory-trial","27","213736","0.0-11.0-1.4","6382","approach_avoid_sv1","""event"",""trial"",""time""
""fullscreenenter"",""1"",""4457""
","
","
","""event"",""trial"",""time""
""fullscreenenter"",""1"",""4457""
","
","","","","","","2016.7000000476837","images/racket1.png","","","practice","2","maybe_old",""
"html-keyboard-response","28","214255","0.0-11.0-0.5","6382","approach_avoid_sv1","""event"",""trial"",""time""
""fullscreenenter"",""1"",""4457""
","
","
","""event"",""trial"",""time""
""fullscreenenter"",""1"",""4457""
","
","","","","","","null","<div style=""font-size:60px;"">+</div>","null","","fixation","","",""
"memory-trial","29","216404","0.0-11.0-1.5","6382","approach_avoid_sv1","""event"",""trial"",""time""
""fullscreenenter"",""1"",""4457""
","
","
","""event"",""trial"",""time""
""fullscreenenter"",""1"",""4457""
","
","","","","","","1127.9000000953674","images/racket3.png","","","practice","1","definitely_old",""
"html-keyboard-response","30","216923","0.0-11.0-0.6","6382","approach_avoid_sv1","""event"",""trial"",""time""
""fullscreenenter"",""1"",""4457""
","
","
","""event"",""trial"",""time""
""fullscreenenter"",""1"",""4457""
","
","","","","","","null","<div style=""font-size:60px;"">+</div>","null","","fixation","","",""
"memory-trial","31","219374","0.0-11.0-1.6","6382","approach_avoid_sv1","""event"",""trial"",""time""
""fullscreenenter"",""1"",""4457""
","
","
","""event"",""trial"",""time""
""fullscreenenter"",""1"",""4457""
","
","","","","","","1431.6999999284744","images/ball1.png","","","practice","1","definitely_old",""
"html-keyboard-response","32","219884","0.0-11.0-0.7","6382","approach_avoid_sv1","""event"",""trial"",""time""
""fullscreenenter"",""1"",""4457""
","
","
","""event"",""trial"",""time""
""fullscreenenter"",""1"",""4457""
","
","","","","","","null","<div style=""font-size:60px;"">+</div>","null","","fixation","","",""
"memory-trial","33","222044","0.0-11.0-1.7","6382","approach_avoid_sv1","""event"",""trial"",""time""
""fullscreenenter"",""1"",""4457""
","
","
","""event"",""trial"",""time""
""fullscreenenter"",""1"",""4457""
","
","","","","","","1151.5","images/ball5.png","","","practice","2","maybe_old",""
"learning-instructions","34","230616","0.0-12.0-0.0","6382","approach_avoid_sv1","""event"",""trial"",""time""
""fullscreenenter"",""1"",""4457""
","
","
","""event"",""trial"",""time""
""fullscreenenter"",""1"",""4457""
","
","","","","","","1279.3999999761581","<p> Great! You have completed the practice. </p><p> Before you start, we're going to ask you a few questions about how the game works.  </p>","","0","instructions","","",""
"preload","35","255403","0.0-13.0","6382","approach_avoid_sv1","""event"",""trial"",""time""
""fullscreenenter"",""1"",""4457""
","
","
","""event"",""trial"",""time""
""fullscreenenter"",""1"",""4457""
","
","true","false","[]","[]","[]","","","","","","","",""
"comp-q","36","262909","0.0-14.0-0.0","6382","approach_avoid_sv1","""event"",""trial"",""time""
""fullscreenenter"",""1"",""4457""
","
","
","""event"",""trial"",""time""
""fullscreenenter"",""1"",""4457""
","
","","","","","","1672.1000000238419","<p> <b> True or False? </b> </p><p> In this game, you will only see each image once. </p>","","0","comp_question","","","true"
"comp-q","37","270842","0.0-14.0-1.0","6382","approach_avoid_sv1","""event"",""trial"",""time""
""fullscreenenter"",""1"",""4457""
","
","
","""event"",""trial"",""time""
""fullscreenenter"",""1"",""4457""
","
","","","","","","1572.8999999761581","<p> <b> That's right! </b> You will see many different images <i> one time each </i> in this game. </p>","","0","comp_answer","","",""
"comp-q","38","277406","0.0-15.0-0.0","6382","approach_avoid_sv1","""event"",""trial"",""time""
""fullscreenenter"",""1"",""4457""
","
","
","""event"",""trial"",""time""
""fullscreenenter"",""1"",""4457""
","
","","","","","","1547.1000000238419","<p> <b> True or False? </b> </p><p> You should use the mouse and click to make your response. </p>","","1","comp_question","","","true"
"comp-q","39","285551","0.0-15.0-1.0","6382","approach_avoid_sv1","""event"",""trial"",""time""
""fullscreenenter"",""1"",""4457""
","
","
","""event"",""trial"",""time""
""fullscreenenter"",""1"",""4457""
","
","","","","","","1625","<p><b> That's right! </b> You should use the '1', '2', '3', and '4' keys to make your response. </p>","","0","comp_answer","","",""
"comp-q","40","292881","0.0-16.0-0.0","6382","approach_avoid_sv1","""event"",""trial"",""time""
""fullscreenenter"",""1"",""4457""
","
","
","""event"",""trial"",""time""
""fullscreenenter"",""1"",""4457""
","
","","","","","","1654.3000000715256","<p> <b> True or False? </b> </p><p> You will have as much time as you want to make each choice. </p>","","1","comp_question","","","true"
"comp-q","41","300362","0.0-16.0-1.0","6382","approach_avoid_sv1","""event"",""trial"",""time""
""fullscreenenter"",""1"",""4457""
","
","
","""event"",""trial"",""time""
""fullscreenenter"",""1"",""4457""
","
","","","","","","2775.8000000715256","<p> <b> That's right! </b> You will only have 10 seconds to make each choice. </p>","","0","comp_answer","","",""
"learning-instructions","42","312612","0.0-17.0","6382","approach_avoid_sv1","""event"",""trial"",""time""
""fullscreenenter"",""1"",""4457""
","
","
","""event"",""trial"",""time""
""fullscreenenter"",""1"",""4457""
","
","","","","","","3573.8000000715256","<p> Great! You are now ready to begin the game. </p><p> Remember, use the 1, 2, 3, and 4 keys to make your responses. </p>","","0","instructions","","",""
"html-keyboard-response","43","313227","0.0-18.0-0.0","6382","approach_avoid_sv1","""event"",""trial"",""time""
""fullscreenenter"",""1"",""4457""
","
","
","""event"",""trial"",""time""
""fullscreenenter"",""1"",""4457""
","
","","","","","","null","<div style=""font-size:60px;"">+</div>","null","","fixation","","",""
"memory-trial","44","316039","0.0-18.0-1.0","6382","approach_avoid_sv1","""event"",""trial"",""time""
""fullscreenenter"",""1"",""4457""
","
","
","""event"",""trial"",""time""
""fullscreenenter"",""1"",""4457""
","
","","","","","","1787.8999999761581","images/cat3.png","","","memory_trial","1","definitely_old",""
"html-keyboard-response","45","316545","0.0-18.0-0.1","6382","approach_avoid_sv1","""event"",""trial"",""time""
""fullscreenenter"",""1"",""4457""
","
","
","""event"",""trial"",""time""
""fullscreenenter"",""1"",""4457""
","
","","","","","","null","<div style=""font-size:60px;"">+</div>","null","","fixation","","",""
"memory-trial","46","318865","0.0-18.0-1.1","6382","approach_avoid_sv1","""event"",""trial"",""time""
""fullscreenenter"",""1"",""4457""
","
","
","""event"",""trial"",""time""
""fullscreenenter"",""1"",""4457""
","
","","","","","","1304.7000000476837","images/flower2.png","","","memory_trial","1","definitely_old",""
"html-keyboard-response","47","319385","0.0-18.0-0.2","6382","approach_avoid_sv1","""event"",""trial"",""time""
""fullscreenenter"",""1"",""4457""
","
","
","""event"",""trial"",""time""
""fullscreenenter"",""1"",""4457""
","
","","","","","","null","<div style=""font-size:60px;"">+</div>","null","","fixation","","",""
"memory-trial","48","321205","0.0-18.0-1.2","6382","approach_avoid_sv1","""event"",""trial"",""time""
""fullscreenenter"",""1"",""4457""
","
","
","""event"",""trial"",""time""
""fullscreenenter"",""1"",""4457""
","
","","","","","","797.5","images/flower3.png","","","memory_trial","1","definitely_old",""
"html-keyboard-response","49","321715","0.0-18.0-0.3","6382","approach_avoid_sv1","""event"",""trial"",""time""
""fullscreenenter"",""1"",""4457""
","
","
","""event"",""trial"",""time""
""fullscreenenter"",""1"",""4457""
","
","","","","","","null","<div style=""font-size:60px;"">+</div>","null","","fixation","","",""
"memory-trial","50","323975","0.0-18.0-1.3","6382","approach_avoid_sv1","""event"",""trial"",""time""
""fullscreenenter"",""1"",""4457""
","
","
","""event"",""trial"",""time""
""fullscreenenter"",""1"",""4457""
","
","","","","","","1248.2000000476837","images/boat5.png","","","memory_trial","1","definitely_old",""
"html-keyboard-response","51","324495","0.0-18.0-0.4","6382","approach_avoid_sv1","""event"",""trial"",""time""
""fullscreenenter"",""1"",""4457""
","
","
","""event"",""trial"",""time""
""fullscreenenter"",""1"",""4457""
","
","","","","","","null","<div style=""font-size:60px;"">+</div>","null","","fixation","","",""
"memory-trial","52","326915","0.0-18.0-1.4","6382","approach_avoid_sv1","""event"",""trial"",""time""
""fullscreenenter"",""1"",""4457""
","
","
","""event"",""trial"",""time""
""fullscreenenter"",""1"",""4457""
","
","","","","","","1401","images/apple1.png","","","memory_trial","4","definitely_new",""
"html-keyboard-response","53","327434","0.0-18.0-0.5","6382","approach_avoid_sv1","""event"",""trial"",""time""
""fullscreenenter"",""1"",""4457""
","
","
","""event"",""trial"",""time""
""fullscreenenter"",""1"",""4457""
","
","","","","","","null","<div style=""font-size:60px;"">+</div>","null","","fixation","","",""
"memory-trial","54","329975","0.0-18.0-1.5","6382","approach_avoid_sv1","""event"",""trial"",""time""
""fullscreenenter"",""1"",""4457""
","
","
","""event"",""trial"",""time""
""fullscreenenter"",""1"",""4457""
","
","","","","","","1522.7999999523163","images/orange3.png","","","memory_trial","1","definitely_old",""
"html-keyboard-response","55","330486","0.0-18.0-0.6","6382","approach_avoid_sv1","""event"",""trial"",""time""
""fullscreenenter"",""1"",""4457""
","
","
","""event"",""trial"",""time""
""fullscreenenter"",""1"",""4457""
","
","","","","","","null","<div style=""font-size:60px;"">+</div>","null","","fixation","","",""
"memory-trial","56","332887","0.0-18.0-1.6","6382","approach_avoid_sv1","""event"",""trial"",""time""
""fullscreenenter"",""1"",""4457""
","
","
","""event"",""trial"",""time""
""fullscreenenter"",""1"",""4457""
","
","","","","","","1378.8999999761581","images/plane5.png","","","memory_trial","4","definitely_new",""
"html-keyboard-response","57","333395","0.0-18.0-0.7","6382","approach_avoid_sv1","""event"",""trial"",""time""
""fullscreenenter"",""1"",""4457""
","
","
","""event"",""trial"",""time""
""fullscreenenter"",""1"",""4457""
","
","","","","","","null","<div style=""font-size:60px;"">+</div>","null","","fixation","","",""
"memory-trial","58","336102","0.0-18.0-1.7","6382","approach_avoid_sv1","""event"",""trial"",""time""
""fullscreenenter"",""1"",""4457""
","
","
","""event"",""trial"",""time""
""fullscreenenter"",""1"",""4457""
","
","","","","","","1694.5999999046326","images/rodent2.png","","","memory_trial","1","definitely_old",""
"html-keyboard-response","59","336613","0.0-18.0-0.8","6382","approach_avoid_sv1","""event"",""trial"",""time""
""fullscreenenter"",""1"",""4457""
","
","
","""event"",""trial"",""time""
""fullscreenenter"",""1"",""4457""
","
","","","","","","null","<div style=""font-size:60px;"">+</div>","null","","fixation","","",""
"memory-trial","60","338795","0.0-18.0-1.8","6382","approach_avoid_sv1","""event"",""trial"",""time""
""fullscreenenter"",""1"",""4457""
","
","
","""event"",""trial"",""time""
""fullscreenenter"",""1"",""4457""
","
","","","","","","1157.2999999523163","images/train8.png","","","memory_trial","4","definitely_new",""
"html-keyboard-response","61","339298","0.0-18.0-0.9","6382","approach_avoid_sv1","""event"",""trial"",""time""
""fullscreenenter"",""1"",""4457""
","
","
","""event"",""trial"",""time""
""fullscreenenter"",""1"",""4457""
","
","","","","","","null","<div style=""font-size:60px;"">+</div>","null","","fixation","","",""
"memory-trial","62","341841","0.0-18.0-1.9","6382","approach_avoid_sv1","""event"",""trial"",""time""
""fullscreenenter"",""1"",""4457""
","
","
","""event"",""trial"",""time""
""fullscreenenter"",""1"",""4457""
","
","","","","","","1535.8000000715256","images/bed7.png","","","memory_trial","4","definitely_new",""
"html-keyboard-response","63","342343","0.0-18.0-0.10","6382","approach_avoid_sv1","""event"",""trial"",""time""
""fullscreenenter"",""1"",""4457""
","
","
","""event"",""trial"",""time""
""fullscreenenter"",""1"",""4457""
","
","","","","","","null","<div style=""font-size:60px;"">+</div>","null","","fixation","","",""
"memory-trial","64","344355","0.0-18.0-1.10","6382","approach_avoid_sv1","""event"",""trial"",""time""
""fullscreenenter"",""1"",""4457""
","
","
","""event"",""trial"",""time""
""fullscreenenter"",""1"",""4457""
","
","","","","","","1007.1999999284744","images/chair6.png","","","memory_trial","1","definitely_old",""
"html-keyboard-response","65","344857","0.0-18.0-0.11","6382","approach_avoid_sv1","""event"",""trial"",""time""
""fullscreenenter"",""1"",""4457""
","
","
","""event"",""trial"",""time""
""fullscreenenter"",""1"",""4457""
","
","","","","","","null","<div style=""font-size:60px;"">+</div>","null","","fixation","","",""
"memory-trial","66","346951","0.0-18.0-1.11","6382","approach_avoid_sv1","""event"",""trial"",""time""
""fullscreenenter"",""1"",""4457""
","
","
","""event"",""trial"",""time""
""fullscreenenter"",""1"",""4457""
","
","","","","","","1091.2999999523163","images/goat7.png","","","memory_trial","4","definitely_new",""
"html-keyboard-response","67","347454","0.0-18.0-0.12","6382","approach_avoid_sv1","""event"",""trial"",""time""
""fullscreenenter"",""1"",""4457""
","
","
","""event"",""trial"",""time""
""fullscreenenter"",""1"",""4457""
","
","","","","","","null","<div style=""font-size:60px;"">+</div>","null","","fixation","","",""
"memory-trial","68","350802","0.0-18.0-1.12","6382","approach_avoid_sv1","""event"",""trial"",""time""
""fullscreenenter"",""1"",""4457""
","
","
","""event"",""trial"",""time""
""fullscreenenter"",""1"",""4457""
","
","","","","","","2343.399999976158","images/orange6.png","","","memory_trial","2","maybe_old",""
"html-keyboard-response","69","351304","0.0-18.0-0.13","6382","approach_avoid_sv1","""event"",""trial"",""time""
""fullscreenenter"",""1"",""4457""
","
","
","""event"",""trial"",""time""
""fullscreenenter"",""1"",""4457""
","
","","","","","","null","<div style=""font-size:60px;"">+</div>","null","","fixation","","",""
"memory-trial","70","353335","0.0-18.0-1.13","6382","approach_avoid_sv1","""event"",""trial"",""time""
""fullscreenenter"",""1"",""4457""
","
","
","""event"",""trial"",""time""
""fullscreenenter"",""1"",""4457""
","
","","","","","","1027.6000000238419","images/cow1.png","","","memory_trial","4","definitely_new",""
"html-keyboard-response","71","353837","0.0-18.0-0.14","6382","approach_avoid_sv1","""event"",""trial"",""time""
""fullscreenenter"",""1"",""4457""
","
","
","""event"",""trial"",""time""
""fullscreenenter"",""1"",""4457""
","
","","","","","","null","<div style=""font-size:60px;"">+</div>","null","","fixation","","",""
"memory-trial","72","356734","0.0-18.0-1.14","6382","approach_avoid_sv1","""event"",""trial"",""time""
""fullscreenenter"",""1"",""4457""
","
","
","""event"",""trial"",""time""
""fullscreenenter"",""1"",""4457""
","
","","","","","","1892.2999999523163","images/cactus7.png","","","memory_trial","2","maybe_old",""
"html-keyboard-response","73","357236","0.0-18.0-0.15","6382","approach_avoid_sv1","""event"",""trial"",""time""
""fullscreenenter"",""1"",""4457""
","
","
","""event"",""trial"",""time""
""fullscreenenter"",""1"",""4457""
","
","","","","","","null","<div style=""font-size:60px;"">+</div>","null","","fixation","","",""
"memory-trial","74","359521","0.0-18.0-1.15","6382","approach_avoid_sv1","""event"",""trial"",""time""
""fullscreenenter"",""1"",""4457""
","
","
","""event"",""trial"",""time""
""fullscreenenter"",""1"",""4457""
","
","","","","","","1280.3999999761581","images/rodent6.png","","","memory_trial","4","definitely_new",""
"html-keyboard-response","75","360024","0.0-18.0-0.16","6382","approach_avoid_sv1","""event"",""trial"",""time""
""fullscreenenter"",""1"",""4457""
","
","
","""event"",""trial"",""time""
""fullscreenenter"",""1"",""4457""
","
","","","","","","null","<div style=""font-size:60px;"">+</div>","null","","fixation","","",""
"memory-trial","76","362101","0.0-18.0-1.16","6382","approach_avoid_sv1","""event"",""trial"",""time""
""fullscreenenter"",""1"",""4457""
","
","
","""event"",""trial"",""time""
""fullscreenenter"",""1"",""4457""
","
","","","","","","1072.3000000715256","images/cat1.png","","","memory_trial","4","definitely_new",""
"html-keyboard-response","77","362602","0.0-18.0-0.17","6382","approach_avoid_sv1","""event"",""trial"",""time""
""fullscreenenter"",""1"",""4457""
","
","
","""event"",""trial"",""time""
""fullscreenenter"",""1"",""4457""
","
","","","","","","null","<div style=""font-size:60px;"">+</div>","null","","fixation","","",""
"memory-trial","78","364767","0.0-18.0-1.17","6382","approach_avoid_sv1","""event"",""trial"",""time""
""fullscreenenter"",""1"",""4457""
","
","
","""event"",""trial"",""time""
""fullscreenenter"",""1"",""4457""
","
","","","","","","1157.1000000238419","images/boat8.png","","","memory_trial","1","definitely_old",""
"html-keyboard-response","79","365271","0.0-18.0-0.18","6382","approach_avoid_sv1","""event"",""trial"",""time""
""fullscreenenter"",""1"",""4457""
","
","
","""event"",""trial"",""time""
""fullscreenenter"",""1"",""4457""
","
","","","","","","null","<div style=""font-size:60px;"">+</div>","null","","fixation","","",""
"memory-trial","80","368504","0.0-18.0-1.18","6382","approach_avoid_sv1","""event"",""trial"",""time""
""fullscreenenter"",""1"",""4457""
","
","
","""event"",""trial"",""time""
""fullscreenenter"",""1"",""4457""
","
","","","","","","2223","images/chair3.png","","","memory_trial","4","definitely_new",""
"html-keyboard-response","81","369007","0.0-18.0-0.19","6382","approach_avoid_sv1","""event"",""trial"",""time""
""fullscreenenter"",""1"",""4457""
","
","
","""event"",""trial"",""time""
""fullscreenenter"",""1"",""4457""
","
","","","","","","null","<div style=""font-size:60px;"">+</div>","null","","fixation","","",""
"memory-trial","82","371417","0.0-18.0-1.19","6382","approach_avoid_sv1","""event"",""trial"",""time""
""fullscreenenter"",""1"",""4457""
","
","
","""event"",""trial"",""time""
""fullscreenenter"",""1"",""4457""
","
","","","","","","1401.7999999523163","images/bush7.png","","","memory_trial","1","definitely_old",""
"html-keyboard-response","83","371920","0.0-18.0-0.20","6382","approach_avoid_sv1","""event"",""trial"",""time""
""fullscreenenter"",""1"",""4457""
","
","
","""event"",""trial"",""time""
""fullscreenenter"",""1"",""4457""
","
","","","","","","null","<div style=""font-size:60px;"">+</div>","null","","fixation","","",""
"memory-trial","84","374252","0.0-18.0-1.20","6382","approach_avoid_sv1","""event"",""trial"",""time""
""fullscreenenter"",""1"",""4457""
","
","
","""event"",""trial"",""time""
""fullscreenenter"",""1"",""4457""
","
","","","","","","1322.1000000238419","images/banana3.png","","","memory_trial","1","definitely_old",""
"html-keyboard-response","85","374755","0.0-18.0-0.21","6382","approach_avoid_sv1","""event"",""trial"",""time""
""fullscreenenter"",""1"",""4457""
","
","
","""event"",""trial"",""time""
""fullscreenenter"",""1"",""4457""
","
","","","","","","null","<div style=""font-size:60px;"">+</div>","null","","fixation","","",""
"memory-trial","86","378000","0.0-18.0-1.21","6382","approach_avoid_sv1","""event"",""trial"",""time""
""fullscreenenter"",""1"",""4457""
","
","
","""event"",""trial"",""time""
""fullscreenenter"",""1"",""4457""
","
","","","","","","2239.899999976158","images/sofa2.png","","","memory_trial","3","maybe_new",""
"html-keyboard-response","87","378502","0.0-18.0-0.22","6382","approach_avoid_sv1","""event"",""trial"",""time""
""fullscreenenter"",""1"",""4457""
","
","
","""event"",""trial"",""time""
""fullscreenenter"",""1"",""4457""
","
","","","","","","null","<div style=""font-size:60px;"">+</div>","null","","fixation","","",""
"memory-trial","88","380515","0.0-18.0-1.22","6382","approach_avoid_sv1","""event"",""trial"",""time""
""fullscreenenter"",""1"",""4457""
","
","
","""event"",""trial"",""time""
""fullscreenenter"",""1"",""4457""
","
","","","","","","1006.7000000476837","images/tree5.png","","","memory_trial","4","definitely_new",""
"html-keyboard-response","89","381018","0.0-18.0-0.23","6382","approach_avoid_sv1","""event"",""trial"",""time""
""fullscreenenter"",""1"",""4457""
","
","
","""event"",""trial"",""time""
""fullscreenenter"",""1"",""4457""
","
","","","","","","null","<div style=""font-size:60px;"">+</div>","null","","fixation","","",""
"memory-trial","90","383574","0.0-18.0-1.23","6382","approach_avoid_sv1","""event"",""trial"",""time""
""fullscreenenter"",""1"",""4457""
","
","
","""event"",""trial"",""time""
""fullscreenenter"",""1"",""4457""
","
","","","","","","1547.5","images/rodent1.png","","","memory_trial","2","maybe_old",""
"html-keyboard-response","91","384076","0.0-18.0-0.24","6382","approach_avoid_sv1","""event"",""trial"",""time""
""fullscreenenter"",""1"",""4457""
","
","
","""event"",""trial"",""time""
""fullscreenenter"",""1"",""4457""
","
","","","","","","null","<div style=""font-size:60px;"">+</div>","null","","fixation","","",""
"memory-trial","92","386538","0.0-18.0-1.24","6382","approach_avoid_sv1","""event"",""trial"",""time""
""fullscreenenter"",""1"",""4457""
","
","
","""event"",""trial"",""time""
""fullscreenenter"",""1"",""4457""
","
","","","","","","1456.8999999761581","images/banana6.png","","","memory_trial","4","definitely_new",""
"html-keyboard-response","93","387041","0.0-18.0-0.25","6382","approach_avoid_sv1","""event"",""trial"",""time""
""fullscreenenter"",""1"",""4457""
","
","
","""event"",""trial"",""time""
""fullscreenenter"",""1"",""4457""
","
","","","","","","null","<div style=""font-size:60px;"">+</div>","null","","fixation","","",""
"memory-trial","94","389892","0.0-18.0-1.25","6382","approach_avoid_sv1","""event"",""trial"",""time""
""fullscreenenter"",""1"",""4457""
","
","
","""event"",""trial"",""time""
""fullscreenenter"",""1"",""4457""
","
","","","","","","1843.8999999761581","images/boat1.png","","","memory_trial","3","maybe_new",""
"html-keyboard-response","95","390394","0.0-18.0-0.26","6382","approach_avoid_sv1","""event"",""trial"",""time""
""fullscreenenter"",""1"",""4457""
","
","
","""event"",""trial"",""time""
""fullscreenenter"",""1"",""4457""
","
","","","","","","null","<div style=""font-size:60px;"">+</div>","null","","fixation","","",""
"memory-trial","96","392556","0.0-18.0-1.26","6382","approach_avoid_sv1","""event"",""trial"",""time""
""fullscreenenter"",""1"",""4457""
","
","
","""event"",""trial"",""time""
""fullscreenenter"",""1"",""4457""
","
","","","","","","1152.2000000476837","images/plane2.png","","","memory_trial","4","definitely_new",""
"html-keyboard-response","97","393060","0.0-18.0-0.27","6382","approach_avoid_sv1","""event"",""trial"",""time""
""fullscreenenter"",""1"",""4457""
","
","
","""event"",""trial"",""time""
""fullscreenenter"",""1"",""4457""
","
","","","","","","null","<div style=""font-size:60px;"">+</div>","null","","fixation","","",""
"memory-trial","98","395090","0.0-18.0-1.27","6382","approach_avoid_sv1","""event"",""trial"",""time""
""fullscreenenter"",""1"",""4457""
","
","
","""event"",""trial"",""time""
""fullscreenenter"",""1"",""4457""
","
","","","","","","1022.2000000476837","images/bush4.png","","","memory_trial","4","definitely_new",""
"html-keyboard-response","99","395593","0.0-18.0-0.28","6382","approach_avoid_sv1","""event"",""trial"",""time""
""fullscreenenter"",""1"",""4457""
","
","
","""event"",""trial"",""time""
""fullscreenenter"",""1"",""4457""
","
","","","","","","null","<div style=""font-size:60px;"">+</div>","null","","fixation","","",""
"memory-trial","100","397556","0.0-18.0-1.28","6382","approach_avoid_sv1","""event"",""trial"",""time""
""fullscreenenter"",""1"",""4457""
","
","
","""event"",""trial"",""time""
""fullscreenenter"",""1"",""4457""
","
","","","","","","953.3000000715256","images/bed3.png","","","memory_trial","4","definitely_new",""
"html-keyboard-response","101","398058","0.0-18.0-0.29","6382","approach_avoid_sv1","""event"",""trial"",""time""
""fullscreenenter"",""1"",""4457""
","
","
","""event"",""trial"",""time""
""fullscreenenter"",""1"",""4457""
","
","","","","","","null","<div style=""font-size:60px;"">+</div>","null","","fixation","","",""
"memory-trial","102","400144","0.0-18.0-1.29","6382","approach_avoid_sv1","""event"",""trial"",""time""
""fullscreenenter"",""1"",""4457""
","
","
","""event"",""trial"",""time""
""fullscreenenter"",""1"",""4457""
","
","","","","","","1081.6999999284744","images/horse6.png","","","memory_trial","4","definitely_new",""
"html-keyboard-response","103","400647","0.0-18.0-0.30","6382","approach_avoid_sv1","""event"",""trial"",""time""
""fullscreenenter"",""1"",""4457""
","
","
","""event"",""trial"",""time""
""fullscreenenter"",""1"",""4457""
","
","","","","","","null","<div style=""font-size:60px;"">+</div>","null","","fixation","","",""
"memory-trial","104","402727","0.0-18.0-1.30","6382","approach_avoid_sv1","""event"",""trial"",""time""
""fullscreenenter"",""1"",""4457""
","
","
","""event"",""trial"",""time""
""fullscreenenter"",""1"",""4457""
","
","","","","","","1072.7999999523163","images/straw8.png","","","memory_trial","4","definitely_new",""
"html-keyboard-response","105","403229","0.0-18.0-0.31","6382","approach_avoid_sv1","""event"",""trial"",""time""
""fullscreenenter"",""1"",""4457""
","
","
","""event"",""trial"",""time""
""fullscreenenter"",""1"",""4457""
","
","","","","","","null","<div style=""font-size:60px;"">+</div>","null","","fixation","","",""
"memory-trial","106","405427","0.0-18.0-1.31","6382","approach_avoid_sv1","""event"",""trial"",""time""
""fullscreenenter"",""1"",""4457""
","
","
","""event"",""trial"",""time""
""fullscreenenter"",""1"",""4457""
","
","","","","","","1194.5","images/cactus2.png","","","memory_trial","1","definitely_old",""
"html-keyboard-response","107","405929","0.0-18.0-0.32","6382","approach_avoid_sv1","""event"",""trial"",""time""
""fullscreenenter"",""1"",""4457""
","
","
","""event"",""trial"",""time""
""fullscreenenter"",""1"",""4457""
","
","","","","","","null","<div style=""font-size:60px;"">+</div>","null","","fixation","","",""
"memory-trial","108","407732","0.0-18.0-1.32","6382","approach_avoid_sv1","""event"",""trial"",""time""
""fullscreenenter"",""1"",""4457""
","
","
","""event"",""trial"",""time""
""fullscreenenter"",""1"",""4457""
","
","","","","","","799.4000000953674","images/cow4.png","","","memory_trial","4","definitely_new",""
"html-keyboard-response","109","408234","0.0-18.0-0.33","6382","approach_avoid_sv1","""event"",""trial"",""time""
""fullscreenenter"",""1"",""4457""
","
","
","""event"",""trial"",""time""
""fullscreenenter"",""1"",""4457""
","
","","","","","","null","<div style=""font-size:60px;"">+</div>","null","","fixation","","",""
"memory-trial","110","410113","0.0-18.0-1.33","6382","approach_avoid_sv1","""event"",""trial"",""time""
""fullscreenenter"",""1"",""4457""
","
","
","""event"",""trial"",""time""
""fullscreenenter"",""1"",""4457""
","
","","","","","","874.8999999761581","images/cat6.png","","","memory_trial","4","definitely_new",""
"html-keyboard-response","111","410615","0.0-18.0-0.34","6382","approach_avoid_sv1","""event"",""trial"",""time""
""fullscreenenter"",""1"",""4457""
","
","
","""event"",""trial"",""time""
""fullscreenenter"",""1"",""4457""
","
","","","","","","null","<div style=""font-size:60px;"">+</div>","null","","fixation","","",""
"memory-trial","112","412386","0.0-18.0-1.34","6382","approach_avoid_sv1","""event"",""trial"",""time""
""fullscreenenter"",""1"",""4457""
","
","
","""event"",""trial"",""time""
""fullscreenenter"",""1"",""4457""
","
","","","","","","767","images/tree1.png","","","memory_trial","4","definitely_new",""
"html-keyboard-response","113","412888","0.0-18.0-0.35","6382","approach_avoid_sv1","""event"",""trial"",""time""
""fullscreenenter"",""1"",""4457""
","
","
","""event"",""trial"",""time""
""fullscreenenter"",""1"",""4457""
","
","","","","","","null","<div style=""font-size:60px;"">+</div>","null","","fixation","","",""
"memory-trial","114","415191","0.0-18.0-1.35","6382","approach_avoid_sv1","""event"",""trial"",""time""
""fullscreenenter"",""1"",""4457""
","
","
","""event"",""trial"",""time""
""fullscreenenter"",""1"",""4457""
","
","","","","","","1299.6000000238419","images/sheep6.png","","","memory_trial","1","definitely_old",""
"html-keyboard-response","115","415693","0.0-18.0-0.36","6382","approach_avoid_sv1","""event"",""trial"",""time""
""fullscreenenter"",""1"",""4457""
","
","
","""event"",""trial"",""time""
""fullscreenenter"",""1"",""4457""
","
","","","","","","null","<div style=""font-size:60px;"">+</div>","null","","fixation","","",""
"memory-trial","116","417567","0.0-18.0-1.36","6382","approach_avoid_sv1","""event"",""trial"",""time""
""fullscreenenter"",""1"",""4457""
","
","
","""event"",""trial"",""time""
""fullscreenenter"",""1"",""4457""
","
","","","","","","869","images/tree3.png","","","memory_trial","4","definitely_new",""
"html-keyboard-response","117","418069","0.0-18.0-0.37","6382","approach_avoid_sv1","""event"",""trial"",""time""
""fullscreenenter"",""1"",""4457""
","
","
","""event"",""trial"",""time""
""fullscreenenter"",""1"",""4457""
","
","","","","","","null","<div style=""font-size:60px;"">+</div>","null","","fixation","","",""
"memory-trial","118","420761","0.0-18.0-1.37","6382","approach_avoid_sv1","""event"",""trial"",""time""
""fullscreenenter"",""1"",""4457""
","
","
","""event"",""trial"",""time""
""fullscreenenter"",""1"",""4457""
","
","","","","","","1688.6000000238419","images/truck7.png","","","memory_trial","1","definitely_old",""
"html-keyboard-response","119","421263","0.0-18.0-0.38","6382","approach_avoid_sv1","""event"",""trial"",""time""
""fullscreenenter"",""1"",""4457""
","
","
","""event"",""trial"",""time""
""fullscreenenter"",""1"",""4457""
","
","","","","","","null","<div style=""font-size:60px;"">+</div>","null","","fixation","","",""
"memory-trial","120","424001","0.0-18.0-1.38","6382","approach_avoid_sv1","""event"",""trial"",""time""
""fullscreenenter"",""1"",""4457""
","
","
","""event"",""trial"",""time""
""fullscreenenter"",""1"",""4457""
","
","","","","","","1730.2999999523163","images/flower6.png","","","memory_trial","2","maybe_old",""
"html-keyboard-response","121","424504","0.0-18.0-0.39","6382","approach_avoid_sv1","""event"",""trial"",""time""
""fullscreenenter"",""1"",""4457""
","
","
","""event"",""trial"",""time""
""fullscreenenter"",""1"",""4457""
","
","","","","","","null","<div style=""font-size:60px;"">+</div>","null","","fixation","","",""
"memory-trial","122","427371","0.0-18.0-1.39","6382","approach_avoid_sv1","""event"",""trial"",""time""
""fullscreenenter"",""1"",""4457""
","
","
","""event"",""trial"",""time""
""fullscreenenter"",""1"",""4457""
","
","","","","","","1858.7000000476837","images/bed1.png","","","memory_trial","2","maybe_old",""
"html-keyboard-response","123","427875","0.0-18.0-0.40","6382","approach_avoid_sv1","""event"",""trial"",""time""
""fullscreenenter"",""1"",""4457""
","
","
","""event"",""trial"",""time""
""fullscreenenter"",""1"",""4457""
","
","","","","","","null","<div style=""font-size:60px;"">+</div>","null","","fixation","","",""
"memory-trial","124","430025","0.0-18.0-1.40","6382","approach_avoid_sv1","""event"",""trial"",""time""
""fullscreenenter"",""1"",""4457""
","
","
","""event"",""trial"",""time""
""fullscreenenter"",""1"",""4457""
","
","","","","","","1140.2000000476837","images/boat3.png","","","memory_trial","4","definitely_new",""
"html-keyboard-response","125","430527","0.0-18.0-0.41","6382","approach_avoid_sv1","""event"",""trial"",""time""
""fullscreenenter"",""1"",""4457""
","
","
","""event"",""trial"",""time""
""fullscreenenter"",""1"",""4457""
","
","","","","","","null","<div style=""font-size:60px;"">+</div>","null","","fixation","","",""
"memory-trial","126","433374","0.0-18.0-1.41","6382","approach_avoid_sv1","""event"",""trial"",""time""
""fullscreenenter"",""1"",""4457""
","
","
","""event"",""trial"",""time""
""fullscreenenter"",""1"",""4457""
","
","","","","","","1841.7000000476837","images/dog4.png","","","memory_trial","3","maybe_new",""
"html-button-response","127","470462","0.0-18.0-2.41-0.41","6382","approach_avoid_sv1","""event"",""trial"",""time""
""fullscreenenter"",""1"",""4457""
","
","
","""event"",""trial"",""time""
""fullscreenenter"",""1"",""4457""
","
","","","","","","37085.300000071526","<p> Take a break! </p><p> Click the button to continue. </p>","0","","break","","",""
"html-keyboard-response","128","470964","0.0-18.0-0.42","6382","approach_avoid_sv1","""event"",""trial"",""time""
""fullscreenenter"",""1"",""4457""
","
","
","""event"",""trial"",""time""
""fullscreenenter"",""1"",""4457""
","
","","","","","","null","<div style=""font-size:60px;"">+</div>","null","","fixation","","",""
"memory-trial","129","473273","0.0-18.0-1.42","6382","approach_avoid_sv1","""event"",""trial"",""time""
""fullscreenenter"",""1"",""4457""
","
","
","""event"",""trial"",""time""
""fullscreenenter"",""1"",""4457""
","
","","","","","","1303.7000000476837","images/train6.png","","","memory_trial","4","definitely_new",""
"html-keyboard-response","130","473774","0.0-18.0-0.43","6382","approach_avoid_sv1","""event"",""trial"",""time""
""fullscreenenter"",""1"",""4457""
","
","
","""event"",""trial"",""time""
""fullscreenenter"",""1"",""4457""
","
","","","","","","null","<div style=""font-size:60px;"">+</div>","null","","fixation","","",""
"memory-trial","131","476264","0.0-18.0-1.43","6382","approach_avoid_sv1","""event"",""trial"",""time""
""fullscreenenter"",""1"",""4457""
","
","
","""event"",""trial"",""time""
""fullscreenenter"",""1"",""4457""
","
","","","","","","1486.6000000238419","images/rabbit2.png","","","memory_trial","3","maybe_new",""
"html-keyboard-response","132","476767","0.0-18.0-0.44","6382","approach_avoid_sv1","""event"",""trial"",""time""
""fullscreenenter"",""1"",""4457""
","
","
","""event"",""trial"",""time""
""fullscreenenter"",""1"",""4457""
","
","","","","","","null","<div style=""font-size:60px;"">+</div>","null","","fixation","","",""
"memory-trial","133","479191","0.0-18.0-1.44","6382","approach_avoid_sv1","""event"",""trial"",""time""
""fullscreenenter"",""1"",""4457""
","
","
","""event"",""trial"",""time""
""fullscreenenter"",""1"",""4457""
","
","","","","","","1421","images/dog1.png","","","memory_trial","1","definitely_old",""
"html-keyboard-response","134","479694","0.0-18.0-0.45","6382","approach_avoid_sv1","""event"",""trial"",""time""
""fullscreenenter"",""1"",""4457""
","
","
","""event"",""trial"",""time""
""fullscreenenter"",""1"",""4457""
","
","","","","","","null","<div style=""font-size:60px;"">+</div>","null","","fixation","","",""
"memory-trial","135","482089","0.0-18.0-1.45","6382","approach_avoid_sv1","""event"",""trial"",""time""
""fullscreenenter"",""1"",""4457""
","
","
","""event"",""trial"",""time""
""fullscreenenter"",""1"",""4457""
","
","","","","","","1390.2999999523163","images/chair4.png","","","memory_trial","4","definitely_new",""
"html-keyboard-response","136","482590","0.0-18.0-0.46","6382","approach_avoid_sv1","""event"",""trial"",""time""
""fullscreenenter"",""1"",""4457""
","
","
","""event"",""trial"",""time""
""fullscreenenter"",""1"",""4457""
","
","","","","","","null","<div style=""font-size:60px;"">+</div>","null","","fixation","","",""
"memory-trial","137","485434","0.0-18.0-1.46","6382","approach_avoid_sv1","""event"",""trial"",""time""
""fullscreenenter"",""1"",""4457""
","
","
","""event"",""trial"",""time""
""fullscreenenter"",""1"",""4457""
","
","","","","","","1837.6000000238419","images/straw3.png","","","memory_trial","2","maybe_old",""
"html-keyboard-response","138","485938","0.0-18.0-0.47","6382","approach_avoid_sv1","""event"",""trial"",""time""
""fullscreenenter"",""1"",""4457""
","
","
","""event"",""trial"",""time""
""fullscreenenter"",""1"",""4457""
","
","","","","","","null","<div style=""font-size:60px;"">+</div>","null","","fixation","","",""
"memory-trial","139","488446","0.0-18.0-1.47","6382","approach_avoid_sv1","""event"",""trial"",""time""
""fullscreenenter"",""1"",""4457""
","
","
","""event"",""trial"",""time""
""fullscreenenter"",""1"",""4457""
","
","","","","","","1498.5","images/sheep1.png","","","memory_trial","3","maybe_new",""
"html-keyboard-response","140","488950","0.0-18.0-0.48","6382","approach_avoid_sv1","""event"",""trial"",""time""
""fullscreenenter"",""1"",""4457""
","
","
","""event"",""trial"",""time""
""fullscreenenter"",""1"",""4457""
","
","","","","","","null","<div style=""font-size:60px;"">+</div>","null","","fixation","","",""
"memory-trial","141","491072","0.0-18.0-1.48","6382","approach_avoid_sv1","""event"",""trial"",""time""
""fullscreenenter"",""1"",""4457""
","
","
","""event"",""trial"",""time""
""fullscreenenter"",""1"",""4457""
","
","","","","","","1112.6000000238419","images/rabbit4.png","","","memory_trial","4","definitely_new",""
"html-keyboard-response","142","491574","0.0-18.0-0.49","6382","approach_avoid_sv1","""event"",""trial"",""time""
""fullscreenenter"",""1"",""4457""
","
","
","""event"",""trial"",""time""
""fullscreenenter"",""1"",""4457""
","
","","","","","","null","<div style=""font-size:60px;"">+</div>","null","","fixation","","",""
"memory-trial","143","494625","0.0-18.0-1.49","6382","approach_avoid_sv1","""event"",""trial"",""time""
""fullscreenenter"",""1"",""4457""
","
","
","""event"",""trial"",""time""
""fullscreenenter"",""1"",""4457""
","
","","","","","","2041.7999999523163","images/bed4.png","","","memory_trial","3","maybe_new",""
"html-keyboard-response","144","495128","0.0-18.0-0.50","6382","approach_avoid_sv1","""event"",""trial"",""time""
""fullscreenenter"",""1"",""4457""
","
","
","""event"",""trial"",""time""
""fullscreenenter"",""1"",""4457""
","
","","","","","","null","<div style=""font-size:60px;"">+</div>","null","","fixation","","",""
"memory-trial","145","497160","0.0-18.0-1.50","6382","approach_avoid_sv1","""event"",""trial"",""time""
""fullscreenenter"",""1"",""4457""
","
","
","""event"",""trial"",""time""
""fullscreenenter"",""1"",""4457""
","
","","","","","","1022.6000000238419","images/horse8.png","","","memory_trial","4","definitely_new",""
"html-keyboard-response","146","497663","0.0-18.0-0.51","6382","approach_avoid_sv1","""event"",""trial"",""time""
""fullscreenenter"",""1"",""4457""
","
","
","""event"",""trial"",""time""
""fullscreenenter"",""1"",""4457""
","
","","","","","","null","<div style=""font-size:60px;"">+</div>","null","","fixation","","",""
"memory-trial","147","500015","0.0-18.0-1.51","6382","approach_avoid_sv1","""event"",""trial"",""time""
""fullscreenenter"",""1"",""4457""
","
","
","""event"",""trial"",""time""
""fullscreenenter"",""1"",""4457""
","
","","","","","","1343.0999999046326","images/bush6.png","","","memory_trial","4","definitely_new",""
"html-keyboard-response","148","500518","0.0-18.0-0.52","6382","approach_avoid_sv1","""event"",""trial"",""time""
""fullscreenenter"",""1"",""4457""
","
","
","""event"",""trial"",""time""
""fullscreenenter"",""1"",""4457""
","
","","","","","","null","<div style=""font-size:60px;"">+</div>","null","","fixation","","",""
"memory-trial","149","502829","0.0-18.0-1.52","6382","approach_avoid_sv1","""event"",""trial"",""time""
""fullscreenenter"",""1"",""4457""
","
","
","""event"",""trial"",""time""
""fullscreenenter"",""1"",""4457""
","
","","","","","","1305.1999999284744","images/sheep2.png","","","memory_trial","1","definitely_old",""
"html-keyboard-response","150","503332","0.0-18.0-0.53","6382","approach_avoid_sv1","""event"",""trial"",""time""
""fullscreenenter"",""1"",""4457""
","
","
","""event"",""trial"",""time""
""fullscreenenter"",""1"",""4457""
","
","","","","","","null","<div style=""font-size:60px;"">+</div>","null","","fixation","","",""
"memory-trial","151","506008","0.0-18.0-1.53","6382","approach_avoid_sv1","""event"",""trial"",""time""
""fullscreenenter"",""1"",""4457""
","
","
","""event"",""trial"",""time""
""fullscreenenter"",""1"",""4457""
","
","","","","","","1664.6000000238419","images/flower8.png","","","memory_trial","2","maybe_old",""
"html-keyboard-response","152","506511","0.0-18.0-0.54","6382","approach_avoid_sv1","""event"",""trial"",""time""
""fullscreenenter"",""1"",""4457""
","
","
","""event"",""trial"",""time""
""fullscreenenter"",""1"",""4457""
","
","","","","","","null","<div style=""font-size:60px;"">+</div>","null","","fixation","","",""
"memory-trial","153","508763","0.0-18.0-1.54","6382","approach_avoid_sv1","""event"",""trial"",""time""
""fullscreenenter"",""1"",""4457""
","
","
","""event"",""trial"",""time""
""fullscreenenter"",""1"",""4457""
","
","","","","","","1244.7999999523163","images/rodent5.png","","","memory_trial","4","definitely_new",""
"html-keyboard-response","154","509266","0.0-18.0-0.55","6382","approach_avoid_sv1","""event"",""trial"",""time""
""fullscreenenter"",""1"",""4457""
","
","
","""event"",""trial"",""time""
""fullscreenenter"",""1"",""4457""
","
","","","","","","null","<div style=""font-size:60px;"">+</div>","null","","fixation","","",""
"memory-trial","155","511625","0.0-18.0-1.55","6382","approach_avoid_sv1","""event"",""trial"",""time""
""fullscreenenter"",""1"",""4457""
","
","
","""event"",""trial"",""time""
""fullscreenenter"",""1"",""4457""
","
","","","","","","1348.7999999523163","images/rodent7.png","","","memory_trial","3","maybe_new",""
"html-keyboard-response","156","512127","0.0-18.0-0.56","6382","approach_avoid_sv1","""event"",""trial"",""time""
""fullscreenenter"",""1"",""4457""
","
","
","""event"",""trial"",""time""
""fullscreenenter"",""1"",""4457""
","
","","","","","","null","<div style=""font-size:60px;"">+</div>","null","","fixation","","",""
"memory-trial","157","514120","0.0-18.0-1.56","6382","approach_avoid_sv1","""event"",""trial"",""time""
""fullscreenenter"",""1"",""4457""
","
","
","""event"",""trial"",""time""
""fullscreenenter"",""1"",""4457""
","
","","","","","","989.7000000476837","images/goat3.png","","","memory_trial","4","definitely_new",""
"html-keyboard-response","158","514623","0.0-18.0-0.57","6382","approach_avoid_sv1","""event"",""trial"",""time""
""fullscreenenter"",""1"",""4457""
","
","
","""event"",""trial"",""time""
""fullscreenenter"",""1"",""4457""
","
","","","","","","null","<div style=""font-size:60px;"">+</div>","null","","fixation","","",""
"memory-trial","159","516500","0.0-18.0-1.57","6382","approach_avoid_sv1","""event"",""trial"",""time""
""fullscreenenter"",""1"",""4457""
","
","
","""event"",""trial"",""time""
""fullscreenenter"",""1"",""4457""
","
","","","","","","871.1000000238419","images/train7.png","","","memory_trial","4","definitely_new",""
"html-keyboard-response","160","517003","0.0-18.0-0.58","6382","approach_avoid_sv1","""event"",""trial"",""time""
""fullscreenenter"",""1"",""4457""
","
","
","""event"",""trial"",""time""
""fullscreenenter"",""1"",""4457""
","
","","","","","","null","<div style=""font-size:60px;"">+</div>","null","","fixation","","",""
"memory-trial","161","519323","0.0-18.0-1.58","6382","approach_avoid_sv1","""event"",""trial"",""time""
""fullscreenenter"",""1"",""4457""
","
","
","""event"",""trial"",""time""
""fullscreenenter"",""1"",""4457""
","
","","","","","","1312.8999999761581","images/orange5.png","","","memory_trial","1","definitely_old",""
"html-keyboard-response","162","519827","0.0-18.0-0.59","6382","approach_avoid_sv1","""event"",""trial"",""time""
""fullscreenenter"",""1"",""4457""
","
","
","""event"",""trial"",""time""
""fullscreenenter"",""1"",""4457""
","
","","","","","","null","<div style=""font-size:60px;"">+</div>","null","","fixation","","",""
"memory-trial","163","522164","0.0-18.0-1.59","6382","approach_avoid_sv1","""event"",""trial"",""time""
""fullscreenenter"",""1"",""4457""
","
","
","""event"",""trial"",""time""
""fullscreenenter"",""1"",""4457""
","
","","","","","","1327.1000000238419","images/cow8.png","","","memory_trial","1","definitely_old",""
"html-keyboard-response","164","522666","0.0-18.0-0.60","6382","approach_avoid_sv1","""event"",""trial"",""time""
""fullscreenenter"",""1"",""4457""
","
","
","""event"",""trial"",""time""
""fullscreenenter"",""1"",""4457""
","
","","","","","","null","<div style=""font-size:60px;"">+</div>","null","","fixation","","",""
"memory-trial","165","524624","0.0-18.0-1.60","6382","approach_avoid_sv1","""event"",""trial"",""time""
""fullscreenenter"",""1"",""4457""
","
","
","""event"",""trial"",""time""
""fullscreenenter"",""1"",""4457""
","
","","","","","","954.3000000715256","images/cat8.png","","","memory_trial","1","definitely_old",""
"html-keyboard-response","166","525127","0.0-18.0-0.61","6382","approach_avoid_sv1","""event"",""trial"",""time""
""fullscreenenter"",""1"",""4457""
","
","
","""event"",""trial"",""time""
""fullscreenenter"",""1"",""4457""
","
","","","","","","null","<div style=""font-size:60px;"">+</div>","null","","fixation","","",""
"memory-trial","167","527342","0.0-18.0-1.61","6382","approach_avoid_sv1","""event"",""trial"",""time""
""fullscreenenter"",""1"",""4457""
","
","
","""event"",""trial"",""time""
""fullscreenenter"",""1"",""4457""
","
","","","","","","1211.3999999761581","images/boat4.png","","","memory_trial","2","maybe_old",""
"html-keyboard-response","168","527844","0.0-18.0-0.62","6382","approach_avoid_sv1","""event"",""trial"",""time""
""fullscreenenter"",""1"",""4457""
","
","
","""event"",""trial"",""time""
""fullscreenenter"",""1"",""4457""
","
","","","","","","null","<div style=""font-size:60px;"">+</div>","null","","fixation","","",""
"memory-trial","169","529746","0.0-18.0-1.62","6382","approach_avoid_sv1","""event"",""trial"",""time""
""fullscreenenter"",""1"",""4457""
","
","
","""event"",""trial"",""time""
""fullscreenenter"",""1"",""4457""
","
","","","","","","899.2999999523163","images/banana8.png","","","memory_trial","4","definitely_new",""
"html-keyboard-response","170","530247","0.0-18.0-0.63","6382","approach_avoid_sv1","""event"",""trial"",""time""
""fullscreenenter"",""1"",""4457""
","
","
","""event"",""trial"",""time""
""fullscreenenter"",""1"",""4457""
","
","","","","","","null","<div style=""font-size:60px;"">+</div>","null","","fixation","","",""
"memory-trial","171","532911","0.0-18.0-1.63","6382","approach_avoid_sv1","""event"",""trial"",""time""
""fullscreenenter"",""1"",""4457""
","
","
","""event"",""trial"",""time""
""fullscreenenter"",""1"",""4457""
","
","","","","","","1659.6000000238419","images/dog7.png","","","memory_trial","3","maybe_new",""
"html-keyboard-response","172","533412","0.0-18.0-0.64","6382","approach_avoid_sv1","""event"",""trial"",""time""
""fullscreenenter"",""1"",""4457""
","
","
","""event"",""trial"",""time""
""fullscreenenter"",""1"",""4457""
","
","","","","","","null","<div style=""font-size:60px;"">+</div>","null","","fixation","","",""
"memory-trial","173","535546","0.0-18.0-1.64","6382","approach_avoid_sv1","""event"",""trial"",""time""
""fullscreenenter"",""1"",""4457""
","
","
","""event"",""trial"",""time""
""fullscreenenter"",""1"",""4457""
","
","","","","","","1129.6000000238419","images/cactus1.png","","","memory_trial","1","definitely_old",""
"html-keyboard-response","174","536049","0.0-18.0-0.65","6382","approach_avoid_sv1","""event"",""trial"",""time""
""fullscreenenter"",""1"",""4457""
","
","
","""event"",""trial"",""time""
""fullscreenenter"",""1"",""4457""
","
","","","","","","null","<div style=""font-size:60px;"">+</div>","null","","fixation","","",""
"memory-trial","175","539261","0.0-18.0-1.65","6382","approach_avoid_sv1","""event"",""trial"",""time""
""fullscreenenter"",""1"",""4457""
","
","
","""event"",""trial"",""time""
""fullscreenenter"",""1"",""4457""
","
","","","","","","2209.6999999284744","images/chair1.png","","","memory_trial","2","maybe_old",""
"html-keyboard-response","176","539763","0.0-18.0-0.66","6382","approach_avoid_sv1","""event"",""trial"",""time""
""fullscreenenter"",""1"",""4457""
","
","
","""event"",""trial"",""time""
""fullscreenenter"",""1"",""4457""
","
","","","","","","null","<div style=""font-size:60px;"">+</div>","null","","fixation","","",""
"memory-trial","177","542710","0.0-18.0-1.66","6382","approach_avoid_sv1","""event"",""trial"",""time""
""fullscreenenter"",""1"",""4457""
","
","
","""event"",""trial"",""time""
""fullscreenenter"",""1"",""4457""
","
","","","","","","1941.6000000238419","images/orange1.png","","","memory_trial","3","maybe_new",""
"html-keyboard-response","178","543212","0.0-18.0-0.67","6382","approach_avoid_sv1","""event"",""trial"",""time""
""fullscreenenter"",""1"",""4457""
","
","
","""event"",""trial"",""time""
""fullscreenenter"",""1"",""4457""
","
","","","","","","null","<div style=""font-size:60px;"">+</div>","null","","fixation","","",""
"memory-trial","179","545202","0.0-18.0-1.67","6382","approach_avoid_sv1","""event"",""trial"",""time""
""fullscreenenter"",""1"",""4457""
","
","
","""event"",""trial"",""time""
""fullscreenenter"",""1"",""4457""
","
","","","","","","982","images/goat5.png","","","memory_trial","4","definitely_new",""
"html-keyboard-response","180","545706","0.0-18.0-0.68","6382","approach_avoid_sv1","""event"",""trial"",""time""
""fullscreenenter"",""1"",""4457""
","
","
","""event"",""trial"",""time""
""fullscreenenter"",""1"",""4457""
","
","","","","","","null","<div style=""font-size:60px;"">+</div>","null","","fixation","","",""
"memory-trial","181","548517","0.0-18.0-1.68","6382","approach_avoid_sv1","""event"",""trial"",""time""
""fullscreenenter"",""1"",""4457""
","
","
","""event"",""trial"",""time""
""fullscreenenter"",""1"",""4457""
","
","","","","","","1802.5","images/cat7.png","","","memory_trial","2","maybe_old",""
"html-keyboard-response","182","549021","0.0-18.0-0.69","6382","approach_avoid_sv1","""event"",""trial"",""time""
""fullscreenenter"",""1"",""4457""
","
","
","""event"",""trial"",""time""
""fullscreenenter"",""1"",""4457""
","
","","","","","","null","<div style=""font-size:60px;"">+</div>","null","","fixation","","",""
"memory-trial","183","551618","0.0-18.0-1.69","6382","approach_avoid_sv1","""event"",""trial"",""time""
""fullscreenenter"",""1"",""4457""
","
","
","""event"",""trial"",""time""
""fullscreenenter"",""1"",""4457""
","
","","","","","","1589.8999999761581","images/goat8.png","","","memory_trial","1","definitely_old",""
"html-keyboard-response","184","552121","0.0-18.0-0.70","6382","approach_avoid_sv1","""event"",""trial"",""time""
""fullscreenenter"",""1"",""4457""
","
","
","""event"",""trial"",""time""
""fullscreenenter"",""1"",""4457""
","
","","","","","","null","<div style=""font-size:60px;"">+</div>","null","","fixation","","",""
"memory-trial","185","555738","0.0-18.0-1.70","6382","approach_avoid_sv1","""event"",""trial"",""time""
""fullscreenenter"",""1"",""4457""
","
","
","""event"",""trial"",""time""
""fullscreenenter"",""1"",""4457""
","
","","","","","","2611.2000000476837","images/plane8.png","","","memory_trial","1","definitely_old",""
"html-keyboard-response","186","556240","0.0-18.0-0.71","6382","approach_avoid_sv1","""event"",""trial"",""time""
""fullscreenenter"",""1"",""4457""
","
","
","""event"",""trial"",""time""
""fullscreenenter"",""1"",""4457""
","
","","","","","","null","<div style=""font-size:60px;"">+</div>","null","","fixation","","",""
"memory-trial","187","558298","0.0-18.0-1.71","6382","approach_avoid_sv1","""event"",""trial"",""time""
""fullscreenenter"",""1"",""4457""
","
","
","""event"",""trial"",""time""
""fullscreenenter"",""1"",""4457""
","
","","","","","","1053.2999999523163","images/tree8.png","","","memory_trial","4","definitely_new",""
"html-keyboard-response","188","558801","0.0-18.0-0.72","6382","approach_avoid_sv1","""event"",""trial"",""time""
""fullscreenenter"",""1"",""4457""
","
","
","""event"",""trial"",""time""
""fullscreenenter"",""1"",""4457""
","
","","","","","","null","<div style=""font-size:60px;"">+</div>","null","","fixation","","",""
"memory-trial","189","561188","0.0-18.0-1.72","6382","approach_avoid_sv1","""event"",""trial"",""time""
""fullscreenenter"",""1"",""4457""
","
","
","""event"",""trial"",""time""
""fullscreenenter"",""1"",""4457""
","
","","","","","","1379.3999999761581","images/cow3.png","","","memory_trial","1","definitely_old",""
"html-keyboard-response","190","561692","0.0-18.0-0.73","6382","approach_avoid_sv1","""event"",""trial"",""time""
""fullscreenenter"",""1"",""4457""
","
","
","""event"",""trial"",""time""
""fullscreenenter"",""1"",""4457""
","
","","","","","","null","<div style=""font-size:60px;"">+</div>","null","","fixation","","",""
"memory-trial","191","563866","0.0-18.0-1.73","6382","approach_avoid_sv1","""event"",""trial"",""time""
""fullscreenenter"",""1"",""4457""
","
","
","""event"",""trial"",""time""
""fullscreenenter"",""1"",""4457""
","
","","","","","","1165.7999999523163","images/straw2.png","","","memory_trial","1","definitely_old",""
"html-keyboard-response","192","564372","0.0-18.0-0.74","6382","approach_avoid_sv1","""event"",""trial"",""time""
""fullscreenenter"",""1"",""4457""
","
","
","""event"",""trial"",""time""
""fullscreenenter"",""1"",""4457""
","
","","","","","","null","<div style=""font-size:60px;"">+</div>","null","","fixation","","",""
"memory-trial","193","567440","0.0-18.0-1.74","6382","approach_avoid_sv1","""event"",""trial"",""time""
""fullscreenenter"",""1"",""4457""
","
","
","""event"",""trial"",""time""
""fullscreenenter"",""1"",""4457""
","
","","","","","","2062","images/flower5.png","","","memory_trial","2","maybe_old",""
"html-keyboard-response","194","567944","0.0-18.0-0.75","6382","approach_avoid_sv1","""event"",""trial"",""time""
""fullscreenenter"",""1"",""4457""
","
","
","""event"",""trial"",""time""
""fullscreenenter"",""1"",""4457""
","
","","","","","","null","<div style=""font-size:60px;"">+</div>","null","","fixation","","",""
"memory-trial","195","570579","0.0-18.0-1.75","6382","approach_avoid_sv1","""event"",""trial"",""time""
""fullscreenenter"",""1"",""4457""
","
","
","""event"",""trial"",""time""
""fullscreenenter"",""1"",""4457""
","
","","","","","","1623.2000000476837","images/orange7.png","","","memory_trial","3","maybe_new",""
"html-keyboard-response","196","571082","0.0-18.0-0.76","6382","approach_avoid_sv1","""event"",""trial"",""time""
""fullscreenenter"",""1"",""4457""
","
","
","""event"",""trial"",""time""
""fullscreenenter"",""1"",""4457""
","
","","","","","","null","<div style=""font-size:60px;"">+</div>","null","","fixation","","",""
"memory-trial","197","573173","0.0-18.0-1.76","6382","approach_avoid_sv1","""event"",""trial"",""time""
""fullscreenenter"",""1"",""4457""
","
","
","""event"",""trial"",""time""
""fullscreenenter"",""1"",""4457""
","
","","","","","","1083.3999999761581","images/table7.png","","","memory_trial","4","definitely_new",""
"html-keyboard-response","198","573694","0.0-18.0-0.77","6382","approach_avoid_sv1","""event"",""trial"",""time""
""fullscreenenter"",""1"",""4457""
","
","
","""event"",""trial"",""time""
""fullscreenenter"",""1"",""4457""
","
","","","","","","null","<div style=""font-size:60px;"">+</div>","null","","fixation","","",""
"memory-trial","199","577123","0.0-18.0-1.77","6382","approach_avoid_sv1","""event"",""trial"",""time""
""fullscreenenter"",""1"",""4457""
","
","
","""event"",""trial"",""time""
""fullscreenenter"",""1"",""4457""
","
","","","","","","2422.7000000476837","images/truck8.png","","","memory_trial","1","definitely_old",""
"html-keyboard-response","200","577626","0.0-18.0-0.78","6382","approach_avoid_sv1","""event"",""trial"",""time""
""fullscreenenter"",""1"",""4457""
","
","
","""event"",""trial"",""time""
""fullscreenenter"",""1"",""4457""
","
","","","","","","null","<div style=""font-size:60px;"">+</div>","null","","fixation","","",""
"memory-trial","201","579836","0.0-18.0-1.78","6382","approach_avoid_sv1","""event"",""trial"",""time""
""fullscreenenter"",""1"",""4457""
","
","
","""event"",""trial"",""time""
""fullscreenenter"",""1"",""4457""
","
","","","","","","1200.7999999523163","images/cactus8.png","","","memory_trial","4","definitely_new",""
"html-keyboard-response","202","580340","0.0-18.0-0.79","6382","approach_avoid_sv1","""event"",""trial"",""time""
""fullscreenenter"",""1"",""4457""
","
","
","""event"",""trial"",""time""
""fullscreenenter"",""1"",""4457""
","
","","","","","","null","<div style=""font-size:60px;"">+</div>","null","","fixation","","",""
"memory-trial","203","583010","0.0-18.0-1.79","6382","approach_avoid_sv1","""event"",""trial"",""time""
""fullscreenenter"",""1"",""4457""
","
","
","""event"",""trial"",""time""
""fullscreenenter"",""1"",""4457""
","
","","","","","","1663.1000000238419","images/rabbit7.png","","","memory_trial","3","maybe_new",""
"html-keyboard-response","204","583512","0.0-18.0-0.80","6382","approach_avoid_sv1","""event"",""trial"",""time""
""fullscreenenter"",""1"",""4457""
","
","
","""event"",""trial"",""time""
""fullscreenenter"",""1"",""4457""
","
","","","","","","null","<div style=""font-size:60px;"">+</div>","null","","fixation","","",""
"memory-trial","205","585490","0.0-18.0-1.80","6382","approach_avoid_sv1","""event"",""trial"",""time""
""fullscreenenter"",""1"",""4457""
","
","
","""event"",""trial"",""time""
""fullscreenenter"",""1"",""4457""
","
","","","","","","973.6999999284744","images/table4.png","","","memory_trial","4","definitely_new",""
"html-keyboard-response","206","585991","0.0-18.0-0.81","6382","approach_avoid_sv1","""event"",""trial"",""time""
""fullscreenenter"",""1"",""4457""
","
","
","""event"",""trial"",""time""
""fullscreenenter"",""1"",""4457""
","
","","","","","","null","<div style=""font-size:60px;"">+</div>","null","","fixation","","",""
"memory-trial","207","587791","0.0-18.0-1.81","6382","approach_avoid_sv1","""event"",""trial"",""time""
""fullscreenenter"",""1"",""4457""
","
","
","""event"",""trial"",""time""
""fullscreenenter"",""1"",""4457""
","
","","","","","","796","images/train3.png","","","memory_trial","4","definitely_new",""
"html-keyboard-response","208","588293","0.0-18.0-0.82","6382","approach_avoid_sv1","""event"",""trial"",""time""
""fullscreenenter"",""1"",""4457""
","
","
","""event"",""trial"",""time""
""fullscreenenter"",""1"",""4457""
","
","","","","","","null","<div style=""font-size:60px;"">+</div>","null","","fixation","","",""
"memory-trial","209","590383","0.0-18.0-1.82","6382","approach_avoid_sv1","""event"",""trial"",""time""
""fullscreenenter"",""1"",""4457""
","
","
","""event"",""trial"",""time""
""fullscreenenter"",""1"",""4457""
","
","","","","","","1085.6000000238419","images/cat2.png","","","memory_trial","1","definitely_old",""
"html-keyboard-response","210","590886","0.0-18.0-0.83","6382","approach_avoid_sv1","""event"",""trial"",""time""
""fullscreenenter"",""1"",""4457""
","
","
","""event"",""trial"",""time""
""fullscreenenter"",""1"",""4457""
","
","","","","","","null","<div style=""font-size:60px;"">+</div>","null","","fixation","","",""
"memory-trial","211","593591","0.0-18.0-1.83","6382","approach_avoid_sv1","""event"",""trial"",""time""
""fullscreenenter"",""1"",""4457""
","
","
","""event"",""trial"",""time""
""fullscreenenter"",""1"",""4457""
","
","","","","","","1701.6000000238419","images/apple2.png","","","memory_trial","2","maybe_old",""
"html-keyboard-response","212","594093","0.0-18.0-0.84","6382","approach_avoid_sv1","""event"",""trial"",""time""
""fullscreenenter"",""1"",""4457""
","
","
","""event"",""trial"",""time""
""fullscreenenter"",""1"",""4457""
","
","","","","","","null","<div style=""font-size:60px;"">+</div>","null","","fixation","","",""
"memory-trial","213","596048","0.0-18.0-1.84","6382","approach_avoid_sv1","""event"",""trial"",""time""
""fullscreenenter"",""1"",""4457""
","
","
","""event"",""trial"",""time""
""fullscreenenter"",""1"",""4457""
","
","","","","","","930.3999999761581","images/table2.png","","","memory_trial","4","definitely_new",""
"html-keyboard-response","214","596550","0.0-18.0-0.85","6382","approach_avoid_sv1","""event"",""trial"",""time""
""fullscreenenter"",""1"",""4457""
","
","
","""event"",""trial"",""time""
""fullscreenenter"",""1"",""4457""
","
","","","","","","null","<div style=""font-size:60px;"">+</div>","null","","fixation","","",""
"memory-trial","215","599041","0.0-18.0-1.85","6382","approach_avoid_sv1","""event"",""trial"",""time""
""fullscreenenter"",""1"",""4457""
","
","
","""event"",""trial"",""time""
""fullscreenenter"",""1"",""4457""
","
","","","","","","1487.2000000476837","images/goat1.png","","","memory_trial","4","definitely_new",""
"html-keyboard-response","216","599543","0.0-18.0-0.86","6382","approach_avoid_sv1","""event"",""trial"",""time""
""fullscreenenter"",""1"",""4457""
","
","
","""event"",""trial"",""time""
""fullscreenenter"",""1"",""4457""
","
","","","","","","null","<div style=""font-size:60px;"">+</div>","null","","fixation","","",""
"memory-trial","217","602226","0.0-18.0-1.86","6382","approach_avoid_sv1","""event"",""trial"",""time""
""fullscreenenter"",""1"",""4457""
","
","
","""event"",""trial"",""time""
""fullscreenenter"",""1"",""4457""
","
","","","","","","1679.3999999761581","images/straw4.png","","","memory_trial","2","maybe_old",""
"html-keyboard-response","218","602728","0.0-18.0-0.87","6382","approach_avoid_sv1","""event"",""trial"",""time""
""fullscreenenter"",""1"",""4457""
","
","
","""event"",""trial"",""time""
""fullscreenenter"",""1"",""4457""
","
","","","","","","null","<div style=""font-size:60px;"">+</div>","null","","fixation","","",""
"memory-trial","219","605141","0.0-18.0-1.87","6382","approach_avoid_sv1","""event"",""trial"",""time""
""fullscreenenter"",""1"",""4457""
","
","
","""event"",""trial"",""time""
""fullscreenenter"",""1"",""4457""
","
","","","","","","1405.3999999761581","images/truck2.png","","","memory_trial","1","definitely_old",""
"html-keyboard-response","220","605645","0.0-18.0-0.88","6382","approach_avoid_sv1","""event"",""trial"",""time""
""fullscreenenter"",""1"",""4457""
","
","
","""event"",""trial"",""time""
""fullscreenenter"",""1"",""4457""
","
","","","","","","null","<div style=""font-size:60px;"">+</div>","null","","fixation","","",""
"memory-trial","221","608177","0.0-18.0-1.88","6382","approach_avoid_sv1","""event"",""trial"",""time""
""fullscreenenter"",""1"",""4457""
","
","
","""event"",""trial"",""time""
""fullscreenenter"",""1"",""4457""
","
","","","","","","1521.7999999523163","images/rodent4.png","","","memory_trial","1","definitely_old",""
"html-keyboard-response","222","608679","0.0-18.0-0.89","6382","approach_avoid_sv1","""event"",""trial"",""time""
""fullscreenenter"",""1"",""4457""
","
","
","""event"",""trial"",""time""
""fullscreenenter"",""1"",""4457""
","
","","","","","","null","<div style=""font-size:60px;"">+</div>","null","","fixation","","",""
"memory-trial","223","610584","0.0-18.0-1.89","6382","approach_avoid_sv1","""event"",""trial"",""time""
""fullscreenenter"",""1"",""4457""
","
","
","""event"",""trial"",""time""
""fullscreenenter"",""1"",""4457""
","
","","","","","","898.3999999761581","images/sofa5.png","","","memory_trial","1","definitely_old",""
"html-keyboard-response","224","611087","0.0-18.0-0.90","6382","approach_avoid_sv1","""event"",""trial"",""time""
""fullscreenenter"",""1"",""4457""
","
","
","""event"",""trial"",""time""
""fullscreenenter"",""1"",""4457""
","
","","","","","","null","<div style=""font-size:60px;"">+</div>","null","","fixation","","",""
"memory-trial","225","612851","0.0-18.0-1.90","6382","approach_avoid_sv1","""event"",""trial"",""time""
""fullscreenenter"",""1"",""4457""
","
","
","""event"",""trial"",""time""
""fullscreenenter"",""1"",""4457""
","
","","","","","","755.7999999523163","images/chair2.png","","","memory_trial","1","definitely_old",""
"html-keyboard-response","226","613355","0.0-18.0-0.91","6382","approach_avoid_sv1","""event"",""trial"",""time""
""fullscreenenter"",""1"",""4457""
","
","
","""event"",""trial"",""time""
""fullscreenenter"",""1"",""4457""
","
","","","","","","null","<div style=""font-size:60px;"">+</div>","null","","fixation","","",""
"memory-trial","227","615635","0.0-18.0-1.91","6382","approach_avoid_sv1","""event"",""trial"",""time""
""fullscreenenter"",""1"",""4457""
","
","
","""event"",""trial"",""time""
""fullscreenenter"",""1"",""4457""
","
","","","","","","1272.5","images/straw1.png","","","memory_trial","4","definitely_new",""
"html-button-response","228","617400","0.0-18.0-2.91-0.91","6382","approach_avoid_sv1","""event"",""trial"",""time""
""fullscreenenter"",""1"",""4457""
","
","
","""event"",""trial"",""time""
""fullscreenenter"",""1"",""4457""
","
","","","","","","1761.5","<p> Take a break! </p><p> Click the button to continue. </p>","0","","break","","",""
"html-keyboard-response","229","617901","0.0-18.0-0.92","6382","approach_avoid_sv1","""event"",""trial"",""time""
""fullscreenenter"",""1"",""4457""
","
","
","""event"",""trial"",""time""
""fullscreenenter"",""1"",""4457""
","
","","","","","","null","<div style=""font-size:60px;"">+</div>","null","","fixation","","",""
"memory-trial","230","621528","0.0-18.0-1.92","6382","approach_avoid_sv1","""event"",""trial"",""time""
""fullscreenenter"",""1"",""4457""
","
","
","""event"",""trial"",""time""
""fullscreenenter"",""1"",""4457""
","
","","","","","","2622","images/table6.png","","","memory_trial","4","definitely_new",""
"html-keyboard-response","231","622032","0.0-18.0-0.93","6382","approach_avoid_sv1","""event"",""trial"",""time""
""fullscreenenter"",""1"",""4457""
","
","
","""event"",""trial"",""time""
""fullscreenenter"",""1"",""4457""
","
","","","","","","null","<div style=""font-size:60px;"">+</div>","null","","fixation","","",""
"memory-trial","232","625303","0.0-18.0-1.93","6382","approach_avoid_sv1","""event"",""trial"",""time""
""fullscreenenter"",""1"",""4457""
","
","
","""event"",""trial"",""time""
""fullscreenenter"",""1"",""4457""
","
","","","","","","2263","images/rabbit8.png","","","memory_trial","3","maybe_new",""
"html-keyboard-response","233","625806","0.0-18.0-0.94","6382","approach_avoid_sv1","""event"",""trial"",""time""
""fullscreenenter"",""1"",""4457""
","
","
","""event"",""trial"",""time""
""fullscreenenter"",""1"",""4457""
","
","","","","","","null","<div style=""font-size:60px;"">+</div>","null","","fixation","","",""
"memory-trial","234","627920","0.0-18.0-1.94","6382","approach_avoid_sv1","""event"",""trial"",""time""
""fullscreenenter"",""1"",""4457""
","
","
","""event"",""trial"",""time""
""fullscreenenter"",""1"",""4457""
","
","","","","","","1107.7000000476837","images/apple3.png","","","memory_trial","4","definitely_new",""
"html-keyboard-response","235","628423","0.0-18.0-0.95","6382","approach_avoid_sv1","""event"",""trial"",""time""
""fullscreenenter"",""1"",""4457""
","
","
","""event"",""trial"",""time""
""fullscreenenter"",""1"",""4457""
","
","","","","","","null","<div style=""font-size:60px;"">+</div>","null","","fixation","","",""
"memory-trial","236","630690","0.0-18.0-1.95","6382","approach_avoid_sv1","""event"",""trial"",""time""
""fullscreenenter"",""1"",""4457""
","
","
","""event"",""trial"",""time""
""fullscreenenter"",""1"",""4457""
","
","","","","","","1259.1999999284744","images/sheep4.png","","","memory_trial","1","definitely_old",""
"html-keyboard-response","237","631195","0.0-18.0-0.96","6382","approach_avoid_sv1","""event"",""trial"",""time""
""fullscreenenter"",""1"",""4457""
","
","
","""event"",""trial"",""time""
""fullscreenenter"",""1"",""4457""
","
","","","","","","null","<div style=""font-size:60px;"">+</div>","null","","fixation","","",""
"memory-trial","238","633464","0.0-18.0-1.96","6382","approach_avoid_sv1","""event"",""trial"",""time""
""fullscreenenter"",""1"",""4457""
","
","
","""event"",""trial"",""time""
""fullscreenenter"",""1"",""4457""
","
","","","","","","1263.8999999761581","images/bed2.png","","","memory_trial","1","definitely_old",""
"html-keyboard-response","239","633967","0.0-18.0-0.97","6382","approach_avoid_sv1","""event"",""trial"",""time""
""fullscreenenter"",""1"",""4457""
","
","
","""event"",""trial"",""time""
""fullscreenenter"",""1"",""4457""
","
","","","","","","null","<div style=""font-size:60px;"">+</div>","null","","fixation","","",""
"memory-trial","240","636125","0.0-18.0-1.97","6382","approach_avoid_sv1","""event"",""trial"",""time""
""fullscreenenter"",""1"",""4457""
","
","
","""event"",""trial"",""time""
""fullscreenenter"",""1"",""4457""
","
","","","","","","1150.1000000238419","images/cat5.png","","","memory_trial","1","definitely_old",""
"html-keyboard-response","241","636627","0.0-18.0-0.98","6382","approach_avoid_sv1","""event"",""trial"",""time""
""fullscreenenter"",""1"",""4457""
","
","
","""event"",""trial"",""time""
""fullscreenenter"",""1"",""4457""
","
","","","","","","null","<div style=""font-size:60px;"">+</div>","null","","fixation","","",""
"memory-trial","242","638694","0.0-18.0-1.98","6382","approach_avoid_sv1","""event"",""trial"",""time""
""fullscreenenter"",""1"",""4457""
","
","
","""event"",""trial"",""time""
""fullscreenenter"",""1"",""4457""
","
","","","","","","1063.4000000953674","images/tree4.png","","","memory_trial","4","definitely_new",""
"html-keyboard-response","243","639199","0.0-18.0-0.99","6382","approach_avoid_sv1","""event"",""trial"",""time""
""fullscreenenter"",""1"",""4457""
","
","
","""event"",""trial"",""time""
""fullscreenenter"",""1"",""4457""
","
","","","","","","null","<div style=""font-size:60px;"">+</div>","null","","fixation","","",""
"memory-trial","244","641961","0.0-18.0-1.99","6382","approach_avoid_sv1","""event"",""trial"",""time""
""fullscreenenter"",""1"",""4457""
","
","
","""event"",""trial"",""time""
""fullscreenenter"",""1"",""4457""
","
","","","","","","1750.3999999761581","images/plane1.png","","","memory_trial","1","definitely_old",""
"html-keyboard-response","245","642464","0.0-18.0-0.100","6382","approach_avoid_sv1","""event"",""trial"",""time""
""fullscreenenter"",""1"",""4457""
","
","
","""event"",""trial"",""time""
""fullscreenenter"",""1"",""4457""
","
","","","","","","null","<div style=""font-size:60px;"">+</div>","null","","fixation","","",""
"memory-trial","246","645123","0.0-18.0-1.100","6382","approach_avoid_sv1","""event"",""trial"",""time""
""fullscreenenter"",""1"",""4457""
","
","
","""event"",""trial"",""time""
""fullscreenenter"",""1"",""4457""
","
","","","","","","1655","images/rabbit5.png","","","memory_trial","3","maybe_new",""
"html-keyboard-response","247","645625","0.0-18.0-0.101","6382","approach_avoid_sv1","""event"",""trial"",""time""
""fullscreenenter"",""1"",""4457""
","
","
","""event"",""trial"",""time""
""fullscreenenter"",""1"",""4457""
","
","","","","","","null","<div style=""font-size:60px;"">+</div>","null","","fixation","","",""
"memory-trial","248","647775","0.0-18.0-1.101","6382","approach_avoid_sv1","""event"",""trial"",""time""
""fullscreenenter"",""1"",""4457""
","
","
","""event"",""trial"",""time""
""fullscreenenter"",""1"",""4457""
","
","","","","","","1145.3999999761581","images/sofa3.png","","","memory_trial","1","definitely_old",""
"html-keyboard-response","249","648277","0.0-18.0-0.102","6382","approach_avoid_sv1","""event"",""trial"",""time""
""fullscreenenter"",""1"",""4457""
","
","
","""event"",""trial"",""time""
""fullscreenenter"",""1"",""4457""
","
","","","","","","null","<div style=""font-size:60px;"">+</div>","null","","fixation","","",""
"memory-trial","250","650301","0.0-18.0-1.102","6382","approach_avoid_sv1","""event"",""trial"",""time""
""fullscreenenter"",""1"",""4457""
","
","
","""event"",""trial"",""time""
""fullscreenenter"",""1"",""4457""
","
","","","","","","1020.3999999761581","images/dog6.png","","","memory_trial","1","definitely_old",""
"html-keyboard-response","251","650804","0.0-18.0-0.103","6382","approach_avoid_sv1","""event"",""trial"",""time""
""fullscreenenter"",""1"",""4457""
","
","
","""event"",""trial"",""time""
""fullscreenenter"",""1"",""4457""
","
","","","","","","null","<div style=""font-size:60px;"">+</div>","null","","fixation","","",""
"memory-trial","252","652805","0.0-18.0-1.103","6382","approach_avoid_sv1","""event"",""trial"",""time""
""fullscreenenter"",""1"",""4457""
","
","
","""event"",""trial"",""time""
""fullscreenenter"",""1"",""4457""
","
","","","","","","996.2999999523163","images/orange2.png","","","memory_trial","4","definitely_new",""
"html-keyboard-response","253","653308","0.0-18.0-0.104","6382","approach_avoid_sv1","""event"",""trial"",""time""
""fullscreenenter"",""1"",""4457""
","
","
","""event"",""trial"",""time""
""fullscreenenter"",""1"",""4457""
","
","","","","","","null","<div style=""font-size:60px;"">+</div>","null","","fixation","","",""
"memory-trial","254","655293","0.0-18.0-1.104","6382","approach_avoid_sv1","""event"",""trial"",""time""
""fullscreenenter"",""1"",""4457""
","
","
","""event"",""trial"",""time""
""fullscreenenter"",""1"",""4457""
","
","","","","","","980.7000000476837","images/train1.png","","","memory_trial","4","definitely_new",""
"html-keyboard-response","255","655794","0.0-18.0-0.105","6382","approach_avoid_sv1","""event"",""trial"",""time""
""fullscreenenter"",""1"",""4457""
","
","
","""event"",""trial"",""time""
""fullscreenenter"",""1"",""4457""
","
","","","","","","null","<div style=""font-size:60px;"">+</div>","null","","fixation","","",""
"memory-trial","256","657850","0.0-18.0-1.105","6382","approach_avoid_sv1","""event"",""trial"",""time""
""fullscreenenter"",""1"",""4457""
","
","
","""event"",""trial"",""time""
""fullscreenenter"",""1"",""4457""
","
","","","","","","1051.6000000238419","images/bush5.png","","","memory_trial","1","definitely_old",""
"html-keyboard-response","257","658352","0.0-18.0-0.106","6382","approach_avoid_sv1","""event"",""trial"",""time""
""fullscreenenter"",""1"",""4457""
","
","
","""event"",""trial"",""time""
""fullscreenenter"",""1"",""4457""
","
","","","","","","null","<div style=""font-size:60px;"">+</div>","null","","fixation","","",""
"memory-trial","258","660364","0.0-18.0-1.106","6382","approach_avoid_sv1","""event"",""trial"",""time""
""fullscreenenter"",""1"",""4457""
","
","
","""event"",""trial"",""time""
""fullscreenenter"",""1"",""4457""
","
","","","","","","1009.1999999284744","images/horse2.png","","","memory_trial","4","definitely_new",""
"html-keyboard-response","259","660870","0.0-18.0-0.107","6382","approach_avoid_sv1","""event"",""trial"",""time""
""fullscreenenter"",""1"",""4457""
","
","
","""event"",""trial"",""time""
""fullscreenenter"",""1"",""4457""
","
","","","","","","null","<div style=""font-size:60px;"">+</div>","null","","fixation","","",""
"memory-trial","260","663055","0.0-18.0-1.107","6382","approach_avoid_sv1","""event"",""trial"",""time""
""fullscreenenter"",""1"",""4457""
","
","
","""event"",""trial"",""time""
""fullscreenenter"",""1"",""4457""
","
","","","","","","1177.8000000715256","images/plane6.png","","","memory_trial","2","maybe_old",""
"html-keyboard-response","261","663560","0.0-18.0-0.108","6382","approach_avoid_sv1","""event"",""trial"",""time""
""fullscreenenter"",""1"",""4457""
","
","
","""event"",""trial"",""time""
""fullscreenenter"",""1"",""4457""
","
","","","","","","null","<div style=""font-size:60px;"">+</div>","null","","fixation","","",""
"memory-trial","262","665856","0.0-18.0-1.108","6382","approach_avoid_sv1","""event"",""trial"",""time""
""fullscreenenter"",""1"",""4457""
","
","
","""event"",""trial"",""time""
""fullscreenenter"",""1"",""4457""
","
","","","","","","1287.7000000476837","images/sheep7.png","","","memory_trial","1","definitely_old",""
"html-keyboard-response","263","666359","0.0-18.0-0.109","6382","approach_avoid_sv1","""event"",""trial"",""time""
""fullscreenenter"",""1"",""4457""
","
","
","""event"",""trial"",""time""
""fullscreenenter"",""1"",""4457""
","
","","","","","","null","<div style=""font-size:60px;"">+</div>","null","","fixation","","",""
"memory-trial","264","668160","0.0-18.0-1.109","6382","approach_avoid_sv1","""event"",""trial"",""time""
""fullscreenenter"",""1"",""4457""
","
","
","""event"",""trial"",""time""
""fullscreenenter"",""1"",""4457""
","
","","","","","","795.9000000953674","images/table8.png","","","memory_trial","4","definitely_new",""
"html-keyboard-response","265","668662","0.0-18.0-0.110","6382","approach_avoid_sv1","""event"",""trial"",""time""
""fullscreenenter"",""1"",""4457""
","
","
","""event"",""trial"",""time""
""fullscreenenter"",""1"",""4457""
","
","","","","","","null","<div style=""font-size:60px;"">+</div>","null","","fixation","","",""
"memory-trial","266","670818","0.0-18.0-1.110","6382","approach_avoid_sv1","""event"",""trial"",""time""
""fullscreenenter"",""1"",""4457""
","
","
","""event"",""trial"",""time""
""fullscreenenter"",""1"",""4457""
","
","","","","","","1148.4000000953674","images/sofa1.png","","","memory_trial","1","definitely_old",""
"html-keyboard-response","267","671322","0.0-18.0-0.111","6382","approach_avoid_sv1","""event"",""trial"",""time""
""fullscreenenter"",""1"",""4457""
","
","
","""event"",""trial"",""time""
""fullscreenenter"",""1"",""4457""
","
","","","","","","null","<div style=""font-size:60px;"">+</div>","null","","fixation","","",""
"memory-trial","268","674443","0.0-18.0-1.111","6382","approach_avoid_sv1","""event"",""trial"",""time""
""fullscreenenter"",""1"",""4457""
","
","
","""event"",""trial"",""time""
""fullscreenenter"",""1"",""4457""
","
","","","","","","2110.6999999284744","images/sofa7.png","","","memory_trial","3","maybe_new",""
"html-keyboard-response","269","674946","0.0-18.0-0.112","6382","approach_avoid_sv1","""event"",""trial"",""time""
""fullscreenenter"",""1"",""4457""
","
","
","""event"",""trial"",""time""
""fullscreenenter"",""1"",""4457""
","
","","","","","","null","<div style=""font-size:60px;"">+</div>","null","","fixation","","",""
"memory-trial","270","677837","0.0-18.0-1.112","6382","approach_avoid_sv1","""event"",""trial"",""time""
""fullscreenenter"",""1"",""4457""
","
","
","""event"",""trial"",""time""
""fullscreenenter"",""1"",""4457""
","
","","","","","","1882.6999999284744","images/cow5.png","","","memory_trial","2","maybe_old",""
"html-keyboard-response","271","678340","0.0-18.0-0.113","6382","approach_avoid_sv1","""event"",""trial"",""time""
""fullscreenenter"",""1"",""4457""
","
","
","""event"",""trial"",""time""
""fullscreenenter"",""1"",""4457""
","
","","","","","","null","<div style=""font-size:60px;"">+</div>","null","","fixation","","",""
"memory-trial","272","680276","0.0-18.0-1.113","6382","approach_avoid_sv1","""event"",""trial"",""time""
""fullscreenenter"",""1"",""4457""
","
","
","""event"",""trial"",""time""
""fullscreenenter"",""1"",""4457""
","
","","","","","","928.1000000238419","images/horse7.png","","","memory_trial","4","definitely_new",""
"html-keyboard-response","273","680779","0.0-18.0-0.114","6382","approach_avoid_sv1","""event"",""trial"",""time""
""fullscreenenter"",""1"",""4457""
","
","
","""event"",""trial"",""time""
""fullscreenenter"",""1"",""4457""
","
","","","","","","null","<div style=""font-size:60px;"">+</div>","null","","fixation","","",""
"memory-trial","274","684915","0.0-18.0-1.114","6382","approach_avoid_sv1","""event"",""trial"",""time""
""fullscreenenter"",""1"",""4457""
","
","
","""event"",""trial"",""time""
""fullscreenenter"",""1"",""4457""
","
","","","","","","3127.5","images/straw5.png","","","memory_trial","1","definitely_old",""
"html-keyboard-response","275","685417","0.0-18.0-0.115","6382","approach_avoid_sv1","""event"",""trial"",""time""
""fullscreenenter"",""1"",""4457""
","
","
","""event"",""trial"",""time""
""fullscreenenter"",""1"",""4457""
","
","","","","","","null","<div style=""font-size:60px;"">+</div>","null","","fixation","","",""
"memory-trial","276","688059","0.0-18.0-1.115","6382","approach_avoid_sv1","""event"",""trial"",""time""
""fullscreenenter"",""1"",""4457""
","
","
","""event"",""trial"",""time""
""fullscreenenter"",""1"",""4457""
","
","","","","","","1632.3000000715256","images/horse5.png","","","memory_trial","2","maybe_old",""
"html-keyboard-response","277","688562","0.0-18.0-0.116","6382","approach_avoid_sv1","""event"",""trial"",""time""
""fullscreenenter"",""1"",""4457""
","
","
","""event"",""trial"",""time""
""fullscreenenter"",""1"",""4457""
","
","","","","","","null","<div style=""font-size:60px;"">+</div>","null","","fixation","","",""
"memory-trial","278","691333","0.0-18.0-1.116","6382","approach_avoid_sv1","""event"",""trial"",""time""
""fullscreenenter"",""1"",""4457""
","
","
","""event"",""trial"",""time""
""fullscreenenter"",""1"",""4457""
","
","","","","","","1763.6999999284744","images/cactus3.png","","","memory_trial","3","maybe_new",""
"html-keyboard-response","279","691836","0.0-18.0-0.117","6382","approach_avoid_sv1","""event"",""trial"",""time""
""fullscreenenter"",""1"",""4457""
","
","
","""event"",""trial"",""time""
""fullscreenenter"",""1"",""4457""
","
","","","","","","null","<div style=""font-size:60px;"">+</div>","null","","fixation","","",""
"memory-trial","280","694263","0.0-18.0-1.117","6382","approach_avoid_sv1","""event"",""trial"",""time""
""fullscreenenter"",""1"",""4457""
","
","
","""event"",""trial"",""time""
""fullscreenenter"",""1"",""4457""
","
","","","","","","1416.5","images/dog3.png","","","memory_trial","4","definitely_new",""
"html-keyboard-response","281","694768","0.0-18.0-0.118","6382","approach_avoid_sv1","""event"",""trial"",""time""
""fullscreenenter"",""1"",""4457""
","
","
","""event"",""trial"",""time""
""fullscreenenter"",""1"",""4457""
","
","","","","","","null","<div style=""font-size:60px;"">+</div>","null","","fixation","","",""
"memory-trial","282","697198","0.0-18.0-1.118","6382","approach_avoid_sv1","""event"",""trial"",""time""
""fullscreenenter"",""1"",""4457""
","
","
","""event"",""trial"",""time""
""fullscreenenter"",""1"",""4457""
","
","","","","","","1423.9000000953674","images/sheep3.png","","","memory_trial","2","maybe_old",""
"html-keyboard-response","283","697704","0.0-18.0-0.119","6382","approach_avoid_sv1","""event"",""trial"",""time""
""fullscreenenter"",""1"",""4457""
","
","
","""event"",""trial"",""time""
""fullscreenenter"",""1"",""4457""
","
","","","","","","null","<div style=""font-size:60px;"">+</div>","null","","fixation","","",""
"memory-trial","284","700614","0.0-18.0-1.119","6382","approach_avoid_sv1","""event"",""trial"",""time""
""fullscreenenter"",""1"",""4457""
","
","
","""event"",""trial"",""time""
""fullscreenenter"",""1"",""4457""
","
","","","","","","1899.5999999046326","images/banana1.png","","","memory_trial","2","maybe_old",""
"html-keyboard-response","285","701117","0.0-18.0-0.120","6382","approach_avoid_sv1","""event"",""trial"",""time""
""fullscreenenter"",""1"",""4457""
","
","
","""event"",""trial"",""time""
""fullscreenenter"",""1"",""4457""
","
","","","","","","null","<div style=""font-size:60px;"">+</div>","null","","fixation","","",""
"memory-trial","286","703098","0.0-18.0-1.120","6382","approach_avoid_sv1","""event"",""trial"",""time""
""fullscreenenter"",""1"",""4457""
","
","
","""event"",""trial"",""time""
""fullscreenenter"",""1"",""4457""
","
","","","","","","974.7000000476837","images/apple4.png","","","memory_trial","4","definitely_new",""
"html-keyboard-response","287","703600","0.0-18.0-0.121","6382","approach_avoid_sv1","""event"",""trial"",""time""
""fullscreenenter"",""1"",""4457""
","
","
","""event"",""trial"",""time""
""fullscreenenter"",""1"",""4457""
","
","","","","","","null","<div style=""font-size:60px;"">+</div>","null","","fixation","","",""
"memory-trial","288","706317","0.0-18.0-1.121","6382","approach_avoid_sv1","""event"",""trial"",""time""
""fullscreenenter"",""1"",""4457""
","
","
","""event"",""trial"",""time""
""fullscreenenter"",""1"",""4457""
","
","","","","","","1712.2000000476837","images/dog2.png","","","memory_trial","1","definitely_old",""
"html-keyboard-response","289","706819","0.0-18.0-0.122","6382","approach_avoid_sv1","""event"",""trial"",""time""
""fullscreenenter"",""1"",""4457""
","
","
","""event"",""trial"",""time""
""fullscreenenter"",""1"",""4457""
","
","","","","","","null","<div style=""font-size:60px;"">+</div>","null","","fixation","","",""
"memory-trial","290","708744","0.0-18.0-1.122","6382","approach_avoid_sv1","""event"",""trial"",""time""
""fullscreenenter"",""1"",""4457""
","
","
","""event"",""trial"",""time""
""fullscreenenter"",""1"",""4457""
","
","","","","","","921.1000000238419","images/chair8.png","","","memory_trial","1","definitely_old",""
"html-keyboard-response","291","709246","0.0-18.0-0.123","6382","approach_avoid_sv1","""event"",""trial"",""time""
""fullscreenenter"",""1"",""4457""
","
","
","""event"",""trial"",""time""
""fullscreenenter"",""1"",""4457""
","
","","","","","","null","<div style=""font-size:60px;"">+</div>","null","","fixation","","",""
"memory-trial","292","711187","0.0-18.0-1.123","6382","approach_avoid_sv1","""event"",""trial"",""time""
""fullscreenenter"",""1"",""4457""
","
","
","""event"",""trial"",""time""
""fullscreenenter"",""1"",""4457""
","
","","","","","","935.2999999523163","images/dog8.png","","","memory_trial","1","definitely_old",""
"html-keyboard-response","293","711689","0.0-18.0-0.124","6382","approach_avoid_sv1","""event"",""trial"",""time""
""fullscreenenter"",""1"",""4457""
","
","
","""event"",""trial"",""time""
""fullscreenenter"",""1"",""4457""
","
","","","","","","null","<div style=""font-size:60px;"">+</div>","null","","fixation","","",""
"memory-trial","294","713699","0.0-18.0-1.124","6382","approach_avoid_sv1","""event"",""trial"",""time""
""fullscreenenter"",""1"",""4457""
","
","
","""event"",""trial"",""time""
""fullscreenenter"",""1"",""4457""
","
","","","","","","1006.6999999284744","images/truck4.png","","","memory_trial","4","definitely_new",""
"html-keyboard-response","295","714207","0.0-18.0-0.125","6382","approach_avoid_sv1","""event"",""trial"",""time""
""fullscreenenter"",""1"",""4457""
","
","
","""event"",""trial"",""time""
""fullscreenenter"",""1"",""4457""
","
","","","","","","null","<div style=""font-size:60px;"">+</div>","null","","fixation","","",""
"memory-trial","296","716244","0.0-18.0-1.125","6382","approach_avoid_sv1","""event"",""trial"",""time""
""fullscreenenter"",""1"",""4457""
","
","
","""event"",""trial"",""time""
""fullscreenenter"",""1"",""4457""
","
","","","","","","1033.6000000238419","images/truck1.png","","","memory_trial","4","definitely_new",""
