"trial_type","trial_index","time_elapsed","internal_node_id","subject_id","task_version","interactions","blur_events","focus_events","fullscreenenter_events","fullscreenexit_events","success","timeout","failed_images","failed_audio","failed_video","rt","stimulus","response","button_pressed","task_part","key_press","answer","correct"
"pavlovia","0","6","0.0-0.0","5985","approach_avoid_sv1","""event"",""trial"",""time""
""fullscreenenter"",""1"",""3637""
","
","
","""event"",""trial"",""time""
""fullscreenenter"",""1"",""3637""
","
","","","","","","","","","","","","",""
"fullscreen","1","4596","0.0-1.0","5985","approach_avoid_sv1","""event"",""trial"",""time""
""fullscreenenter"",""1"",""3637""
","
","
","""event"",""trial"",""time""
""fullscreenenter"",""1"",""3637""
","
","true","","","","","","","","","","","",""
"preload","2","30024","0.0-2.0","5985","approach_avoid_sv1","""event"",""trial"",""time""
""fullscreenenter"",""1"",""3637""
","
","
","""event"",""trial"",""time""
""fullscreenenter"",""1"",""3637""
","
","true","false","[]","[]","[]","","","","","","","",""
"preload","3","42253","0.0-3.0","5985","approach_avoid_sv1","""event"",""trial"",""time""
""fullscreenenter"",""1"",""3637""
","
","
","""event"",""trial"",""time""
""fullscreenenter"",""1"",""3637""
","
","true","false","[]","[]","[]","","","","","","","",""
"preload","4","43108","0.0-4.0","5985","approach_avoid_sv1","""event"",""trial"",""time""
""fullscreenenter"",""1"",""3637""
","
","
","""event"",""trial"",""time""
""fullscreenenter"",""1"",""3637""
","
","true","false","[]","[]","[]","","","","","","","",""
"audio-keyboard-response","5","56938","0.0-5.0","5985","approach_avoid_sv1","""event"",""trial"",""time""
""fullscreenenter"",""1"",""3637""
","
","
","""event"",""trial"",""time""
""fullscreenenter"",""1"",""3637""
","
","","","","","","13581.333333333334","audio/beep_loop.wav"," ","","","","",""
"audio-button-response","6","58746","0.0-6.0","5985","approach_avoid_sv1","""event"",""trial"",""time""
""fullscreenenter"",""1"",""3637""
","
","
","""event"",""trial"",""time""
""fullscreenenter"",""1"",""3637""
","
","","","","","","1800","audio/turtle.wav","3","","","","",""
"audio-button-response","7","60997","0.0-7.0","5985","approach_avoid_sv1","""event"",""trial"",""time""
""fullscreenenter"",""1"",""3637""
","
","
","""event"",""trial"",""time""
""fullscreenenter"",""1"",""3637""
","
","","","","","","1251","audio/shark.wav","2","","","","",""
"preload","8","78307","0.0-8.0","5985","approach_avoid_sv1","""event"",""trial"",""time""
""fullscreenenter"",""1"",""3637""
","
","
","""event"",""trial"",""time""
""fullscreenenter"",""1"",""3637""
","
","true","false","[]","[]","[]","","","","","","","",""
"learning-instructions","9","85877","0.0-9.0-0.0","5985","approach_avoid_sv1","""event"",""trial"",""time""
""fullscreenenter"",""1"",""3637""
","
","
","""event"",""trial"",""time""
""fullscreenenter"",""1"",""3637""
","
","","","","","","3089.5999999046326","<p> Welcome back! </p><p> Last week, you had to make choices about lots of different items.  </p>","","0","instructions","","",""
"learning-instructions","10","90788","0.0-9.0-0.1","5985","approach_avoid_sv1","""event"",""trial"",""time""
""fullscreenenter"",""1"",""3637""
","
","
","""event"",""trial"",""time""
""fullscreenenter"",""1"",""3637""
","
","","","","","","781.5","<p> Today, we are going to ask you to try to remember all the items. </p>","","0","instructions","","",""
"learning-instructions","11","101476","0.0-9.0-0.2","5985","approach_avoid_sv1","""event"",""trial"",""time""
""fullscreenenter"",""1"",""3637""
","
","
","""event"",""trial"",""time""
""fullscreenenter"",""1"",""3637""
","
","","","","","","549.1000001430511","<p> On every trial, you will see an image. </p><p> The image may be an OLD image you saw during the games last week or it may be a NEW image that was not presented. </p>","","0","instructions","","",""
"learning-instructions","12","112417","0.0-9.0-0.3","5985","approach_avoid_sv1","""event"",""trial"",""time""
""fullscreenenter"",""1"",""3637""
","
","
","""event"",""trial"",""time""
""fullscreenenter"",""1"",""3637""
","
","","","","","","2418.7999999523163","<p> You need to select whether the image is:  </p><p>  'Definitely old', 'Maybe old', 'Maybe new', or 'Definitely new.'  </p><div class=""mem-choice-instructions-grid""><div class=""choice-option"" id=""choice-option-1"" ><img src=""images/definitely_old_1.png"" id=""choice-option-img-1"" class=""choice-option-img"" stage=""1""></div><div class=""choice-option"" id=""choice-option-2"" ><img src=""images/maybe_old_1.png"" id=""choice-option-img-2"" class=""choice-option-img"" stage=""1""></div><div class=""choice-option"" id=""choice-option-3"" ><img src=""images/maybe_new_1.png"" id=""choice-option-img-3"" class=""choice-option-img"" stage=""1""></div><div class=""choice-option"" id=""choice-option-4"" > <img src=""images/definitely_new_1.png"" id=""choice-option-img-4"" class=""choice-option-img"" stage=""1""></div></div>","","0","instructions","","",""
"learning-instructions","13","119591","0.0-9.0-0.4","5985","approach_avoid_sv1","""event"",""trial"",""time""
""fullscreenenter"",""1"",""3637""
","
","
","""event"",""trial"",""time""
""fullscreenenter"",""1"",""3637""
","
","","","","","","646.6999998092651","<p> You should use the 1, 2, 3, and 4 keys to make your responses.  </p><div class=""mem-choice-instructions-grid""><div class=""choice-option"" id=""choice-option-1"" ><img src=""images/definitely_old.png"" id=""choice-option-img-1"" class=""choice-option-img"" stage=""1""></div><div class=""choice-option"" id=""choice-option-2"" ><img src=""images/maybe_old.png"" id=""choice-option-img-2"" class=""choice-option-img"" stage=""1""></div><div class=""choice-option"" id=""choice-option-3"" ><img src=""images/maybe_new.png"" id=""choice-option-img-3"" class=""choice-option-img"" stage=""1""></div><div class=""choice-option"" id=""choice-option-4"" > <img src=""images/definitely_new.png"" id=""choice-option-img-4"" class=""choice-option-img"" stage=""1""></div></div>","","0","instructions","","",""
"learning-instructions","14","127181","0.0-9.0-0.5","5985","approach_avoid_sv1","""event"",""trial"",""time""
""fullscreenenter"",""1"",""3637""
","
","
","""event"",""trial"",""time""
""fullscreenenter"",""1"",""3637""
","
","","","","","","1248.7000000476837","<p> You will have 10 seconds to make each response.  </p><p>  Make sure to respond before time runs out! </p>","","0","instructions","","",""
"learning-instructions","15","159942","0.0-9.0-0.6","5985","approach_avoid_sv1","""event"",""trial"",""time""
""fullscreenenter"",""1"",""3637""
","
","
","""event"",""trial"",""time""
""fullscreenenter"",""1"",""3637""
","
","","","","","","25669.699999809265","<p> Today, you will see each image ONCE only.  </p><p>  That means none of the images will repeat. </p>","","0","instructions","","",""
"learning-instructions","16","201344","0.0-9.0-0.7","5985","approach_avoid_sv1","""event"",""trial"",""time""
""fullscreenenter"",""1"",""3637""
","
","
","""event"",""trial"",""time""
""fullscreenenter"",""1"",""3637""
","
","","","","","","28720.599999904633","<p> Before you play the real game, it is time to practice. </p><p>  Just like in the real game, some of the images in the practice will be ones you have seen before. </p><p>  Others will be entirely new. </p>","","0","instructions","","",""
"html-button-response","17","203063","0.0-10.0","5985","approach_avoid_sv1","""event"",""trial"",""time""
""fullscreenenter"",""1"",""3637""
","
","
","""event"",""trial"",""time""
""fullscreenenter"",""1"",""3637""
","
","","","","","","1599.7999999523163","<p> Ready to practice? </p><p> Remember, use the 1, 2, 3, and 4 keys to make your responses. </p>","0","","instructions","","",""
"html-keyboard-response","18","203673","0.0-11.0-0.0","5985","approach_avoid_sv1","""event"",""trial"",""time""
""fullscreenenter"",""1"",""3637""
","
","
","""event"",""trial"",""time""
""fullscreenenter"",""1"",""3637""
","
","","","","","","null","<div style=""font-size:60px;"">+</div>","null","","fixation","","",""
"memory-trial","19","209454","0.0-11.0-1.0","5985","approach_avoid_sv1","""event"",""trial"",""time""
""fullscreenenter"",""1"",""3637""
","
","
","""event"",""trial"",""time""
""fullscreenenter"",""1"",""3637""
","
","","","","","","4760.799999952316","images/racket3.png","","","practice","1","definitely_old",""
"html-keyboard-response","20","209966","0.0-11.0-0.1","5985","approach_avoid_sv1","""event"",""trial"",""time""
""fullscreenenter"",""1"",""3637""
","
","
","""event"",""trial"",""time""
""fullscreenenter"",""1"",""3637""
","
","","","","","","null","<div style=""font-size:60px;"">+</div>","null","","fixation","","",""
"memory-trial","21","212622","0.0-11.0-1.1","5985","approach_avoid_sv1","""event"",""trial"",""time""
""fullscreenenter"",""1"",""3637""
","
","
","""event"",""trial"",""time""
""fullscreenenter"",""1"",""3637""
","
","","","","","","1640.0999999046326","images/ball2.png","","","practice","1","definitely_old",""
"html-keyboard-response","22","213136","0.0-11.0-0.2","5985","approach_avoid_sv1","""event"",""trial"",""time""
""fullscreenenter"",""1"",""3637""
","
","
","""event"",""trial"",""time""
""fullscreenenter"",""1"",""3637""
","
","","","","","","null","<div style=""font-size:60px;"">+</div>","null","","fixation","","",""
"memory-trial","23","214792","0.0-11.0-1.2","5985","approach_avoid_sv1","""event"",""trial"",""time""
""fullscreenenter"",""1"",""3637""
","
","
","""event"",""trial"",""time""
""fullscreenenter"",""1"",""3637""
","
","","","","","","642.4000000953674","images/ball3.png","","","practice","1","definitely_old",""
"html-keyboard-response","24","215302","0.0-11.0-0.3","5985","approach_avoid_sv1","""event"",""trial"",""time""
""fullscreenenter"",""1"",""3637""
","
","
","""event"",""trial"",""time""
""fullscreenenter"",""1"",""3637""
","
","","","","","","null","<div style=""font-size:60px;"">+</div>","null","","fixation","","",""
"memory-trial","25","217709","0.0-11.0-1.3","5985","approach_avoid_sv1","""event"",""trial"",""time""
""fullscreenenter"",""1"",""3637""
","
","
","""event"",""trial"",""time""
""fullscreenenter"",""1"",""3637""
","
","","","","","","1387.4000000953674","images/racket1.png","","","practice","1","definitely_old",""
"html-keyboard-response","26","218214","0.0-11.0-0.4","5985","approach_avoid_sv1","""event"",""trial"",""time""
""fullscreenenter"",""1"",""3637""
","
","
","""event"",""trial"",""time""
""fullscreenenter"",""1"",""3637""
","
","","","","","","null","<div style=""font-size:60px;"">+</div>","null","","fixation","","",""
"memory-trial","27","220181","0.0-11.0-1.4","5985","approach_avoid_sv1","""event"",""trial"",""time""
""fullscreenenter"",""1"",""3637""
","
","
","""event"",""trial"",""time""
""fullscreenenter"",""1"",""3637""
","
","","","","","","943.7999999523163","images/ball1.png","","","practice","1","definitely_old",""
"html-keyboard-response","28","220688","0.0-11.0-0.5","5985","approach_avoid_sv1","""event"",""trial"",""time""
""fullscreenenter"",""1"",""3637""
","
","
","""event"",""trial"",""time""
""fullscreenenter"",""1"",""3637""
","
","","","","","","null","<div style=""font-size:60px;"">+</div>","null","","fixation","","",""
"memory-trial","29","224709","0.0-11.0-1.5","5985","approach_avoid_sv1","""event"",""trial"",""time""
""fullscreenenter"",""1"",""3637""
","
","
","""event"",""trial"",""time""
""fullscreenenter"",""1"",""3637""
","
","","","","","","3003.7000000476837","images/ball5.png","","","practice","4","definitely_new",""
"html-keyboard-response","30","225214","0.0-11.0-0.6","5985","approach_avoid_sv1","""event"",""trial"",""time""
""fullscreenenter"",""1"",""3637""
","
","
","""event"",""trial"",""time""
""fullscreenenter"",""1"",""3637""
","
","","","","","","null","<div style=""font-size:60px;"">+</div>","null","","fixation","","",""
"memory-trial","31","228092","0.0-11.0-1.6","5985","approach_avoid_sv1","""event"",""trial"",""time""
""fullscreenenter"",""1"",""3637""
","
","
","""event"",""trial"",""time""
""fullscreenenter"",""1"",""3637""
","
","","","","","","1860.8999998569489","images/racket5.png","","","practice","3","maybe_new",""
"html-keyboard-response","32","228611","0.0-11.0-0.7","5985","approach_avoid_sv1","""event"",""trial"",""time""
""fullscreenenter"",""1"",""3637""
","
","
","""event"",""trial"",""time""
""fullscreenenter"",""1"",""3637""
","
","","","","","","null","<div style=""font-size:60px;"">+</div>","null","","fixation","","",""
"memory-trial","33","231396","0.0-11.0-1.7","5985","approach_avoid_sv1","""event"",""trial"",""time""
""fullscreenenter"",""1"",""3637""
","
","
","""event"",""trial"",""time""
""fullscreenenter"",""1"",""3637""
","
","","","","","","1768.4000000953674","images/racket2.png","","","practice","2","maybe_old",""
"learning-instructions","34","241658","0.0-12.0-0.0","5985","approach_avoid_sv1","""event"",""trial"",""time""
""fullscreenenter"",""1"",""3637""
","
","
","""event"",""trial"",""time""
""fullscreenenter"",""1"",""3637""
","
","","","","","","1791.2000000476837","<p> Great! You have completed the practice. </p><p> Before you start, we're going to ask you a few questions about how the game works.  </p>","","0","instructions","","",""
"preload","35","258615","0.0-13.0","5985","approach_avoid_sv1","""event"",""trial"",""time""
""fullscreenenter"",""1"",""3637""
","
","
","""event"",""trial"",""time""
""fullscreenenter"",""1"",""3637""
","
","true","false","[]","[]","[]","","","","","","","",""
"comp-q","36","265601","0.0-14.0-0.0","5985","approach_avoid_sv1","""event"",""trial"",""time""
""fullscreenenter"",""1"",""3637""
","
","
","""event"",""trial"",""time""
""fullscreenenter"",""1"",""3637""
","
","","","","","","1154","<p> <b> True or False? </b> </p><p> In this game, you will only see each image once. </p>","","0","comp_question","","","true"
"comp-q","37","272775","0.0-14.0-1.0","5985","approach_avoid_sv1","""event"",""trial"",""time""
""fullscreenenter"",""1"",""3637""
","
","
","""event"",""trial"",""time""
""fullscreenenter"",""1"",""3637""
","
","","","","","","808.7999999523163","<p> <b> That's right! </b> You will see many different images <i> one time each </i> in this game. </p>","","0","comp_answer","","",""
"comp-q","38","280245","0.0-15.0-0.0","5985","approach_avoid_sv1","""event"",""trial"",""time""
""fullscreenenter"",""1"",""3637""
","
","
","""event"",""trial"",""time""
""fullscreenenter"",""1"",""3637""
","
","","","","","","2449","<p> <b> True or False? </b> </p><p> You should use the mouse and click to make your response. </p>","","1","comp_question","","","true"
"comp-q","39","289174","0.0-15.0-1.0","5985","approach_avoid_sv1","""event"",""trial"",""time""
""fullscreenenter"",""1"",""3637""
","
","
","""event"",""trial"",""time""
""fullscreenenter"",""1"",""3637""
","
","","","","","","2409","<p><b> That's right! </b> You should use the '1', '2', '3', and '4' keys to make your response. </p>","","0","comp_answer","","",""
"comp-q","40","310955","0.0-16.0-0.0","5985","approach_avoid_sv1","""event"",""trial"",""time""
""fullscreenenter"",""1"",""3637""
","
","
","""event"",""trial"",""time""
""fullscreenenter"",""1"",""3637""
","
","","","","","","16088.5","<p> <b> True or False? </b> </p><p> You will have as much time as you want to make each choice. </p>","","1","comp_question","","","true"
"comp-q","41","321458","0.0-16.0-1.0","5985","approach_avoid_sv1","""event"",""trial"",""time""
""fullscreenenter"",""1"",""3637""
","
","
","""event"",""trial"",""time""
""fullscreenenter"",""1"",""3637""
","
","","","","","","5799.099999904633","<p> <b> That's right! </b> You will only have 10 seconds to make each choice. </p>","","0","comp_answer","","",""
"learning-instructions","42","334887","0.0-17.0","5985","approach_avoid_sv1","""event"",""trial"",""time""
""fullscreenenter"",""1"",""3637""
","
","
","""event"",""trial"",""time""
""fullscreenenter"",""1"",""3637""
","
","","","","","","4738.5","<p> Great! You are now ready to begin the game. </p><p> Remember, use the 1, 2, 3, and 4 keys to make your responses. </p>","","0","instructions","","",""
"html-keyboard-response","43","335505","0.0-18.0-0.0","5985","approach_avoid_sv1","""event"",""trial"",""time""
""fullscreenenter"",""1"",""3637""
","
","
","""event"",""trial"",""time""
""fullscreenenter"",""1"",""3637""
","
","","","","","","null","<div style=""font-size:60px;"">+</div>","null","","fixation","","",""
"memory-trial","44","338594","0.0-18.0-1.0","5985","approach_avoid_sv1","""event"",""trial"",""time""
""fullscreenenter"",""1"",""3637""
","
","
","""event"",""trial"",""time""
""fullscreenenter"",""1"",""3637""
","
","","","","","","2075.2000000476837","images/bed1.png","","","memory_trial","1","definitely_old",""
"html-keyboard-response","45","339113","0.0-18.0-0.1","5985","approach_avoid_sv1","""event"",""trial"",""time""
""fullscreenenter"",""1"",""3637""
","
","
","""event"",""trial"",""time""
""fullscreenenter"",""1"",""3637""
","
","","","","","","null","<div style=""font-size:60px;"">+</div>","null","","fixation","","",""
"memory-trial","46","342014","0.0-18.0-1.1","5985","approach_avoid_sv1","""event"",""trial"",""time""
""fullscreenenter"",""1"",""3637""
","
","
","""event"",""trial"",""time""
""fullscreenenter"",""1"",""3637""
","
","","","","","","1880.3999998569489","images/chair5.png","","","memory_trial","1","definitely_old",""
"html-keyboard-response","47","342533","0.0-18.0-0.2","5985","approach_avoid_sv1","""event"",""trial"",""time""
""fullscreenenter"",""1"",""3637""
","
","
","""event"",""trial"",""time""
""fullscreenenter"",""1"",""3637""
","
","","","","","","null","<div style=""font-size:60px;"">+</div>","null","","fixation","","",""
"memory-trial","48","345771","0.0-18.0-1.2","5985","approach_avoid_sv1","""event"",""trial"",""time""
""fullscreenenter"",""1"",""3637""
","
","
","""event"",""trial"",""time""
""fullscreenenter"",""1"",""3637""
","
","","","","","","2227.5","images/horse8.png","","","memory_trial","3","maybe_new",""
"html-keyboard-response","49","346290","0.0-18.0-0.3","5985","approach_avoid_sv1","""event"",""trial"",""time""
""fullscreenenter"",""1"",""3637""
","
","
","""event"",""trial"",""time""
""fullscreenenter"",""1"",""3637""
","
","","","","","","null","<div style=""font-size:60px;"">+</div>","null","","fixation","","",""
"memory-trial","50","348684","0.0-18.0-1.3","5985","approach_avoid_sv1","""event"",""trial"",""time""
""fullscreenenter"",""1"",""3637""
","
","
","""event"",""trial"",""time""
""fullscreenenter"",""1"",""3637""
","
","","","","","","1366.6000001430511","images/cactus1.png","","","memory_trial","4","definitely_new",""
"html-keyboard-response","51","349204","0.0-18.0-0.4","5985","approach_avoid_sv1","""event"",""trial"",""time""
""fullscreenenter"",""1"",""3637""
","
","
","""event"",""trial"",""time""
""fullscreenenter"",""1"",""3637""
","
","","","","","","null","<div style=""font-size:60px;"">+</div>","null","","fixation","","",""
"memory-trial","52","351655","0.0-18.0-1.4","5985","approach_avoid_sv1","""event"",""trial"",""time""
""fullscreenenter"",""1"",""3637""
","
","
","""event"",""trial"",""time""
""fullscreenenter"",""1"",""3637""
","
","","","","","","1437","images/apple3.png","","","memory_trial","1","definitely_old",""
"html-keyboard-response","53","352174","0.0-18.0-0.5","5985","approach_avoid_sv1","""event"",""trial"",""time""
""fullscreenenter"",""1"",""3637""
","
","
","""event"",""trial"",""time""
""fullscreenenter"",""1"",""3637""
","
","","","","","","null","<div style=""font-size:60px;"">+</div>","null","","fixation","","",""
"memory-trial","54","354556","0.0-18.0-1.5","5985","approach_avoid_sv1","""event"",""trial"",""time""
""fullscreenenter"",""1"",""3637""
","
","
","""event"",""trial"",""time""
""fullscreenenter"",""1"",""3637""
","
","","","","","","1369.1000001430511","images/plane3.png","","","memory_trial","1","definitely_old",""
"html-keyboard-response","55","355073","0.0-18.0-0.6","5985","approach_avoid_sv1","""event"",""trial"",""time""
""fullscreenenter"",""1"",""3637""
","
","
","""event"",""trial"",""time""
""fullscreenenter"",""1"",""3637""
","
","","","","","","null","<div style=""font-size:60px;"">+</div>","null","","fixation","","",""
"memory-trial","56","357572","0.0-18.0-1.6","5985","approach_avoid_sv1","""event"",""trial"",""time""
""fullscreenenter"",""1"",""3637""
","
","
","""event"",""trial"",""time""
""fullscreenenter"",""1"",""3637""
","
","","","","","","1485.0999999046326","images/banana3.png","","","memory_trial","4","definitely_new",""
"html-keyboard-response","57","358090","0.0-18.0-0.7","5985","approach_avoid_sv1","""event"",""trial"",""time""
""fullscreenenter"",""1"",""3637""
","
","
","""event"",""trial"",""time""
""fullscreenenter"",""1"",""3637""
","
","","","","","","null","<div style=""font-size:60px;"">+</div>","null","","fixation","","",""
"memory-trial","58","360374","0.0-18.0-1.7","5985","approach_avoid_sv1","""event"",""trial"",""time""
""fullscreenenter"",""1"",""3637""
","
","
","""event"",""trial"",""time""
""fullscreenenter"",""1"",""3637""
","
","","","","","","1268","images/bush7.png","","","memory_trial","1","definitely_old",""
"html-keyboard-response","59","360879","0.0-18.0-0.8","5985","approach_avoid_sv1","""event"",""trial"",""time""
""fullscreenenter"",""1"",""3637""
","
","
","""event"",""trial"",""time""
""fullscreenenter"",""1"",""3637""
","
","","","","","","null","<div style=""font-size:60px;"">+</div>","null","","fixation","","",""
"memory-trial","60","363139","0.0-18.0-1.8","5985","approach_avoid_sv1","""event"",""trial"",""time""
""fullscreenenter"",""1"",""3637""
","
","
","""event"",""trial"",""time""
""fullscreenenter"",""1"",""3637""
","
","","","","","","1247.5","images/straw2.png","","","memory_trial","1","definitely_old",""
"html-keyboard-response","61","363647","0.0-18.0-0.9","5985","approach_avoid_sv1","""event"",""trial"",""time""
""fullscreenenter"",""1"",""3637""
","
","
","""event"",""trial"",""time""
""fullscreenenter"",""1"",""3637""
","
","","","","","","null","<div style=""font-size:60px;"">+</div>","null","","fixation","","",""
"memory-trial","62","365789","0.0-18.0-1.9","5985","approach_avoid_sv1","""event"",""trial"",""time""
""fullscreenenter"",""1"",""3637""
","
","
","""event"",""trial"",""time""
""fullscreenenter"",""1"",""3637""
","
","","","","","","1126.5999999046326","images/cat4.png","","","memory_trial","4","definitely_new",""
"html-keyboard-response","63","366293","0.0-18.0-0.10","5985","approach_avoid_sv1","""event"",""trial"",""time""
""fullscreenenter"",""1"",""3637""
","
","
","""event"",""trial"",""time""
""fullscreenenter"",""1"",""3637""
","
","","","","","","null","<div style=""font-size:60px;"">+</div>","null","","fixation","","",""
"memory-trial","64","368796","0.0-18.0-1.10","5985","approach_avoid_sv1","""event"",""trial"",""time""
""fullscreenenter"",""1"",""3637""
","
","
","""event"",""trial"",""time""
""fullscreenenter"",""1"",""3637""
","
","","","","","","1489.7000000476837","images/cactus4.png","","","memory_trial","4","definitely_new",""
"html-keyboard-response","65","369306","0.0-18.0-0.11","5985","approach_avoid_sv1","""event"",""trial"",""time""
""fullscreenenter"",""1"",""3637""
","
","
","""event"",""trial"",""time""
""fullscreenenter"",""1"",""3637""
","
","","","","","","null","<div style=""font-size:60px;"">+</div>","null","","fixation","","",""
"memory-trial","66","371323","0.0-18.0-1.11","5985","approach_avoid_sv1","""event"",""trial"",""time""
""fullscreenenter"",""1"",""3637""
","
","
","""event"",""trial"",""time""
""fullscreenenter"",""1"",""3637""
","
","","","","","","996.8999998569489","images/cow7.png","","","memory_trial","1","definitely_old",""
"html-keyboard-response","67","371838","0.0-18.0-0.12","5985","approach_avoid_sv1","""event"",""trial"",""time""
""fullscreenenter"",""1"",""3637""
","
","
","""event"",""trial"",""time""
""fullscreenenter"",""1"",""3637""
","
","","","","","","null","<div style=""font-size:60px;"">+</div>","null","","fixation","","",""
"memory-trial","68","376127","0.0-18.0-1.12","5985","approach_avoid_sv1","""event"",""trial"",""time""
""fullscreenenter"",""1"",""3637""
","
","
","""event"",""trial"",""time""
""fullscreenenter"",""1"",""3637""
","
","","","","","","3277.5","images/orange3.png","","","memory_trial","3","maybe_new",""
"html-keyboard-response","69","376640","0.0-18.0-0.13","5985","approach_avoid_sv1","""event"",""trial"",""time""
""fullscreenenter"",""1"",""3637""
","
","
","""event"",""trial"",""time""
""fullscreenenter"",""1"",""3637""
","
","","","","","","null","<div style=""font-size:60px;"">+</div>","null","","fixation","","",""
"memory-trial","70","378724","0.0-18.0-1.13","5985","approach_avoid_sv1","""event"",""trial"",""time""
""fullscreenenter"",""1"",""3637""
","
","
","""event"",""trial"",""time""
""fullscreenenter"",""1"",""3637""
","
","","","","","","1069.2999999523163","images/dog5.png","","","memory_trial","4","definitely_new",""
"html-keyboard-response","71","379234","0.0-18.0-0.14","5985","approach_avoid_sv1","""event"",""trial"",""time""
""fullscreenenter"",""1"",""3637""
","
","
","""event"",""trial"",""time""
""fullscreenenter"",""1"",""3637""
","
","","","","","","null","<div style=""font-size:60px;"">+</div>","null","","fixation","","",""
"memory-trial","72","381889","0.0-18.0-1.14","5985","approach_avoid_sv1","""event"",""trial"",""time""
""fullscreenenter"",""1"",""3637""
","
","
","""event"",""trial"",""time""
""fullscreenenter"",""1"",""3637""
","
","","","","","","1635.4000000953674","images/bed7.png","","","memory_trial","4","definitely_new",""
"html-keyboard-response","73","382395","0.0-18.0-0.15","5985","approach_avoid_sv1","""event"",""trial"",""time""
""fullscreenenter"",""1"",""3637""
","
","
","""event"",""trial"",""time""
""fullscreenenter"",""1"",""3637""
","
","","","","","","null","<div style=""font-size:60px;"">+</div>","null","","fixation","","",""
"memory-trial","74","385346","0.0-18.0-1.15","5985","approach_avoid_sv1","""event"",""trial"",""time""
""fullscreenenter"",""1"",""3637""
","
","
","""event"",""trial"",""time""
""fullscreenenter"",""1"",""3637""
","
","","","","","","1929.2999999523163","images/cow4.png","","","memory_trial","3","maybe_new",""
"html-keyboard-response","75","385870","0.0-18.0-0.16","5985","approach_avoid_sv1","""event"",""trial"",""time""
""fullscreenenter"",""1"",""3637""
","
","
","""event"",""trial"",""time""
""fullscreenenter"",""1"",""3637""
","
","","","","","","null","<div style=""font-size:60px;"">+</div>","null","","fixation","","",""
"memory-trial","76","389005","0.0-18.0-1.16","5985","approach_avoid_sv1","""event"",""trial"",""time""
""fullscreenenter"",""1"",""3637""
","
","
","""event"",""trial"",""time""
""fullscreenenter"",""1"",""3637""
","
","","","","","","2120.4000000953674","images/horse5.png","","","memory_trial","4","definitely_new",""
"html-keyboard-response","77","389512","0.0-18.0-0.17","5985","approach_avoid_sv1","""event"",""trial"",""time""
""fullscreenenter"",""1"",""3637""
","
","
","""event"",""trial"",""time""
""fullscreenenter"",""1"",""3637""
","
","","","","","","null","<div style=""font-size:60px;"">+</div>","null","","fixation","","",""
"memory-trial","78","391554","0.0-18.0-1.17","5985","approach_avoid_sv1","""event"",""trial"",""time""
""fullscreenenter"",""1"",""3637""
","
","
","""event"",""trial"",""time""
""fullscreenenter"",""1"",""3637""
","
","","","","","","1033.8999998569489","images/chair2.png","","","memory_trial","1","definitely_old",""
"html-keyboard-response","79","392078","0.0-18.0-0.18","5985","approach_avoid_sv1","""event"",""trial"",""time""
""fullscreenenter"",""1"",""3637""
","
","
","""event"",""trial"",""time""
""fullscreenenter"",""1"",""3637""
","
","","","","","","null","<div style=""font-size:60px;"">+</div>","null","","fixation","","",""
"memory-trial","80","393869","0.0-18.0-1.18","5985","approach_avoid_sv1","""event"",""trial"",""time""
""fullscreenenter"",""1"",""3637""
","
","
","""event"",""trial"",""time""
""fullscreenenter"",""1"",""3637""
","
","","","","","","776.2999999523163","images/banana1.png","","","memory_trial","4","definitely_new",""
"html-keyboard-response","81","394379","0.0-18.0-0.19","5985","approach_avoid_sv1","""event"",""trial"",""time""
""fullscreenenter"",""1"",""3637""
","
","
","""event"",""trial"",""time""
""fullscreenenter"",""1"",""3637""
","
","","","","","","null","<div style=""font-size:60px;"">+</div>","null","","fixation","","",""
"memory-trial","82","396412","0.0-18.0-1.19","5985","approach_avoid_sv1","""event"",""trial"",""time""
""fullscreenenter"",""1"",""3637""
","
","
","""event"",""trial"",""time""
""fullscreenenter"",""1"",""3637""
","
","","","","","","1017.2999999523163","images/banana8.png","","","memory_trial","4","definitely_new",""
"html-keyboard-response","83","396920","0.0-18.0-0.20","5985","approach_avoid_sv1","""event"",""trial"",""time""
""fullscreenenter"",""1"",""3637""
","
","
","""event"",""trial"",""time""
""fullscreenenter"",""1"",""3637""
","
","","","","","","null","<div style=""font-size:60px;"">+</div>","null","","fixation","","",""
"memory-trial","84","399121","0.0-18.0-1.20","5985","approach_avoid_sv1","""event"",""trial"",""time""
""fullscreenenter"",""1"",""3637""
","
","
","""event"",""trial"",""time""
""fullscreenenter"",""1"",""3637""
","
","","","","","","1193.1999998092651","images/cow6.png","","","memory_trial","4","definitely_new",""
"html-keyboard-response","85","399637","0.0-18.0-0.21","5985","approach_avoid_sv1","""event"",""trial"",""time""
""fullscreenenter"",""1"",""3637""
","
","
","""event"",""trial"",""time""
""fullscreenenter"",""1"",""3637""
","
","","","","","","null","<div style=""font-size:60px;"">+</div>","null","","fixation","","",""
"memory-trial","86","401538","0.0-18.0-1.21","5985","approach_avoid_sv1","""event"",""trial"",""time""
""fullscreenenter"",""1"",""3637""
","
","
","""event"",""trial"",""time""
""fullscreenenter"",""1"",""3637""
","
","","","","","","888.2000000476837","images/rodent5.png","","","memory_trial","1","definitely_old",""
"html-keyboard-response","87","402053","0.0-18.0-0.22","5985","approach_avoid_sv1","""event"",""trial"",""time""
""fullscreenenter"",""1"",""3637""
","
","
","""event"",""trial"",""time""
""fullscreenenter"",""1"",""3637""
","
","","","","","","null","<div style=""font-size:60px;"">+</div>","null","","fixation","","",""
"memory-trial","88","404653","0.0-18.0-1.22","5985","approach_avoid_sv1","""event"",""trial"",""time""
""fullscreenenter"",""1"",""3637""
","
","
","""event"",""trial"",""time""
""fullscreenenter"",""1"",""3637""
","
","","","","","","1585.4000000953674","images/truck7.png","","","memory_trial","4","definitely_new",""
"html-keyboard-response","89","405164","0.0-18.0-0.23","5985","approach_avoid_sv1","""event"",""trial"",""time""
""fullscreenenter"",""1"",""3637""
","
","
","""event"",""trial"",""time""
""fullscreenenter"",""1"",""3637""
","
","","","","","","null","<div style=""font-size:60px;"">+</div>","null","","fixation","","",""
"memory-trial","90","406879","0.0-18.0-1.23","5985","approach_avoid_sv1","""event"",""trial"",""time""
""fullscreenenter"",""1"",""3637""
","
","
","""event"",""trial"",""time""
""fullscreenenter"",""1"",""3637""
","
","","","","","","696.7000000476837","images/rodent2.png","","","memory_trial","1","definitely_old",""
"html-keyboard-response","91","407391","0.0-18.0-0.24","5985","approach_avoid_sv1","""event"",""trial"",""time""
""fullscreenenter"",""1"",""3637""
","
","
","""event"",""trial"",""time""
""fullscreenenter"",""1"",""3637""
","
","","","","","","null","<div style=""font-size:60px;"">+</div>","null","","fixation","","",""
"memory-trial","92","409495","0.0-18.0-1.24","5985","approach_avoid_sv1","""event"",""trial"",""time""
""fullscreenenter"",""1"",""3637""
","
","
","""event"",""trial"",""time""
""fullscreenenter"",""1"",""3637""
","
","","","","","","1085.2999999523163","images/bed4.png","","","memory_trial","4","definitely_new",""
"html-keyboard-response","93","410012","0.0-18.0-0.25","5985","approach_avoid_sv1","""event"",""trial"",""time""
""fullscreenenter"",""1"",""3637""
","
","
","""event"",""trial"",""time""
""fullscreenenter"",""1"",""3637""
","
","","","","","","null","<div style=""font-size:60px;"">+</div>","null","","fixation","","",""
"memory-trial","94","412130","0.0-18.0-1.25","5985","approach_avoid_sv1","""event"",""trial"",""time""
""fullscreenenter"",""1"",""3637""
","
","
","""event"",""trial"",""time""
""fullscreenenter"",""1"",""3637""
","
","","","","","","1096.7000000476837","images/apple7.png","","","memory_trial","1","definitely_old",""
"html-keyboard-response","95","412643","0.0-18.0-0.26","5985","approach_avoid_sv1","""event"",""trial"",""time""
""fullscreenenter"",""1"",""3637""
","
","
","""event"",""trial"",""time""
""fullscreenenter"",""1"",""3637""
","
","","","","","","null","<div style=""font-size:60px;"">+</div>","null","","fixation","","",""
"memory-trial","96","414645","0.0-18.0-1.26","5985","approach_avoid_sv1","""event"",""trial"",""time""
""fullscreenenter"",""1"",""3637""
","
","
","""event"",""trial"",""time""
""fullscreenenter"",""1"",""3637""
","
","","","","","","992.3999998569489","images/plane8.png","","","memory_trial","1","definitely_old",""
"html-keyboard-response","97","415165","0.0-18.0-0.27","5985","approach_avoid_sv1","""event"",""trial"",""time""
""fullscreenenter"",""1"",""3637""
","
","
","""event"",""trial"",""time""
""fullscreenenter"",""1"",""3637""
","
","","","","","","null","<div style=""font-size:60px;"">+</div>","null","","fixation","","",""
"memory-trial","98","417018","0.0-18.0-1.27","5985","approach_avoid_sv1","""event"",""trial"",""time""
""fullscreenenter"",""1"",""3637""
","
","
","""event"",""trial"",""time""
""fullscreenenter"",""1"",""3637""
","
","","","","","","837.4000000953674","images/bush6.png","","","memory_trial","4","definitely_new",""
"html-keyboard-response","99","417533","0.0-18.0-0.28","5985","approach_avoid_sv1","""event"",""trial"",""time""
""fullscreenenter"",""1"",""3637""
","
","
","""event"",""trial"",""time""
""fullscreenenter"",""1"",""3637""
","
","","","","","","null","<div style=""font-size:60px;"">+</div>","null","","fixation","","",""
"memory-trial","100","420240","0.0-18.0-1.28","5985","approach_avoid_sv1","""event"",""trial"",""time""
""fullscreenenter"",""1"",""3637""
","
","
","""event"",""trial"",""time""
""fullscreenenter"",""1"",""3637""
","
","","","","","","1698.7999999523163","images/plane7.png","","","memory_trial","1","definitely_old",""
"html-keyboard-response","101","420745","0.0-18.0-0.29","5985","approach_avoid_sv1","""event"",""trial"",""time""
""fullscreenenter"",""1"",""3637""
","
","
","""event"",""trial"",""time""
""fullscreenenter"",""1"",""3637""
","
","","","","","","null","<div style=""font-size:60px;"">+</div>","null","","fixation","","",""
"memory-trial","102","422640","0.0-18.0-1.29","5985","approach_avoid_sv1","""event"",""trial"",""time""
""fullscreenenter"",""1"",""3637""
","
","
","""event"",""trial"",""time""
""fullscreenenter"",""1"",""3637""
","
","","","","","","887.6000001430511","images/bed5.png","","","memory_trial","4","definitely_new",""
"html-keyboard-response","103","423145","0.0-18.0-0.30","5985","approach_avoid_sv1","""event"",""trial"",""time""
""fullscreenenter"",""1"",""3637""
","
","
","""event"",""trial"",""time""
""fullscreenenter"",""1"",""3637""
","
","","","","","","null","<div style=""font-size:60px;"">+</div>","null","","fixation","","",""
"memory-trial","104","425121","0.0-18.0-1.30","5985","approach_avoid_sv1","""event"",""trial"",""time""
""fullscreenenter"",""1"",""3637""
","
","
","""event"",""trial"",""time""
""fullscreenenter"",""1"",""3637""
","
","","","","","","954.5","images/bed6.png","","","memory_trial","4","definitely_new",""
"html-keyboard-response","105","425630","0.0-18.0-0.31","5985","approach_avoid_sv1","""event"",""trial"",""time""
""fullscreenenter"",""1"",""3637""
","
","
","""event"",""trial"",""time""
""fullscreenenter"",""1"",""3637""
","
","","","","","","null","<div style=""font-size:60px;"">+</div>","null","","fixation","","",""
"memory-trial","106","427759","0.0-18.0-1.31","5985","approach_avoid_sv1","""event"",""trial"",""time""
""fullscreenenter"",""1"",""3637""
","
","
","""event"",""trial"",""time""
""fullscreenenter"",""1"",""3637""
","
","","","","","","1107.2000000476837","images/straw5.png","","","memory_trial","1","definitely_old",""
"html-keyboard-response","107","428268","0.0-18.0-0.32","5985","approach_avoid_sv1","""event"",""trial"",""time""
""fullscreenenter"",""1"",""3637""
","
","
","""event"",""trial"",""time""
""fullscreenenter"",""1"",""3637""
","
","","","","","","null","<div style=""font-size:60px;"">+</div>","null","","fixation","","",""
"memory-trial","108","430830","0.0-18.0-1.32","5985","approach_avoid_sv1","""event"",""trial"",""time""
""fullscreenenter"",""1"",""3637""
","
","
","""event"",""trial"",""time""
""fullscreenenter"",""1"",""3637""
","
","","","","","","1549.5","images/rodent8.png","","","memory_trial","1","definitely_old",""
"html-keyboard-response","109","431342","0.0-18.0-0.33","5985","approach_avoid_sv1","""event"",""trial"",""time""
""fullscreenenter"",""1"",""3637""
","
","
","""event"",""trial"",""time""
""fullscreenenter"",""1"",""3637""
","
","","","","","","null","<div style=""font-size:60px;"">+</div>","null","","fixation","","",""
"memory-trial","110","433259","0.0-18.0-1.33","5985","approach_avoid_sv1","""event"",""trial"",""time""
""fullscreenenter"",""1"",""3637""
","
","
","""event"",""trial"",""time""
""fullscreenenter"",""1"",""3637""
","
","","","","","","902.6000001430511","images/table8.png","","","memory_trial","4","definitely_new",""
"html-keyboard-response","111","433776","0.0-18.0-0.34","5985","approach_avoid_sv1","""event"",""trial"",""time""
""fullscreenenter"",""1"",""3637""
","
","
","""event"",""trial"",""time""
""fullscreenenter"",""1"",""3637""
","
","","","","","","null","<div style=""font-size:60px;"">+</div>","null","","fixation","","",""
"memory-trial","112","436340","0.0-18.0-1.34","5985","approach_avoid_sv1","""event"",""trial"",""time""
""fullscreenenter"",""1"",""3637""
","
","
","""event"",""trial"",""time""
""fullscreenenter"",""1"",""3637""
","
","","","","","","1547.0999999046326","images/chair8.png","","","memory_trial","4","definitely_new",""
"html-keyboard-response","113","436867","0.0-18.0-0.35","5985","approach_avoid_sv1","""event"",""trial"",""time""
""fullscreenenter"",""1"",""3637""
","
","
","""event"",""trial"",""time""
""fullscreenenter"",""1"",""3637""
","
","","","","","","null","<div style=""font-size:60px;"">+</div>","null","","fixation","","",""
"memory-trial","114","439202","0.0-18.0-1.35","5985","approach_avoid_sv1","""event"",""trial"",""time""
""fullscreenenter"",""1"",""3637""
","
","
","""event"",""trial"",""time""
""fullscreenenter"",""1"",""3637""
","
","","","","","","1319.5999999046326","images/apple4.png","","","memory_trial","4","definitely_new",""
"html-keyboard-response","115","439717","0.0-18.0-0.36","5985","approach_avoid_sv1","""event"",""trial"",""time""
""fullscreenenter"",""1"",""3637""
","
","
","""event"",""trial"",""time""
""fullscreenenter"",""1"",""3637""
","
","","","","","","null","<div style=""font-size:60px;"">+</div>","null","","fixation","","",""
"memory-trial","116","441665","0.0-18.0-1.36","5985","approach_avoid_sv1","""event"",""trial"",""time""
""fullscreenenter"",""1"",""3637""
","
","
","""event"",""trial"",""time""
""fullscreenenter"",""1"",""3637""
","
","","","","","","938.5999999046326","images/flower2.png","","","memory_trial","1","definitely_old",""
"html-keyboard-response","117","442183","0.0-18.0-0.37","5985","approach_avoid_sv1","""event"",""trial"",""time""
""fullscreenenter"",""1"",""3637""
","
","
","""event"",""trial"",""time""
""fullscreenenter"",""1"",""3637""
","
","","","","","","null","<div style=""font-size:60px;"">+</div>","null","","fixation","","",""
"memory-trial","118","444066","0.0-18.0-1.37","5985","approach_avoid_sv1","""event"",""trial"",""time""
""fullscreenenter"",""1"",""3637""
","
","
","""event"",""trial"",""time""
""fullscreenenter"",""1"",""3637""
","
","","","","","","868.1999998092651","images/rabbit2.png","","","memory_trial","4","definitely_new",""
"html-keyboard-response","119","444574","0.0-18.0-0.38","5985","approach_avoid_sv1","""event"",""trial"",""time""
""fullscreenenter"",""1"",""3637""
","
","
","""event"",""trial"",""time""
""fullscreenenter"",""1"",""3637""
","
","","","","","","null","<div style=""font-size:60px;"">+</div>","null","","fixation","","",""
"memory-trial","120","446499","0.0-18.0-1.38","5985","approach_avoid_sv1","""event"",""trial"",""time""
""fullscreenenter"",""1"",""3637""
","
","
","""event"",""trial"",""time""
""fullscreenenter"",""1"",""3637""
","
","","","","","","911.9000000953674","images/straw7.png","","","memory_trial","4","definitely_new",""
"html-keyboard-response","121","447007","0.0-18.0-0.39","5985","approach_avoid_sv1","""event"",""trial"",""time""
""fullscreenenter"",""1"",""3637""
","
","
","""event"",""trial"",""time""
""fullscreenenter"",""1"",""3637""
","
","","","","","","null","<div style=""font-size:60px;"">+</div>","null","","fixation","","",""
"memory-trial","122","449824","0.0-18.0-1.39","5985","approach_avoid_sv1","""event"",""trial"",""time""
""fullscreenenter"",""1"",""3637""
","
","
","""event"",""trial"",""time""
""fullscreenenter"",""1"",""3637""
","
","","","","","","1808.1000001430511","images/rodent1.png","","","memory_trial","4","definitely_new",""
"html-keyboard-response","123","450349","0.0-18.0-0.40","5985","approach_avoid_sv1","""event"",""trial"",""time""
""fullscreenenter"",""1"",""3637""
","
","
","""event"",""trial"",""time""
""fullscreenenter"",""1"",""3637""
","
","","","","","","null","<div style=""font-size:60px;"">+</div>","null","","fixation","","",""
"memory-trial","124","453265","0.0-18.0-1.40","5985","approach_avoid_sv1","""event"",""trial"",""time""
""fullscreenenter"",""1"",""3637""
","
","
","""event"",""trial"",""time""
""fullscreenenter"",""1"",""3637""
","
","","","","","","1893.6999998092651","images/goat1.png","","","memory_trial","1","definitely_old",""
"html-keyboard-response","125","453790","0.0-18.0-0.41","5985","approach_avoid_sv1","""event"",""trial"",""time""
""fullscreenenter"",""1"",""3637""
","
","
","""event"",""trial"",""time""
""fullscreenenter"",""1"",""3637""
","
","","","","","","null","<div style=""font-size:60px;"">+</div>","null","","fixation","","",""
"memory-trial","126","455799","0.0-18.0-1.41","5985","approach_avoid_sv1","""event"",""trial"",""time""
""fullscreenenter"",""1"",""3637""
","
","
","""event"",""trial"",""time""
""fullscreenenter"",""1"",""3637""
","
","","","","","","999.3999998569489","images/cactus5.png","","","memory_trial","4","definitely_new",""
"html-button-response","127","459153","0.0-18.0-2.41-0.41","5985","approach_avoid_sv1","""event"",""trial"",""time""
""fullscreenenter"",""1"",""3637""
","
","
","""event"",""trial"",""time""
""fullscreenenter"",""1"",""3637""
","
","","","","","","3351.5","<p> Take a break! </p><p> Click the button to continue. </p>","0","","break","","",""
"html-keyboard-response","128","459657","0.0-18.0-0.42","5985","approach_avoid_sv1","""event"",""trial"",""time""
""fullscreenenter"",""1"",""3637""
","
","
","""event"",""trial"",""time""
""fullscreenenter"",""1"",""3637""
","
","","","","","","null","<div style=""font-size:60px;"">+</div>","null","","fixation","","",""
"memory-trial","129","461807","0.0-18.0-1.42","5985","approach_avoid_sv1","""event"",""trial"",""time""
""fullscreenenter"",""1"",""3637""
","
","
","""event"",""trial"",""time""
""fullscreenenter"",""1"",""3637""
","
","","","","","","1137","images/cow1.png","","","memory_trial","4","definitely_new",""
"html-keyboard-response","130","462314","0.0-18.0-0.43","5985","approach_avoid_sv1","""event"",""trial"",""time""
""fullscreenenter"",""1"",""3637""
","
","
","""event"",""trial"",""time""
""fullscreenenter"",""1"",""3637""
","
","","","","","","null","<div style=""font-size:60px;"">+</div>","null","","fixation","","",""
"memory-trial","131","464016","0.0-18.0-1.43","5985","approach_avoid_sv1","""event"",""trial"",""time""
""fullscreenenter"",""1"",""3637""
","
","
","""event"",""trial"",""time""
""fullscreenenter"",""1"",""3637""
","
","","","","","","689.2999999523163","images/apple6.png","","","memory_trial","4","definitely_new",""
"html-keyboard-response","132","464526","0.0-18.0-0.44","5985","approach_avoid_sv1","""event"",""trial"",""time""
""fullscreenenter"",""1"",""3637""
","
","
","""event"",""trial"",""time""
""fullscreenenter"",""1"",""3637""
","
","","","","","","null","<div style=""font-size:60px;"">+</div>","null","","fixation","","",""
"memory-trial","133","468535","0.0-18.0-1.44","5985","approach_avoid_sv1","""event"",""trial"",""time""
""fullscreenenter"",""1"",""3637""
","
","
","""event"",""trial"",""time""
""fullscreenenter"",""1"",""3637""
","
","","","","","","2997","images/flower6.png","","","memory_trial","2","maybe_old",""
"html-keyboard-response","134","469047","0.0-18.0-0.45","5985","approach_avoid_sv1","""event"",""trial"",""time""
""fullscreenenter"",""1"",""3637""
","
","
","""event"",""trial"",""time""
""fullscreenenter"",""1"",""3637""
","
","","","","","","null","<div style=""font-size:60px;"">+</div>","null","","fixation","","",""
"memory-trial","135","470877","0.0-18.0-1.45","5985","approach_avoid_sv1","""event"",""trial"",""time""
""fullscreenenter"",""1"",""3637""
","
","
","""event"",""trial"",""time""
""fullscreenenter"",""1"",""3637""
","
","","","","","","802.4000000953674","images/chair3.png","","","memory_trial","4","definitely_new",""
"html-keyboard-response","136","471384","0.0-18.0-0.46","5985","approach_avoid_sv1","""event"",""trial"",""time""
""fullscreenenter"",""1"",""3637""
","
","
","""event"",""trial"",""time""
""fullscreenenter"",""1"",""3637""
","
","","","","","","null","<div style=""font-size:60px;"">+</div>","null","","fixation","","",""
"memory-trial","137","473650","0.0-18.0-1.46","5985","approach_avoid_sv1","""event"",""trial"",""time""
""fullscreenenter"",""1"",""3637""
","
","
","""event"",""trial"",""time""
""fullscreenenter"",""1"",""3637""
","
","","","","","","1255.1999998092651","images/rabbit4.png","","","memory_trial","4","definitely_new",""
"html-keyboard-response","138","474171","0.0-18.0-0.47","5985","approach_avoid_sv1","""event"",""trial"",""time""
""fullscreenenter"",""1"",""3637""
","
","
","""event"",""trial"",""time""
""fullscreenenter"",""1"",""3637""
","
","","","","","","null","<div style=""font-size:60px;"">+</div>","null","","fixation","","",""
"memory-trial","139","476927","0.0-18.0-1.47","5985","approach_avoid_sv1","""event"",""trial"",""time""
""fullscreenenter"",""1"",""3637""
","
","
","""event"",""trial"",""time""
""fullscreenenter"",""1"",""3637""
","
","","","","","","1750.0999999046326","images/sheep4.png","","","memory_trial","4","definitely_new",""
"html-keyboard-response","140","477430","0.0-18.0-0.48","5985","approach_avoid_sv1","""event"",""trial"",""time""
""fullscreenenter"",""1"",""3637""
","
","
","""event"",""trial"",""time""
""fullscreenenter"",""1"",""3637""
","
","","","","","","null","<div style=""font-size:60px;"">+</div>","null","","fixation","","",""
"memory-trial","141","479774","0.0-18.0-1.48","5985","approach_avoid_sv1","""event"",""trial"",""time""
""fullscreenenter"",""1"",""3637""
","
","
","""event"",""trial"",""time""
""fullscreenenter"",""1"",""3637""
","
","","","","","","1333.7000000476837","images/horse7.png","","","memory_trial","1","definitely_old",""
"html-keyboard-response","142","480283","0.0-18.0-0.49","5985","approach_avoid_sv1","""event"",""trial"",""time""
""fullscreenenter"",""1"",""3637""
","
","
","""event"",""trial"",""time""
""fullscreenenter"",""1"",""3637""
","
","","","","","","null","<div style=""font-size:60px;"">+</div>","null","","fixation","","",""
"memory-trial","143","482288","0.0-18.0-1.49","5985","approach_avoid_sv1","""event"",""trial"",""time""
""fullscreenenter"",""1"",""3637""
","
","
","""event"",""trial"",""time""
""fullscreenenter"",""1"",""3637""
","
","","","","","","997.6999998092651","images/train7.png","","","memory_trial","1","definitely_old",""
"html-keyboard-response","144","482800","0.0-18.0-0.50","5985","approach_avoid_sv1","""event"",""trial"",""time""
""fullscreenenter"",""1"",""3637""
","
","
","""event"",""trial"",""time""
""fullscreenenter"",""1"",""3637""
","
","","","","","","null","<div style=""font-size:60px;"">+</div>","null","","fixation","","",""
"memory-trial","145","485461","0.0-18.0-1.50","5985","approach_avoid_sv1","""event"",""trial"",""time""
""fullscreenenter"",""1"",""3637""
","
","
","""event"",""trial"",""time""
""fullscreenenter"",""1"",""3637""
","
","","","","","","1647.7999999523163","images/straw3.png","","","memory_trial","2","maybe_old",""
"html-keyboard-response","146","485967","0.0-18.0-0.51","5985","approach_avoid_sv1","""event"",""trial"",""time""
""fullscreenenter"",""1"",""3637""
","
","
","""event"",""trial"",""time""
""fullscreenenter"",""1"",""3637""
","
","","","","","","null","<div style=""font-size:60px;"">+</div>","null","","fixation","","",""
"memory-trial","147","488468","0.0-18.0-1.51","5985","approach_avoid_sv1","""event"",""trial"",""time""
""fullscreenenter"",""1"",""3637""
","
","
","""event"",""trial"",""time""
""fullscreenenter"",""1"",""3637""
","
","","","","","","1484.0999999046326","images/boat1.png","","","memory_trial","4","definitely_new",""
"html-keyboard-response","148","488982","0.0-18.0-0.52","5985","approach_avoid_sv1","""event"",""trial"",""time""
""fullscreenenter"",""1"",""3637""
","
","
","""event"",""trial"",""time""
""fullscreenenter"",""1"",""3637""
","
","","","","","","null","<div style=""font-size:60px;"">+</div>","null","","fixation","","",""
"memory-trial","149","491939","0.0-18.0-1.52","5985","approach_avoid_sv1","""event"",""trial"",""time""
""fullscreenenter"",""1"",""3637""
","
","
","""event"",""trial"",""time""
""fullscreenenter"",""1"",""3637""
","
","","","","","","1942.7000000476837","images/orange7.png","","","memory_trial","3","maybe_new",""
"html-keyboard-response","150","492447","0.0-18.0-0.53","5985","approach_avoid_sv1","""event"",""trial"",""time""
""fullscreenenter"",""1"",""3637""
","
","
","""event"",""trial"",""time""
""fullscreenenter"",""1"",""3637""
","
","","","","","","null","<div style=""font-size:60px;"">+</div>","null","","fixation","","",""
"memory-trial","151","494854","0.0-18.0-1.53","5985","approach_avoid_sv1","""event"",""trial"",""time""
""fullscreenenter"",""1"",""3637""
","
","
","""event"",""trial"",""time""
""fullscreenenter"",""1"",""3637""
","
","","","","","","1382.2999999523163","images/bed2.png","","","memory_trial","4","definitely_new",""
"html-keyboard-response","152","495363","0.0-18.0-0.54","5985","approach_avoid_sv1","""event"",""trial"",""time""
""fullscreenenter"",""1"",""3637""
","
","
","""event"",""trial"",""time""
""fullscreenenter"",""1"",""3637""
","
","","","","","","null","<div style=""font-size:60px;"">+</div>","null","","fixation","","",""
"memory-trial","153","498704","0.0-18.0-1.54","5985","approach_avoid_sv1","""event"",""trial"",""time""
""fullscreenenter"",""1"",""3637""
","
","
","""event"",""trial"",""time""
""fullscreenenter"",""1"",""3637""
","
","","","","","","2326.2000000476837","images/train6.png","","","memory_trial","3","maybe_new",""
"html-keyboard-response","154","499219","0.0-18.0-0.55","5985","approach_avoid_sv1","""event"",""trial"",""time""
""fullscreenenter"",""1"",""3637""
","
","
","""event"",""trial"",""time""
""fullscreenenter"",""1"",""3637""
","
","","","","","","null","<div style=""font-size:60px;"">+</div>","null","","fixation","","",""
"memory-trial","155","501673","0.0-18.0-1.55","5985","approach_avoid_sv1","""event"",""trial"",""time""
""fullscreenenter"",""1"",""3637""
","
","
","""event"",""trial"",""time""
""fullscreenenter"",""1"",""3637""
","
","","","","","","1431.1999998092651","images/table7.png","","","memory_trial","4","definitely_new",""
"html-keyboard-response","156","502192","0.0-18.0-0.56","5985","approach_avoid_sv1","""event"",""trial"",""time""
""fullscreenenter"",""1"",""3637""
","
","
","""event"",""trial"",""time""
""fullscreenenter"",""1"",""3637""
","
","","","","","","null","<div style=""font-size:60px;"">+</div>","null","","fixation","","",""
"memory-trial","157","504227","0.0-18.0-1.56","5985","approach_avoid_sv1","""event"",""trial"",""time""
""fullscreenenter"",""1"",""3637""
","
","
","""event"",""trial"",""time""
""fullscreenenter"",""1"",""3637""
","
","","","","","","1017.7999999523163","images/horse4.png","","","memory_trial","4","definitely_new",""
"html-keyboard-response","158","504735","0.0-18.0-0.57","5985","approach_avoid_sv1","""event"",""trial"",""time""
""fullscreenenter"",""1"",""3637""
","
","
","""event"",""trial"",""time""
""fullscreenenter"",""1"",""3637""
","
","","","","","","null","<div style=""font-size:60px;"">+</div>","null","","fixation","","",""
"memory-trial","159","508085","0.0-18.0-1.57","5985","approach_avoid_sv1","""event"",""trial"",""time""
""fullscreenenter"",""1"",""3637""
","
","
","""event"",""trial"",""time""
""fullscreenenter"",""1"",""3637""
","
","","","","","","2337.100000143051","images/cat5.png","","","memory_trial","2","maybe_old",""
"html-keyboard-response","160","508588","0.0-18.0-0.58","5985","approach_avoid_sv1","""event"",""trial"",""time""
""fullscreenenter"",""1"",""3637""
","
","
","""event"",""trial"",""time""
""fullscreenenter"",""1"",""3637""
","
","","","","","","null","<div style=""font-size:60px;"">+</div>","null","","fixation","","",""
"memory-trial","161","510202","0.0-18.0-1.58","5985","approach_avoid_sv1","""event"",""trial"",""time""
""fullscreenenter"",""1"",""3637""
","
","
","""event"",""trial"",""time""
""fullscreenenter"",""1"",""3637""
","
","","","","","","596.2000000476837","images/sofa1.png","","","memory_trial","4","definitely_new",""
"html-keyboard-response","162","510710","0.0-18.0-0.59","5985","approach_avoid_sv1","""event"",""trial"",""time""
""fullscreenenter"",""1"",""3637""
","
","
","""event"",""trial"",""time""
""fullscreenenter"",""1"",""3637""
","
","","","","","","null","<div style=""font-size:60px;"">+</div>","null","","fixation","","",""
"memory-trial","163","512919","0.0-18.0-1.59","5985","approach_avoid_sv1","""event"",""trial"",""time""
""fullscreenenter"",""1"",""3637""
","
","
","""event"",""trial"",""time""
""fullscreenenter"",""1"",""3637""
","
","","","","","","1191.4000000953674","images/truck2.png","","","memory_trial","4","definitely_new",""
"html-keyboard-response","164","513435","0.0-18.0-0.60","5985","approach_avoid_sv1","""event"",""trial"",""time""
""fullscreenenter"",""1"",""3637""
","
","
","""event"",""trial"",""time""
""fullscreenenter"",""1"",""3637""
","
","","","","","","null","<div style=""font-size:60px;"">+</div>","null","","fixation","","",""
"memory-trial","165","515427","0.0-18.0-1.60","5985","approach_avoid_sv1","""event"",""trial"",""time""
""fullscreenenter"",""1"",""3637""
","
","
","""event"",""trial"",""time""
""fullscreenenter"",""1"",""3637""
","
","","","","","","972.8999998569489","images/orange2.png","","","memory_trial","4","definitely_new",""
"html-keyboard-response","166","515935","0.0-18.0-0.61","5985","approach_avoid_sv1","""event"",""trial"",""time""
""fullscreenenter"",""1"",""3637""
","
","
","""event"",""trial"",""time""
""fullscreenenter"",""1"",""3637""
","
","","","","","","null","<div style=""font-size:60px;"">+</div>","null","","fixation","","",""
"memory-trial","167","518020","0.0-18.0-1.61","5985","approach_avoid_sv1","""event"",""trial"",""time""
""fullscreenenter"",""1"",""3637""
","
","
","""event"",""trial"",""time""
""fullscreenenter"",""1"",""3637""
","
","","","","","","1064.6000001430511","images/goat2.png","","","memory_trial","1","definitely_old",""
"html-keyboard-response","168","518530","0.0-18.0-0.62","5985","approach_avoid_sv1","""event"",""trial"",""time""
""fullscreenenter"",""1"",""3637""
","
","
","""event"",""trial"",""time""
""fullscreenenter"",""1"",""3637""
","
","","","","","","null","<div style=""font-size:60px;"">+</div>","null","","fixation","","",""
"memory-trial","169","521743","0.0-18.0-1.62","5985","approach_avoid_sv1","""event"",""trial"",""time""
""fullscreenenter"",""1"",""3637""
","
","
","""event"",""trial"",""time""
""fullscreenenter"",""1"",""3637""
","
","","","","","","2198.2000000476837","images/plane4.png","","","memory_trial","3","maybe_new",""
"html-keyboard-response","170","522265","0.0-18.0-0.63","5985","approach_avoid_sv1","""event"",""trial"",""time""
""fullscreenenter"",""1"",""3637""
","
","
","""event"",""trial"",""time""
""fullscreenenter"",""1"",""3637""
","
","","","","","","null","<div style=""font-size:60px;"">+</div>","null","","fixation","","",""
"memory-trial","171","524062","0.0-18.0-1.63","5985","approach_avoid_sv1","""event"",""trial"",""time""
""fullscreenenter"",""1"",""3637""
","
","
","""event"",""trial"",""time""
""fullscreenenter"",""1"",""3637""
","
","","","","","","774.2999999523163","images/rabbit1.png","","","memory_trial","4","definitely_new",""
"html-keyboard-response","172","524574","0.0-18.0-0.64","5985","approach_avoid_sv1","""event"",""trial"",""time""
""fullscreenenter"",""1"",""3637""
","
","
","""event"",""trial"",""time""
""fullscreenenter"",""1"",""3637""
","
","","","","","","null","<div style=""font-size:60px;"">+</div>","null","","fixation","","",""
"memory-trial","173","526533","0.0-18.0-1.64","5985","approach_avoid_sv1","""event"",""trial"",""time""
""fullscreenenter"",""1"",""3637""
","
","
","""event"",""trial"",""time""
""fullscreenenter"",""1"",""3637""
","
","","","","","","937.8000001907349","images/train4.png","","","memory_trial","4","definitely_new",""
"html-keyboard-response","174","527045","0.0-18.0-0.65","5985","approach_avoid_sv1","""event"",""trial"",""time""
""fullscreenenter"",""1"",""3637""
","
","
","""event"",""trial"",""time""
""fullscreenenter"",""1"",""3637""
","
","","","","","","null","<div style=""font-size:60px;"">+</div>","null","","fixation","","",""
"memory-trial","175","529272","0.0-18.0-1.65","5985","approach_avoid_sv1","""event"",""trial"",""time""
""fullscreenenter"",""1"",""3637""
","
","
","""event"",""trial"",""time""
""fullscreenenter"",""1"",""3637""
","
","","","","","","1217.2000000476837","images/bush1.png","","","memory_trial","4","definitely_new",""
"html-keyboard-response","176","529793","0.0-18.0-0.66","5985","approach_avoid_sv1","""event"",""trial"",""time""
""fullscreenenter"",""1"",""3637""
","
","
","""event"",""trial"",""time""
""fullscreenenter"",""1"",""3637""
","
","","","","","","null","<div style=""font-size:60px;"">+</div>","null","","fixation","","",""
"memory-trial","177","532979","0.0-18.0-1.66","5985","approach_avoid_sv1","""event"",""trial"",""time""
""fullscreenenter"",""1"",""3637""
","
","
","""event"",""trial"",""time""
""fullscreenenter"",""1"",""3637""
","
","","","","","","2173.100000143051","images/dog7.png","","","memory_trial","3","maybe_new",""
"html-keyboard-response","178","533489","0.0-18.0-0.67","5985","approach_avoid_sv1","""event"",""trial"",""time""
""fullscreenenter"",""1"",""3637""
","
","
","""event"",""trial"",""time""
""fullscreenenter"",""1"",""3637""
","
","","","","","","null","<div style=""font-size:60px;"">+</div>","null","","fixation","","",""
"memory-trial","179","536107","0.0-18.0-1.67","5985","approach_avoid_sv1","""event"",""trial"",""time""
""fullscreenenter"",""1"",""3637""
","
","
","""event"",""trial"",""time""
""fullscreenenter"",""1"",""3637""
","
","","","","","","1600.5","images/rabbit7.png","","","memory_trial","4","definitely_new",""
"html-keyboard-response","180","536613","0.0-18.0-0.68","5985","approach_avoid_sv1","""event"",""trial"",""time""
""fullscreenenter"",""1"",""3637""
","
","
","""event"",""trial"",""time""
""fullscreenenter"",""1"",""3637""
","
","","","","","","null","<div style=""font-size:60px;"">+</div>","null","","fixation","","",""
"memory-trial","181","538406","0.0-18.0-1.68","5985","approach_avoid_sv1","""event"",""trial"",""time""
""fullscreenenter"",""1"",""3637""
","
","
","""event"",""trial"",""time""
""fullscreenenter"",""1"",""3637""
","
","","","","","","773.7999999523163","images/cactus8.png","","","memory_trial","4","definitely_new",""
"html-keyboard-response","182","538920","0.0-18.0-0.69","5985","approach_avoid_sv1","""event"",""trial"",""time""
""fullscreenenter"",""1"",""3637""
","
","
","""event"",""trial"",""time""
""fullscreenenter"",""1"",""3637""
","
","","","","","","null","<div style=""font-size:60px;"">+</div>","null","","fixation","","",""
"memory-trial","183","543992","0.0-18.0-1.69","5985","approach_avoid_sv1","""event"",""trial"",""time""
""fullscreenenter"",""1"",""3637""
","
","
","""event"",""trial"",""time""
""fullscreenenter"",""1"",""3637""
","
","","","","","","4060.300000190735","images/cat6.png","","","memory_trial","3","maybe_new",""
"html-keyboard-response","184","544501","0.0-18.0-0.70","5985","approach_avoid_sv1","""event"",""trial"",""time""
""fullscreenenter"",""1"",""3637""
","
","
","""event"",""trial"",""time""
""fullscreenenter"",""1"",""3637""
","
","","","","","","null","<div style=""font-size:60px;"">+</div>","null","","fixation","","",""
"memory-trial","185","547016","0.0-18.0-1.70","5985","approach_avoid_sv1","""event"",""trial"",""time""
""fullscreenenter"",""1"",""3637""
","
","
","""event"",""trial"",""time""
""fullscreenenter"",""1"",""3637""
","
","","","","","","1495.5","images/tree5.png","","","memory_trial","1","definitely_old",""
"html-keyboard-response","186","547538","0.0-18.0-0.71","5985","approach_avoid_sv1","""event"",""trial"",""time""
""fullscreenenter"",""1"",""3637""
","
","
","""event"",""trial"",""time""
""fullscreenenter"",""1"",""3637""
","
","","","","","","null","<div style=""font-size:60px;"">+</div>","null","","fixation","","",""
"memory-trial","187","549201","0.0-18.0-1.71","5985","approach_avoid_sv1","""event"",""trial"",""time""
""fullscreenenter"",""1"",""3637""
","
","
","""event"",""trial"",""time""
""fullscreenenter"",""1"",""3637""
","
","","","","","","637.2000000476837","images/cactus7.png","","","memory_trial","4","definitely_new",""
"html-keyboard-response","188","549708","0.0-18.0-0.72","5985","approach_avoid_sv1","""event"",""trial"",""time""
""fullscreenenter"",""1"",""3637""
","
","
","""event"",""trial"",""time""
""fullscreenenter"",""1"",""3637""
","
","","","","","","null","<div style=""font-size:60px;"">+</div>","null","","fixation","","",""
"memory-trial","189","552585","0.0-18.0-1.72","5985","approach_avoid_sv1","""event"",""trial"",""time""
""fullscreenenter"",""1"",""3637""
","
","
","""event"",""trial"",""time""
""fullscreenenter"",""1"",""3637""
","
","","","","","","1862.9000000953674","images/flower4.png","","","memory_trial","4","definitely_new",""
"html-keyboard-response","190","553101","0.0-18.0-0.73","5985","approach_avoid_sv1","""event"",""trial"",""time""
""fullscreenenter"",""1"",""3637""
","
","
","""event"",""trial"",""time""
""fullscreenenter"",""1"",""3637""
","
","","","","","","null","<div style=""font-size:60px;"">+</div>","null","","fixation","","",""
"memory-trial","191","555582","0.0-18.0-1.73","5985","approach_avoid_sv1","""event"",""trial"",""time""
""fullscreenenter"",""1"",""3637""
","
","
","""event"",""trial"",""time""
""fullscreenenter"",""1"",""3637""
","
","","","","","","1470.2000000476837","images/goat7.png","","","memory_trial","4","definitely_new",""
"html-keyboard-response","192","556084","0.0-18.0-0.74","5985","approach_avoid_sv1","""event"",""trial"",""time""
""fullscreenenter"",""1"",""3637""
","
","
","""event"",""trial"",""time""
""fullscreenenter"",""1"",""3637""
","
","","","","","","null","<div style=""font-size:60px;"">+</div>","null","","fixation","","",""
"memory-trial","193","558599","0.0-18.0-1.74","5985","approach_avoid_sv1","""event"",""trial"",""time""
""fullscreenenter"",""1"",""3637""
","
","
","""event"",""trial"",""time""
""fullscreenenter"",""1"",""3637""
","
","","","","","","1495.4000000953674","images/flower3.png","","","memory_trial","4","definitely_new",""
"html-keyboard-response","194","559124","0.0-18.0-0.75","5985","approach_avoid_sv1","""event"",""trial"",""time""
""fullscreenenter"",""1"",""3637""
","
","
","""event"",""trial"",""time""
""fullscreenenter"",""1"",""3637""
","
","","","","","","null","<div style=""font-size:60px;"">+</div>","null","","fixation","","",""
"memory-trial","195","560933","0.0-18.0-1.75","5985","approach_avoid_sv1","""event"",""trial"",""time""
""fullscreenenter"",""1"",""3637""
","
","
","""event"",""trial"",""time""
""fullscreenenter"",""1"",""3637""
","
","","","","","","793.1000001430511","images/train8.png","","","memory_trial","4","definitely_new",""
"html-keyboard-response","196","561440","0.0-18.0-0.76","5985","approach_avoid_sv1","""event"",""trial"",""time""
""fullscreenenter"",""1"",""3637""
","
","
","""event"",""trial"",""time""
""fullscreenenter"",""1"",""3637""
","
","","","","","","null","<div style=""font-size:60px;"">+</div>","null","","fixation","","",""
"memory-trial","197","563111","0.0-18.0-1.76","5985","approach_avoid_sv1","""event"",""trial"",""time""
""fullscreenenter"",""1"",""3637""
","
","
","""event"",""trial"",""time""
""fullscreenenter"",""1"",""3637""
","
","","","","","","670.5999999046326","images/tree7.png","","","memory_trial","4","definitely_new",""
"html-keyboard-response","198","563618","0.0-18.0-0.77","5985","approach_avoid_sv1","""event"",""trial"",""time""
""fullscreenenter"",""1"",""3637""
","
","
","""event"",""trial"",""time""
""fullscreenenter"",""1"",""3637""
","
","","","","","","null","<div style=""font-size:60px;"">+</div>","null","","fixation","","",""
"memory-trial","199","567176","0.0-18.0-1.77","5985","approach_avoid_sv1","""event"",""trial"",""time""
""fullscreenenter"",""1"",""3637""
","
","
","""event"",""trial"",""time""
""fullscreenenter"",""1"",""3637""
","
","","","","","","2542.9000000953674","images/boat7.png","","","memory_trial","2","maybe_old",""
"html-keyboard-response","200","567685","0.0-18.0-0.78","5985","approach_avoid_sv1","""event"",""trial"",""time""
""fullscreenenter"",""1"",""3637""
","
","
","""event"",""trial"",""time""
""fullscreenenter"",""1"",""3637""
","
","","","","","","null","<div style=""font-size:60px;"">+</div>","null","","fixation","","",""
"memory-trial","201","569477","0.0-18.0-1.78","5985","approach_avoid_sv1","""event"",""trial"",""time""
""fullscreenenter"",""1"",""3637""
","
","
","""event"",""trial"",""time""
""fullscreenenter"",""1"",""3637""
","
","","","","","","781.2999999523163","images/banana5.png","","","memory_trial","4","definitely_new",""
"html-keyboard-response","202","569993","0.0-18.0-0.79","5985","approach_avoid_sv1","""event"",""trial"",""time""
""fullscreenenter"",""1"",""3637""
","
","
","""event"",""trial"",""time""
""fullscreenenter"",""1"",""3637""
","
","","","","","","null","<div style=""font-size:60px;"">+</div>","null","","fixation","","",""
"memory-trial","203","572329","0.0-18.0-1.79","5985","approach_avoid_sv1","""event"",""trial"",""time""
""fullscreenenter"",""1"",""3637""
","
","
","""event"",""trial"",""time""
""fullscreenenter"",""1"",""3637""
","
","","","","","","1316.9000000953674","images/table3.png","","","memory_trial","4","definitely_new",""
"html-keyboard-response","204","572854","0.0-18.0-0.80","5985","approach_avoid_sv1","""event"",""trial"",""time""
""fullscreenenter"",""1"",""3637""
","
","
","""event"",""trial"",""time""
""fullscreenenter"",""1"",""3637""
","
","","","","","","null","<div style=""font-size:60px;"">+</div>","null","","fixation","","",""
"memory-trial","205","574519","0.0-18.0-1.80","5985","approach_avoid_sv1","""event"",""trial"",""time""
""fullscreenenter"",""1"",""3637""
","
","
","""event"",""trial"",""time""
""fullscreenenter"",""1"",""3637""
","
","","","","","","645.2000000476837","images/banana2.png","","","memory_trial","4","definitely_new",""
"html-keyboard-response","206","575023","0.0-18.0-0.81","5985","approach_avoid_sv1","""event"",""trial"",""time""
""fullscreenenter"",""1"",""3637""
","
","
","""event"",""trial"",""time""
""fullscreenenter"",""1"",""3637""
","
","","","","","","null","<div style=""font-size:60px;"">+</div>","null","","fixation","","",""
"memory-trial","207","577069","0.0-18.0-1.81","5985","approach_avoid_sv1","""event"",""trial"",""time""
""fullscreenenter"",""1"",""3637""
","
","
","""event"",""trial"",""time""
""fullscreenenter"",""1"",""3637""
","
","","","","","","1021.9000000953674","images/goat4.png","","","memory_trial","1","definitely_old",""
"html-keyboard-response","208","577577","0.0-18.0-0.82","5985","approach_avoid_sv1","""event"",""trial"",""time""
""fullscreenenter"",""1"",""3637""
","
","
","""event"",""trial"",""time""
""fullscreenenter"",""1"",""3637""
","
","","","","","","null","<div style=""font-size:60px;"">+</div>","null","","fixation","","",""
"memory-trial","209","580019","0.0-18.0-1.82","5985","approach_avoid_sv1","""event"",""trial"",""time""
""fullscreenenter"",""1"",""3637""
","
","
","""event"",""trial"",""time""
""fullscreenenter"",""1"",""3637""
","
","","","","","","1427.2000000476837","images/truck6.png","","","memory_trial","4","definitely_new",""
"html-keyboard-response","210","580542","0.0-18.0-0.83","5985","approach_avoid_sv1","""event"",""trial"",""time""
""fullscreenenter"",""1"",""3637""
","
","
","""event"",""trial"",""time""
""fullscreenenter"",""1"",""3637""
","
","","","","","","null","<div style=""font-size:60px;"">+</div>","null","","fixation","","",""
"memory-trial","211","582344","0.0-18.0-1.83","5985","approach_avoid_sv1","""event"",""trial"",""time""
""fullscreenenter"",""1"",""3637""
","
","
","""event"",""trial"",""time""
""fullscreenenter"",""1"",""3637""
","
","","","","","","783.1999998092651","images/orange4.png","","","memory_trial","4","definitely_new",""
"html-keyboard-response","212","582855","0.0-18.0-0.84","5985","approach_avoid_sv1","""event"",""trial"",""time""
""fullscreenenter"",""1"",""3637""
","
","
","""event"",""trial"",""time""
""fullscreenenter"",""1"",""3637""
","
","","","","","","null","<div style=""font-size:60px;"">+</div>","null","","fixation","","",""
"memory-trial","213","585672","0.0-18.0-1.84","5985","approach_avoid_sv1","""event"",""trial"",""time""
""fullscreenenter"",""1"",""3637""
","
","
","""event"",""trial"",""time""
""fullscreenenter"",""1"",""3637""
","
","","","","","","1795.5999999046326","images/flower5.png","","","memory_trial","4","definitely_new",""
"html-keyboard-response","214","586182","0.0-18.0-0.85","5985","approach_avoid_sv1","""event"",""trial"",""time""
""fullscreenenter"",""1"",""3637""
","
","
","""event"",""trial"",""time""
""fullscreenenter"",""1"",""3637""
","
","","","","","","null","<div style=""font-size:60px;"">+</div>","null","","fixation","","",""
"memory-trial","215","587895","0.0-18.0-1.85","5985","approach_avoid_sv1","""event"",""trial"",""time""
""fullscreenenter"",""1"",""3637""
","
","
","""event"",""trial"",""time""
""fullscreenenter"",""1"",""3637""
","
","","","","","","697.4000000953674","images/banana7.png","","","memory_trial","4","definitely_new",""
"html-keyboard-response","216","588407","0.0-18.0-0.86","5985","approach_avoid_sv1","""event"",""trial"",""time""
""fullscreenenter"",""1"",""3637""
","
","
","""event"",""trial"",""time""
""fullscreenenter"",""1"",""3637""
","
","","","","","","null","<div style=""font-size:60px;"">+</div>","null","","fixation","","",""
"memory-trial","217","591741","0.0-18.0-1.86","5985","approach_avoid_sv1","""event"",""trial"",""time""
""fullscreenenter"",""1"",""3637""
","
","
","""event"",""trial"",""time""
""fullscreenenter"",""1"",""3637""
","
","","","","","","2317.9000000953674","images/truck5.png","","","memory_trial","4","definitely_new",""
"html-keyboard-response","218","592248","0.0-18.0-0.87","5985","approach_avoid_sv1","""event"",""trial"",""time""
""fullscreenenter"",""1"",""3637""
","
","
","""event"",""trial"",""time""
""fullscreenenter"",""1"",""3637""
","
","","","","","","null","<div style=""font-size:60px;"">+</div>","null","","fixation","","",""
"memory-trial","219","594174","0.0-18.0-1.87","5985","approach_avoid_sv1","""event"",""trial"",""time""
""fullscreenenter"",""1"",""3637""
","
","
","""event"",""trial"",""time""
""fullscreenenter"",""1"",""3637""
","
","","","","","","909.5999999046326","images/straw4.png","","","memory_trial","4","definitely_new",""
"html-keyboard-response","220","594685","0.0-18.0-0.88","5985","approach_avoid_sv1","""event"",""trial"",""time""
""fullscreenenter"",""1"",""3637""
","
","
","""event"",""trial"",""time""
""fullscreenenter"",""1"",""3637""
","
","","","","","","null","<div style=""font-size:60px;"">+</div>","null","","fixation","","",""
"memory-trial","221","596691","0.0-18.0-1.88","5985","approach_avoid_sv1","""event"",""trial"",""time""
""fullscreenenter"",""1"",""3637""
","
","
","""event"",""trial"",""time""
""fullscreenenter"",""1"",""3637""
","
","","","","","","984.8000001907349","images/bush4.png","","","memory_trial","4","definitely_new",""
"html-keyboard-response","222","597207","0.0-18.0-0.89","5985","approach_avoid_sv1","""event"",""trial"",""time""
""fullscreenenter"",""1"",""3637""
","
","
","""event"",""trial"",""time""
""fullscreenenter"",""1"",""3637""
","
","","","","","","null","<div style=""font-size:60px;"">+</div>","null","","fixation","","",""
"memory-trial","223","598997","0.0-18.0-1.89","5985","approach_avoid_sv1","""event"",""trial"",""time""
""fullscreenenter"",""1"",""3637""
","
","
","""event"",""trial"",""time""
""fullscreenenter"",""1"",""3637""
","
","","","","","","770.5999999046326","images/dog2.png","","","memory_trial","4","definitely_new",""
"html-keyboard-response","224","599516","0.0-18.0-0.90","5985","approach_avoid_sv1","""event"",""trial"",""time""
""fullscreenenter"",""1"",""3637""
","
","
","""event"",""trial"",""time""
""fullscreenenter"",""1"",""3637""
","
","","","","","","null","<div style=""font-size:60px;"">+</div>","null","","fixation","","",""
"memory-trial","225","601271","0.0-18.0-1.90","5985","approach_avoid_sv1","""event"",""trial"",""time""
""fullscreenenter"",""1"",""3637""
","
","
","""event"",""trial"",""time""
""fullscreenenter"",""1"",""3637""
","
","","","","","","738.1999998092651","images/tree4.png","","","memory_trial","4","definitely_new",""
"html-keyboard-response","226","601782","0.0-18.0-0.91","5985","approach_avoid_sv1","""event"",""trial"",""time""
""fullscreenenter"",""1"",""3637""
","
","
","""event"",""trial"",""time""
""fullscreenenter"",""1"",""3637""
","
","","","","","","null","<div style=""font-size:60px;"">+</div>","null","","fixation","","",""
"memory-trial","227","603816","0.0-18.0-1.91","5985","approach_avoid_sv1","""event"",""trial"",""time""
""fullscreenenter"",""1"",""3637""
","
","
","""event"",""trial"",""time""
""fullscreenenter"",""1"",""3637""
","
","","","","","","1021","images/flower7.png","","","memory_trial","4","definitely_new",""
"html-button-response","228","606671","0.0-18.0-2.91-0.91","5985","approach_avoid_sv1","""event"",""trial"",""time""
""fullscreenenter"",""1"",""3637""
","
","
","""event"",""trial"",""time""
""fullscreenenter"",""1"",""3637""
","
","","","","","","2852.2000000476837","<p> Take a break! </p><p> Click the button to continue. </p>","0","","break","","",""
"html-keyboard-response","229","607183","0.0-18.0-0.92","5985","approach_avoid_sv1","""event"",""trial"",""time""
""fullscreenenter"",""1"",""3637""
","
","
","""event"",""trial"",""time""
""fullscreenenter"",""1"",""3637""
","
","","","","","","null","<div style=""font-size:60px;"">+</div>","null","","fixation","","",""
"memory-trial","230","609321","0.0-18.0-1.92","5985","approach_avoid_sv1","""event"",""trial"",""time""
""fullscreenenter"",""1"",""3637""
","
","
","""event"",""trial"",""time""
""fullscreenenter"",""1"",""3637""
","
","","","","","","1122.1000001430511","images/cat3.png","","","memory_trial","4","definitely_new",""
"html-keyboard-response","231","609840","0.0-18.0-0.93","5985","approach_avoid_sv1","""event"",""trial"",""time""
""fullscreenenter"",""1"",""3637""
","
","
","""event"",""trial"",""time""
""fullscreenenter"",""1"",""3637""
","
","","","","","","null","<div style=""font-size:60px;"">+</div>","null","","fixation","","",""
"memory-trial","232","615233","0.0-18.0-1.93","5985","approach_avoid_sv1","""event"",""trial"",""time""
""fullscreenenter"",""1"",""3637""
","
","
","""event"",""trial"",""time""
""fullscreenenter"",""1"",""3637""
","
","","","","","","4381.700000047684","images/dog6.png","","","memory_trial","4","definitely_new",""
"html-keyboard-response","233","615740","0.0-18.0-0.94","5985","approach_avoid_sv1","""event"",""trial"",""time""
""fullscreenenter"",""1"",""3637""
","
","
","""event"",""trial"",""time""
""fullscreenenter"",""1"",""3637""
","
","","","","","","null","<div style=""font-size:60px;"">+</div>","null","","fixation","","",""
"memory-trial","234","617627","0.0-18.0-1.94","5985","approach_avoid_sv1","""event"",""trial"",""time""
""fullscreenenter"",""1"",""3637""
","
","
","""event"",""trial"",""time""
""fullscreenenter"",""1"",""3637""
","
","","","","","","861.2999999523163","images/orange6.png","","","memory_trial","4","definitely_new",""
"html-keyboard-response","235","618147","0.0-18.0-0.95","5985","approach_avoid_sv1","""event"",""trial"",""time""
""fullscreenenter"",""1"",""3637""
","
","
","""event"",""trial"",""time""
""fullscreenenter"",""1"",""3637""
","
","","","","","","null","<div style=""font-size:60px;"">+</div>","null","","fixation","","",""
"memory-trial","236","619843","0.0-18.0-1.95","5985","approach_avoid_sv1","""event"",""trial"",""time""
""fullscreenenter"",""1"",""3637""
","
","
","""event"",""trial"",""time""
""fullscreenenter"",""1"",""3637""
","
","","","","","","676","images/sofa8.png","","","memory_trial","4","definitely_new",""
"html-keyboard-response","237","620356","0.0-18.0-0.96","5985","approach_avoid_sv1","""event"",""trial"",""time""
""fullscreenenter"",""1"",""3637""
","
","
","""event"",""trial"",""time""
""fullscreenenter"",""1"",""3637""
","
","","","","","","null","<div style=""font-size:60px;"">+</div>","null","","fixation","","",""
"memory-trial","238","622313","0.0-18.0-1.96","5985","approach_avoid_sv1","""event"",""trial"",""time""
""fullscreenenter"",""1"",""3637""
","
","
","""event"",""trial"",""time""
""fullscreenenter"",""1"",""3637""
","
","","","","","","944.5999999046326","images/sheep6.png","","","memory_trial","4","definitely_new",""
"html-keyboard-response","239","622824","0.0-18.0-0.97","5985","approach_avoid_sv1","""event"",""trial"",""time""
""fullscreenenter"",""1"",""3637""
","
","
","""event"",""trial"",""time""
""fullscreenenter"",""1"",""3637""
","
","","","","","","null","<div style=""font-size:60px;"">+</div>","null","","fixation","","",""
"memory-trial","240","624557","0.0-18.0-1.97","5985","approach_avoid_sv1","""event"",""trial"",""time""
""fullscreenenter"",""1"",""3637""
","
","
","""event"",""trial"",""time""
""fullscreenenter"",""1"",""3637""
","
","","","","","","717.1000001430511","images/straw8.png","","","memory_trial","4","definitely_new",""
"html-keyboard-response","241","625066","0.0-18.0-0.98","5985","approach_avoid_sv1","""event"",""trial"",""time""
""fullscreenenter"",""1"",""3637""
","
","
","""event"",""trial"",""time""
""fullscreenenter"",""1"",""3637""
","
","","","","","","null","<div style=""font-size:60px;"">+</div>","null","","fixation","","",""
"memory-trial","242","628116","0.0-18.0-1.98","5985","approach_avoid_sv1","""event"",""trial"",""time""
""fullscreenenter"",""1"",""3637""
","
","
","""event"",""trial"",""time""
""fullscreenenter"",""1"",""3637""
","
","","","","","","2027.5","images/table4.png","","","memory_trial","4","definitely_new",""
"html-keyboard-response","243","628633","0.0-18.0-0.99","5985","approach_avoid_sv1","""event"",""trial"",""time""
""fullscreenenter"",""1"",""3637""
","
","
","""event"",""trial"",""time""
""fullscreenenter"",""1"",""3637""
","
","","","","","","null","<div style=""font-size:60px;"">+</div>","null","","fixation","","",""
"memory-trial","244","630428","0.0-18.0-1.99","5985","approach_avoid_sv1","""event"",""trial"",""time""
""fullscreenenter"",""1"",""3637""
","
","
","""event"",""trial"",""time""
""fullscreenenter"",""1"",""3637""
","
","","","","","","780.9000000953674","images/sofa7.png","","","memory_trial","4","definitely_new",""
"html-keyboard-response","245","630942","0.0-18.0-0.100","5985","approach_avoid_sv1","""event"",""trial"",""time""
""fullscreenenter"",""1"",""3637""
","
","
","""event"",""trial"",""time""
""fullscreenenter"",""1"",""3637""
","
","","","","","","null","<div style=""font-size:60px;"">+</div>","null","","fixation","","",""
"memory-trial","246","634440","0.0-18.0-1.100","5985","approach_avoid_sv1","""event"",""trial"",""time""
""fullscreenenter"",""1"",""3637""
","
","
","""event"",""trial"",""time""
""fullscreenenter"",""1"",""3637""
","
","","","","","","2472","images/cow8.png","","","memory_trial","4","definitely_new",""
"html-keyboard-response","247","634952","0.0-18.0-0.101","5985","approach_avoid_sv1","""event"",""trial"",""time""
""fullscreenenter"",""1"",""3637""
","
","
","""event"",""trial"",""time""
""fullscreenenter"",""1"",""3637""
","
","","","","","","null","<div style=""font-size:60px;"">+</div>","null","","fixation","","",""
"memory-trial","248","636905","0.0-18.0-1.101","5985","approach_avoid_sv1","""event"",""trial"",""time""
""fullscreenenter"",""1"",""3637""
","
","
","""event"",""trial"",""time""
""fullscreenenter"",""1"",""3637""
","
","","","","","","935.2000000476837","images/plane2.png","","","memory_trial","4","definitely_new",""
"html-keyboard-response","249","637422","0.0-18.0-0.102","5985","approach_avoid_sv1","""event"",""trial"",""time""
""fullscreenenter"",""1"",""3637""
","
","
","""event"",""trial"",""time""
""fullscreenenter"",""1"",""3637""
","
","","","","","","null","<div style=""font-size:60px;"">+</div>","null","","fixation","","",""
"memory-trial","250","640008","0.0-18.0-1.102","5985","approach_avoid_sv1","""event"",""trial"",""time""
""fullscreenenter"",""1"",""3637""
","
","
","""event"",""trial"",""time""
""fullscreenenter"",""1"",""3637""
","
","","","","","","1562.7000000476837","images/cactus2.png","","","memory_trial","4","definitely_new",""
"html-keyboard-response","251","640516","0.0-18.0-0.103","5985","approach_avoid_sv1","""event"",""trial"",""time""
""fullscreenenter"",""1"",""3637""
","
","
","""event"",""trial"",""time""
""fullscreenenter"",""1"",""3637""
","
","","","","","","null","<div style=""font-size:60px;"">+</div>","null","","fixation","","",""
"memory-trial","252","643018","0.0-18.0-1.103","5985","approach_avoid_sv1","""event"",""trial"",""time""
""fullscreenenter"",""1"",""3637""
","
","
","""event"",""trial"",""time""
""fullscreenenter"",""1"",""3637""
","
","","","","","","1482.9000000953674","images/cow2.png","","","memory_trial","4","definitely_new",""
"html-keyboard-response","253","643534","0.0-18.0-0.104","5985","approach_avoid_sv1","""event"",""trial"",""time""
""fullscreenenter"",""1"",""3637""
","
","
","""event"",""trial"",""time""
""fullscreenenter"",""1"",""3637""
","
","","","","","","null","<div style=""font-size:60px;"">+</div>","null","","fixation","","",""
"memory-trial","254","646883","0.0-18.0-1.104","5985","approach_avoid_sv1","""event"",""trial"",""time""
""fullscreenenter"",""1"",""3637""
","
","
","""event"",""trial"",""time""
""fullscreenenter"",""1"",""3637""
","
","","","","","","2332.7000000476837","images/rodent7.png","","","memory_trial","4","definitely_new",""
"html-keyboard-response","255","647394","0.0-18.0-0.105","5985","approach_avoid_sv1","""event"",""trial"",""time""
""fullscreenenter"",""1"",""3637""
","
","
","""event"",""trial"",""time""
""fullscreenenter"",""1"",""3637""
","
","","","","","","null","<div style=""font-size:60px;"">+</div>","null","","fixation","","",""
"memory-trial","256","649557","0.0-18.0-1.105","5985","approach_avoid_sv1","""event"",""trial"",""time""
""fullscreenenter"",""1"",""3637""
","
","
","""event"",""trial"",""time""
""fullscreenenter"",""1"",""3637""
","
","","","","","","1141.4000000953674","images/straw1.png","","","memory_trial","4","definitely_new",""
"html-keyboard-response","257","650072","0.0-18.0-0.106","5985","approach_avoid_sv1","""event"",""trial"",""time""
""fullscreenenter"",""1"",""3637""
","
","
","""event"",""trial"",""time""
""fullscreenenter"",""1"",""3637""
","
","","","","","","null","<div style=""font-size:60px;"">+</div>","null","","fixation","","",""
"memory-trial","258","652755","0.0-18.0-1.106","5985","approach_avoid_sv1","""event"",""trial"",""time""
""fullscreenenter"",""1"",""3637""
","
","
","""event"",""trial"",""time""
""fullscreenenter"",""1"",""3637""
","
","","","","","","1675.1999998092651","images/dog8.png","","","memory_trial","4","definitely_new",""
"html-keyboard-response","259","653268","0.0-18.0-0.107","5985","approach_avoid_sv1","""event"",""trial"",""time""
""fullscreenenter"",""1"",""3637""
","
","
","""event"",""trial"",""time""
""fullscreenenter"",""1"",""3637""
","
","","","","","","null","<div style=""font-size:60px;"">+</div>","null","","fixation","","",""
"memory-trial","260","658045","0.0-18.0-1.107","5985","approach_avoid_sv1","""event"",""trial"",""time""
""fullscreenenter"",""1"",""3637""
","
","
","""event"",""trial"",""time""
""fullscreenenter"",""1"",""3637""
","
","","","","","","3756.2999999523163","images/goat8.png","","","memory_trial","4","definitely_new",""
"html-keyboard-response","261","658559","0.0-18.0-0.108","5985","approach_avoid_sv1","""event"",""trial"",""time""
""fullscreenenter"",""1"",""3637""
","
","
","""event"",""trial"",""time""
""fullscreenenter"",""1"",""3637""
","
","","","","","","null","<div style=""font-size:60px;"">+</div>","null","","fixation","","",""
"memory-trial","262","660741","0.0-18.0-1.108","5985","approach_avoid_sv1","""event"",""trial"",""time""
""fullscreenenter"",""1"",""3637""
","
","
","""event"",""trial"",""time""
""fullscreenenter"",""1"",""3637""
","
","","","","","","1165","images/bush3.png","","","memory_trial","4","definitely_new",""
"html-keyboard-response","263","661264","0.0-18.0-0.109","5985","approach_avoid_sv1","""event"",""trial"",""time""
""fullscreenenter"",""1"",""3637""
","
","
","""event"",""trial"",""time""
""fullscreenenter"",""1"",""3637""
","
","","","","","","null","<div style=""font-size:60px;"">+</div>","null","","fixation","","",""
"memory-trial","264","664947","0.0-18.0-1.109","5985","approach_avoid_sv1","""event"",""trial"",""time""
""fullscreenenter"",""1"",""3637""
","
","
","""event"",""trial"",""time""
""fullscreenenter"",""1"",""3637""
","
","","","","","","2666","images/chair4.png","","","memory_trial","4","definitely_new",""
"html-keyboard-response","265","665463","0.0-18.0-0.110","5985","approach_avoid_sv1","""event"",""trial"",""time""
""fullscreenenter"",""1"",""3637""
","
","
","""event"",""trial"",""time""
""fullscreenenter"",""1"",""3637""
","
","","","","","","null","<div style=""font-size:60px;"">+</div>","null","","fixation","","",""
"memory-trial","266","667605","0.0-18.0-1.110","5985","approach_avoid_sv1","""event"",""trial"",""time""
""fullscreenenter"",""1"",""3637""
","
","
","""event"",""trial"",""time""
""fullscreenenter"",""1"",""3637""
","
","","","","","","1127.0999999046326","images/boat6.png","","","memory_trial","4","definitely_new",""
"html-keyboard-response","267","668113","0.0-18.0-0.111","5985","approach_avoid_sv1","""event"",""trial"",""time""
""fullscreenenter"",""1"",""3637""
","
","
","""event"",""trial"",""time""
""fullscreenenter"",""1"",""3637""
","
","","","","","","null","<div style=""font-size:60px;"">+</div>","null","","fixation","","",""
"memory-trial","268","672215","0.0-18.0-1.111","5985","approach_avoid_sv1","""event"",""trial"",""time""
""fullscreenenter"",""1"",""3637""
","
","
","""event"",""trial"",""time""
""fullscreenenter"",""1"",""3637""
","
","","","","","","3086.7999999523163","images/plane6.png","","","memory_trial","4","definitely_new",""
"html-keyboard-response","269","672730","0.0-18.0-0.112","5985","approach_avoid_sv1","""event"",""trial"",""time""
""fullscreenenter"",""1"",""3637""
","
","
","""event"",""trial"",""time""
""fullscreenenter"",""1"",""3637""
","
","","","","","","null","<div style=""font-size:60px;"">+</div>","null","","fixation","","",""
"memory-trial","270","674847","0.0-18.0-1.112","5985","approach_avoid_sv1","""event"",""trial"",""time""
""fullscreenenter"",""1"",""3637""
","
","
","""event"",""trial"",""time""
""fullscreenenter"",""1"",""3637""
","
","","","","","","1094.1000001430511","images/chair1.png","","","memory_trial","4","definitely_new",""
"html-keyboard-response","271","675359","0.0-18.0-0.113","5985","approach_avoid_sv1","""event"",""trial"",""time""
""fullscreenenter"",""1"",""3637""
","
","
","""event"",""trial"",""time""
""fullscreenenter"",""1"",""3637""
","
","","","","","","null","<div style=""font-size:60px;"">+</div>","null","","fixation","","",""
"memory-trial","272","677172","0.0-18.0-1.113","5985","approach_avoid_sv1","""event"",""trial"",""time""
""fullscreenenter"",""1"",""3637""
","
","
","""event"",""trial"",""time""
""fullscreenenter"",""1"",""3637""
","
","","","","","","800.4000000953674","images/truck8.png","","","memory_trial","4","definitely_new",""
"html-keyboard-response","273","677681","0.0-18.0-0.114","5985","approach_avoid_sv1","""event"",""trial"",""time""
""fullscreenenter"",""1"",""3637""
","
","
","""event"",""trial"",""time""
""fullscreenenter"",""1"",""3637""
","
","","","","","","null","<div style=""font-size:60px;"">+</div>","null","","fixation","","",""
"memory-trial","274","679697","0.0-18.0-1.114","5985","approach_avoid_sv1","""event"",""trial"",""time""
""fullscreenenter"",""1"",""3637""
","
","
","""event"",""trial"",""time""
""fullscreenenter"",""1"",""3637""
","
","","","","","","1001.2999999523163","images/flower1.png","","","memory_trial","4","definitely_new",""
"html-keyboard-response","275","680205","0.0-18.0-0.115","5985","approach_avoid_sv1","""event"",""trial"",""time""
""fullscreenenter"",""1"",""3637""
","
","
","""event"",""trial"",""time""
""fullscreenenter"",""1"",""3637""
","
","","","","","","null","<div style=""font-size:60px;"">+</div>","null","","fixation","","",""
"memory-trial","276","682221","0.0-18.0-1.115","5985","approach_avoid_sv1","""event"",""trial"",""time""
""fullscreenenter"",""1"",""3637""
","
","
","""event"",""trial"",""time""
""fullscreenenter"",""1"",""3637""
","
","","","","","","1005.5","images/boat4.png","","","memory_trial","4","definitely_new",""
"html-keyboard-response","277","682740","0.0-18.0-0.116","5985","approach_avoid_sv1","""event"",""trial"",""time""
""fullscreenenter"",""1"",""3637""
","
","
","""event"",""trial"",""time""
""fullscreenenter"",""1"",""3637""
","
","","","","","","null","<div style=""font-size:60px;"">+</div>","null","","fixation","","",""
"memory-trial","278","685583","0.0-18.0-1.116","5985","approach_avoid_sv1","""event"",""trial"",""time""
""fullscreenenter"",""1"",""3637""
","
","
","""event"",""trial"",""time""
""fullscreenenter"",""1"",""3637""
","
","","","","","","1833.0999999046326","images/cat1.png","","","memory_trial","4","definitely_new",""
"html-keyboard-response","279","686102","0.0-18.0-0.117","5985","approach_avoid_sv1","""event"",""trial"",""time""
""fullscreenenter"",""1"",""3637""
","
","
","""event"",""trial"",""time""
""fullscreenenter"",""1"",""3637""
","
","","","","","","null","<div style=""font-size:60px;"">+</div>","null","","fixation","","",""
"memory-trial","280","688161","0.0-18.0-1.117","5985","approach_avoid_sv1","""event"",""trial"",""time""
""fullscreenenter"",""1"",""3637""
","
","
","""event"",""trial"",""time""
""fullscreenenter"",""1"",""3637""
","
","","","","","","1048.1999998092651","images/rodent3.png","","","memory_trial","4","definitely_new",""
"html-keyboard-response","281","688677","0.0-18.0-0.118","5985","approach_avoid_sv1","""event"",""trial"",""time""
""fullscreenenter"",""1"",""3637""
","
","
","""event"",""trial"",""time""
""fullscreenenter"",""1"",""3637""
","
","","","","","","null","<div style=""font-size:60px;"">+</div>","null","","fixation","","",""
"memory-trial","282","690975","0.0-18.0-1.118","5985","approach_avoid_sv1","""event"",""trial"",""time""
""fullscreenenter"",""1"",""3637""
","
","
","""event"",""trial"",""time""
""fullscreenenter"",""1"",""3637""
","
","","","","","","1284.5999999046326","images/rabbit6.png","","","memory_trial","4","definitely_new",""
"html-keyboard-response","283","691479","0.0-18.0-0.119","5985","approach_avoid_sv1","""event"",""trial"",""time""
""fullscreenenter"",""1"",""3637""
","
","
","""event"",""trial"",""time""
""fullscreenenter"",""1"",""3637""
","
","","","","","","null","<div style=""font-size:60px;"">+</div>","null","","fixation","","",""
"memory-trial","284","693048","0.0-18.0-1.119","5985","approach_avoid_sv1","""event"",""trial"",""time""
""fullscreenenter"",""1"",""3637""
","
","
","""event"",""trial"",""time""
""fullscreenenter"",""1"",""3637""
","
","","","","","","559.7999999523163","images/bush5.png","","","memory_trial","4","definitely_new",""
"html-keyboard-response","285","693563","0.0-18.0-0.120","5985","approach_avoid_sv1","""event"",""trial"",""time""
""fullscreenenter"",""1"",""3637""
","
","
","""event"",""trial"",""time""
""fullscreenenter"",""1"",""3637""
","
","","","","","","null","<div style=""font-size:60px;"">+</div>","null","","fixation","","",""
"memory-trial","286","695305","0.0-18.0-1.120","5985","approach_avoid_sv1","""event"",""trial"",""time""
""fullscreenenter"",""1"",""3637""
","
","
","""event"",""trial"",""time""
""fullscreenenter"",""1"",""3637""
","
","","","","","","726.4000000953674","images/table6.png","","","memory_trial","4","definitely_new",""
"html-keyboard-response","287","695819","0.0-18.0-0.121","5985","approach_avoid_sv1","""event"",""trial"",""time""
""fullscreenenter"",""1"",""3637""
","
","
","""event"",""trial"",""time""
""fullscreenenter"",""1"",""3637""
","
","","","","","","null","<div style=""font-size:60px;"">+</div>","null","","fixation","","",""
"memory-trial","288","700630","0.0-18.0-1.121","5985","approach_avoid_sv1","""event"",""trial"",""time""
""fullscreenenter"",""1"",""3637""
","
","
","""event"",""trial"",""time""
""fullscreenenter"",""1"",""3637""
","
","","","","","","3804.2999999523163","images/tree8.png","","","memory_trial","4","definitely_new",""
"html-keyboard-response","289","701142","0.0-18.0-0.122","5985","approach_avoid_sv1","""event"",""trial"",""time""
""fullscreenenter"",""1"",""3637""
","
","
","""event"",""trial"",""time""
""fullscreenenter"",""1"",""3637""
","
","","","","","","null","<div style=""font-size:60px;"">+</div>","null","","fixation","","",""
"memory-trial","290","704214","0.0-18.0-1.122","5985","approach_avoid_sv1","""event"",""trial"",""time""
""fullscreenenter"",""1"",""3637""
","
","
","""event"",""trial"",""time""
""fullscreenenter"",""1"",""3637""
","
","","","","","","2053.7000000476837","images/table2.png","","","memory_trial","1","definitely_old",""
"html-keyboard-response","291","704725","0.0-18.0-0.123","5985","approach_avoid_sv1","""event"",""trial"",""time""
""fullscreenenter"",""1"",""3637""
","
","
","""event"",""trial"",""time""
""fullscreenenter"",""1"",""3637""
","
","","","","","","null","<div style=""font-size:60px;"">+</div>","null","","fixation","","",""
"memory-trial","292","706685","0.0-18.0-1.123","5985","approach_avoid_sv1","""event"",""trial"",""time""
""fullscreenenter"",""1"",""3637""
","
","
","""event"",""trial"",""time""
""fullscreenenter"",""1"",""3637""
","
","","","","","","934.5","images/boat5.png","","","memory_trial","4","definitely_new",""
"html-keyboard-response","293","707197","0.0-18.0-0.124","5985","approach_avoid_sv1","""event"",""trial"",""time""
""fullscreenenter"",""1"",""3637""
","
","
","""event"",""trial"",""time""
""fullscreenenter"",""1"",""3637""
","
","","","","","","null","<div style=""font-size:60px;"">+</div>","null","","fixation","","",""
"memory-trial","294","709206","0.0-18.0-1.124","5985","approach_avoid_sv1","""event"",""trial"",""time""
""fullscreenenter"",""1"",""3637""
","
","
","""event"",""trial"",""time""
""fullscreenenter"",""1"",""3637""
","
","","","","","","1001.2000000476837","images/bed3.png","","","memory_trial","4","definitely_new",""
"html-keyboard-response","295","709711","0.0-18.0-0.125","5985","approach_avoid_sv1","""event"",""trial"",""time""
""fullscreenenter"",""1"",""3637""
","
","
","""event"",""trial"",""time""
""fullscreenenter"",""1"",""3637""
","
","","","","","","null","<div style=""font-size:60px;"">+</div>","null","","fixation","","",""
"memory-trial","296","711558","0.0-18.0-1.125","5985","approach_avoid_sv1","""event"",""trial"",""time""
""fullscreenenter"",""1"",""3637""
","
","
","""event"",""trial"",""time""
""fullscreenenter"",""1"",""3637""
","
