"trial_type","trial_index","time_elapsed","internal_node_id","subject_id","task_version","interactions","blur_events","focus_events","fullscreenenter_events","fullscreenexit_events","success","timeout","failed_images","failed_audio","failed_video","rt","stimulus","response","button_pressed","task_part","key_press","answer","correct"
"pavlovia","0","7","0.0-0.0","7590","approach_avoid_sv1","""event"",""trial"",""time""
""fullscreenenter"",""1"",""2256""
","
","
","""event"",""trial"",""time""
""fullscreenenter"",""1"",""2256""
","
","","","","","","","","","","","","",""
"fullscreen","1","3053","0.0-1.0","7590","approach_avoid_sv1","""event"",""trial"",""time""
""fullscreenenter"",""1"",""2256""
","
","
","""event"",""trial"",""time""
""fullscreenenter"",""1"",""2256""
","
","true","","","","","","","","","","","",""
"preload","2","4587","0.0-2.0","7590","approach_avoid_sv1","""event"",""trial"",""time""
""fullscreenenter"",""1"",""2256""
","
","
","""event"",""trial"",""time""
""fullscreenenter"",""1"",""2256""
","
","true","false","[]","[]","[]","","","","","","","",""
"preload","3","5369","0.0-3.0","7590","approach_avoid_sv1","""event"",""trial"",""time""
""fullscreenenter"",""1"",""2256""
","
","
","""event"",""trial"",""time""
""fullscreenenter"",""1"",""2256""
","
","true","false","[]","[]","[]","","","","","","","",""
"preload","4","5674","0.0-4.0","7590","approach_avoid_sv1","""event"",""trial"",""time""
""fullscreenenter"",""1"",""2256""
","
","
","""event"",""trial"",""time""
""fullscreenenter"",""1"",""2256""
","
","true","false","[]","[]","[]","","","","","","","",""
"audio-keyboard-response","5","7547","0.0-5.0","7590","approach_avoid_sv1","""event"",""trial"",""time""
""fullscreenenter"",""1"",""2256""
","
","
","""event"",""trial"",""time""
""fullscreenenter"",""1"",""2256""
","
","","","","","","0","audio/beep_loop.wav"," ","","","","",""
"audio-button-response","6","10337","0.0-6.0","7590","approach_avoid_sv1","""event"",""trial"",""time""
""fullscreenenter"",""1"",""2256""
","
","
","""event"",""trial"",""time""
""fullscreenenter"",""1"",""2256""
","
","","","","","","2534","audio/turtle.wav","3","","","","",""
"audio-button-response","7","12994","0.0-7.0","7590","approach_avoid_sv1","""event"",""trial"",""time""
""fullscreenenter"",""1"",""2256""
","
","
","""event"",""trial"",""time""
""fullscreenenter"",""1"",""2256""
","
","","","","","","1654","audio/shark.wav","2","","","","",""
"preload","8","16008","0.0-8.0","7590","approach_avoid_sv1","""event"",""trial"",""time""
""fullscreenenter"",""1"",""2256""
","
","
","""event"",""trial"",""time""
""fullscreenenter"",""1"",""2256""
","
","true","false","[]","[]","[]","","","","","","","",""
"learning-instructions","9","24408","0.0-9.0-0.0","7590","approach_avoid_sv1","""event"",""trial"",""time""
""fullscreenenter"",""1"",""2256""
","
","
","""event"",""trial"",""time""
""fullscreenenter"",""1"",""2256""
","
","","","","","","3921","<p> Welcome back! </p><p> Last week, you had to make choices about lots of different items.  </p>","","0","instructions","","",""
"learning-instructions","10","30557","0.0-9.0-0.1","7590","approach_avoid_sv1","""event"",""trial"",""time""
""fullscreenenter"",""1"",""2256""
","
","
","""event"",""trial"",""time""
""fullscreenenter"",""1"",""2256""
","
","","","","","","2039.0000000000036","<p> Today, we are going to ask you to try to remember all the items. </p>","","0","instructions","","",""
"learning-instructions","11","41636","0.0-9.0-0.2","7590","approach_avoid_sv1","""event"",""trial"",""time""
""fullscreenenter"",""1"",""2256""
","
","
","""event"",""trial"",""time""
""fullscreenenter"",""1"",""2256""
","
","","","","","","951","<p> On every trial, you will see an image. </p><p> The image may be an OLD image you saw during the games last week or it may be a NEW image that was not presented. </p>","","0","instructions","","",""
"learning-instructions","12","51447","0.0-9.0-0.3","7590","approach_avoid_sv1","""event"",""trial"",""time""
""fullscreenenter"",""1"",""2256""
","
","
","""event"",""trial"",""time""
""fullscreenenter"",""1"",""2256""
","
","","","","","","1314","<p> You need to select whether the image is:  </p><p>  'Definitely old', 'Maybe old', 'Maybe new', or 'Definitely new.'  </p><div class=""mem-choice-instructions-grid""><div class=""choice-option"" id=""choice-option-1"" ><img src=""images/definitely_old_1.png"" id=""choice-option-img-1"" class=""choice-option-img"" stage=""1""></div><div class=""choice-option"" id=""choice-option-2"" ><img src=""images/maybe_old_1.png"" id=""choice-option-img-2"" class=""choice-option-img"" stage=""1""></div><div class=""choice-option"" id=""choice-option-3"" ><img src=""images/maybe_new_1.png"" id=""choice-option-img-3"" class=""choice-option-img"" stage=""1""></div><div class=""choice-option"" id=""choice-option-4"" > <img src=""images/definitely_new_1.png"" id=""choice-option-img-4"" class=""choice-option-img"" stage=""1""></div></div>","","0","instructions","","",""
"learning-instructions","13","58747","0.0-9.0-0.4","7590","approach_avoid_sv1","""event"",""trial"",""time""
""fullscreenenter"",""1"",""2256""
","
","
","""event"",""trial"",""time""
""fullscreenenter"",""1"",""2256""
","
","","","","","","792","<p> You should use the 1, 2, 3, and 4 keys to make your responses.  </p><div class=""mem-choice-instructions-grid""><div class=""choice-option"" id=""choice-option-1"" ><img src=""images/definitely_old.png"" id=""choice-option-img-1"" class=""choice-option-img"" stage=""1""></div><div class=""choice-option"" id=""choice-option-2"" ><img src=""images/maybe_old.png"" id=""choice-option-img-2"" class=""choice-option-img"" stage=""1""></div><div class=""choice-option"" id=""choice-option-3"" ><img src=""images/maybe_new.png"" id=""choice-option-img-3"" class=""choice-option-img"" stage=""1""></div><div class=""choice-option"" id=""choice-option-4"" > <img src=""images/definitely_new.png"" id=""choice-option-img-4"" class=""choice-option-img"" stage=""1""></div></div>","","0","instructions","","",""
"learning-instructions","14","67305","0.0-9.0-0.5","7590","approach_avoid_sv1","""event"",""trial"",""time""
""fullscreenenter"",""1"",""2256""
","
","
","""event"",""trial"",""time""
""fullscreenenter"",""1"",""2256""
","
","","","","","","2236.0000000000146","<p> You will have 10 seconds to make each response.  </p><p>  Make sure to respond before time runs out! </p>","","0","instructions","","",""
"learning-instructions","15","75743","0.0-9.0-0.6","7590","approach_avoid_sv1","""event"",""trial"",""time""
""fullscreenenter"",""1"",""2256""
","
","
","""event"",""trial"",""time""
""fullscreenenter"",""1"",""2256""
","
","","","","","","1366","<p> Today, you will see each image ONCE only.  </p><p>  That means none of the images will repeat. </p>","","0","instructions","","",""
"learning-instructions","16","89110","0.0-9.0-0.7","7590","approach_avoid_sv1","""event"",""trial"",""time""
""fullscreenenter"",""1"",""2256""
","
","
","""event"",""trial"",""time""
""fullscreenenter"",""1"",""2256""
","
","","","","","","706","<p> Before you play the real game, it is time to practice. </p><p>  Just like in the real game, some of the images in the practice will be ones you have seen before. </p><p>  Others will be entirely new. </p>","","0","instructions","","",""
"html-button-response","17","92186","0.0-10.0","7590","approach_avoid_sv1","""event"",""trial"",""time""
""fullscreenenter"",""1"",""2256""
","
","
","""event"",""trial"",""time""
""fullscreenenter"",""1"",""2256""
","
","","","","","","2973","<p> Ready to practice? </p><p> Remember, use the 1, 2, 3, and 4 keys to make your responses. </p>","0","","instructions","","",""
"html-keyboard-response","18","92790","0.0-11.0-0.0","7590","approach_avoid_sv1","""event"",""trial"",""time""
""fullscreenenter"",""1"",""2256""
","
","
","""event"",""trial"",""time""
""fullscreenenter"",""1"",""2256""
","
","","","","","","null","<div style=""font-size:60px;"">+</div>","null","","fixation","","",""
"memory-trial","19","95988","0.0-11.0-1.0","7590","approach_avoid_sv1","""event"",""trial"",""time""
""fullscreenenter"",""1"",""2256""
","
","
","""event"",""trial"",""time""
""fullscreenenter"",""1"",""2256""
","
","","","","","","2195","images/ball2.png","","","practice","1","definitely_old",""
"html-keyboard-response","20","96490","0.0-11.0-0.1","7590","approach_avoid_sv1","""event"",""trial"",""time""
""fullscreenenter"",""1"",""2256""
","
","
","""event"",""trial"",""time""
""fullscreenenter"",""1"",""2256""
","
","","","","","","null","<div style=""font-size:60px;"">+</div>","null","","fixation","","",""
"memory-trial","21","99285","0.0-11.0-1.1","7590","approach_avoid_sv1","""event"",""trial"",""time""
""fullscreenenter"",""1"",""2256""
","
","
","""event"",""trial"",""time""
""fullscreenenter"",""1"",""2256""
","
","","","","","","1793","images/racket3.png","","","practice","1","definitely_old",""
"html-keyboard-response","22","99787","0.0-11.0-0.2","7590","approach_avoid_sv1","""event"",""trial"",""time""
""fullscreenenter"",""1"",""2256""
","
","
","""event"",""trial"",""time""
""fullscreenenter"",""1"",""2256""
","
","","","","","","null","<div style=""font-size:60px;"">+</div>","null","","fixation","","",""
"memory-trial","23","103537","0.0-11.0-1.2","7590","approach_avoid_sv1","""event"",""trial"",""time""
""fullscreenenter"",""1"",""2256""
","
","
","""event"",""trial"",""time""
""fullscreenenter"",""1"",""2256""
","
","","","","","","2748","images/racket1.png","","","practice","3","maybe_new",""
"html-keyboard-response","24","104038","0.0-11.0-0.3","7590","approach_avoid_sv1","""event"",""trial"",""time""
""fullscreenenter"",""1"",""2256""
","
","
","""event"",""trial"",""time""
""fullscreenenter"",""1"",""2256""
","
","","","","","","null","<div style=""font-size:60px;"">+</div>","null","","fixation","","",""
"memory-trial","25","107644","0.0-11.0-1.3","7590","approach_avoid_sv1","""event"",""trial"",""time""
""fullscreenenter"",""1"",""2256""
","
","
","""event"",""trial"",""time""
""fullscreenenter"",""1"",""2256""
","
","","","","","","2603","images/racket2.png","","","practice","1","definitely_old",""
"html-keyboard-response","26","108146","0.0-11.0-0.4","7590","approach_avoid_sv1","""event"",""trial"",""time""
""fullscreenenter"",""1"",""2256""
","
","
","""event"",""trial"",""time""
""fullscreenenter"",""1"",""2256""
","
","","","","","","null","<div style=""font-size:60px;"">+</div>","null","","fixation","","",""
"memory-trial","27","110563","0.0-11.0-1.4","7590","approach_avoid_sv1","""event"",""trial"",""time""
""fullscreenenter"",""1"",""2256""
","
","
","""event"",""trial"",""time""
""fullscreenenter"",""1"",""2256""
","
","","","","","","1416.0000000000146","images/ball1.png","","","practice","2","maybe_old",""
"html-keyboard-response","28","111064","0.0-11.0-0.5","7590","approach_avoid_sv1","""event"",""trial"",""time""
""fullscreenenter"",""1"",""2256""
","
","
","""event"",""trial"",""time""
""fullscreenenter"",""1"",""2256""
","
","","","","","","null","<div style=""font-size:60px;"">+</div>","null","","fixation","","",""
"memory-trial","29","113352","0.0-11.0-1.5","7590","approach_avoid_sv1","""event"",""trial"",""time""
""fullscreenenter"",""1"",""2256""
","
","
","""event"",""trial"",""time""
""fullscreenenter"",""1"",""2256""
","
","","","","","","1285.0000000000146","images/ball5.png","","","practice","1","definitely_old",""
"html-keyboard-response","30","113854","0.0-11.0-0.6","7590","approach_avoid_sv1","""event"",""trial"",""time""
""fullscreenenter"",""1"",""2256""
","
","
","""event"",""trial"",""time""
""fullscreenenter"",""1"",""2256""
","
","","","","","","null","<div style=""font-size:60px;"">+</div>","null","","fixation","","",""
"memory-trial","31","116979","0.0-11.0-1.6","7590","approach_avoid_sv1","""event"",""trial"",""time""
""fullscreenenter"",""1"",""2256""
","
","
","""event"",""trial"",""time""
""fullscreenenter"",""1"",""2256""
","
","","","","","","2123","images/ball3.png","","","practice","2","maybe_old",""
"html-keyboard-response","32","117480","0.0-11.0-0.7","7590","approach_avoid_sv1","""event"",""trial"",""time""
""fullscreenenter"",""1"",""2256""
","
","
","""event"",""trial"",""time""
""fullscreenenter"",""1"",""2256""
","
","","","","","","null","<div style=""font-size:60px;"">+</div>","null","","fixation","","",""
"memory-trial","33","120224","0.0-11.0-1.7","7590","approach_avoid_sv1","""event"",""trial"",""time""
""fullscreenenter"",""1"",""2256""
","
","
","""event"",""trial"",""time""
""fullscreenenter"",""1"",""2256""
","
","","","","","","1742.0000000000146","images/racket5.png","","","practice","4","definitely_new",""
"learning-instructions","34","128747","0.0-12.0-0.0","7590","approach_avoid_sv1","""event"",""trial"",""time""
""fullscreenenter"",""1"",""2256""
","
","
","""event"",""trial"",""time""
""fullscreenenter"",""1"",""2256""
","
","","","","","","1216.0000000000146","<p> Great! You have completed the practice. </p><p> Before you start, we're going to ask you a few questions about how the game works.  </p>","","0","instructions","","",""
"preload","35","130274","0.0-13.0","7590","approach_avoid_sv1","""event"",""trial"",""time""
""fullscreenenter"",""1"",""2256""
","
","
","""event"",""trial"",""time""
""fullscreenenter"",""1"",""2256""
","
","true","false","[]","[]","[]","","","","","","","",""
"comp-q","36","138006","0.0-14.0-0.0","7590","approach_avoid_sv1","""event"",""trial"",""time""
""fullscreenenter"",""1"",""2256""
","
","
","""event"",""trial"",""time""
""fullscreenenter"",""1"",""2256""
","
","","","","","","1905","<p> <b> True or False? </b> </p><p> In this game, you will only see each image once. </p>","","0","comp_question","","","true"
"comp-q","37","145892","0.0-14.0-1.0","7590","approach_avoid_sv1","""event"",""trial"",""time""
""fullscreenenter"",""1"",""2256""
","
","
","""event"",""trial"",""time""
""fullscreenenter"",""1"",""2256""
","
","","","","","","1554.000000000029","<p> <b> That's right! </b> You will see many different images <i> one time each </i> in this game. </p>","","0","comp_answer","","",""
"comp-q","38","151390","0.0-15.0-0.0","7590","approach_avoid_sv1","""event"",""trial"",""time""
""fullscreenenter"",""1"",""2256""
","
","
","""event"",""trial"",""time""
""fullscreenenter"",""1"",""2256""
","
","","","","","","495","<p> <b> True or False? </b> </p><p> You should use the mouse and click to make your response. </p>","","1","comp_question","","","true"
"comp-q","39","161149","0.0-15.0-1.0","7590","approach_avoid_sv1","""event"",""trial"",""time""
""fullscreenenter"",""1"",""2256""
","
","
","""event"",""trial"",""time""
""fullscreenenter"",""1"",""2256""
","
","","","","","","3260","<p><b> That's right! </b> You should use the '1', '2', '3', and '4' keys to make your response. </p>","","0","comp_answer","","",""
"comp-q","40","167231","0.0-16.0-0.0","7590","approach_avoid_sv1","""event"",""trial"",""time""
""fullscreenenter"",""1"",""2256""
","
","
","""event"",""trial"",""time""
""fullscreenenter"",""1"",""2256""
","
","","","","","","408","<p> <b> True or False? </b> </p><p> You will have as much time as you want to make each choice. </p>","","1","comp_question","","","true"
"comp-q","41","175419","0.0-16.0-1.0","7590","approach_avoid_sv1","""event"",""trial"",""time""
""fullscreenenter"",""1"",""2256""
","
","
","""event"",""trial"",""time""
""fullscreenenter"",""1"",""2256""
","
","","","","","","3495","<p> <b> That's right! </b> You will only have 10 seconds to make each choice. </p>","","0","comp_answer","","",""
"learning-instructions","42","185345","0.0-17.0","7590","approach_avoid_sv1","""event"",""trial"",""time""
""fullscreenenter"",""1"",""2256""
","
","
","""event"",""trial"",""time""
""fullscreenenter"",""1"",""2256""
","
","","","","","","1259","<p> Great! You are now ready to begin the game. </p><p> Remember, use the 1, 2, 3, and 4 keys to make your responses. </p>","","0","instructions","","",""
"html-keyboard-response","43","185948","0.0-18.0-0.0","7590","approach_avoid_sv1","""event"",""trial"",""time""
""fullscreenenter"",""1"",""2256""
","
","
","""event"",""trial"",""time""
""fullscreenenter"",""1"",""2256""
","
","","","","","","null","<div style=""font-size:60px;"">+</div>","null","","fixation","","",""
"memory-trial","44","188325","0.0-18.0-1.0","7590","approach_avoid_sv1","""event"",""trial"",""time""
""fullscreenenter"",""1"",""2256""
","
","
","""event"",""trial"",""time""
""fullscreenenter"",""1"",""2256""
","
","","","","","","1373.999999999971","images/cactus8.png","","","memory_trial","1","definitely_old",""
"html-keyboard-response","45","188827","0.0-18.0-0.1","7590","approach_avoid_sv1","""event"",""trial"",""time""
""fullscreenenter"",""1"",""2256""
","
","
","""event"",""trial"",""time""
""fullscreenenter"",""1"",""2256""
","
","","","","","","null","<div style=""font-size:60px;"">+</div>","null","","fixation","","",""
"memory-trial","46","190744","0.0-18.0-1.1","7590","approach_avoid_sv1","""event"",""trial"",""time""
""fullscreenenter"",""1"",""2256""
","
","
","""event"",""trial"",""time""
""fullscreenenter"",""1"",""2256""
","
","","","","","","915","images/dog6.png","","","memory_trial","1","definitely_old",""
"html-keyboard-response","47","191245","0.0-18.0-0.2","7590","approach_avoid_sv1","""event"",""trial"",""time""
""fullscreenenter"",""1"",""2256""
","
","
","""event"",""trial"",""time""
""fullscreenenter"",""1"",""2256""
","
","","","","","","null","<div style=""font-size:60px;"">+</div>","null","","fixation","","",""
"memory-trial","48","194014","0.0-18.0-1.2","7590","approach_avoid_sv1","""event"",""trial"",""time""
""fullscreenenter"",""1"",""2256""
","
","
","""event"",""trial"",""time""
""fullscreenenter"",""1"",""2256""
","
","","","","","","1768","images/horse5.png","","","memory_trial","3","maybe_new",""
"html-keyboard-response","49","194515","0.0-18.0-0.3","7590","approach_avoid_sv1","""event"",""trial"",""time""
""fullscreenenter"",""1"",""2256""
","
","
","""event"",""trial"",""time""
""fullscreenenter"",""1"",""2256""
","
","","","","","","null","<div style=""font-size:60px;"">+</div>","null","","fixation","","",""
"memory-trial","50","196775","0.0-18.0-1.3","7590","approach_avoid_sv1","""event"",""trial"",""time""
""fullscreenenter"",""1"",""2256""
","
","
","""event"",""trial"",""time""
""fullscreenenter"",""1"",""2256""
","
","","","","","","1257","images/plane5.png","","","memory_trial","1","definitely_old",""
"html-keyboard-response","51","197275","0.0-18.0-0.4","7590","approach_avoid_sv1","""event"",""trial"",""time""
""fullscreenenter"",""1"",""2256""
","
","
","""event"",""trial"",""time""
""fullscreenenter"",""1"",""2256""
","
","","","","","","null","<div style=""font-size:60px;"">+</div>","null","","fixation","","",""
"memory-trial","52","199855","0.0-18.0-1.4","7590","approach_avoid_sv1","""event"",""trial"",""time""
""fullscreenenter"",""1"",""2256""
","
","
","""event"",""trial"",""time""
""fullscreenenter"",""1"",""2256""
","
","","","","","","1576.999999999971","images/bed4.png","","","memory_trial","1","definitely_old",""
"html-keyboard-response","53","200356","0.0-18.0-0.5","7590","approach_avoid_sv1","""event"",""trial"",""time""
""fullscreenenter"",""1"",""2256""
","
","
","""event"",""trial"",""time""
""fullscreenenter"",""1"",""2256""
","
","","","","","","null","<div style=""font-size:60px;"">+</div>","null","","fixation","","",""
"memory-trial","54","202351","0.0-18.0-1.5","7590","approach_avoid_sv1","""event"",""trial"",""time""
""fullscreenenter"",""1"",""2256""
","
","
","""event"",""trial"",""time""
""fullscreenenter"",""1"",""2256""
","
","","","","","","993","images/bush6.png","","","memory_trial","1","definitely_old",""
"html-keyboard-response","55","202852","0.0-18.0-0.6","7590","approach_avoid_sv1","""event"",""trial"",""time""
""fullscreenenter"",""1"",""2256""
","
","
","""event"",""trial"",""time""
""fullscreenenter"",""1"",""2256""
","
","","","","","","null","<div style=""font-size:60px;"">+</div>","null","","fixation","","",""
"memory-trial","56","205371","0.0-18.0-1.6","7590","approach_avoid_sv1","""event"",""trial"",""time""
""fullscreenenter"",""1"",""2256""
","
","
","""event"",""trial"",""time""
""fullscreenenter"",""1"",""2256""
","
","","","","","","1518.000000000029","images/chair8.png","","","memory_trial","1","definitely_old",""
"html-keyboard-response","57","205873","0.0-18.0-0.7","7590","approach_avoid_sv1","""event"",""trial"",""time""
""fullscreenenter"",""1"",""2256""
","
","
","""event"",""trial"",""time""
""fullscreenenter"",""1"",""2256""
","
","","","","","","null","<div style=""font-size:60px;"">+</div>","null","","fixation","","",""
"memory-trial","58","208267","0.0-18.0-1.7","7590","approach_avoid_sv1","""event"",""trial"",""time""
""fullscreenenter"",""1"",""2256""
","
","
","""event"",""trial"",""time""
""fullscreenenter"",""1"",""2256""
","
","","","","","","1392","images/flower7.png","","","memory_trial","4","definitely_new",""
"html-keyboard-response","59","208769","0.0-18.0-0.8","7590","approach_avoid_sv1","""event"",""trial"",""time""
""fullscreenenter"",""1"",""2256""
","
","
","""event"",""trial"",""time""
""fullscreenenter"",""1"",""2256""
","
","","","","","","null","<div style=""font-size:60px;"">+</div>","null","","fixation","","",""
"memory-trial","60","210746","0.0-18.0-1.8","7590","approach_avoid_sv1","""event"",""trial"",""time""
""fullscreenenter"",""1"",""2256""
","
","
","""event"",""trial"",""time""
""fullscreenenter"",""1"",""2256""
","
","","","","","","972","images/sheep1.png","","","memory_trial","1","definitely_old",""
"html-keyboard-response","61","211248","0.0-18.0-0.9","7590","approach_avoid_sv1","""event"",""trial"",""time""
""fullscreenenter"",""1"",""2256""
","
","
","""event"",""trial"",""time""
""fullscreenenter"",""1"",""2256""
","
","","","","","","null","<div style=""font-size:60px;"">+</div>","null","","fixation","","",""
"memory-trial","62","214099","0.0-18.0-1.9","7590","approach_avoid_sv1","""event"",""trial"",""time""
""fullscreenenter"",""1"",""2256""
","
","
","""event"",""trial"",""time""
""fullscreenenter"",""1"",""2256""
","
","","","","","","1849","images/table5.png","","","memory_trial","3","maybe_new",""
"html-keyboard-response","63","214600","0.0-18.0-0.10","7590","approach_avoid_sv1","""event"",""trial"",""time""
""fullscreenenter"",""1"",""2256""
","
","
","""event"",""trial"",""time""
""fullscreenenter"",""1"",""2256""
","
","","","","","","null","<div style=""font-size:60px;"">+</div>","null","","fixation","","",""
"memory-trial","64","216542","0.0-18.0-1.10","7590","approach_avoid_sv1","""event"",""trial"",""time""
""fullscreenenter"",""1"",""2256""
","
","
","""event"",""trial"",""time""
""fullscreenenter"",""1"",""2256""
","
","","","","","","940","images/flower4.png","","","memory_trial","1","definitely_old",""
"html-keyboard-response","65","217044","0.0-18.0-0.11","7590","approach_avoid_sv1","""event"",""trial"",""time""
""fullscreenenter"",""1"",""2256""
","
","
","""event"",""trial"",""time""
""fullscreenenter"",""1"",""2256""
","
","","","","","","null","<div style=""font-size:60px;"">+</div>","null","","fixation","","",""
"memory-trial","66","220426","0.0-18.0-1.11","7590","approach_avoid_sv1","""event"",""trial"",""time""
""fullscreenenter"",""1"",""2256""
","
","
","""event"",""trial"",""time""
""fullscreenenter"",""1"",""2256""
","
","","","","","","2379.000000000029","images/rodent1.png","","","memory_trial","2","maybe_old",""
"html-keyboard-response","67","220928","0.0-18.0-0.12","7590","approach_avoid_sv1","""event"",""trial"",""time""
""fullscreenenter"",""1"",""2256""
","
","
","""event"",""trial"",""time""
""fullscreenenter"",""1"",""2256""
","
","","","","","","null","<div style=""font-size:60px;"">+</div>","null","","fixation","","",""
"memory-trial","68","223150","0.0-18.0-1.12","7590","approach_avoid_sv1","""event"",""trial"",""time""
""fullscreenenter"",""1"",""2256""
","
","
","""event"",""trial"",""time""
""fullscreenenter"",""1"",""2256""
","
","","","","","","1221","images/tree2.png","","","memory_trial","4","definitely_new",""
"html-keyboard-response","69","223652","0.0-18.0-0.13","7590","approach_avoid_sv1","""event"",""trial"",""time""
""fullscreenenter"",""1"",""2256""
","
","
","""event"",""trial"",""time""
""fullscreenenter"",""1"",""2256""
","
","","","","","","null","<div style=""font-size:60px;"">+</div>","null","","fixation","","",""
"memory-trial","70","226289","0.0-18.0-1.13","7590","approach_avoid_sv1","""event"",""trial"",""time""
""fullscreenenter"",""1"",""2256""
","
","
","""event"",""trial"",""time""
""fullscreenenter"",""1"",""2256""
","
","","","","","","1635","images/bed8.png","","","memory_trial","1","definitely_old",""
"html-keyboard-response","71","226790","0.0-18.0-0.14","7590","approach_avoid_sv1","""event"",""trial"",""time""
""fullscreenenter"",""1"",""2256""
","
","
","""event"",""trial"",""time""
""fullscreenenter"",""1"",""2256""
","
","","","","","","null","<div style=""font-size:60px;"">+</div>","null","","fixation","","",""
"memory-trial","72","229307","0.0-18.0-1.14","7590","approach_avoid_sv1","""event"",""trial"",""time""
""fullscreenenter"",""1"",""2256""
","
","
","""event"",""trial"",""time""
""fullscreenenter"",""1"",""2256""
","
","","","","","","1515","images/horse6.png","","","memory_trial","1","definitely_old",""
"html-keyboard-response","73","229809","0.0-18.0-0.15","7590","approach_avoid_sv1","""event"",""trial"",""time""
""fullscreenenter"",""1"",""2256""
","
","
","""event"",""trial"",""time""
""fullscreenenter"",""1"",""2256""
","
","","","","","","null","<div style=""font-size:60px;"">+</div>","null","","fixation","","",""
"memory-trial","74","232701","0.0-18.0-1.15","7590","approach_avoid_sv1","""event"",""trial"",""time""
""fullscreenenter"",""1"",""2256""
","
","
","""event"",""trial"",""time""
""fullscreenenter"",""1"",""2256""
","
","","","","","","1890","images/rabbit8.png","","","memory_trial","3","maybe_new",""
"html-keyboard-response","75","233202","0.0-18.0-0.16","7590","approach_avoid_sv1","""event"",""trial"",""time""
""fullscreenenter"",""1"",""2256""
","
","
","""event"",""trial"",""time""
""fullscreenenter"",""1"",""2256""
","
","","","","","","null","<div style=""font-size:60px;"">+</div>","null","","fixation","","",""
"memory-trial","76","235573","0.0-18.0-1.16","7590","approach_avoid_sv1","""event"",""trial"",""time""
""fullscreenenter"",""1"",""2256""
","
","
","""event"",""trial"",""time""
""fullscreenenter"",""1"",""2256""
","
","","","","","","1365","images/bush1.png","","","memory_trial","4","definitely_new",""
"html-keyboard-response","77","236075","0.0-18.0-0.17","7590","approach_avoid_sv1","""event"",""trial"",""time""
""fullscreenenter"",""1"",""2256""
","
","
","""event"",""trial"",""time""
""fullscreenenter"",""1"",""2256""
","
","","","","","","null","<div style=""font-size:60px;"">+</div>","null","","fixation","","",""
"memory-trial","78","239406","0.0-18.0-1.17","7590","approach_avoid_sv1","""event"",""trial"",""time""
""fullscreenenter"",""1"",""2256""
","
","
","""event"",""trial"",""time""
""fullscreenenter"",""1"",""2256""
","
","","","","","","2329.000000000029","images/table7.png","","","memory_trial","2","maybe_old",""
"html-keyboard-response","79","239907","0.0-18.0-0.18","7590","approach_avoid_sv1","""event"",""trial"",""time""
""fullscreenenter"",""1"",""2256""
","
","
","""event"",""trial"",""time""
""fullscreenenter"",""1"",""2256""
","
","","","","","","null","<div style=""font-size:60px;"">+</div>","null","","fixation","","",""
"memory-trial","80","242951","0.0-18.0-1.18","7590","approach_avoid_sv1","""event"",""trial"",""time""
""fullscreenenter"",""1"",""2256""
","
","
","""event"",""trial"",""time""
""fullscreenenter"",""1"",""2256""
","
","","","","","","2042","images/bush4.png","","","memory_trial","4","definitely_new",""
"html-keyboard-response","81","243453","0.0-18.0-0.19","7590","approach_avoid_sv1","""event"",""trial"",""time""
""fullscreenenter"",""1"",""2256""
","
","
","""event"",""trial"",""time""
""fullscreenenter"",""1"",""2256""
","
","","","","","","null","<div style=""font-size:60px;"">+</div>","null","","fixation","","",""
"memory-trial","82","246344","0.0-18.0-1.19","7590","approach_avoid_sv1","""event"",""trial"",""time""
""fullscreenenter"",""1"",""2256""
","
","
","""event"",""trial"",""time""
""fullscreenenter"",""1"",""2256""
","
","","","","","","1889","images/flower6.png","","","memory_trial","2","maybe_old",""
"html-keyboard-response","83","246845","0.0-18.0-0.20","7590","approach_avoid_sv1","""event"",""trial"",""time""
""fullscreenenter"",""1"",""2256""
","
","
","""event"",""trial"",""time""
""fullscreenenter"",""1"",""2256""
","
","","","","","","null","<div style=""font-size:60px;"">+</div>","null","","fixation","","",""
"memory-trial","84","249098","0.0-18.0-1.20","7590","approach_avoid_sv1","""event"",""trial"",""time""
""fullscreenenter"",""1"",""2256""
","
","
","""event"",""trial"",""time""
""fullscreenenter"",""1"",""2256""
","
","","","","","","1250.999999999971","images/apple3.png","","","memory_trial","4","definitely_new",""
"html-keyboard-response","85","249599","0.0-18.0-0.21","7590","approach_avoid_sv1","""event"",""trial"",""time""
""fullscreenenter"",""1"",""2256""
","
","
","""event"",""trial"",""time""
""fullscreenenter"",""1"",""2256""
","
","","","","","","null","<div style=""font-size:60px;"">+</div>","null","","fixation","","",""
"memory-trial","86","251733","0.0-18.0-1.21","7590","approach_avoid_sv1","""event"",""trial"",""time""
""fullscreenenter"",""1"",""2256""
","
","
","""event"",""trial"",""time""
""fullscreenenter"",""1"",""2256""
","
","","","","","","1133.000000000029","images/sofa2.png","","","memory_trial","4","definitely_new",""
"html-keyboard-response","87","252235","0.0-18.0-0.22","7590","approach_avoid_sv1","""event"",""trial"",""time""
""fullscreenenter"",""1"",""2256""
","
","
","""event"",""trial"",""time""
""fullscreenenter"",""1"",""2256""
","
","","","","","","null","<div style=""font-size:60px;"">+</div>","null","","fixation","","",""
"memory-trial","88","254606","0.0-18.0-1.22","7590","approach_avoid_sv1","""event"",""trial"",""time""
""fullscreenenter"",""1"",""2256""
","
","
","""event"",""trial"",""time""
""fullscreenenter"",""1"",""2256""
","
","","","","","","1368","images/straw3.png","","","memory_trial","4","definitely_new",""
"html-keyboard-response","89","255108","0.0-18.0-0.23","7590","approach_avoid_sv1","""event"",""trial"",""time""
""fullscreenenter"",""1"",""2256""
","
","
","""event"",""trial"",""time""
""fullscreenenter"",""1"",""2256""
","
","","","","","","null","<div style=""font-size:60px;"">+</div>","null","","fixation","","",""
"memory-trial","90","257792","0.0-18.0-1.23","7590","approach_avoid_sv1","""event"",""trial"",""time""
""fullscreenenter"",""1"",""2256""
","
","
","""event"",""trial"",""time""
""fullscreenenter"",""1"",""2256""
","
","","","","","","1681.9999999999418","images/cactus3.png","","","memory_trial","4","definitely_new",""
"html-keyboard-response","91","258293","0.0-18.0-0.24","7590","approach_avoid_sv1","""event"",""trial"",""time""
""fullscreenenter"",""1"",""2256""
","
","
","""event"",""trial"",""time""
""fullscreenenter"",""1"",""2256""
","
","","","","","","null","<div style=""font-size:60px;"">+</div>","null","","fixation","","",""
"memory-trial","92","260368","0.0-18.0-1.24","7590","approach_avoid_sv1","""event"",""trial"",""time""
""fullscreenenter"",""1"",""2256""
","
","
","""event"",""trial"",""time""
""fullscreenenter"",""1"",""2256""
","
","","","","","","1073.9999999999418","images/cow7.png","","","memory_trial","1","definitely_old",""
"html-keyboard-response","93","260870","0.0-18.0-0.25","7590","approach_avoid_sv1","""event"",""trial"",""time""
""fullscreenenter"",""1"",""2256""
","
","
","""event"",""trial"",""time""
""fullscreenenter"",""1"",""2256""
","
","","","","","","null","<div style=""font-size:60px;"">+</div>","null","","fixation","","",""
"memory-trial","94","262801","0.0-18.0-1.25","7590","approach_avoid_sv1","""event"",""trial"",""time""
""fullscreenenter"",""1"",""2256""
","
","
","""event"",""trial"",""time""
""fullscreenenter"",""1"",""2256""
","
","","","","","","926.0000000000582","images/apple5.png","","","memory_trial","4","definitely_new",""
"html-keyboard-response","95","263302","0.0-18.0-0.26","7590","approach_avoid_sv1","""event"",""trial"",""time""
""fullscreenenter"",""1"",""2256""
","
","
","""event"",""trial"",""time""
""fullscreenenter"",""1"",""2256""
","
","","","","","","null","<div style=""font-size:60px;"">+</div>","null","","fixation","","",""
"memory-trial","96","265482","0.0-18.0-1.26","7590","approach_avoid_sv1","""event"",""trial"",""time""
""fullscreenenter"",""1"",""2256""
","
","
","""event"",""trial"",""time""
""fullscreenenter"",""1"",""2256""
","
","","","","","","1178","images/goat5.png","","","memory_trial","4","definitely_new",""
"html-keyboard-response","97","265984","0.0-18.0-0.27","7590","approach_avoid_sv1","""event"",""trial"",""time""
""fullscreenenter"",""1"",""2256""
","
","
","""event"",""trial"",""time""
""fullscreenenter"",""1"",""2256""
","
","","","","","","null","<div style=""font-size:60px;"">+</div>","null","","fixation","","",""
"memory-trial","98","267989","0.0-18.0-1.27","7590","approach_avoid_sv1","""event"",""trial"",""time""
""fullscreenenter"",""1"",""2256""
","
","
","""event"",""trial"",""time""
""fullscreenenter"",""1"",""2256""
","
","","","","","","1002.9999999999418","images/table2.png","","","memory_trial","4","definitely_new",""
"html-keyboard-response","99","268491","0.0-18.0-0.28","7590","approach_avoid_sv1","""event"",""trial"",""time""
""fullscreenenter"",""1"",""2256""
","
","
","""event"",""trial"",""time""
""fullscreenenter"",""1"",""2256""
","
","","","","","","null","<div style=""font-size:60px;"">+</div>","null","","fixation","","",""
"memory-trial","100","270898","0.0-18.0-1.28","7590","approach_avoid_sv1","""event"",""trial"",""time""
""fullscreenenter"",""1"",""2256""
","
","
","""event"",""trial"",""time""
""fullscreenenter"",""1"",""2256""
","
","","","","","","1406","images/bed1.png","","","memory_trial","2","maybe_old",""
"html-keyboard-response","101","271400","0.0-18.0-0.29","7590","approach_avoid_sv1","""event"",""trial"",""time""
""fullscreenenter"",""1"",""2256""
","
","
","""event"",""trial"",""time""
""fullscreenenter"",""1"",""2256""
","
","","","","","","null","<div style=""font-size:60px;"">+</div>","null","","fixation","","",""
"memory-trial","102","273546","0.0-18.0-1.29","7590","approach_avoid_sv1","""event"",""trial"",""time""
""fullscreenenter"",""1"",""2256""
","
","
","""event"",""trial"",""time""
""fullscreenenter"",""1"",""2256""
","
","","","","","","1144.9999999999418","images/boat5.png","","","memory_trial","4","definitely_new",""
"html-keyboard-response","103","274048","0.0-18.0-0.30","7590","approach_avoid_sv1","""event"",""trial"",""time""
""fullscreenenter"",""1"",""2256""
","
","
","""event"",""trial"",""time""
""fullscreenenter"",""1"",""2256""
","
","","","","","","null","<div style=""font-size:60px;"">+</div>","null","","fixation","","",""
"memory-trial","104","276692","0.0-18.0-1.30","7590","approach_avoid_sv1","""event"",""trial"",""time""
""fullscreenenter"",""1"",""2256""
","
","
","""event"",""trial"",""time""
""fullscreenenter"",""1"",""2256""
","
","","","","","","1640.9999999999418","images/sheep3.png","","","memory_trial","3","maybe_new",""
"html-keyboard-response","105","277193","0.0-18.0-0.31","7590","approach_avoid_sv1","""event"",""trial"",""time""
""fullscreenenter"",""1"",""2256""
","
","
","""event"",""trial"",""time""
""fullscreenenter"",""1"",""2256""
","
","","","","","","null","<div style=""font-size:60px;"">+</div>","null","","fixation","","",""
"memory-trial","106","279041","0.0-18.0-1.31","7590","approach_avoid_sv1","""event"",""trial"",""time""
""fullscreenenter"",""1"",""2256""
","
","
","""event"",""trial"",""time""
""fullscreenenter"",""1"",""2256""
","
","","","","","","847","images/cactus1.png","","","memory_trial","4","definitely_new",""
"html-keyboard-response","107","279543","0.0-18.0-0.32","7590","approach_avoid_sv1","""event"",""trial"",""time""
""fullscreenenter"",""1"",""2256""
","
","
","""event"",""trial"",""time""
""fullscreenenter"",""1"",""2256""
","
","","","","","","null","<div style=""font-size:60px;"">+</div>","null","","fixation","","",""
"memory-trial","108","281903","0.0-18.0-1.32","7590","approach_avoid_sv1","""event"",""trial"",""time""
""fullscreenenter"",""1"",""2256""
","
","
","""event"",""trial"",""time""
""fullscreenenter"",""1"",""2256""
","
","","","","","","1358","images/chair1.png","","","memory_trial","2","maybe_old",""
"html-keyboard-response","109","282405","0.0-18.0-0.33","7590","approach_avoid_sv1","""event"",""trial"",""time""
""fullscreenenter"",""1"",""2256""
","
","
","""event"",""trial"",""time""
""fullscreenenter"",""1"",""2256""
","
","","","","","","null","<div style=""font-size:60px;"">+</div>","null","","fixation","","",""
"memory-trial","110","285194","0.0-18.0-1.33","7590","approach_avoid_sv1","""event"",""trial"",""time""
""fullscreenenter"",""1"",""2256""
","
","
","""event"",""trial"",""time""
""fullscreenenter"",""1"",""2256""
","
","","","","","","1788","images/goat6.png","","","memory_trial","3","maybe_new",""
"html-keyboard-response","111","285695","0.0-18.0-0.34","7590","approach_avoid_sv1","""event"",""trial"",""time""
""fullscreenenter"",""1"",""2256""
","
","
","""event"",""trial"",""time""
""fullscreenenter"",""1"",""2256""
","
","","","","","","null","<div style=""font-size:60px;"">+</div>","null","","fixation","","",""
"memory-trial","112","287599","0.0-18.0-1.34","7590","approach_avoid_sv1","""event"",""trial"",""time""
""fullscreenenter"",""1"",""2256""
","
","
","""event"",""trial"",""time""
""fullscreenenter"",""1"",""2256""
","
","","","","","","901","images/boat8.png","","","memory_trial","4","definitely_new",""
"html-keyboard-response","113","288100","0.0-18.0-0.35","7590","approach_avoid_sv1","""event"",""trial"",""time""
""fullscreenenter"",""1"",""2256""
","
","
","""event"",""trial"",""time""
""fullscreenenter"",""1"",""2256""
","
","","","","","","null","<div style=""font-size:60px;"">+</div>","null","","fixation","","",""
"memory-trial","114","290085","0.0-18.0-1.35","7590","approach_avoid_sv1","""event"",""trial"",""time""
""fullscreenenter"",""1"",""2256""
","
","
","""event"",""trial"",""time""
""fullscreenenter"",""1"",""2256""
","
","","","","","","984.0000000000582","images/bush5.png","","","memory_trial","4","definitely_new",""
"html-keyboard-response","115","290586","0.0-18.0-0.36","7590","approach_avoid_sv1","""event"",""trial"",""time""
""fullscreenenter"",""1"",""2256""
","
","
","""event"",""trial"",""time""
""fullscreenenter"",""1"",""2256""
","
","","","","","","null","<div style=""font-size:60px;"">+</div>","null","","fixation","","",""
"memory-trial","116","293652","0.0-18.0-1.36","7590","approach_avoid_sv1","""event"",""trial"",""time""
""fullscreenenter"",""1"",""2256""
","
","
","""event"",""trial"",""time""
""fullscreenenter"",""1"",""2256""
","
","","","","","","2063","images/banana3.png","","","memory_trial","2","maybe_old",""
"html-keyboard-response","117","294153","0.0-18.0-0.37","7590","approach_avoid_sv1","""event"",""trial"",""time""
""fullscreenenter"",""1"",""2256""
","
","
","""event"",""trial"",""time""
""fullscreenenter"",""1"",""2256""
","
","","","","","","null","<div style=""font-size:60px;"">+</div>","null","","fixation","","",""
"memory-trial","118","297021","0.0-18.0-1.37","7590","approach_avoid_sv1","""event"",""trial"",""time""
""fullscreenenter"",""1"",""2256""
","
","
","""event"",""trial"",""time""
""fullscreenenter"",""1"",""2256""
","
","","","","","","1867","images/apple6.png","","","memory_trial","4","definitely_new",""
"html-keyboard-response","119","297523","0.0-18.0-0.38","7590","approach_avoid_sv1","""event"",""trial"",""time""
""fullscreenenter"",""1"",""2256""
","
","
","""event"",""trial"",""time""
""fullscreenenter"",""1"",""2256""
","
","","","","","","null","<div style=""font-size:60px;"">+</div>","null","","fixation","","",""
"memory-trial","120","299697","0.0-18.0-1.38","7590","approach_avoid_sv1","""event"",""trial"",""time""
""fullscreenenter"",""1"",""2256""
","
","
","""event"",""trial"",""time""
""fullscreenenter"",""1"",""2256""
","
","","","","","","1170.9999999999418","images/table4.png","","","memory_trial","3","maybe_new",""
"html-keyboard-response","121","300199","0.0-18.0-0.39","7590","approach_avoid_sv1","""event"",""trial"",""time""
""fullscreenenter"",""1"",""2256""
","
","
","""event"",""trial"",""time""
""fullscreenenter"",""1"",""2256""
","
","","","","","","null","<div style=""font-size:60px;"">+</div>","null","","fixation","","",""
"memory-trial","122","302406","0.0-18.0-1.39","7590","approach_avoid_sv1","""event"",""trial"",""time""
""fullscreenenter"",""1"",""2256""
","
","
","""event"",""trial"",""time""
""fullscreenenter"",""1"",""2256""
","
","","","","","","1205","images/dog8.png","","","memory_trial","3","maybe_new",""
"html-keyboard-response","123","302907","0.0-18.0-0.40","7590","approach_avoid_sv1","""event"",""trial"",""time""
""fullscreenenter"",""1"",""2256""
","
","
","""event"",""trial"",""time""
""fullscreenenter"",""1"",""2256""
","
","","","","","","null","<div style=""font-size:60px;"">+</div>","null","","fixation","","",""
"memory-trial","124","305119","0.0-18.0-1.40","7590","approach_avoid_sv1","""event"",""trial"",""time""
""fullscreenenter"",""1"",""2256""
","
","
","""event"",""trial"",""time""
""fullscreenenter"",""1"",""2256""
","
","","","","","","1211","images/orange5.png","","","memory_trial","2","maybe_old",""
"html-keyboard-response","125","305621","0.0-18.0-0.41","7590","approach_avoid_sv1","""event"",""trial"",""time""
""fullscreenenter"",""1"",""2256""
","
","
","""event"",""trial"",""time""
""fullscreenenter"",""1"",""2256""
","
","","","","","","null","<div style=""font-size:60px;"">+</div>","null","","fixation","","",""
"memory-trial","126","307842","0.0-18.0-1.41","7590","approach_avoid_sv1","""event"",""trial"",""time""
""fullscreenenter"",""1"",""2256""
","
","
","""event"",""trial"",""time""
""fullscreenenter"",""1"",""2256""
","
","","","","","","1220","images/banana7.png","","","memory_trial","2","maybe_old",""
"html-button-response","127","311393","0.0-18.0-2.41-0.41","7590","approach_avoid_sv1","""event"",""trial"",""time""
""fullscreenenter"",""1"",""2256""
","
","
","""event"",""trial"",""time""
""fullscreenenter"",""1"",""2256""
","
","","","","","","3550","<p> Take a break! </p><p> Click the button to continue. </p>","0","","break","","",""
"html-keyboard-response","128","311893","0.0-18.0-0.42","7590","approach_avoid_sv1","""event"",""trial"",""time""
""fullscreenenter"",""1"",""2256""
","
","
","""event"",""trial"",""time""
""fullscreenenter"",""1"",""2256""
","
","","","","","","null","<div style=""font-size:60px;"">+</div>","null","","fixation","","",""
"memory-trial","129","314511","0.0-18.0-1.42","7590","approach_avoid_sv1","""event"",""trial"",""time""
""fullscreenenter"",""1"",""2256""
","
","
","""event"",""trial"",""time""
""fullscreenenter"",""1"",""2256""
","
","","","","","","1615","images/rodent3.png","","","memory_trial","4","definitely_new",""
"html-keyboard-response","130","315013","0.0-18.0-0.43","7590","approach_avoid_sv1","""event"",""trial"",""time""
""fullscreenenter"",""1"",""2256""
","
","
","""event"",""trial"",""time""
""fullscreenenter"",""1"",""2256""
","
","","","","","","null","<div style=""font-size:60px;"">+</div>","null","","fixation","","",""
"memory-trial","131","317008","0.0-18.0-1.43","7590","approach_avoid_sv1","""event"",""trial"",""time""
""fullscreenenter"",""1"",""2256""
","
","
","""event"",""trial"",""time""
""fullscreenenter"",""1"",""2256""
","
","","","","","","995","images/cactus2.png","","","memory_trial","4","definitely_new",""
"html-keyboard-response","132","317509","0.0-18.0-0.44","7590","approach_avoid_sv1","""event"",""trial"",""time""
""fullscreenenter"",""1"",""2256""
","
","
","""event"",""trial"",""time""
""fullscreenenter"",""1"",""2256""
","
","","","","","","null","<div style=""font-size:60px;"">+</div>","null","","fixation","","",""
"memory-trial","133","320796","0.0-18.0-1.44","7590","approach_avoid_sv1","""event"",""trial"",""time""
""fullscreenenter"",""1"",""2256""
","
","
","""event"",""trial"",""time""
""fullscreenenter"",""1"",""2256""
","
","","","","","","2285","images/chair7.png","","","memory_trial","2","maybe_old",""
"html-keyboard-response","134","321297","0.0-18.0-0.45","7590","approach_avoid_sv1","""event"",""trial"",""time""
""fullscreenenter"",""1"",""2256""
","
","
","""event"",""trial"",""time""
""fullscreenenter"",""1"",""2256""
","
","","","","","","null","<div style=""font-size:60px;"">+</div>","null","","fixation","","",""
"memory-trial","135","323336","0.0-18.0-1.45","7590","approach_avoid_sv1","""event"",""trial"",""time""
""fullscreenenter"",""1"",""2256""
","
","
","""event"",""trial"",""time""
""fullscreenenter"",""1"",""2256""
","
","","","","","","1037","images/tree5.png","","","memory_trial","4","definitely_new",""
"html-keyboard-response","136","323838","0.0-18.0-0.46","7590","approach_avoid_sv1","""event"",""trial"",""time""
""fullscreenenter"",""1"",""2256""
","
","
","""event"",""trial"",""time""
""fullscreenenter"",""1"",""2256""
","
","","","","","","null","<div style=""font-size:60px;"">+</div>","null","","fixation","","",""
"memory-trial","137","325722","0.0-18.0-1.46","7590","approach_avoid_sv1","""event"",""trial"",""time""
""fullscreenenter"",""1"",""2256""
","
","
","""event"",""trial"",""time""
""fullscreenenter"",""1"",""2256""
","
","","","","","","882","images/dog7.png","","","memory_trial","1","definitely_old",""
"html-keyboard-response","138","326223","0.0-18.0-0.47","7590","approach_avoid_sv1","""event"",""trial"",""time""
""fullscreenenter"",""1"",""2256""
","
","
","""event"",""trial"",""time""
""fullscreenenter"",""1"",""2256""
","
","","","","","","null","<div style=""font-size:60px;"">+</div>","null","","fixation","","",""
"memory-trial","139","328286","0.0-18.0-1.47","7590","approach_avoid_sv1","""event"",""trial"",""time""
""fullscreenenter"",""1"",""2256""
","
","
","""event"",""trial"",""time""
""fullscreenenter"",""1"",""2256""
","
","","","","","","1061","images/rodent8.png","","","memory_trial","4","definitely_new",""
"html-keyboard-response","140","328787","0.0-18.0-0.48","7590","approach_avoid_sv1","""event"",""trial"",""time""
""fullscreenenter"",""1"",""2256""
","
","
","""event"",""trial"",""time""
""fullscreenenter"",""1"",""2256""
","
","","","","","","null","<div style=""font-size:60px;"">+</div>","null","","fixation","","",""
"memory-trial","141","331370","0.0-18.0-1.48","7590","approach_avoid_sv1","""event"",""trial"",""time""
""fullscreenenter"",""1"",""2256""
","
","
","""event"",""trial"",""time""
""fullscreenenter"",""1"",""2256""
","
","","","","","","1581.0000000000582","images/rabbit2.png","","","memory_trial","2","maybe_old",""
"html-keyboard-response","142","331871","0.0-18.0-0.49","7590","approach_avoid_sv1","""event"",""trial"",""time""
""fullscreenenter"",""1"",""2256""
","
","
","""event"",""trial"",""time""
""fullscreenenter"",""1"",""2256""
","
","","","","","","null","<div style=""font-size:60px;"">+</div>","null","","fixation","","",""
"memory-trial","143","335083","0.0-18.0-1.49","7590","approach_avoid_sv1","""event"",""trial"",""time""
""fullscreenenter"",""1"",""2256""
","
","
","""event"",""trial"",""time""
""fullscreenenter"",""1"",""2256""
","
","","","","","","2209","images/truck6.png","","","memory_trial","2","maybe_old",""
"html-keyboard-response","144","335584","0.0-18.0-0.50","7590","approach_avoid_sv1","""event"",""trial"",""time""
""fullscreenenter"",""1"",""2256""
","
","
","""event"",""trial"",""time""
""fullscreenenter"",""1"",""2256""
","
","","","","","","null","<div style=""font-size:60px;"">+</div>","null","","fixation","","",""
"memory-trial","145","337561","0.0-18.0-1.50","7590","approach_avoid_sv1","""event"",""trial"",""time""
""fullscreenenter"",""1"",""2256""
","
","
","""event"",""trial"",""time""
""fullscreenenter"",""1"",""2256""
","
","","","","","","976","images/apple8.png","","","memory_trial","4","definitely_new",""
"html-keyboard-response","146","338063","0.0-18.0-0.51","7590","approach_avoid_sv1","""event"",""trial"",""time""
""fullscreenenter"",""1"",""2256""
","
","
","""event"",""trial"",""time""
""fullscreenenter"",""1"",""2256""
","
","","","","","","null","<div style=""font-size:60px;"">+</div>","null","","fixation","","",""
"memory-trial","147","339956","0.0-18.0-1.51","7590","approach_avoid_sv1","""event"",""trial"",""time""
""fullscreenenter"",""1"",""2256""
","
","
","""event"",""trial"",""time""
""fullscreenenter"",""1"",""2256""
","
","","","","","","892","images/flower3.png","","","memory_trial","4","definitely_new",""
"html-keyboard-response","148","340458","0.0-18.0-0.52","7590","approach_avoid_sv1","""event"",""trial"",""time""
""fullscreenenter"",""1"",""2256""
","
","
","""event"",""trial"",""time""
""fullscreenenter"",""1"",""2256""
","
","","","","","","null","<div style=""font-size:60px;"">+</div>","null","","fixation","","",""
"memory-trial","149","342260","0.0-18.0-1.52","7590","approach_avoid_sv1","""event"",""trial"",""time""
""fullscreenenter"",""1"",""2256""
","
","
","""event"",""trial"",""time""
""fullscreenenter"",""1"",""2256""
","
","","","","","","799","images/rodent7.png","","","memory_trial","4","definitely_new",""
"html-keyboard-response","150","342761","0.0-18.0-0.53","7590","approach_avoid_sv1","""event"",""trial"",""time""
""fullscreenenter"",""1"",""2256""
","
","
","""event"",""trial"",""time""
""fullscreenenter"",""1"",""2256""
","
","","","","","","null","<div style=""font-size:60px;"">+</div>","null","","fixation","","",""
"memory-trial","151","344571","0.0-18.0-1.53","7590","approach_avoid_sv1","""event"",""trial"",""time""
""fullscreenenter"",""1"",""2256""
","
","
","""event"",""trial"",""time""
""fullscreenenter"",""1"",""2256""
","
","","","","","","806","images/tree1.png","","","memory_trial","4","definitely_new",""
"html-keyboard-response","152","345072","0.0-18.0-0.54","7590","approach_avoid_sv1","""event"",""trial"",""time""
""fullscreenenter"",""1"",""2256""
","
","
","""event"",""trial"",""time""
""fullscreenenter"",""1"",""2256""
","
","","","","","","null","<div style=""font-size:60px;"">+</div>","null","","fixation","","",""
"memory-trial","153","346872","0.0-18.0-1.54","7590","approach_avoid_sv1","""event"",""trial"",""time""
""fullscreenenter"",""1"",""2256""
","
","
","""event"",""trial"",""time""
""fullscreenenter"",""1"",""2256""
","
","","","","","","798","images/rodent6.png","","","memory_trial","4","definitely_new",""
"html-keyboard-response","154","347374","0.0-18.0-0.55","7590","approach_avoid_sv1","""event"",""trial"",""time""
""fullscreenenter"",""1"",""2256""
","
","
","""event"",""trial"",""time""
""fullscreenenter"",""1"",""2256""
","
","","","","","","null","<div style=""font-size:60px;"">+</div>","null","","fixation","","",""
"memory-trial","155","350477","0.0-18.0-1.55","7590","approach_avoid_sv1","""event"",""trial"",""time""
""fullscreenenter"",""1"",""2256""
","
","
","""event"",""trial"",""time""
""fullscreenenter"",""1"",""2256""
","
","","","","","","2101","images/sofa3.png","","","memory_trial","3","maybe_new",""
"html-keyboard-response","156","350979","0.0-18.0-0.56","7590","approach_avoid_sv1","""event"",""trial"",""time""
""fullscreenenter"",""1"",""2256""
","
","
","""event"",""trial"",""time""
""fullscreenenter"",""1"",""2256""
","
","","","","","","null","<div style=""font-size:60px;"">+</div>","null","","fixation","","",""
"memory-trial","157","353294","0.0-18.0-1.56","7590","approach_avoid_sv1","""event"",""trial"",""time""
""fullscreenenter"",""1"",""2256""
","
","
","""event"",""trial"",""time""
""fullscreenenter"",""1"",""2256""
","
","","","","","","1313","images/flower1.png","","","memory_trial","4","definitely_new",""
"html-keyboard-response","158","353796","0.0-18.0-0.57","7590","approach_avoid_sv1","""event"",""trial"",""time""
""fullscreenenter"",""1"",""2256""
","
","
","""event"",""trial"",""time""
""fullscreenenter"",""1"",""2256""
","
","","","","","","null","<div style=""font-size:60px;"">+</div>","null","","fixation","","",""
"memory-trial","159","355907","0.0-18.0-1.57","7590","approach_avoid_sv1","""event"",""trial"",""time""
""fullscreenenter"",""1"",""2256""
","
","
","""event"",""trial"",""time""
""fullscreenenter"",""1"",""2256""
","
","","","","","","1109","images/orange1.png","","","memory_trial","1","definitely_old",""
"html-keyboard-response","160","356409","0.0-18.0-0.58","7590","approach_avoid_sv1","""event"",""trial"",""time""
""fullscreenenter"",""1"",""2256""
","
","
","""event"",""trial"",""time""
""fullscreenenter"",""1"",""2256""
","
","","","","","","null","<div style=""font-size:60px;"">+</div>","null","","fixation","","",""
"memory-trial","161","358383","0.0-18.0-1.58","7590","approach_avoid_sv1","""event"",""trial"",""time""
""fullscreenenter"",""1"",""2256""
","
","
","""event"",""trial"",""time""
""fullscreenenter"",""1"",""2256""
","
","","","","","","973","images/cow4.png","","","memory_trial","1","definitely_old",""
"html-keyboard-response","162","358885","0.0-18.0-0.59","7590","approach_avoid_sv1","""event"",""trial"",""time""
""fullscreenenter"",""1"",""2256""
","
","
","""event"",""trial"",""time""
""fullscreenenter"",""1"",""2256""
","
","","","","","","null","<div style=""font-size:60px;"">+</div>","null","","fixation","","",""
"memory-trial","163","361076","0.0-18.0-1.59","7590","approach_avoid_sv1","""event"",""trial"",""time""
""fullscreenenter"",""1"",""2256""
","
","
","""event"",""trial"",""time""
""fullscreenenter"",""1"",""2256""
","
","","","","","","1190","images/goat2.png","","","memory_trial","3","maybe_new",""
"html-keyboard-response","164","361578","0.0-18.0-0.60","7590","approach_avoid_sv1","""event"",""trial"",""time""
""fullscreenenter"",""1"",""2256""
","
","
","""event"",""trial"",""time""
""fullscreenenter"",""1"",""2256""
","
","","","","","","null","<div style=""font-size:60px;"">+</div>","null","","fixation","","",""
"memory-trial","165","363970","0.0-18.0-1.60","7590","approach_avoid_sv1","""event"",""trial"",""time""
""fullscreenenter"",""1"",""2256""
","
","
","""event"",""trial"",""time""
""fullscreenenter"",""1"",""2256""
","
","","","","","","1390","images/goat7.png","","","memory_trial","2","maybe_old",""
"html-keyboard-response","166","364472","0.0-18.0-0.61","7590","approach_avoid_sv1","""event"",""trial"",""time""
""fullscreenenter"",""1"",""2256""
","
","
","""event"",""trial"",""time""
""fullscreenenter"",""1"",""2256""
","
","","","","","","null","<div style=""font-size:60px;"">+</div>","null","","fixation","","",""
"memory-trial","167","366779","0.0-18.0-1.61","7590","approach_avoid_sv1","""event"",""trial"",""time""
""fullscreenenter"",""1"",""2256""
","
","
","""event"",""trial"",""time""
""fullscreenenter"",""1"",""2256""
","
","","","","","","1306","images/sheep6.png","","","memory_trial","2","maybe_old",""
"html-keyboard-response","168","367281","0.0-18.0-0.62","7590","approach_avoid_sv1","""event"",""trial"",""time""
""fullscreenenter"",""1"",""2256""
","
","
","""event"",""trial"",""time""
""fullscreenenter"",""1"",""2256""
","
","","","","","","null","<div style=""font-size:60px;"">+</div>","null","","fixation","","",""
"memory-trial","169","369400","0.0-18.0-1.62","7590","approach_avoid_sv1","""event"",""trial"",""time""
""fullscreenenter"",""1"",""2256""
","
","
","""event"",""trial"",""time""
""fullscreenenter"",""1"",""2256""
","
","","","","","","1116.9999999999418","images/banana4.png","","","memory_trial","4","definitely_new",""
"html-keyboard-response","170","369901","0.0-18.0-0.63","7590","approach_avoid_sv1","""event"",""trial"",""time""
""fullscreenenter"",""1"",""2256""
","
","
","""event"",""trial"",""time""
""fullscreenenter"",""1"",""2256""
","
","","","","","","null","<div style=""font-size:60px;"">+</div>","null","","fixation","","",""
"memory-trial","171","372876","0.0-18.0-1.63","7590","approach_avoid_sv1","""event"",""trial"",""time""
""fullscreenenter"",""1"",""2256""
","
","
","""event"",""trial"",""time""
""fullscreenenter"",""1"",""2256""
","
","","","","","","1973","images/plane1.png","","","memory_trial","3","maybe_new",""
"html-keyboard-response","172","373377","0.0-18.0-0.64","7590","approach_avoid_sv1","""event"",""trial"",""time""
""fullscreenenter"",""1"",""2256""
","
","
","""event"",""trial"",""time""
""fullscreenenter"",""1"",""2256""
","
","","","","","","null","<div style=""font-size:60px;"">+</div>","null","","fixation","","",""
"memory-trial","173","375732","0.0-18.0-1.64","7590","approach_avoid_sv1","""event"",""trial"",""time""
""fullscreenenter"",""1"",""2256""
","
","
","""event"",""trial"",""time""
""fullscreenenter"",""1"",""2256""
","
","","","","","","1352.9999999999418","images/train1.png","","","memory_trial","2","maybe_old",""
"html-keyboard-response","174","376234","0.0-18.0-0.65","7590","approach_avoid_sv1","""event"",""trial"",""time""
""fullscreenenter"",""1"",""2256""
","
","
","""event"",""trial"",""time""
""fullscreenenter"",""1"",""2256""
","
","","","","","","null","<div style=""font-size:60px;"">+</div>","null","","fixation","","",""
"memory-trial","175","378917","0.0-18.0-1.65","7590","approach_avoid_sv1","""event"",""trial"",""time""
""fullscreenenter"",""1"",""2256""
","
","
","""event"",""trial"",""time""
""fullscreenenter"",""1"",""2256""
","
","","","","","","1682","images/goat4.png","","","memory_trial","3","maybe_new",""
"html-keyboard-response","176","379419","0.0-18.0-0.66","7590","approach_avoid_sv1","""event"",""trial"",""time""
""fullscreenenter"",""1"",""2256""
","
","
","""event"",""trial"",""time""
""fullscreenenter"",""1"",""2256""
","
","","","","","","null","<div style=""font-size:60px;"">+</div>","null","","fixation","","",""
"memory-trial","177","381539","0.0-18.0-1.66","7590","approach_avoid_sv1","""event"",""trial"",""time""
""fullscreenenter"",""1"",""2256""
","
","
","""event"",""trial"",""time""
""fullscreenenter"",""1"",""2256""
","
","","","","","","1118","images/straw2.png","","","memory_trial","2","maybe_old",""
"html-keyboard-response","178","382040","0.0-18.0-0.67","7590","approach_avoid_sv1","""event"",""trial"",""time""
""fullscreenenter"",""1"",""2256""
","
","
","""event"",""trial"",""time""
""fullscreenenter"",""1"",""2256""
","
","","","","","","null","<div style=""font-size:60px;"">+</div>","null","","fixation","","",""
"memory-trial","179","384694","0.0-18.0-1.67","7590","approach_avoid_sv1","""event"",""trial"",""time""
""fullscreenenter"",""1"",""2256""
","
","
","""event"",""trial"",""time""
""fullscreenenter"",""1"",""2256""
","
","","","","","","1649","images/orange6.png","","","memory_trial","2","maybe_old",""
"html-keyboard-response","180","385195","0.0-18.0-0.68","7590","approach_avoid_sv1","""event"",""trial"",""time""
""fullscreenenter"",""1"",""2256""
","
","
","""event"",""trial"",""time""
""fullscreenenter"",""1"",""2256""
","
","","","","","","null","<div style=""font-size:60px;"">+</div>","null","","fixation","","",""
"memory-trial","181","387380","0.0-18.0-1.68","7590","approach_avoid_sv1","""event"",""trial"",""time""
""fullscreenenter"",""1"",""2256""
","
","
","""event"",""trial"",""time""
""fullscreenenter"",""1"",""2256""
","
","","","","","","1184","images/rodent4.png","","","memory_trial","4","definitely_new",""
"html-keyboard-response","182","387882","0.0-18.0-0.69","7590","approach_avoid_sv1","""event"",""trial"",""time""
""fullscreenenter"",""1"",""2256""
","
","
","""event"",""trial"",""time""
""fullscreenenter"",""1"",""2256""
","
","","","","","","null","<div style=""font-size:60px;"">+</div>","null","","fixation","","",""
"memory-trial","183","390761","0.0-18.0-1.69","7590","approach_avoid_sv1","""event"",""trial"",""time""
""fullscreenenter"",""1"",""2256""
","
","
","""event"",""trial"",""time""
""fullscreenenter"",""1"",""2256""
","
","","","","","","1878.9999999999418","images/dog1.png","","","memory_trial","3","maybe_new",""
"html-keyboard-response","184","391263","0.0-18.0-0.70","7590","approach_avoid_sv1","""event"",""trial"",""time""
""fullscreenenter"",""1"",""2256""
","
","
","""event"",""trial"",""time""
""fullscreenenter"",""1"",""2256""
","
","","","","","","null","<div style=""font-size:60px;"">+</div>","null","","fixation","","",""
"memory-trial","185","393402","0.0-18.0-1.70","7590","approach_avoid_sv1","""event"",""trial"",""time""
""fullscreenenter"",""1"",""2256""
","
","
","""event"",""trial"",""time""
""fullscreenenter"",""1"",""2256""
","
","","","","","","1137","images/tree7.png","","","memory_trial","4","definitely_new",""
"html-keyboard-response","186","393904","0.0-18.0-0.71","7590","approach_avoid_sv1","""event"",""trial"",""time""
""fullscreenenter"",""1"",""2256""
","
","
","""event"",""trial"",""time""
""fullscreenenter"",""1"",""2256""
","
","","","","","","null","<div style=""font-size:60px;"">+</div>","null","","fixation","","",""
"memory-trial","187","396228","0.0-18.0-1.71","7590","approach_avoid_sv1","""event"",""trial"",""time""
""fullscreenenter"",""1"",""2256""
","
","
","""event"",""trial"",""time""
""fullscreenenter"",""1"",""2256""
","
","","","","","","1322","images/cow8.png","","","memory_trial","2","maybe_old",""
"html-keyboard-response","188","396729","0.0-18.0-0.72","7590","approach_avoid_sv1","""event"",""trial"",""time""
""fullscreenenter"",""1"",""2256""
","
","
","""event"",""trial"",""time""
""fullscreenenter"",""1"",""2256""
","
","","","","","","null","<div style=""font-size:60px;"">+</div>","null","","fixation","","",""
"memory-trial","189","399264","0.0-18.0-1.72","7590","approach_avoid_sv1","""event"",""trial"",""time""
""fullscreenenter"",""1"",""2256""
","
","
","""event"",""trial"",""time""
""fullscreenenter"",""1"",""2256""
","
","","","","","","1533","images/flower5.png","","","memory_trial","3","maybe_new",""
"html-keyboard-response","190","399765","0.0-18.0-0.73","7590","approach_avoid_sv1","""event"",""trial"",""time""
""fullscreenenter"",""1"",""2256""
","
","
","""event"",""trial"",""time""
""fullscreenenter"",""1"",""2256""
","
","","","","","","null","<div style=""font-size:60px;"">+</div>","null","","fixation","","",""
"memory-trial","191","402462","0.0-18.0-1.73","7590","approach_avoid_sv1","""event"",""trial"",""time""
""fullscreenenter"",""1"",""2256""
","
","
","""event"",""trial"",""time""
""fullscreenenter"",""1"",""2256""
","
","","","","","","1695","images/straw7.png","","","memory_trial","3","maybe_new",""
"html-keyboard-response","192","402963","0.0-18.0-0.74","7590","approach_avoid_sv1","""event"",""trial"",""time""
""fullscreenenter"",""1"",""2256""
","
","
","""event"",""trial"",""time""
""fullscreenenter"",""1"",""2256""
","
","","","","","","null","<div style=""font-size:60px;"">+</div>","null","","fixation","","",""
"memory-trial","193","404937","0.0-18.0-1.74","7590","approach_avoid_sv1","""event"",""trial"",""time""
""fullscreenenter"",""1"",""2256""
","
","
","""event"",""trial"",""time""
""fullscreenenter"",""1"",""2256""
","
","","","","","","974","images/table1.png","","","memory_trial","2","maybe_old",""
"html-keyboard-response","194","405438","0.0-18.0-0.75","7590","approach_avoid_sv1","""event"",""trial"",""time""
""fullscreenenter"",""1"",""2256""
","
","
","""event"",""trial"",""time""
""fullscreenenter"",""1"",""2256""
","
","","","","","","null","<div style=""font-size:60px;"">+</div>","null","","fixation","","",""
"memory-trial","195","407356","0.0-18.0-1.75","7590","approach_avoid_sv1","""event"",""trial"",""time""
""fullscreenenter"",""1"",""2256""
","
","
","""event"",""trial"",""time""
""fullscreenenter"",""1"",""2256""
","
","","","","","","916","images/cat4.png","","","memory_trial","1","definitely_old",""
"html-keyboard-response","196","407856","0.0-18.0-0.76","7590","approach_avoid_sv1","""event"",""trial"",""time""
""fullscreenenter"",""1"",""2256""
","
","
","""event"",""trial"",""time""
""fullscreenenter"",""1"",""2256""
","
","","","","","","null","<div style=""font-size:60px;"">+</div>","null","","fixation","","",""
"memory-trial","197","409972","0.0-18.0-1.76","7590","approach_avoid_sv1","""event"",""trial"",""time""
""fullscreenenter"",""1"",""2256""
","
","
","""event"",""trial"",""time""
""fullscreenenter"",""1"",""2256""
","
","","","","","","1114","images/sofa1.png","","","memory_trial","2","maybe_old",""
"html-keyboard-response","198","410474","0.0-18.0-0.77","7590","approach_avoid_sv1","""event"",""trial"",""time""
""fullscreenenter"",""1"",""2256""
","
","
","""event"",""trial"",""time""
""fullscreenenter"",""1"",""2256""
","
","","","","","","null","<div style=""font-size:60px;"">+</div>","null","","fixation","","",""
"memory-trial","199","412664","0.0-18.0-1.77","7590","approach_avoid_sv1","""event"",""trial"",""time""
""fullscreenenter"",""1"",""2256""
","
","
","""event"",""trial"",""time""
""fullscreenenter"",""1"",""2256""
","
","","","","","","1187.0000000000582","images/sheep5.png","","","memory_trial","2","maybe_old",""
"html-keyboard-response","200","413165","0.0-18.0-0.78","7590","approach_avoid_sv1","""event"",""trial"",""time""
""fullscreenenter"",""1"",""2256""
","
","
","""event"",""trial"",""time""
""fullscreenenter"",""1"",""2256""
","
","","","","","","null","<div style=""font-size:60px;"">+</div>","null","","fixation","","",""
"memory-trial","201","414923","0.0-18.0-1.78","7590","approach_avoid_sv1","""event"",""trial"",""time""
""fullscreenenter"",""1"",""2256""
","
","
","""event"",""trial"",""time""
""fullscreenenter"",""1"",""2256""
","
","","","","","","751","images/dog4.png","","","memory_trial","1","definitely_old",""
"html-keyboard-response","202","415425","0.0-18.0-0.79","7590","approach_avoid_sv1","""event"",""trial"",""time""
""fullscreenenter"",""1"",""2256""
","
","
","""event"",""trial"",""time""
""fullscreenenter"",""1"",""2256""
","
","","","","","","null","<div style=""font-size:60px;"">+</div>","null","","fixation","","",""
"memory-trial","203","417587","0.0-18.0-1.79","7590","approach_avoid_sv1","""event"",""trial"",""time""
""fullscreenenter"",""1"",""2256""
","
","
","""event"",""trial"",""time""
""fullscreenenter"",""1"",""2256""
","
","","","","","","1160","images/rodent2.png","","","memory_trial","3","maybe_new",""
"html-keyboard-response","204","418088","0.0-18.0-0.80","7590","approach_avoid_sv1","""event"",""trial"",""time""
""fullscreenenter"",""1"",""2256""
","
","
","""event"",""trial"",""time""
""fullscreenenter"",""1"",""2256""
","
","","","","","","null","<div style=""font-size:60px;"">+</div>","null","","fixation","","",""
"memory-trial","205","420040","0.0-18.0-1.80","7590","approach_avoid_sv1","""event"",""trial"",""time""
""fullscreenenter"",""1"",""2256""
","
","
","""event"",""trial"",""time""
""fullscreenenter"",""1"",""2256""
","
","","","","","","951","images/tree4.png","","","memory_trial","2","maybe_old",""
"html-keyboard-response","206","420542","0.0-18.0-0.81","7590","approach_avoid_sv1","""event"",""trial"",""time""
""fullscreenenter"",""1"",""2256""
","
","
","""event"",""trial"",""time""
""fullscreenenter"",""1"",""2256""
","
","","","","","","null","<div style=""font-size:60px;"">+</div>","null","","fixation","","",""
"memory-trial","207","423079","0.0-18.0-1.81","7590","approach_avoid_sv1","""event"",""trial"",""time""
""fullscreenenter"",""1"",""2256""
","
","
","""event"",""trial"",""time""
""fullscreenenter"",""1"",""2256""
","
","","","","","","1536","images/boat2.png","","","memory_trial","4","definitely_new",""
"html-keyboard-response","208","423581","0.0-18.0-0.82","7590","approach_avoid_sv1","""event"",""trial"",""time""
""fullscreenenter"",""1"",""2256""
","
","
","""event"",""trial"",""time""
""fullscreenenter"",""1"",""2256""
","
","","","","","","null","<div style=""font-size:60px;"">+</div>","null","","fixation","","",""
"memory-trial","209","426509","0.0-18.0-1.82","7590","approach_avoid_sv1","""event"",""trial"",""time""
""fullscreenenter"",""1"",""2256""
","
","
","""event"",""trial"",""time""
""fullscreenenter"",""1"",""2256""
","
","","","","","","1927","images/bed3.png","","","memory_trial","3","maybe_new",""
"html-keyboard-response","210","427011","0.0-18.0-0.83","7590","approach_avoid_sv1","""event"",""trial"",""time""
""fullscreenenter"",""1"",""2256""
","
","
","""event"",""trial"",""time""
""fullscreenenter"",""1"",""2256""
","
","","","","","","null","<div style=""font-size:60px;"">+</div>","null","","fixation","","",""
"memory-trial","211","428773","0.0-18.0-1.83","7590","approach_avoid_sv1","""event"",""trial"",""time""
""fullscreenenter"",""1"",""2256""
","
","
","""event"",""trial"",""time""
""fullscreenenter"",""1"",""2256""
","
","","","","","","759.9999999999418","images/apple2.png","","","memory_trial","3","maybe_new",""
"html-keyboard-response","212","429275","0.0-18.0-0.84","7590","approach_avoid_sv1","""event"",""trial"",""time""
""fullscreenenter"",""1"",""2256""
","
","
","""event"",""trial"",""time""
""fullscreenenter"",""1"",""2256""
","
","","","","","","null","<div style=""font-size:60px;"">+</div>","null","","fixation","","",""
"memory-trial","213","431446","0.0-18.0-1.84","7590","approach_avoid_sv1","""event"",""trial"",""time""
""fullscreenenter"",""1"",""2256""
","
","
","""event"",""trial"",""time""
""fullscreenenter"",""1"",""2256""
","
","","","","","","1168","images/sofa7.png","","","memory_trial","3","maybe_new",""
"html-keyboard-response","214","431948","0.0-18.0-0.85","7590","approach_avoid_sv1","""event"",""trial"",""time""
""fullscreenenter"",""1"",""2256""
","
","
","""event"",""trial"",""time""
""fullscreenenter"",""1"",""2256""
","
","","","","","","null","<div style=""font-size:60px;"">+</div>","null","","fixation","","",""
"memory-trial","215","433989","0.0-18.0-1.85","7590","approach_avoid_sv1","""event"",""trial"",""time""
""fullscreenenter"",""1"",""2256""
","
","
","""event"",""trial"",""time""
""fullscreenenter"",""1"",""2256""
","
","","","","","","1040.0000000000582","images/orange2.png","","","memory_trial","4","definitely_new",""
"html-keyboard-response","216","434491","0.0-18.0-0.86","7590","approach_avoid_sv1","""event"",""trial"",""time""
""fullscreenenter"",""1"",""2256""
","
","
","""event"",""trial"",""time""
""fullscreenenter"",""1"",""2256""
","
","","","","","","null","<div style=""font-size:60px;"">+</div>","null","","fixation","","",""
"memory-trial","217","436508","0.0-18.0-1.86","7590","approach_avoid_sv1","""event"",""trial"",""time""
""fullscreenenter"",""1"",""2256""
","
","
","""event"",""trial"",""time""
""fullscreenenter"",""1"",""2256""
","
","","","","","","1016","images/horse1.png","","","memory_trial","1","definitely_old",""
"html-keyboard-response","218","437010","0.0-18.0-0.87","7590","approach_avoid_sv1","""event"",""trial"",""time""
""fullscreenenter"",""1"",""2256""
","
","
","""event"",""trial"",""time""
""fullscreenenter"",""1"",""2256""
","
","","","","","","null","<div style=""font-size:60px;"">+</div>","null","","fixation","","",""
"memory-trial","219","439357","0.0-18.0-1.87","7590","approach_avoid_sv1","""event"",""trial"",""time""
""fullscreenenter"",""1"",""2256""
","
","
","""event"",""trial"",""time""
""fullscreenenter"",""1"",""2256""
","
","","","","","","1345","images/flower2.png","","","memory_trial","3","maybe_new",""
"html-keyboard-response","220","439859","0.0-18.0-0.88","7590","approach_avoid_sv1","""event"",""trial"",""time""
""fullscreenenter"",""1"",""2256""
","
","
","""event"",""trial"",""time""
""fullscreenenter"",""1"",""2256""
","
","","","","","","null","<div style=""font-size:60px;"">+</div>","null","","fixation","","",""
"memory-trial","221","442802","0.0-18.0-1.88","7590","approach_avoid_sv1","""event"",""trial"",""time""
""fullscreenenter"",""1"",""2256""
","
","
","""event"",""trial"",""time""
""fullscreenenter"",""1"",""2256""
","
","","","","","","1941","images/train4.png","","","memory_trial","1","definitely_old",""
"html-keyboard-response","222","443304","0.0-18.0-0.89","7590","approach_avoid_sv1","""event"",""trial"",""time""
""fullscreenenter"",""1"",""2256""
","
","
","""event"",""trial"",""time""
""fullscreenenter"",""1"",""2256""
","
","","","","","","null","<div style=""font-size:60px;"">+</div>","null","","fixation","","",""
"memory-trial","223","445688","0.0-18.0-1.89","7590","approach_avoid_sv1","""event"",""trial"",""time""
""fullscreenenter"",""1"",""2256""
","
","
","""event"",""trial"",""time""
""fullscreenenter"",""1"",""2256""
","
","","","","","","1384","images/tree6.png","","","memory_trial","4","definitely_new",""
"html-keyboard-response","224","446189","0.0-18.0-0.90","7590","approach_avoid_sv1","""event"",""trial"",""time""
""fullscreenenter"",""1"",""2256""
","
","
","""event"",""trial"",""time""
""fullscreenenter"",""1"",""2256""
","
","","","","","","null","<div style=""font-size:60px;"">+</div>","null","","fixation","","",""
"memory-trial","225","448987","0.0-18.0-1.90","7590","approach_avoid_sv1","""event"",""trial"",""time""
""fullscreenenter"",""1"",""2256""
","
","
","""event"",""trial"",""time""
""fullscreenenter"",""1"",""2256""
","
","","","","","","1795","images/table6.png","","","memory_trial","2","maybe_old",""
"html-keyboard-response","226","449489","0.0-18.0-0.91","7590","approach_avoid_sv1","""event"",""trial"",""time""
""fullscreenenter"",""1"",""2256""
","
","
","""event"",""trial"",""time""
""fullscreenenter"",""1"",""2256""
","
","","","","","","null","<div style=""font-size:60px;"">+</div>","null","","fixation","","",""
"memory-trial","227","451588","0.0-18.0-1.91","7590","approach_avoid_sv1","""event"",""trial"",""time""
""fullscreenenter"",""1"",""2256""
","
","
","""event"",""trial"",""time""
""fullscreenenter"",""1"",""2256""
","
","","","","","","1097","images/sheep8.png","","","memory_trial","2","maybe_old",""
"html-button-response","228","455068","0.0-18.0-2.91-0.91","7590","approach_avoid_sv1","""event"",""trial"",""time""
""fullscreenenter"",""1"",""2256""
","
","
","""event"",""trial"",""time""
""fullscreenenter"",""1"",""2256""
","
","","","","","","3479.999999999942","<p> Take a break! </p><p> Click the button to continue. </p>","0","","break","","",""
"html-keyboard-response","229","455570","0.0-18.0-0.92","7590","approach_avoid_sv1","""event"",""trial"",""time""
""fullscreenenter"",""1"",""2256""
","
","
","""event"",""trial"",""time""
""fullscreenenter"",""1"",""2256""
","
","","","","","","null","<div style=""font-size:60px;"">+</div>","null","","fixation","","",""
"memory-trial","230","457695","0.0-18.0-1.92","7590","approach_avoid_sv1","""event"",""trial"",""time""
""fullscreenenter"",""1"",""2256""
","
","
","""event"",""trial"",""time""
""fullscreenenter"",""1"",""2256""
","
","","","","","","1123.9999999999418","images/boat6.png","","","memory_trial","4","definitely_new",""
"html-keyboard-response","231","458197","0.0-18.0-0.93","7590","approach_avoid_sv1","""event"",""trial"",""time""
""fullscreenenter"",""1"",""2256""
","
","
","""event"",""trial"",""time""
""fullscreenenter"",""1"",""2256""
","
","","","","","","null","<div style=""font-size:60px;"">+</div>","null","","fixation","","",""
"memory-trial","232","460615","0.0-18.0-1.93","7590","approach_avoid_sv1","""event"",""trial"",""time""
""fullscreenenter"",""1"",""2256""
","
","
","""event"",""trial"",""time""
""fullscreenenter"",""1"",""2256""
","
","","","","","","1417","images/plane8.png","","","memory_trial","3","maybe_new",""
"html-keyboard-response","233","461117","0.0-18.0-0.94","7590","approach_avoid_sv1","""event"",""trial"",""time""
""fullscreenenter"",""1"",""2256""
","
","
","""event"",""trial"",""time""
""fullscreenenter"",""1"",""2256""
","
","","","","","","null","<div style=""font-size:60px;"">+</div>","null","","fixation","","",""
"memory-trial","234","463880","0.0-18.0-1.94","7590","approach_avoid_sv1","""event"",""trial"",""time""
""fullscreenenter"",""1"",""2256""
","
","
","""event"",""trial"",""time""
""fullscreenenter"",""1"",""2256""
","
","","","","","","1762","images/cat6.png","","","memory_trial","4","definitely_new",""
"html-keyboard-response","235","464382","0.0-18.0-0.95","7590","approach_avoid_sv1","""event"",""trial"",""time""
""fullscreenenter"",""1"",""2256""
","
","
","""event"",""trial"",""time""
""fullscreenenter"",""1"",""2256""
","
","","","","","","null","<div style=""font-size:60px;"">+</div>","null","","fixation","","",""
"memory-trial","236","467051","0.0-18.0-1.95","7590","approach_avoid_sv1","""event"",""trial"",""time""
""fullscreenenter"",""1"",""2256""
","
","
","""event"",""trial"",""time""
""fullscreenenter"",""1"",""2256""
","
","","","","","","1666","images/sofa8.png","","","memory_trial","4","definitely_new",""
"html-keyboard-response","237","467552","0.0-18.0-0.96","7590","approach_avoid_sv1","""event"",""trial"",""time""
""fullscreenenter"",""1"",""2256""
","
","
","""event"",""trial"",""time""
""fullscreenenter"",""1"",""2256""
","
","","","","","","null","<div style=""font-size:60px;"">+</div>","null","","fixation","","",""
"memory-trial","238","469638","0.0-18.0-1.96","7590","approach_avoid_sv1","""event"",""trial"",""time""
""fullscreenenter"",""1"",""2256""
","
","
","""event"",""trial"",""time""
""fullscreenenter"",""1"",""2256""
","
","","","","","","1085","images/straw5.png","","","memory_trial","2","maybe_old",""
"html-keyboard-response","239","470139","0.0-18.0-0.97","7590","approach_avoid_sv1","""event"",""trial"",""time""
""fullscreenenter"",""1"",""2256""
","
","
","""event"",""trial"",""time""
""fullscreenenter"",""1"",""2256""
","
","","","","","","null","<div style=""font-size:60px;"">+</div>","null","","fixation","","",""
"memory-trial","240","472068","0.0-18.0-1.97","7590","approach_avoid_sv1","""event"",""trial"",""time""
""fullscreenenter"",""1"",""2256""
","
","
","""event"",""trial"",""time""
""fullscreenenter"",""1"",""2256""
","
","","","","","","926.9999999999418","images/rabbit7.png","","","memory_trial","1","definitely_old",""
"html-keyboard-response","241","472569","0.0-18.0-0.98","7590","approach_avoid_sv1","""event"",""trial"",""time""
""fullscreenenter"",""1"",""2256""
","
","
","""event"",""trial"",""time""
""fullscreenenter"",""1"",""2256""
","
","","","","","","null","<div style=""font-size:60px;"">+</div>","null","","fixation","","",""
"memory-trial","242","474884","0.0-18.0-1.98","7590","approach_avoid_sv1","""event"",""trial"",""time""
""fullscreenenter"",""1"",""2256""
","
","
","""event"",""trial"",""time""
""fullscreenenter"",""1"",""2256""
","
","","","","","","1312.9999999999418","images/rabbit5.png","","","memory_trial","4","definitely_new",""
"html-keyboard-response","243","475385","0.0-18.0-0.99","7590","approach_avoid_sv1","""event"",""trial"",""time""
""fullscreenenter"",""1"",""2256""
","
","
","""event"",""trial"",""time""
""fullscreenenter"",""1"",""2256""
","
","","","","","","null","<div style=""font-size:60px;"">+</div>","null","","fixation","","",""
"memory-trial","244","477390","0.0-18.0-1.99","7590","approach_avoid_sv1","""event"",""trial"",""time""
""fullscreenenter"",""1"",""2256""
","
","
","""event"",""trial"",""time""
""fullscreenenter"",""1"",""2256""
","
","","","","","","1004.0000000000582","images/truck4.png","","","memory_trial","1","definitely_old",""
"html-keyboard-response","245","477892","0.0-18.0-0.100","7590","approach_avoid_sv1","""event"",""trial"",""time""
""fullscreenenter"",""1"",""2256""
","
","
","""event"",""trial"",""time""
""fullscreenenter"",""1"",""2256""
","
","","","","","","null","<div style=""font-size:60px;"">+</div>","null","","fixation","","",""
"memory-trial","246","479923","0.0-18.0-1.100","7590","approach_avoid_sv1","""event"",""trial"",""time""
""fullscreenenter"",""1"",""2256""
","
","
","""event"",""trial"",""time""
""fullscreenenter"",""1"",""2256""
","
","","","","","","1029","images/apple7.png","","","memory_trial","4","definitely_new",""
"html-keyboard-response","247","480425","0.0-18.0-0.101","7590","approach_avoid_sv1","""event"",""trial"",""time""
""fullscreenenter"",""1"",""2256""
","
","
","""event"",""trial"",""time""
""fullscreenenter"",""1"",""2256""
","
","","","","","","null","<div style=""font-size:60px;"">+</div>","null","","fixation","","",""
"memory-trial","248","483440","0.0-18.0-1.101","7590","approach_avoid_sv1","""event"",""trial"",""time""
""fullscreenenter"",""1"",""2256""
","
","
","""event"",""trial"",""time""
""fullscreenenter"",""1"",""2256""
","
","","","","","","2013.9999999999418","images/banana2.png","","","memory_trial","4","definitely_new",""
"html-keyboard-response","249","483941","0.0-18.0-0.102","7590","approach_avoid_sv1","""event"",""trial"",""time""
""fullscreenenter"",""1"",""2256""
","
","
","""event"",""trial"",""time""
""fullscreenenter"",""1"",""2256""
","
","","","","","","null","<div style=""font-size:60px;"">+</div>","null","","fixation","","",""
"memory-trial","250","486142","0.0-18.0-1.102","7590","approach_avoid_sv1","""event"",""trial"",""time""
""fullscreenenter"",""1"",""2256""
","
","
","""event"",""trial"",""time""
""fullscreenenter"",""1"",""2256""
","
","","","","","","1200","images/truck2.png","","","memory_trial","4","definitely_new",""
"html-keyboard-response","251","486644","0.0-18.0-0.103","7590","approach_avoid_sv1","""event"",""trial"",""time""
""fullscreenenter"",""1"",""2256""
","
","
","""event"",""trial"",""time""
""fullscreenenter"",""1"",""2256""
","
","","","","","","null","<div style=""font-size:60px;"">+</div>","null","","fixation","","",""
"memory-trial","252","489733","0.0-18.0-1.103","7590","approach_avoid_sv1","""event"",""trial"",""time""
""fullscreenenter"",""1"",""2256""
","
","
","""event"",""trial"",""time""
""fullscreenenter"",""1"",""2256""
","
","","","","","","2086","images/bed5.png","","","memory_trial","2","maybe_old",""
"html-keyboard-response","253","490233","0.0-18.0-0.104","7590","approach_avoid_sv1","""event"",""trial"",""time""
""fullscreenenter"",""1"",""2256""
","
","
","""event"",""trial"",""time""
""fullscreenenter"",""1"",""2256""
","
","","","","","","null","<div style=""font-size:60px;"">+</div>","null","","fixation","","",""
"memory-trial","254","492506","0.0-18.0-1.104","7590","approach_avoid_sv1","""event"",""trial"",""time""
""fullscreenenter"",""1"",""2256""
","
","
","""event"",""trial"",""time""
""fullscreenenter"",""1"",""2256""
","
","","","","","","1270","images/plane4.png","","","memory_trial","2","maybe_old",""
"html-keyboard-response","255","493007","0.0-18.0-0.105","7590","approach_avoid_sv1","""event"",""trial"",""time""
""fullscreenenter"",""1"",""2256""
","
","
","""event"",""trial"",""time""
""fullscreenenter"",""1"",""2256""
","
","","","","","","null","<div style=""font-size:60px;"">+</div>","null","","fixation","","",""
"memory-trial","256","495256","0.0-18.0-1.105","7590","approach_avoid_sv1","""event"",""trial"",""time""
""fullscreenenter"",""1"",""2256""
","
","
","""event"",""trial"",""time""
""fullscreenenter"",""1"",""2256""
","
","","","","","","1248","images/truck1.png","","","memory_trial","3","maybe_new",""
"html-keyboard-response","257","495758","0.0-18.0-0.106","7590","approach_avoid_sv1","""event"",""trial"",""time""
""fullscreenenter"",""1"",""2256""
","
","
","""event"",""trial"",""time""
""fullscreenenter"",""1"",""2256""
","
","","","","","","null","<div style=""font-size:60px;"">+</div>","null","","fixation","","",""
"memory-trial","258","497965","0.0-18.0-1.106","7590","approach_avoid_sv1","""event"",""trial"",""time""
""fullscreenenter"",""1"",""2256""
","
","
","""event"",""trial"",""time""
""fullscreenenter"",""1"",""2256""
","
","","","","","","1205.9999999999418","images/apple1.png","","","memory_trial","4","definitely_new",""
"html-keyboard-response","259","498467","0.0-18.0-0.107","7590","approach_avoid_sv1","""event"",""trial"",""time""
""fullscreenenter"",""1"",""2256""
","
","
","""event"",""trial"",""time""
""fullscreenenter"",""1"",""2256""
","
","","","","","","null","<div style=""font-size:60px;"">+</div>","null","","fixation","","",""
"memory-trial","260","501032","0.0-18.0-1.107","7590","approach_avoid_sv1","""event"",""trial"",""time""
""fullscreenenter"",""1"",""2256""
","
","
","""event"",""trial"",""time""
""fullscreenenter"",""1"",""2256""
","
","","","","","","1562.9999999999418","images/horse8.png","","","memory_trial","4","definitely_new",""
"html-keyboard-response","261","501534","0.0-18.0-0.108","7590","approach_avoid_sv1","""event"",""trial"",""time""
""fullscreenenter"",""1"",""2256""
","
","
","""event"",""trial"",""time""
""fullscreenenter"",""1"",""2256""
","
","","","","","","null","<div style=""font-size:60px;"">+</div>","null","","fixation","","",""
"memory-trial","262","503305","0.0-18.0-1.108","7590","approach_avoid_sv1","""event"",""trial"",""time""
""fullscreenenter"",""1"",""2256""
","
","
","""event"",""trial"",""time""
""fullscreenenter"",""1"",""2256""
","
","","","","","","769","images/boat7.png","","","memory_trial","4","definitely_new",""
"html-keyboard-response","263","503806","0.0-18.0-0.109","7590","approach_avoid_sv1","""event"",""trial"",""time""
""fullscreenenter"",""1"",""2256""
","
","
","""event"",""trial"",""time""
""fullscreenenter"",""1"",""2256""
","
","","","","","","null","<div style=""font-size:60px;"">+</div>","null","","fixation","","",""
"memory-trial","264","506306","0.0-18.0-1.109","7590","approach_avoid_sv1","""event"",""trial"",""time""
""fullscreenenter"",""1"",""2256""
","
","
","""event"",""trial"",""time""
""fullscreenenter"",""1"",""2256""
","
","","","","","","1498.9999999999418","images/plane3.png","","","memory_trial","3","maybe_new",""
"html-keyboard-response","265","506807","0.0-18.0-0.110","7590","approach_avoid_sv1","""event"",""trial"",""time""
""fullscreenenter"",""1"",""2256""
","
","
","""event"",""trial"",""time""
""fullscreenenter"",""1"",""2256""
","
","","","","","","null","<div style=""font-size:60px;"">+</div>","null","","fixation","","",""
"memory-trial","266","509006","0.0-18.0-1.110","7590","approach_avoid_sv1","""event"",""trial"",""time""
""fullscreenenter"",""1"",""2256""
","
","
","""event"",""trial"",""time""
""fullscreenenter"",""1"",""2256""
","
","","","","","","1197","images/horse3.png","","","memory_trial","4","definitely_new",""
"html-keyboard-response","267","509508","0.0-18.0-0.111","7590","approach_avoid_sv1","""event"",""trial"",""time""
""fullscreenenter"",""1"",""2256""
","
","
","""event"",""trial"",""time""
""fullscreenenter"",""1"",""2256""
","
","","","","","","null","<div style=""font-size:60px;"">+</div>","null","","fixation","","",""
"memory-trial","268","511870","0.0-18.0-1.111","7590","approach_avoid_sv1","""event"",""trial"",""time""
""fullscreenenter"",""1"",""2256""
","
","
","""event"",""trial"",""time""
""fullscreenenter"",""1"",""2256""
","
","","","","","","1362","images/cactus6.png","","","memory_trial","2","maybe_old",""
"html-keyboard-response","269","512372","0.0-18.0-0.112","7590","approach_avoid_sv1","""event"",""trial"",""time""
""fullscreenenter"",""1"",""2256""
","
","
","""event"",""trial"",""time""
""fullscreenenter"",""1"",""2256""
","
","","","","","","null","<div style=""font-size:60px;"">+</div>","null","","fixation","","",""
"memory-trial","270","514384","0.0-18.0-1.112","7590","approach_avoid_sv1","""event"",""trial"",""time""
""fullscreenenter"",""1"",""2256""
","
","
","""event"",""trial"",""time""
""fullscreenenter"",""1"",""2256""
","
","","","","","","1010.9999999999418","images/train8.png","","","memory_trial","2","maybe_old",""
"html-keyboard-response","271","514885","0.0-18.0-0.113","7590","approach_avoid_sv1","""event"",""trial"",""time""
""fullscreenenter"",""1"",""2256""
","
","
","""event"",""trial"",""time""
""fullscreenenter"",""1"",""2256""
","
","","","","","","null","<div style=""font-size:60px;"">+</div>","null","","fixation","","",""
"memory-trial","272","518087","0.0-18.0-1.113","7590","approach_avoid_sv1","""event"",""trial"",""time""
""fullscreenenter"",""1"",""2256""
","
","
","""event"",""trial"",""time""
""fullscreenenter"",""1"",""2256""
","
","","","","","","2199.000000000058","images/truck3.png","","","memory_trial","2","maybe_old",""
"html-keyboard-response","273","518589","0.0-18.0-0.114","7590","approach_avoid_sv1","""event"",""trial"",""time""
""fullscreenenter"",""1"",""2256""
","
","
","""event"",""trial"",""time""
""fullscreenenter"",""1"",""2256""
","
","","","","","","null","<div style=""font-size:60px;"">+</div>","null","","fixation","","",""
"memory-trial","274","521139","0.0-18.0-1.114","7590","approach_avoid_sv1","""event"",""trial"",""time""
""fullscreenenter"",""1"",""2256""
","
","
","""event"",""trial"",""time""
""fullscreenenter"",""1"",""2256""
","
","","","","","","1549.0000000000582","images/straw4.png","","","memory_trial","3","maybe_new",""
"html-keyboard-response","275","521641","0.0-18.0-0.115","7590","approach_avoid_sv1","""event"",""trial"",""time""
""fullscreenenter"",""1"",""2256""
","
","
","""event"",""trial"",""time""
""fullscreenenter"",""1"",""2256""
","
","","","","","","null","<div style=""font-size:60px;"">+</div>","null","","fixation","","",""
"memory-trial","276","523643","0.0-18.0-1.115","7590","approach_avoid_sv1","""event"",""trial"",""time""
""fullscreenenter"",""1"",""2256""
","
","
","""event"",""trial"",""time""
""fullscreenenter"",""1"",""2256""
","
","","","","","","1001","images/horse4.png","","","memory_trial","1","definitely_old",""
"html-keyboard-response","277","524146","0.0-18.0-0.116","7590","approach_avoid_sv1","""event"",""trial"",""time""
""fullscreenenter"",""1"",""2256""
","
","
","""event"",""trial"",""time""
""fullscreenenter"",""1"",""2256""
","
","","","","","","null","<div style=""font-size:60px;"">+</div>","null","","fixation","","",""
"memory-trial","278","526698","0.0-18.0-1.116","7590","approach_avoid_sv1","""event"",""trial"",""time""
""fullscreenenter"",""1"",""2256""
","
","
","""event"",""trial"",""time""
""fullscreenenter"",""1"",""2256""
","
","","","","","","1550","images/bush8.png","","","memory_trial","1","definitely_old",""
"html-keyboard-response","279","527200","0.0-18.0-0.117","7590","approach_avoid_sv1","""event"",""trial"",""time""
""fullscreenenter"",""1"",""2256""
","
","
","""event"",""trial"",""time""
""fullscreenenter"",""1"",""2256""
","
","","","","","","null","<div style=""font-size:60px;"">+</div>","null","","fixation","","",""
"memory-trial","280","529119","0.0-18.0-1.117","7590","approach_avoid_sv1","""event"",""trial"",""time""
""fullscreenenter"",""1"",""2256""
","
","
","""event"",""trial"",""time""
""fullscreenenter"",""1"",""2256""
","
","","","","","","916","images/tree3.png","","","memory_trial","4","definitely_new",""
"html-keyboard-response","281","529620","0.0-18.0-0.118","7590","approach_avoid_sv1","""event"",""trial"",""time""
""fullscreenenter"",""1"",""2256""
","
","
","""event"",""trial"",""time""
""fullscreenenter"",""1"",""2256""
","
","","","","","","null","<div style=""font-size:60px;"">+</div>","null","","fixation","","",""
"memory-trial","282","531792","0.0-18.0-1.118","7590","approach_avoid_sv1","""event"",""trial"",""time""
""fullscreenenter"",""1"",""2256""
","
","
","""event"",""trial"",""time""
""fullscreenenter"",""1"",""2256""
","
","","","","","","1169","images/rodent5.png","","","memory_trial","4","definitely_new",""
"html-keyboard-response","283","532293","0.0-18.0-0.119","7590","approach_avoid_sv1","""event"",""trial"",""time""
""fullscreenenter"",""1"",""2256""
","
","
","""event"",""trial"",""time""
""fullscreenenter"",""1"",""2256""
","
","","","","","","null","<div style=""font-size:60px;"">+</div>","null","","fixation","","",""
"memory-trial","284","534933","0.0-18.0-1.119","7590","approach_avoid_sv1","""event"",""trial"",""time""
""fullscreenenter"",""1"",""2256""
","
","
","""event"",""trial"",""time""
""fullscreenenter"",""1"",""2256""
","
","","","","","","1637","images/cactus7.png","","","memory_trial","2","maybe_old",""
"html-keyboard-response","285","535434","0.0-18.0-0.120","7590","approach_avoid_sv1","""event"",""trial"",""time""
""fullscreenenter"",""1"",""2256""
","
","
","""event"",""trial"",""time""
""fullscreenenter"",""1"",""2256""
","
","","","","","","null","<div style=""font-size:60px;"">+</div>","null","","fixation","","",""
"memory-trial","286","537205","0.0-18.0-1.120","7590","approach_avoid_sv1","""event"",""trial"",""time""
""fullscreenenter"",""1"",""2256""
","
","
","""event"",""trial"",""time""
""fullscreenenter"",""1"",""2256""
","
","","","","","","769","images/cow1.png","","","memory_trial","1","definitely_old",""
"html-keyboard-response","287","537706","0.0-18.0-0.121","7590","approach_avoid_sv1","""event"",""trial"",""time""
""fullscreenenter"",""1"",""2256""
","
","
","""event"",""trial"",""time""
""fullscreenenter"",""1"",""2256""
","
","","","","","","null","<div style=""font-size:60px;"">+</div>","null","","fixation","","",""
"memory-trial","288","540812","0.0-18.0-1.121","7590","approach_avoid_sv1","""event"",""trial"",""time""
""fullscreenenter"",""1"",""2256""
","
","
","""event"",""trial"",""time""
""fullscreenenter"",""1"",""2256""
","
","","","","","","2104","images/cow6.png","","","memory_trial","2","maybe_old",""
"html-keyboard-response","289","541314","0.0-18.0-0.122","7590","approach_avoid_sv1","""event"",""trial"",""time""
""fullscreenenter"",""1"",""2256""
","
","
","""event"",""trial"",""time""
""fullscreenenter"",""1"",""2256""
","
","","","","","","null","<div style=""font-size:60px;"">+</div>","null","","fixation","","",""
"memory-trial","290","543758","0.0-18.0-1.122","7590","approach_avoid_sv1","""event"",""trial"",""time""
""fullscreenenter"",""1"",""2256""
","
","
","""event"",""trial"",""time""
""fullscreenenter"",""1"",""2256""
","
","","","","","","1442.9999999998836","images/flower8.png","","","memory_trial","4","definitely_new",""
"html-keyboard-response","291","544260","0.0-18.0-0.123","7590","approach_avoid_sv1","""event"",""trial"",""time""
""fullscreenenter"",""1"",""2256""
","
","
","""event"",""trial"",""time""
""fullscreenenter"",""1"",""2256""
","
","","","","","","null","<div style=""font-size:60px;"">+</div>","null","","fixation","","",""
"memory-trial","292","546823","0.0-18.0-1.123","7590","approach_avoid_sv1","""event"",""trial"",""time""
""fullscreenenter"",""1"",""2256""
","
","
","""event"",""trial"",""time""
""fullscreenenter"",""1"",""2256""
","
","","","","","","1561","images/orange4.png","","","memory_trial","2","maybe_old",""
"html-keyboard-response","293","547325","0.0-18.0-0.124","7590","approach_avoid_sv1","""event"",""trial"",""time""
""fullscreenenter"",""1"",""2256""
","
","
","""event"",""trial"",""time""
""fullscreenenter"",""1"",""2256""
","
","","","","","","null","<div style=""font-size:60px;"">+</div>","null","","fixation","","",""
"memory-trial","294","549456","0.0-18.0-1.124","7590","approach_avoid_sv1","""event"",""trial"",""time""
""fullscreenenter"",""1"",""2256""
","
","
","""event"",""trial"",""time""
""fullscreenenter"",""1"",""2256""
","
","","","","","","1129","images/straw8.png","","","memory_trial","4","definitely_new",""
"html-keyboard-response","295","549957","0.0-18.0-0.125","7590","approach_avoid_sv1","""event"",""trial"",""time""
""fullscreenenter"",""1"",""2256""
","
","
","""event"",""trial"",""time""
""fullscreenenter"",""1"",""2256""
","
","","","","","","null","<div style=""font-size:60px;"">+</div>","null","","fixation","","",""
"memory-trial","296","551859","0.0-18.0-1.125","7590","approach_avoid_sv1","""event"",""trial"",""time""
""fullscreenenter"",""1"",""2256""
","
","
","""event"",""trial"",""time""
""fullscreenenter"",""1"",""2256""
","
","","","","","","901","images/boat3.png","","","memory_trial","4","definitely_new",""
"html-keyboard-response","297","552361","0.0-18.0-0.126","7590","approach_avoid_sv1","""event"",""trial"",""time""
""fullscreenenter"",""1"",""2256""
","
","
","""event"",""trial"",""time""
""fullscreenenter"",""1"",""2256""
","
","","","","","","null","<div style=""font-size:60px;"">+</div>","null","","fixation","","",""
"memory-trial","298","554340","0.0-18.0-1.126","7590","approach_avoid_sv1","""event"",""trial"",""time""
""fullscreenenter"",""1"",""2256""
","
","
","""event"",""trial"",""time""
""fullscreenenter"",""1"",""2256""
","
","","","","","","977.0000000001164","images/sheep2.png","","","memory_trial","1","definitely_old",""
"html-keyboard-response","299","554842","0.0-18.0-0.127","7590","approach_avoid_sv1","""event"",""trial"",""time""
""fullscreenenter"",""1"",""2256""
","
","
","""event"",""trial"",""time""
""fullscreenenter"",""1"",""2256""
","
","","","","","","null","<div style=""font-size:60px;"">+</div>","null","","fixation","","",""
"memory-trial","300","557420","0.0-18.0-1.127","7590","approach_avoid_sv1","""event"",""trial"",""time""
""fullscreenenter"",""1"",""2256""
","
","
","""event"",""trial"",""time""
""fullscreenenter"",""1"",""2256""
","
","","","","","","1576","images/rabbit1.png","","","memory_trial","3","maybe_new",""
