"trial_type","trial_index","time_elapsed","internal_node_id","subject_id","task_version","interactions","blur_events","focus_events","fullscreenenter_events","fullscreenexit_events","success","timeout","failed_images","failed_audio","failed_video","rt","stimulus","response","button_pressed","task_part","key_press","answer","correct"
"pavlovia","0","4","0.0-0.0","4656","approach_avoid_sv1","""event"",""trial"",""time""
""fullscreenenter"",""1"",""8094""
","
","
","""event"",""trial"",""time""
""fullscreenenter"",""1"",""8094""
","
","","","","","","","","","","","","",""
"fullscreen","1","9065","0.0-1.0","4656","approach_avoid_sv1","""event"",""trial"",""time""
""fullscreenenter"",""1"",""8094""
","
","
","""event"",""trial"",""time""
""fullscreenenter"",""1"",""8094""
","
","true","","","","","","","","","","","",""
"preload","2","15827","0.0-2.0","4656","approach_avoid_sv1","""event"",""trial"",""time""
""fullscreenenter"",""1"",""8094""
","
","
","""event"",""trial"",""time""
""fullscreenenter"",""1"",""8094""
","
","true","false","[]","[]","[]","","","","","","","",""
"preload","3","18212","0.0-3.0","4656","approach_avoid_sv1","""event"",""trial"",""time""
""fullscreenenter"",""1"",""8094""
","
","
","""event"",""trial"",""time""
""fullscreenenter"",""1"",""8094""
","
","true","false","[]","[]","[]","","","","","","","",""
"preload","4","18506","0.0-4.0","4656","approach_avoid_sv1","""event"",""trial"",""time""
""fullscreenenter"",""1"",""8094""
","
","
","""event"",""trial"",""time""
""fullscreenenter"",""1"",""8094""
","
","true","false","[]","[]","[]","","","","","","","",""
"audio-keyboard-response","5","22630","0.0-5.0","4656","approach_avoid_sv1","""event"",""trial"",""time""
""fullscreenenter"",""1"",""8094""
","
","
","""event"",""trial"",""time""
""fullscreenenter"",""1"",""8094""
","
","","","","","","0","audio/beep_loop.wav"," ","","","","",""
"audio-button-response","6","25669","0.0-6.0","4656","approach_avoid_sv1","""event"",""trial"",""time""
""fullscreenenter"",""1"",""8094""
","
","
","""event"",""trial"",""time""
""fullscreenenter"",""1"",""8094""
","
","","","","","","1919","audio/turtle.wav","3","","","","",""
"audio-button-response","7","27605","0.0-7.0","4656","approach_avoid_sv1","""event"",""trial"",""time""
""fullscreenenter"",""1"",""8094""
","
","
","""event"",""trial"",""time""
""fullscreenenter"",""1"",""8094""
","
","","","","","","935","audio/shark.wav","2","","","","",""
"preload","8","31446","0.0-8.0","4656","approach_avoid_sv1","""event"",""trial"",""time""
""fullscreenenter"",""1"",""8094""
","
","
","""event"",""trial"",""time""
""fullscreenenter"",""1"",""8094""
","
","true","false","[]","[]","[]","","","","","","","",""
"learning-instructions","9","40269","0.0-9.0-0.0","4656","approach_avoid_sv1","""event"",""trial"",""time""
""fullscreenenter"",""1"",""8094""
","
","
","""event"",""trial"",""time""
""fullscreenenter"",""1"",""8094""
","
","","","","","","4347","<p> Welcome back! </p><p> Last week, you had to make choices about lots of different items.  </p>","","0","instructions","","",""
"learning-instructions","10","45796","0.0-9.0-0.1","4656","approach_avoid_sv1","""event"",""trial"",""time""
""fullscreenenter"",""1"",""8094""
","
","
","""event"",""trial"",""time""
""fullscreenenter"",""1"",""8094""
","
","","","","","","1418","<p> Today, we are going to ask you to try to remember all the items. </p>","","0","instructions","","",""
"learning-instructions","11","58412","0.0-9.0-0.2","4656","approach_avoid_sv1","""event"",""trial"",""time""
""fullscreenenter"",""1"",""8094""
","
","
","""event"",""trial"",""time""
""fullscreenenter"",""1"",""8094""
","
","","","","","","2488.0000000000073","<p> On every trial, you will see an image. </p><p> The image may be an OLD image you saw during the games last week or it may be a NEW image that was not presented. </p>","","0","instructions","","",""
"learning-instructions","12","68060","0.0-9.0-0.3","4656","approach_avoid_sv1","""event"",""trial"",""time""
""fullscreenenter"",""1"",""8094""
","
","
","""event"",""trial"",""time""
""fullscreenenter"",""1"",""8094""
","
","","","","","","1153","<p> You need to select whether the image is:  </p><p>  'Definitely old', 'Maybe old', 'Maybe new', or 'Definitely new.'  </p><div class=""mem-choice-instructions-grid""><div class=""choice-option"" id=""choice-option-1"" ><img src=""images/definitely_old_1.png"" id=""choice-option-img-1"" class=""choice-option-img"" stage=""1""></div><div class=""choice-option"" id=""choice-option-2"" ><img src=""images/maybe_old_1.png"" id=""choice-option-img-2"" class=""choice-option-img"" stage=""1""></div><div class=""choice-option"" id=""choice-option-3"" ><img src=""images/maybe_new_1.png"" id=""choice-option-img-3"" class=""choice-option-img"" stage=""1""></div><div class=""choice-option"" id=""choice-option-4"" > <img src=""images/definitely_new_1.png"" id=""choice-option-img-4"" class=""choice-option-img"" stage=""1""></div></div>","","0","instructions","","",""
"learning-instructions","13","75388","0.0-9.0-0.4","4656","approach_avoid_sv1","""event"",""trial"",""time""
""fullscreenenter"",""1"",""8094""
","
","
","""event"",""trial"",""time""
""fullscreenenter"",""1"",""8094""
","
","","","","","","818","<p> You should use the 1, 2, 3, and 4 keys to make your responses.  </p><div class=""mem-choice-instructions-grid""><div class=""choice-option"" id=""choice-option-1"" ><img src=""images/definitely_old.png"" id=""choice-option-img-1"" class=""choice-option-img"" stage=""1""></div><div class=""choice-option"" id=""choice-option-2"" ><img src=""images/maybe_old.png"" id=""choice-option-img-2"" class=""choice-option-img"" stage=""1""></div><div class=""choice-option"" id=""choice-option-3"" ><img src=""images/maybe_new.png"" id=""choice-option-img-3"" class=""choice-option-img"" stage=""1""></div><div class=""choice-option"" id=""choice-option-4"" > <img src=""images/definitely_new.png"" id=""choice-option-img-4"" class=""choice-option-img"" stage=""1""></div></div>","","0","instructions","","",""
"learning-instructions","14","82180","0.0-9.0-0.5","4656","approach_avoid_sv1","""event"",""trial"",""time""
""fullscreenenter"",""1"",""8094""
","
","
","""event"",""trial"",""time""
""fullscreenenter"",""1"",""8094""
","
","","","","","","467","<p> You will have 10 seconds to make each response.  </p><p>  Make sure to respond before time runs out! </p>","","0","instructions","","",""
"learning-instructions","15","90211","0.0-9.0-0.6","4656","approach_avoid_sv1","""event"",""trial"",""time""
""fullscreenenter"",""1"",""8094""
","
","
","""event"",""trial"",""time""
""fullscreenenter"",""1"",""8094""
","
","","","","","","959","<p> Today, you will see each image ONCE only.  </p><p>  That means none of the images will repeat. </p>","","0","instructions","","",""
"learning-instructions","16","103547","0.0-9.0-0.7","4656","approach_avoid_sv1","""event"",""trial"",""time""
""fullscreenenter"",""1"",""8094""
","
","
","""event"",""trial"",""time""
""fullscreenenter"",""1"",""8094""
","
","","","","","","673","<p> Before you play the real game, it is time to practice. </p><p>  Just like in the real game, some of the images in the practice will be ones you have seen before. </p><p>  Others will be entirely new. </p>","","0","instructions","","",""
"html-button-response","17","105771","0.0-10.0","4656","approach_avoid_sv1","""event"",""trial"",""time""
""fullscreenenter"",""1"",""8094""
","
","
","""event"",""trial"",""time""
""fullscreenenter"",""1"",""8094""
","
","","","","","","2122","<p> Ready to practice? </p><p> Remember, use the 1, 2, 3, and 4 keys to make your responses. </p>","0","","instructions","","",""
"html-keyboard-response","18","106374","0.0-11.0-0.0","4656","approach_avoid_sv1","""event"",""trial"",""time""
""fullscreenenter"",""1"",""8094""
","
","
","""event"",""trial"",""time""
""fullscreenenter"",""1"",""8094""
","
","","","","","","null","<div style=""font-size:60px;"">+</div>","null","","fixation","","",""
"memory-trial","19","109207","0.0-11.0-1.0","4656","approach_avoid_sv1","""event"",""trial"",""time""
""fullscreenenter"",""1"",""8094""
","
","
","""event"",""trial"",""time""
""fullscreenenter"",""1"",""8094""
","
","","","","","","1830","images/racket1.png","","","practice","4","definitely_new",""
"html-keyboard-response","20","109709","0.0-11.0-0.1","4656","approach_avoid_sv1","""event"",""trial"",""time""
""fullscreenenter"",""1"",""8094""
","
","
","""event"",""trial"",""time""
""fullscreenenter"",""1"",""8094""
","
","","","","","","null","<div style=""font-size:60px;"">+</div>","null","","fixation","","",""
"memory-trial","21","112990","0.0-11.0-1.1","4656","approach_avoid_sv1","""event"",""trial"",""time""
""fullscreenenter"",""1"",""8094""
","
","
","""event"",""trial"",""time""
""fullscreenenter"",""1"",""8094""
","
","","","","","","2279.0000000000146","images/racket3.png","","","practice","4","definitely_new",""
"html-keyboard-response","22","113491","0.0-11.0-0.2","4656","approach_avoid_sv1","""event"",""trial"",""time""
""fullscreenenter"",""1"",""8094""
","
","
","""event"",""trial"",""time""
""fullscreenenter"",""1"",""8094""
","
","","","","","","null","<div style=""font-size:60px;"">+</div>","null","","fixation","","",""
"memory-trial","23","115638","0.0-11.0-1.2","4656","approach_avoid_sv1","""event"",""trial"",""time""
""fullscreenenter"",""1"",""8094""
","
","
","""event"",""trial"",""time""
""fullscreenenter"",""1"",""8094""
","
","","","","","","1144.9999999999854","images/racket5.png","","","practice","4","definitely_new",""
"html-keyboard-response","24","116140","0.0-11.0-0.3","4656","approach_avoid_sv1","""event"",""trial"",""time""
""fullscreenenter"",""1"",""8094""
","
","
","""event"",""trial"",""time""
""fullscreenenter"",""1"",""8094""
","
","","","","","","null","<div style=""font-size:60px;"">+</div>","null","","fixation","","",""
"memory-trial","25","118750","0.0-11.0-1.3","4656","approach_avoid_sv1","""event"",""trial"",""time""
""fullscreenenter"",""1"",""8094""
","
","
","""event"",""trial"",""time""
""fullscreenenter"",""1"",""8094""
","
","","","","","","1609","images/ball1.png","","","practice","1","definitely_old",""
"html-keyboard-response","26","119252","0.0-11.0-0.4","4656","approach_avoid_sv1","""event"",""trial"",""time""
""fullscreenenter"",""1"",""8094""
","
","
","""event"",""trial"",""time""
""fullscreenenter"",""1"",""8094""
","
","","","","","","null","<div style=""font-size:60px;"">+</div>","null","","fixation","","",""
"memory-trial","27","122317","0.0-11.0-1.4","4656","approach_avoid_sv1","""event"",""trial"",""time""
""fullscreenenter"",""1"",""8094""
","
","
","""event"",""trial"",""time""
""fullscreenenter"",""1"",""8094""
","
","","","","","","2063","images/ball5.png","","","practice","4","definitely_new",""
"html-keyboard-response","28","122819","0.0-11.0-0.5","4656","approach_avoid_sv1","""event"",""trial"",""time""
""fullscreenenter"",""1"",""8094""
","
","
","""event"",""trial"",""time""
""fullscreenenter"",""1"",""8094""
","
","","","","","","null","<div style=""font-size:60px;"">+</div>","null","","fixation","","",""
"memory-trial","29","126767","0.0-11.0-1.5","4656","approach_avoid_sv1","""event"",""trial"",""time""
""fullscreenenter"",""1"",""8094""
","
","
","""event"",""trial"",""time""
""fullscreenenter"",""1"",""8094""
","
","","","","","","2946","images/ball3.png","","","practice","1","definitely_old",""
"html-keyboard-response","30","127268","0.0-11.0-0.6","4656","approach_avoid_sv1","""event"",""trial"",""time""
""fullscreenenter"",""1"",""8094""
","
","
","""event"",""trial"",""time""
""fullscreenenter"",""1"",""8094""
","
","","","","","","null","<div style=""font-size:60px;"">+</div>","null","","fixation","","",""
"memory-trial","31","129364","0.0-11.0-1.6","4656","approach_avoid_sv1","""event"",""trial"",""time""
""fullscreenenter"",""1"",""8094""
","
","
","""event"",""trial"",""time""
""fullscreenenter"",""1"",""8094""
","
","","","","","","1095","images/ball2.png","","","practice","4","definitely_new",""
"html-keyboard-response","32","129866","0.0-11.0-0.7","4656","approach_avoid_sv1","""event"",""trial"",""time""
""fullscreenenter"",""1"",""8094""
","
","
","""event"",""trial"",""time""
""fullscreenenter"",""1"",""8094""
","
","","","","","","null","<div style=""font-size:60px;"">+</div>","null","","fixation","","",""
"memory-trial","33","132206","0.0-11.0-1.7","4656","approach_avoid_sv1","""event"",""trial"",""time""
""fullscreenenter"",""1"",""8094""
","
","
","""event"",""trial"",""time""
""fullscreenenter"",""1"",""8094""
","
","","","","","","1338.000000000029","images/racket2.png","","","practice","4","definitely_new",""
"learning-instructions","34","141042","0.0-12.0-0.0","4656","approach_avoid_sv1","""event"",""trial"",""time""
""fullscreenenter"",""1"",""8094""
","
","
","""event"",""trial"",""time""
""fullscreenenter"",""1"",""8094""
","
","","","","","","1528","<p> Great! You have completed the practice. </p><p> Before you start, we're going to ask you a few questions about how the game works.  </p>","","0","instructions","","",""
"preload","35","143231","0.0-13.0","4656","approach_avoid_sv1","""event"",""trial"",""time""
""fullscreenenter"",""1"",""8094""
","
","
","""event"",""trial"",""time""
""fullscreenenter"",""1"",""8094""
","
","true","false","[]","[]","[]","","","","","","","",""
"comp-q","36","150011","0.0-14.0-0.0","4656","approach_avoid_sv1","""event"",""trial"",""time""
""fullscreenenter"",""1"",""8094""
","
","
","""event"",""trial"",""time""
""fullscreenenter"",""1"",""8094""
","
","","","","","","951","<p> <b> True or False? </b> </p><p> In this game, you will only see each image once. </p>","","0","comp_question","","","true"
"comp-q","37","157122","0.0-14.0-1.0","4656","approach_avoid_sv1","""event"",""trial"",""time""
""fullscreenenter"",""1"",""8094""
","
","
","""event"",""trial"",""time""
""fullscreenenter"",""1"",""8094""
","
","","","","","","779","<p> <b> That's right! </b> You will see many different images <i> one time each </i> in this game. </p>","","0","comp_answer","","",""
"comp-q","38","162874","0.0-15.0-0.0","4656","approach_avoid_sv1","""event"",""trial"",""time""
""fullscreenenter"",""1"",""8094""
","
","
","""event"",""trial"",""time""
""fullscreenenter"",""1"",""8094""
","
","","","","","","750","<p> <b> True or False? </b> </p><p> You should use the mouse and click to make your response. </p>","","1","comp_question","","","true"
"comp-q","39","170298","0.0-15.0-1.0","4656","approach_avoid_sv1","""event"",""trial"",""time""
""fullscreenenter"",""1"",""8094""
","
","
","""event"",""trial"",""time""
""fullscreenenter"",""1"",""8094""
","
","","","","","","926","<p><b> That's right! </b> You should use the '1', '2', '3', and '4' keys to make your response. </p>","","0","comp_answer","","",""
"comp-q","40","176650","0.0-16.0-0.0","4656","approach_avoid_sv1","""event"",""trial"",""time""
""fullscreenenter"",""1"",""8094""
","
","
","""event"",""trial"",""time""
""fullscreenenter"",""1"",""8094""
","
","","","","","","677.9999999999709","<p> <b> True or False? </b> </p><p> You will have as much time as you want to make each choice. </p>","","1","comp_question","","","true"
"comp-q","41","182521","0.0-16.0-1.0","4656","approach_avoid_sv1","""event"",""trial"",""time""
""fullscreenenter"",""1"",""8094""
","
","
","""event"",""trial"",""time""
""fullscreenenter"",""1"",""8094""
","
","","","","","","1180","<p> <b> That's right! </b> You will only have 10 seconds to make each choice. </p>","","0","comp_answer","","",""
"learning-instructions","42","192586","0.0-17.0","4656","approach_avoid_sv1","""event"",""trial"",""time""
""fullscreenenter"",""1"",""8094""
","
","
","""event"",""trial"",""time""
""fullscreenenter"",""1"",""8094""
","
","","","","","","1399","<p> Great! You are now ready to begin the game. </p><p> Remember, use the 1, 2, 3, and 4 keys to make your responses. </p>","","0","instructions","","",""
"html-keyboard-response","43","193187","0.0-18.0-0.0","4656","approach_avoid_sv1","""event"",""trial"",""time""
""fullscreenenter"",""1"",""8094""
","
","
","""event"",""trial"",""time""
""fullscreenenter"",""1"",""8094""
","
","","","","","","null","<div style=""font-size:60px;"">+</div>","null","","fixation","","",""
"memory-trial","44","196045","0.0-18.0-1.0","4656","approach_avoid_sv1","""event"",""trial"",""time""
""fullscreenenter"",""1"",""8094""
","
","
","""event"",""trial"",""time""
""fullscreenenter"",""1"",""8094""
","
","","","","","","1855","images/tree1.png","","","memory_trial","1","definitely_old",""
"html-keyboard-response","45","196547","0.0-18.0-0.1","4656","approach_avoid_sv1","""event"",""trial"",""time""
""fullscreenenter"",""1"",""8094""
","
","
","""event"",""trial"",""time""
""fullscreenenter"",""1"",""8094""
","
","","","","","","null","<div style=""font-size:60px;"">+</div>","null","","fixation","","",""
"memory-trial","46","198596","0.0-18.0-1.1","4656","approach_avoid_sv1","""event"",""trial"",""time""
""fullscreenenter"",""1"",""8094""
","
","
","""event"",""trial"",""time""
""fullscreenenter"",""1"",""8094""
","
","","","","","","1048","images/boat6.png","","","memory_trial","4","definitely_new",""
"html-keyboard-response","47","199098","0.0-18.0-0.2","4656","approach_avoid_sv1","""event"",""trial"",""time""
""fullscreenenter"",""1"",""8094""
","
","
","""event"",""trial"",""time""
""fullscreenenter"",""1"",""8094""
","
","","","","","","null","<div style=""font-size:60px;"">+</div>","null","","fixation","","",""
"memory-trial","48","201644","0.0-18.0-1.2","4656","approach_avoid_sv1","""event"",""trial"",""time""
""fullscreenenter"",""1"",""8094""
","
","
","""event"",""trial"",""time""
""fullscreenenter"",""1"",""8094""
","
","","","","","","1545","images/apple1.png","","","memory_trial","4","definitely_new",""
"html-keyboard-response","49","202146","0.0-18.0-0.3","4656","approach_avoid_sv1","""event"",""trial"",""time""
""fullscreenenter"",""1"",""8094""
","
","
","""event"",""trial"",""time""
""fullscreenenter"",""1"",""8094""
","
","","","","","","null","<div style=""font-size:60px;"">+</div>","null","","fixation","","",""
"memory-trial","50","207812","0.0-18.0-1.3","4656","approach_avoid_sv1","""event"",""trial"",""time""
""fullscreenenter"",""1"",""8094""
","
","
","""event"",""trial"",""time""
""fullscreenenter"",""1"",""8094""
","
","","","","","","4665","images/straw5.png","","","memory_trial","3","maybe_new",""
"html-keyboard-response","51","208313","0.0-18.0-0.4","4656","approach_avoid_sv1","""event"",""trial"",""time""
""fullscreenenter"",""1"",""8094""
","
","
","""event"",""trial"",""time""
""fullscreenenter"",""1"",""8094""
","
","","","","","","null","<div style=""font-size:60px;"">+</div>","null","","fixation","","",""
"memory-trial","52","210828","0.0-18.0-1.4","4656","approach_avoid_sv1","""event"",""trial"",""time""
""fullscreenenter"",""1"",""8094""
","
","
","""event"",""trial"",""time""
""fullscreenenter"",""1"",""8094""
","
","","","","","","1513","images/bed3.png","","","memory_trial","1","definitely_old",""
"html-keyboard-response","53","211329","0.0-18.0-0.5","4656","approach_avoid_sv1","""event"",""trial"",""time""
""fullscreenenter"",""1"",""8094""
","
","
","""event"",""trial"",""time""
""fullscreenenter"",""1"",""8094""
","
","","","","","","null","<div style=""font-size:60px;"">+</div>","null","","fixation","","",""
"memory-trial","54","213091","0.0-18.0-1.5","4656","approach_avoid_sv1","""event"",""trial"",""time""
""fullscreenenter"",""1"",""8094""
","
","
","""event"",""trial"",""time""
""fullscreenenter"",""1"",""8094""
","
","","","","","","760.0000000000291","images/cactus2.png","","","memory_trial","1","definitely_old",""
"html-keyboard-response","55","213592","0.0-18.0-0.6","4656","approach_avoid_sv1","""event"",""trial"",""time""
""fullscreenenter"",""1"",""8094""
","
","
","""event"",""trial"",""time""
""fullscreenenter"",""1"",""8094""
","
","","","","","","null","<div style=""font-size:60px;"">+</div>","null","","fixation","","",""
"memory-trial","56","216388","0.0-18.0-1.6","4656","approach_avoid_sv1","""event"",""trial"",""time""
""fullscreenenter"",""1"",""8094""
","
","
","""event"",""trial"",""time""
""fullscreenenter"",""1"",""8094""
","
","","","","","","1793","images/flower7.png","","","memory_trial","3","maybe_new",""
"html-keyboard-response","57","216889","0.0-18.0-0.7","4656","approach_avoid_sv1","""event"",""trial"",""time""
""fullscreenenter"",""1"",""8094""
","
","
","""event"",""trial"",""time""
""fullscreenenter"",""1"",""8094""
","
","","","","","","null","<div style=""font-size:60px;"">+</div>","null","","fixation","","",""
"memory-trial","58","219180","0.0-18.0-1.7","4656","approach_avoid_sv1","""event"",""trial"",""time""
""fullscreenenter"",""1"",""8094""
","
","
","""event"",""trial"",""time""
""fullscreenenter"",""1"",""8094""
","
","","","","","","1288","images/orange2.png","","","memory_trial","4","definitely_new",""
"html-keyboard-response","59","219682","0.0-18.0-0.8","4656","approach_avoid_sv1","""event"",""trial"",""time""
""fullscreenenter"",""1"",""8094""
","
","
","""event"",""trial"",""time""
""fullscreenenter"",""1"",""8094""
","
","","","","","","null","<div style=""font-size:60px;"">+</div>","null","","fixation","","",""
"memory-trial","60","221868","0.0-18.0-1.8","4656","approach_avoid_sv1","""event"",""trial"",""time""
""fullscreenenter"",""1"",""8094""
","
","
","""event"",""trial"",""time""
""fullscreenenter"",""1"",""8094""
","
","","","","","","1184","images/tree7.png","","","memory_trial","4","definitely_new",""
"html-keyboard-response","61","222369","0.0-18.0-0.9","4656","approach_avoid_sv1","""event"",""trial"",""time""
""fullscreenenter"",""1"",""8094""
","
","
","""event"",""trial"",""time""
""fullscreenenter"",""1"",""8094""
","
","","","","","","null","<div style=""font-size:60px;"">+</div>","null","","fixation","","",""
"memory-trial","62","224924","0.0-18.0-1.9","4656","approach_avoid_sv1","""event"",""trial"",""time""
""fullscreenenter"",""1"",""8094""
","
","
","""event"",""trial"",""time""
""fullscreenenter"",""1"",""8094""
","
","","","","","","1552.999999999971","images/sheep4.png","","","memory_trial","2","maybe_old",""
"html-keyboard-response","63","225426","0.0-18.0-0.10","4656","approach_avoid_sv1","""event"",""trial"",""time""
""fullscreenenter"",""1"",""8094""
","
","
","""event"",""trial"",""time""
""fullscreenenter"",""1"",""8094""
","
","","","","","","null","<div style=""font-size:60px;"">+</div>","null","","fixation","","",""
"memory-trial","64","230852","0.0-18.0-1.10","4656","approach_avoid_sv1","""event"",""trial"",""time""
""fullscreenenter"",""1"",""8094""
","
","
","""event"",""trial"",""time""
""fullscreenenter"",""1"",""8094""
","
","","","","","","4424","images/horse1.png","","","memory_trial","1","definitely_old",""
"html-keyboard-response","65","231353","0.0-18.0-0.11","4656","approach_avoid_sv1","""event"",""trial"",""time""
""fullscreenenter"",""1"",""8094""
","
","
","""event"",""trial"",""time""
""fullscreenenter"",""1"",""8094""
","
","","","","","","null","<div style=""font-size:60px;"">+</div>","null","","fixation","","",""
"memory-trial","66","233732","0.0-18.0-1.11","4656","approach_avoid_sv1","""event"",""trial"",""time""
""fullscreenenter"",""1"",""8094""
","
","
","""event"",""trial"",""time""
""fullscreenenter"",""1"",""8094""
","
","","","","","","1377","images/cactus7.png","","","memory_trial","3","maybe_new",""
"html-keyboard-response","67","234232","0.0-18.0-0.12","4656","approach_avoid_sv1","""event"",""trial"",""time""
""fullscreenenter"",""1"",""8094""
","
","
","""event"",""trial"",""time""
""fullscreenenter"",""1"",""8094""
","
","","","","","","null","<div style=""font-size:60px;"">+</div>","null","","fixation","","",""
"memory-trial","68","236219","0.0-18.0-1.12","4656","approach_avoid_sv1","""event"",""trial"",""time""
""fullscreenenter"",""1"",""8094""
","
","
","""event"",""trial"",""time""
""fullscreenenter"",""1"",""8094""
","
","","","","","","984","images/flower1.png","","","memory_trial","1","definitely_old",""
"html-keyboard-response","69","236721","0.0-18.0-0.13","4656","approach_avoid_sv1","""event"",""trial"",""time""
""fullscreenenter"",""1"",""8094""
","
","
","""event"",""trial"",""time""
""fullscreenenter"",""1"",""8094""
","
","","","","","","null","<div style=""font-size:60px;"">+</div>","null","","fixation","","",""
"memory-trial","70","239523","0.0-18.0-1.13","4656","approach_avoid_sv1","""event"",""trial"",""time""
""fullscreenenter"",""1"",""8094""
","
","
","""event"",""trial"",""time""
""fullscreenenter"",""1"",""8094""
","
","","","","","","1799","images/plane2.png","","","memory_trial","1","definitely_old",""
"html-keyboard-response","71","240025","0.0-18.0-0.14","4656","approach_avoid_sv1","""event"",""trial"",""time""
""fullscreenenter"",""1"",""8094""
","
","
","""event"",""trial"",""time""
""fullscreenenter"",""1"",""8094""
","
","","","","","","null","<div style=""font-size:60px;"">+</div>","null","","fixation","","",""
"memory-trial","72","241692","0.0-18.0-1.14","4656","approach_avoid_sv1","""event"",""trial"",""time""
""fullscreenenter"",""1"",""8094""
","
","
","""event"",""trial"",""time""
""fullscreenenter"",""1"",""8094""
","
","","","","","","664.0000000000291","images/goat6.png","","","memory_trial","1","definitely_old",""
"html-keyboard-response","73","242193","0.0-18.0-0.15","4656","approach_avoid_sv1","""event"",""trial"",""time""
""fullscreenenter"",""1"",""8094""
","
","
","""event"",""trial"",""time""
""fullscreenenter"",""1"",""8094""
","
","","","","","","null","<div style=""font-size:60px;"">+</div>","null","","fixation","","",""
"memory-trial","74","243835","0.0-18.0-1.15","4656","approach_avoid_sv1","""event"",""trial"",""time""
""fullscreenenter"",""1"",""8094""
","
","
","""event"",""trial"",""time""
""fullscreenenter"",""1"",""8094""
","
","","","","","","640","images/sheep7.png","","","memory_trial","1","definitely_old",""
"html-keyboard-response","75","244337","0.0-18.0-0.16","4656","approach_avoid_sv1","""event"",""trial"",""time""
""fullscreenenter"",""1"",""8094""
","
","
","""event"",""trial"",""time""
""fullscreenenter"",""1"",""8094""
","
","","","","","","null","<div style=""font-size:60px;"">+</div>","null","","fixation","","",""
"memory-trial","76","246274","0.0-18.0-1.16","4656","approach_avoid_sv1","""event"",""trial"",""time""
""fullscreenenter"",""1"",""8094""
","
","
","""event"",""trial"",""time""
""fullscreenenter"",""1"",""8094""
","
","","","","","","936","images/straw2.png","","","memory_trial","1","definitely_old",""
"html-keyboard-response","77","246776","0.0-18.0-0.17","4656","approach_avoid_sv1","""event"",""trial"",""time""
""fullscreenenter"",""1"",""8094""
","
","
","""event"",""trial"",""time""
""fullscreenenter"",""1"",""8094""
","
","","","","","","null","<div style=""font-size:60px;"">+</div>","null","","fixation","","",""
"memory-trial","78","248946","0.0-18.0-1.17","4656","approach_avoid_sv1","""event"",""trial"",""time""
""fullscreenenter"",""1"",""8094""
","
","
","""event"",""trial"",""time""
""fullscreenenter"",""1"",""8094""
","
","","","","","","1169","images/cactus3.png","","","memory_trial","2","maybe_old",""
"html-keyboard-response","79","249447","0.0-18.0-0.18","4656","approach_avoid_sv1","""event"",""trial"",""time""
""fullscreenenter"",""1"",""8094""
","
","
","""event"",""trial"",""time""
""fullscreenenter"",""1"",""8094""
","
","","","","","","null","<div style=""font-size:60px;"">+</div>","null","","fixation","","",""
"memory-trial","80","252074","0.0-18.0-1.18","4656","approach_avoid_sv1","""event"",""trial"",""time""
""fullscreenenter"",""1"",""8094""
","
","
","""event"",""trial"",""time""
""fullscreenenter"",""1"",""8094""
","
","","","","","","1626","images/cat2.png","","","memory_trial","2","maybe_old",""
"html-keyboard-response","81","252576","0.0-18.0-0.19","4656","approach_avoid_sv1","""event"",""trial"",""time""
""fullscreenenter"",""1"",""8094""
","
","
","""event"",""trial"",""time""
""fullscreenenter"",""1"",""8094""
","
","","","","","","null","<div style=""font-size:60px;"">+</div>","null","","fixation","","",""
"memory-trial","82","254571","0.0-18.0-1.19","4656","approach_avoid_sv1","""event"",""trial"",""time""
""fullscreenenter"",""1"",""8094""
","
","
","""event"",""trial"",""time""
""fullscreenenter"",""1"",""8094""
","
","","","","","","993","images/bed2.png","","","memory_trial","1","definitely_old",""
"html-keyboard-response","83","255072","0.0-18.0-0.20","4656","approach_avoid_sv1","""event"",""trial"",""time""
""fullscreenenter"",""1"",""8094""
","
","
","""event"",""trial"",""time""
""fullscreenenter"",""1"",""8094""
","
","","","","","","null","<div style=""font-size:60px;"">+</div>","null","","fixation","","",""
"memory-trial","84","257803","0.0-18.0-1.20","4656","approach_avoid_sv1","""event"",""trial"",""time""
""fullscreenenter"",""1"",""8094""
","
","
","""event"",""trial"",""time""
""fullscreenenter"",""1"",""8094""
","
","","","","","","1730","images/apple5.png","","","memory_trial","4","definitely_new",""
"html-keyboard-response","85","258305","0.0-18.0-0.21","4656","approach_avoid_sv1","""event"",""trial"",""time""
""fullscreenenter"",""1"",""8094""
","
","
","""event"",""trial"",""time""
""fullscreenenter"",""1"",""8094""
","
","","","","","","null","<div style=""font-size:60px;"">+</div>","null","","fixation","","",""
"memory-trial","86","260418","0.0-18.0-1.21","4656","approach_avoid_sv1","""event"",""trial"",""time""
""fullscreenenter"",""1"",""8094""
","
","
","""event"",""trial"",""time""
""fullscreenenter"",""1"",""8094""
","
","","","","","","1112","images/horse3.png","","","memory_trial","1","definitely_old",""
"html-keyboard-response","87","260920","0.0-18.0-0.22","4656","approach_avoid_sv1","""event"",""trial"",""time""
""fullscreenenter"",""1"",""8094""
","
","
","""event"",""trial"",""time""
""fullscreenenter"",""1"",""8094""
","
","","","","","","null","<div style=""font-size:60px;"">+</div>","null","","fixation","","",""
"memory-trial","88","263859","0.0-18.0-1.22","4656","approach_avoid_sv1","""event"",""trial"",""time""
""fullscreenenter"",""1"",""8094""
","
","
","""event"",""trial"",""time""
""fullscreenenter"",""1"",""8094""
","
","","","","","","1936","images/tree4.png","","","memory_trial","3","maybe_new",""
"html-keyboard-response","89","264360","0.0-18.0-0.23","4656","approach_avoid_sv1","""event"",""trial"",""time""
""fullscreenenter"",""1"",""8094""
","
","
","""event"",""trial"",""time""
""fullscreenenter"",""1"",""8094""
","
","","","","","","null","<div style=""font-size:60px;"">+</div>","null","","fixation","","",""
"memory-trial","90","266857","0.0-18.0-1.23","4656","approach_avoid_sv1","""event"",""trial"",""time""
""fullscreenenter"",""1"",""8094""
","
","
","""event"",""trial"",""time""
""fullscreenenter"",""1"",""8094""
","
","","","","","","1497","images/goat8.png","","","memory_trial","1","definitely_old",""
"html-keyboard-response","91","267359","0.0-18.0-0.24","4656","approach_avoid_sv1","""event"",""trial"",""time""
""fullscreenenter"",""1"",""8094""
","
","
","""event"",""trial"",""time""
""fullscreenenter"",""1"",""8094""
","
","","","","","","null","<div style=""font-size:60px;"">+</div>","null","","fixation","","",""
"memory-trial","92","269291","0.0-18.0-1.24","4656","approach_avoid_sv1","""event"",""trial"",""time""
""fullscreenenter"",""1"",""8094""
","
","
","""event"",""trial"",""time""
""fullscreenenter"",""1"",""8094""
","
","","","","","","929.0000000000582","images/truck1.png","","","memory_trial","1","definitely_old",""
"html-keyboard-response","93","269792","0.0-18.0-0.25","4656","approach_avoid_sv1","""event"",""trial"",""time""
""fullscreenenter"",""1"",""8094""
","
","
","""event"",""trial"",""time""
""fullscreenenter"",""1"",""8094""
","
","","","","","","null","<div style=""font-size:60px;"">+</div>","null","","fixation","","",""
"memory-trial","94","271506","0.0-18.0-1.25","4656","approach_avoid_sv1","""event"",""trial"",""time""
""fullscreenenter"",""1"",""8094""
","
","
","""event"",""trial"",""time""
""fullscreenenter"",""1"",""8094""
","
","","","","","","712","images/bed6.png","","","memory_trial","1","definitely_old",""
"html-keyboard-response","95","272007","0.0-18.0-0.26","4656","approach_avoid_sv1","""event"",""trial"",""time""
""fullscreenenter"",""1"",""8094""
","
","
","""event"",""trial"",""time""
""fullscreenenter"",""1"",""8094""
","
","","","","","","null","<div style=""font-size:60px;"">+</div>","null","","fixation","","",""
"memory-trial","96","274170","0.0-18.0-1.26","4656","approach_avoid_sv1","""event"",""trial"",""time""
""fullscreenenter"",""1"",""8094""
","
","
","""event"",""trial"",""time""
""fullscreenenter"",""1"",""8094""
","
","","","","","","1160","images/table7.png","","","memory_trial","1","definitely_old",""
"html-keyboard-response","97","274672","0.0-18.0-0.27","4656","approach_avoid_sv1","""event"",""trial"",""time""
""fullscreenenter"",""1"",""8094""
","
","
","""event"",""trial"",""time""
""fullscreenenter"",""1"",""8094""
","
","","","","","","null","<div style=""font-size:60px;"">+</div>","null","","fixation","","",""
"memory-trial","98","279153","0.0-18.0-1.27","4656","approach_avoid_sv1","""event"",""trial"",""time""
""fullscreenenter"",""1"",""8094""
","
","
","""event"",""trial"",""time""
""fullscreenenter"",""1"",""8094""
","
","","","","","","3480","images/cactus1.png","","","memory_trial","3","maybe_new",""
"html-keyboard-response","99","279655","0.0-18.0-0.28","4656","approach_avoid_sv1","""event"",""trial"",""time""
""fullscreenenter"",""1"",""8094""
","
","
","""event"",""trial"",""time""
""fullscreenenter"",""1"",""8094""
","
","","","","","","null","<div style=""font-size:60px;"">+</div>","null","","fixation","","",""
"memory-trial","100","281602","0.0-18.0-1.28","4656","approach_avoid_sv1","""event"",""trial"",""time""
""fullscreenenter"",""1"",""8094""
","
","
","""event"",""trial"",""time""
""fullscreenenter"",""1"",""8094""
","
","","","","","","945","images/plane6.png","","","memory_trial","1","definitely_old",""
"html-keyboard-response","101","282103","0.0-18.0-0.29","4656","approach_avoid_sv1","""event"",""trial"",""time""
""fullscreenenter"",""1"",""8094""
","
","
","""event"",""trial"",""time""
""fullscreenenter"",""1"",""8094""
","
","","","","","","null","<div style=""font-size:60px;"">+</div>","null","","fixation","","",""
"memory-trial","102","285697","0.0-18.0-1.29","4656","approach_avoid_sv1","""event"",""trial"",""time""
""fullscreenenter"",""1"",""8094""
","
","
","""event"",""trial"",""time""
""fullscreenenter"",""1"",""8094""
","
","","","","","","2592.999999999942","images/rabbit3.png","","","memory_trial","2","maybe_old",""
"html-keyboard-response","103","286199","0.0-18.0-0.30","4656","approach_avoid_sv1","""event"",""trial"",""time""
""fullscreenenter"",""1"",""8094""
","
","
","""event"",""trial"",""time""
""fullscreenenter"",""1"",""8094""
","
","","","","","","null","<div style=""font-size:60px;"">+</div>","null","","fixation","","",""
"memory-trial","104","288010","0.0-18.0-1.30","4656","approach_avoid_sv1","""event"",""trial"",""time""
""fullscreenenter"",""1"",""8094""
","
","
","""event"",""trial"",""time""
""fullscreenenter"",""1"",""8094""
","
","","","","","","809","images/dog6.png","","","memory_trial","1","definitely_old",""
"html-keyboard-response","105","288512","0.0-18.0-0.31","4656","approach_avoid_sv1","""event"",""trial"",""time""
""fullscreenenter"",""1"",""8094""
","
","
","""event"",""trial"",""time""
""fullscreenenter"",""1"",""8094""
","
","","","","","","null","<div style=""font-size:60px;"">+</div>","null","","fixation","","",""
"memory-trial","106","290274","0.0-18.0-1.31","4656","approach_avoid_sv1","""event"",""trial"",""time""
""fullscreenenter"",""1"",""8094""
","
","
","""event"",""trial"",""time""
""fullscreenenter"",""1"",""8094""
","
","","","","","","760","images/straw8.png","","","memory_trial","1","definitely_old",""
"html-keyboard-response","107","290776","0.0-18.0-0.32","4656","approach_avoid_sv1","""event"",""trial"",""time""
""fullscreenenter"",""1"",""8094""
","
","
","""event"",""trial"",""time""
""fullscreenenter"",""1"",""8094""
","
","","","","","","null","<div style=""font-size:60px;"">+</div>","null","","fixation","","",""
"memory-trial","108","292786","0.0-18.0-1.32","4656","approach_avoid_sv1","""event"",""trial"",""time""
""fullscreenenter"",""1"",""8094""
","
","
","""event"",""trial"",""time""
""fullscreenenter"",""1"",""8094""
","
","","","","","","1007.9999999999418","images/table4.png","","","memory_trial","1","definitely_old",""
"html-keyboard-response","109","293287","0.0-18.0-0.33","4656","approach_avoid_sv1","""event"",""trial"",""time""
""fullscreenenter"",""1"",""8094""
","
","
","""event"",""trial"",""time""
""fullscreenenter"",""1"",""8094""
","
","","","","","","null","<div style=""font-size:60px;"">+</div>","null","","fixation","","",""
"memory-trial","110","295522","0.0-18.0-1.33","4656","approach_avoid_sv1","""event"",""trial"",""time""
""fullscreenenter"",""1"",""8094""
","
","
","""event"",""trial"",""time""
""fullscreenenter"",""1"",""8094""
","
","","","","","","1231.9999999999418","images/orange5.png","","","memory_trial","4","definitely_new",""
"html-keyboard-response","111","296023","0.0-18.0-0.34","4656","approach_avoid_sv1","""event"",""trial"",""time""
""fullscreenenter"",""1"",""8094""
","
","
","""event"",""trial"",""time""
""fullscreenenter"",""1"",""8094""
","
","","","","","","null","<div style=""font-size:60px;"">+</div>","null","","fixation","","",""
"memory-trial","112","301089","0.0-18.0-1.34","4656","approach_avoid_sv1","""event"",""trial"",""time""
""fullscreenenter"",""1"",""8094""
","
","
","""event"",""trial"",""time""
""fullscreenenter"",""1"",""8094""
","
","","","","","","4064","images/cow3.png","","","memory_trial","1","definitely_old",""
"html-keyboard-response","113","301590","0.0-18.0-0.35","4656","approach_avoid_sv1","""event"",""trial"",""time""
""fullscreenenter"",""1"",""8094""
","
","
","""event"",""trial"",""time""
""fullscreenenter"",""1"",""8094""
","
","","","","","","null","<div style=""font-size:60px;"">+</div>","null","","fixation","","",""
"memory-trial","114","303353","0.0-18.0-1.35","4656","approach_avoid_sv1","""event"",""trial"",""time""
""fullscreenenter"",""1"",""8094""
","
","
","""event"",""trial"",""time""
""fullscreenenter"",""1"",""8094""
","
","","","","","","760.9999999999418","images/flower5.png","","","memory_trial","1","definitely_old",""
"html-keyboard-response","115","303854","0.0-18.0-0.36","4656","approach_avoid_sv1","""event"",""trial"",""time""
""fullscreenenter"",""1"",""8094""
","
","
","""event"",""trial"",""time""
""fullscreenenter"",""1"",""8094""
","
","","","","","","null","<div style=""font-size:60px;"">+</div>","null","","fixation","","",""
"memory-trial","116","306233","0.0-18.0-1.36","4656","approach_avoid_sv1","""event"",""trial"",""time""
""fullscreenenter"",""1"",""8094""
","
","
","""event"",""trial"",""time""
""fullscreenenter"",""1"",""8094""
","
","","","","","","1378","images/flower3.png","","","memory_trial","1","definitely_old",""
"html-keyboard-response","117","306735","0.0-18.0-0.37","4656","approach_avoid_sv1","""event"",""trial"",""time""
""fullscreenenter"",""1"",""8094""
","
","
","""event"",""trial"",""time""
""fullscreenenter"",""1"",""8094""
","
","","","","","","null","<div style=""font-size:60px;"">+</div>","null","","fixation","","",""
"memory-trial","118","310714","0.0-18.0-1.37","4656","approach_avoid_sv1","""event"",""trial"",""time""
""fullscreenenter"",""1"",""8094""
","
","
","""event"",""trial"",""time""
""fullscreenenter"",""1"",""8094""
","
","","","","","","2977","images/dog5.png","","","memory_trial","4","definitely_new",""
"html-keyboard-response","119","311215","0.0-18.0-0.38","4656","approach_avoid_sv1","""event"",""trial"",""time""
""fullscreenenter"",""1"",""8094""
","
","
","""event"",""trial"",""time""
""fullscreenenter"",""1"",""8094""
","
","","","","","","null","<div style=""font-size:60px;"">+</div>","null","","fixation","","",""
"memory-trial","120","312921","0.0-18.0-1.38","4656","approach_avoid_sv1","""event"",""trial"",""time""
""fullscreenenter"",""1"",""8094""
","
","
","""event"",""trial"",""time""
""fullscreenenter"",""1"",""8094""
","
","","","","","","705","images/cow1.png","","","memory_trial","1","definitely_old",""
"html-keyboard-response","121","313424","0.0-18.0-0.39","4656","approach_avoid_sv1","""event"",""trial"",""time""
""fullscreenenter"",""1"",""8094""
","
","
","""event"",""trial"",""time""
""fullscreenenter"",""1"",""8094""
","
","","","","","","null","<div style=""font-size:60px;"">+</div>","null","","fixation","","",""
"memory-trial","122","315856","0.0-18.0-1.39","4656","approach_avoid_sv1","""event"",""trial"",""time""
""fullscreenenter"",""1"",""8094""
","
","
","""event"",""trial"",""time""
""fullscreenenter"",""1"",""8094""
","
","","","","","","1430.9999999999418","images/rodent7.png","","","memory_trial","4","definitely_new",""
"html-keyboard-response","123","316358","0.0-18.0-0.40","4656","approach_avoid_sv1","""event"",""trial"",""time""
""fullscreenenter"",""1"",""8094""
","
","
","""event"",""trial"",""time""
""fullscreenenter"",""1"",""8094""
","
","","","","","","null","<div style=""font-size:60px;"">+</div>","null","","fixation","","",""
"memory-trial","124","318121","0.0-18.0-1.40","4656","approach_avoid_sv1","""event"",""trial"",""time""
""fullscreenenter"",""1"",""8094""
","
","
","""event"",""trial"",""time""
""fullscreenenter"",""1"",""8094""
","
","","","","","","761","images/table6.png","","","memory_trial","1","definitely_old",""
"html-keyboard-response","125","318623","0.0-18.0-0.41","4656","approach_avoid_sv1","""event"",""trial"",""time""
""fullscreenenter"",""1"",""8094""
","
","
","""event"",""trial"",""time""
""fullscreenenter"",""1"",""8094""
","
","","","","","","null","<div style=""font-size:60px;"">+</div>","null","","fixation","","",""
"memory-trial","126","320449","0.0-18.0-1.41","4656","approach_avoid_sv1","""event"",""trial"",""time""
""fullscreenenter"",""1"",""8094""
","
","
","""event"",""trial"",""time""
""fullscreenenter"",""1"",""8094""
","
","","","","","","824","images/orange6.png","","","memory_trial","4","definitely_new",""
"html-button-response","127","323063","0.0-18.0-2.41-0.41","4656","approach_avoid_sv1","""event"",""trial"",""time""
""fullscreenenter"",""1"",""8094""
","
","
","""event"",""trial"",""time""
""fullscreenenter"",""1"",""8094""
","
","","","","","","2613","<p> Take a break! </p><p> Click the button to continue. </p>","0","","break","","",""
"html-keyboard-response","128","323563","0.0-18.0-0.42","4656","approach_avoid_sv1","""event"",""trial"",""time""
""fullscreenenter"",""1"",""8094""
","
","
","""event"",""trial"",""time""
""fullscreenenter"",""1"",""8094""
","
","","","","","","null","<div style=""font-size:60px;"">+</div>","null","","fixation","","",""
"memory-trial","129","325274","0.0-18.0-1.42","4656","approach_avoid_sv1","""event"",""trial"",""time""
""fullscreenenter"",""1"",""8094""
","
","
","""event"",""trial"",""time""
""fullscreenenter"",""1"",""8094""
","
","","","","","","709","images/orange8.png","","","memory_trial","4","definitely_new",""
"html-keyboard-response","130","325775","0.0-18.0-0.43","4656","approach_avoid_sv1","""event"",""trial"",""time""
""fullscreenenter"",""1"",""8094""
","
","
","""event"",""trial"",""time""
""fullscreenenter"",""1"",""8094""
","
","","","","","","null","<div style=""font-size:60px;"">+</div>","null","","fixation","","",""
"memory-trial","131","328001","0.0-18.0-1.43","4656","approach_avoid_sv1","""event"",""trial"",""time""
""fullscreenenter"",""1"",""8094""
","
","
","""event"",""trial"",""time""
""fullscreenenter"",""1"",""8094""
","
","","","","","","1223.9999999999418","images/apple4.png","","","memory_trial","4","definitely_new",""
"html-keyboard-response","132","328502","0.0-18.0-0.44","4656","approach_avoid_sv1","""event"",""trial"",""time""
""fullscreenenter"",""1"",""8094""
","
","
","""event"",""trial"",""time""
""fullscreenenter"",""1"",""8094""
","
","","","","","","null","<div style=""font-size:60px;"">+</div>","null","","fixation","","",""
"memory-trial","133","330585","0.0-18.0-1.44","4656","approach_avoid_sv1","""event"",""trial"",""time""
""fullscreenenter"",""1"",""8094""
","
","
","""event"",""trial"",""time""
""fullscreenenter"",""1"",""8094""
","
","","","","","","1080","images/cat6.png","","","memory_trial","2","maybe_old",""
"html-keyboard-response","134","331086","0.0-18.0-0.45","4656","approach_avoid_sv1","""event"",""trial"",""time""
""fullscreenenter"",""1"",""8094""
","
","
","""event"",""trial"",""time""
""fullscreenenter"",""1"",""8094""
","
","","","","","","null","<div style=""font-size:60px;"">+</div>","null","","fixation","","",""
"memory-trial","135","333202","0.0-18.0-1.45","4656","approach_avoid_sv1","""event"",""trial"",""time""
""fullscreenenter"",""1"",""8094""
","
","
","""event"",""trial"",""time""
""fullscreenenter"",""1"",""8094""
","
","","","","","","1113","images/sheep6.png","","","memory_trial","2","maybe_old",""
"html-keyboard-response","136","333703","0.0-18.0-0.46","4656","approach_avoid_sv1","""event"",""trial"",""time""
""fullscreenenter"",""1"",""8094""
","
","
","""event"",""trial"",""time""
""fullscreenenter"",""1"",""8094""
","
","","","","","","null","<div style=""font-size:60px;"">+</div>","null","","fixation","","",""
"memory-trial","137","335697","0.0-18.0-1.46","4656","approach_avoid_sv1","""event"",""trial"",""time""
""fullscreenenter"",""1"",""8094""
","
","
","""event"",""trial"",""time""
""fullscreenenter"",""1"",""8094""
","
","","","","","","991.9999999999418","images/rabbit2.png","","","memory_trial","1","definitely_old",""
"html-keyboard-response","138","336199","0.0-18.0-0.47","4656","approach_avoid_sv1","""event"",""trial"",""time""
""fullscreenenter"",""1"",""8094""
","
","
","""event"",""trial"",""time""
""fullscreenenter"",""1"",""8094""
","
","","","","","","null","<div style=""font-size:60px;"">+</div>","null","","fixation","","",""
"memory-trial","139","338585","0.0-18.0-1.47","4656","approach_avoid_sv1","""event"",""trial"",""time""
""fullscreenenter"",""1"",""8094""
","
","
","""event"",""trial"",""time""
""fullscreenenter"",""1"",""8094""
","
","","","","","","1384","images/tree5.png","","","memory_trial","4","definitely_new",""
"html-keyboard-response","140","339086","0.0-18.0-0.48","4656","approach_avoid_sv1","""event"",""trial"",""time""
""fullscreenenter"",""1"",""8094""
","
","
","""event"",""trial"",""time""
""fullscreenenter"",""1"",""8094""
","
","","","","","","null","<div style=""font-size:60px;"">+</div>","null","","fixation","","",""
"memory-trial","141","340841","0.0-18.0-1.48","4656","approach_avoid_sv1","""event"",""trial"",""time""
""fullscreenenter"",""1"",""8094""
","
","
","""event"",""trial"",""time""
""fullscreenenter"",""1"",""8094""
","
","","","","","","753","images/boat1.png","","","memory_trial","1","definitely_old",""
"html-keyboard-response","142","341342","0.0-18.0-0.49","4656","approach_avoid_sv1","""event"",""trial"",""time""
""fullscreenenter"",""1"",""8094""
","
","
","""event"",""trial"",""time""
""fullscreenenter"",""1"",""8094""
","
","","","","","","null","<div style=""font-size:60px;"">+</div>","null","","fixation","","",""
"memory-trial","143","343544","0.0-18.0-1.49","4656","approach_avoid_sv1","""event"",""trial"",""time""
""fullscreenenter"",""1"",""8094""
","
","
","""event"",""trial"",""time""
""fullscreenenter"",""1"",""8094""
","
","","","","","","1201","images/train7.png","","","memory_trial","4","definitely_new",""
"html-keyboard-response","144","344046","0.0-18.0-0.50","4656","approach_avoid_sv1","""event"",""trial"",""time""
""fullscreenenter"",""1"",""8094""
","
","
","""event"",""trial"",""time""
""fullscreenenter"",""1"",""8094""
","
","","","","","","null","<div style=""font-size:60px;"">+</div>","null","","fixation","","",""
"memory-trial","145","345729","0.0-18.0-1.50","4656","approach_avoid_sv1","""event"",""trial"",""time""
""fullscreenenter"",""1"",""8094""
","
","
","""event"",""trial"",""time""
""fullscreenenter"",""1"",""8094""
","
","","","","","","681.0000000000582","images/table3.png","","","memory_trial","1","definitely_old",""
"html-keyboard-response","146","346230","0.0-18.0-0.51","4656","approach_avoid_sv1","""event"",""trial"",""time""
""fullscreenenter"",""1"",""8094""
","
","
","""event"",""trial"",""time""
""fullscreenenter"",""1"",""8094""
","
","","","","","","null","<div style=""font-size:60px;"">+</div>","null","","fixation","","",""
"memory-trial","147","348097","0.0-18.0-1.51","4656","approach_avoid_sv1","""event"",""trial"",""time""
""fullscreenenter"",""1"",""8094""
","
","
","""event"",""trial"",""time""
""fullscreenenter"",""1"",""8094""
","
","","","","","","865","images/banana6.png","","","memory_trial","1","definitely_old",""
"html-keyboard-response","148","348597","0.0-18.0-0.52","4656","approach_avoid_sv1","""event"",""trial"",""time""
""fullscreenenter"",""1"",""8094""
","
","
","""event"",""trial"",""time""
""fullscreenenter"",""1"",""8094""
","
","","","","","","null","<div style=""font-size:60px;"">+</div>","null","","fixation","","",""
"memory-trial","149","350768","0.0-18.0-1.52","4656","approach_avoid_sv1","""event"",""trial"",""time""
""fullscreenenter"",""1"",""8094""
","
","
","""event"",""trial"",""time""
""fullscreenenter"",""1"",""8094""
","
","","","","","","1169","images/truck3.png","","","memory_trial","1","definitely_old",""
"html-keyboard-response","150","351270","0.0-18.0-0.53","4656","approach_avoid_sv1","""event"",""trial"",""time""
""fullscreenenter"",""1"",""8094""
","
","
","""event"",""trial"",""time""
""fullscreenenter"",""1"",""8094""
","
","","","","","","null","<div style=""font-size:60px;"">+</div>","null","","fixation","","",""
"memory-trial","151","353761","0.0-18.0-1.53","4656","approach_avoid_sv1","""event"",""trial"",""time""
""fullscreenenter"",""1"",""8094""
","
","
","""event"",""trial"",""time""
""fullscreenenter"",""1"",""8094""
","
","","","","","","1489","images/chair2.png","","","memory_trial","3","maybe_new",""
"html-keyboard-response","152","354262","0.0-18.0-0.54","4656","approach_avoid_sv1","""event"",""trial"",""time""
""fullscreenenter"",""1"",""8094""
","
","
","""event"",""trial"",""time""
""fullscreenenter"",""1"",""8094""
","
","","","","","","null","<div style=""font-size:60px;"">+</div>","null","","fixation","","",""
"memory-trial","153","356208","0.0-18.0-1.54","4656","approach_avoid_sv1","""event"",""trial"",""time""
""fullscreenenter"",""1"",""8094""
","
","
","""event"",""trial"",""time""
""fullscreenenter"",""1"",""8094""
","
","","","","","","945","images/sofa8.png","","","memory_trial","1","definitely_old",""
"html-keyboard-response","154","356709","0.0-18.0-0.55","4656","approach_avoid_sv1","""event"",""trial"",""time""
""fullscreenenter"",""1"",""8094""
","
","
","""event"",""trial"",""time""
""fullscreenenter"",""1"",""8094""
","
","","","","","","null","<div style=""font-size:60px;"">+</div>","null","","fixation","","",""
"memory-trial","155","358969","0.0-18.0-1.55","4656","approach_avoid_sv1","""event"",""trial"",""time""
""fullscreenenter"",""1"",""8094""
","
","
","""event"",""trial"",""time""
""fullscreenenter"",""1"",""8094""
","
","","","","","","1256.9999999999418","images/bush4.png","","","memory_trial","4","definitely_new",""
"html-keyboard-response","156","359470","0.0-18.0-0.56","4656","approach_avoid_sv1","""event"",""trial"",""time""
""fullscreenenter"",""1"",""8094""
","
","
","""event"",""trial"",""time""
""fullscreenenter"",""1"",""8094""
","
","","","","","","null","<div style=""font-size:60px;"">+</div>","null","","fixation","","",""
"memory-trial","157","361080","0.0-18.0-1.56","4656","approach_avoid_sv1","""event"",""trial"",""time""
""fullscreenenter"",""1"",""8094""
","
","
","""event"",""trial"",""time""
""fullscreenenter"",""1"",""8094""
","
","","","","","","609","images/flower8.png","","","memory_trial","1","definitely_old",""
"html-keyboard-response","158","361582","0.0-18.0-0.57","4656","approach_avoid_sv1","""event"",""trial"",""time""
""fullscreenenter"",""1"",""8094""
","
","
","""event"",""trial"",""time""
""fullscreenenter"",""1"",""8094""
","
","","","","","","null","<div style=""font-size:60px;"">+</div>","null","","fixation","","",""
"memory-trial","159","363504","0.0-18.0-1.57","4656","approach_avoid_sv1","""event"",""trial"",""time""
""fullscreenenter"",""1"",""8094""
","
","
","""event"",""trial"",""time""
""fullscreenenter"",""1"",""8094""
","
","","","","","","920","images/boat4.png","","","memory_trial","1","definitely_old",""
"html-keyboard-response","160","364005","0.0-18.0-0.58","4656","approach_avoid_sv1","""event"",""trial"",""time""
""fullscreenenter"",""1"",""8094""
","
","
","""event"",""trial"",""time""
""fullscreenenter"",""1"",""8094""
","
","","","","","","null","<div style=""font-size:60px;"">+</div>","null","","fixation","","",""
"memory-trial","161","366289","0.0-18.0-1.58","4656","approach_avoid_sv1","""event"",""trial"",""time""
""fullscreenenter"",""1"",""8094""
","
","
","""event"",""trial"",""time""
""fullscreenenter"",""1"",""8094""
","
","","","","","","1282","images/rodent3.png","","","memory_trial","4","definitely_new",""
"html-keyboard-response","162","366790","0.0-18.0-0.59","4656","approach_avoid_sv1","""event"",""trial"",""time""
""fullscreenenter"",""1"",""8094""
","
","
","""event"",""trial"",""time""
""fullscreenenter"",""1"",""8094""
","
","","","","","","null","<div style=""font-size:60px;"">+</div>","null","","fixation","","",""
"memory-trial","163","369480","0.0-18.0-1.59","4656","approach_avoid_sv1","""event"",""trial"",""time""
""fullscreenenter"",""1"",""8094""
","
","
","""event"",""trial"",""time""
""fullscreenenter"",""1"",""8094""
","
","","","","","","1688","images/rodent5.png","","","memory_trial","2","maybe_old",""
"html-keyboard-response","164","369982","0.0-18.0-0.60","4656","approach_avoid_sv1","""event"",""trial"",""time""
""fullscreenenter"",""1"",""8094""
","
","
","""event"",""trial"",""time""
""fullscreenenter"",""1"",""8094""
","
","","","","","","null","<div style=""font-size:60px;"">+</div>","null","","fixation","","",""
"memory-trial","165","372209","0.0-18.0-1.60","4656","approach_avoid_sv1","""event"",""trial"",""time""
""fullscreenenter"",""1"",""8094""
","
","
","""event"",""trial"",""time""
""fullscreenenter"",""1"",""8094""
","
","","","","","","1224","images/flower4.png","","","memory_trial","3","maybe_new",""
"html-keyboard-response","166","372710","0.0-18.0-0.61","4656","approach_avoid_sv1","""event"",""trial"",""time""
""fullscreenenter"",""1"",""8094""
","
","
","""event"",""trial"",""time""
""fullscreenenter"",""1"",""8094""
","
","","","","","","null","<div style=""font-size:60px;"">+</div>","null","","fixation","","",""
"memory-trial","167","375944","0.0-18.0-1.61","4656","approach_avoid_sv1","""event"",""trial"",""time""
""fullscreenenter"",""1"",""8094""
","
","
","""event"",""trial"",""time""
""fullscreenenter"",""1"",""8094""
","
","","","","","","2232","images/straw7.png","","","memory_trial","3","maybe_new",""
"html-keyboard-response","168","376445","0.0-18.0-0.62","4656","approach_avoid_sv1","""event"",""trial"",""time""
""fullscreenenter"",""1"",""8094""
","
","
","""event"",""trial"",""time""
""fullscreenenter"",""1"",""8094""
","
","","","","","","null","<div style=""font-size:60px;"">+</div>","null","","fixation","","",""
"memory-trial","169","378016","0.0-18.0-1.62","4656","approach_avoid_sv1","""event"",""trial"",""time""
""fullscreenenter"",""1"",""8094""
","
","
","""event"",""trial"",""time""
""fullscreenenter"",""1"",""8094""
","
","","","","","","569","images/sofa4.png","","","memory_trial","1","definitely_old",""
"html-keyboard-response","170","378517","0.0-18.0-0.63","4656","approach_avoid_sv1","""event"",""trial"",""time""
""fullscreenenter"",""1"",""8094""
","
","
","""event"",""trial"",""time""
""fullscreenenter"",""1"",""8094""
","
","","","","","","null","<div style=""font-size:60px;"">+</div>","null","","fixation","","",""
"memory-trial","171","380616","0.0-18.0-1.63","4656","approach_avoid_sv1","""event"",""trial"",""time""
""fullscreenenter"",""1"",""8094""
","
","
","""event"",""trial"",""time""
""fullscreenenter"",""1"",""8094""
","
","","","","","","1098","images/cactus5.png","","","memory_trial","3","maybe_new",""
"html-keyboard-response","172","381117","0.0-18.0-0.64","4656","approach_avoid_sv1","""event"",""trial"",""time""
""fullscreenenter"",""1"",""8094""
","
","
","""event"",""trial"",""time""
""fullscreenenter"",""1"",""8094""
","
","","","","","","null","<div style=""font-size:60px;"">+</div>","null","","fixation","","",""
"memory-trial","173","383112","0.0-18.0-1.64","4656","approach_avoid_sv1","""event"",""trial"",""time""
""fullscreenenter"",""1"",""8094""
","
","
","""event"",""trial"",""time""
""fullscreenenter"",""1"",""8094""
","
","","","","","","993","images/goat3.png","","","memory_trial","1","definitely_old",""
"html-keyboard-response","174","383613","0.0-18.0-0.65","4656","approach_avoid_sv1","""event"",""trial"",""time""
""fullscreenenter"",""1"",""8094""
","
","
","""event"",""trial"",""time""
""fullscreenenter"",""1"",""8094""
","
","","","","","","null","<div style=""font-size:60px;"">+</div>","null","","fixation","","",""
"memory-trial","175","385344","0.0-18.0-1.65","4656","approach_avoid_sv1","""event"",""trial"",""time""
""fullscreenenter"",""1"",""8094""
","
","
","""event"",""trial"",""time""
""fullscreenenter"",""1"",""8094""
","
","","","","","","728.9999999999418","images/boat7.png","","","memory_trial","1","definitely_old",""
"html-keyboard-response","176","385846","0.0-18.0-0.66","4656","approach_avoid_sv1","""event"",""trial"",""time""
""fullscreenenter"",""1"",""8094""
","
","
","""event"",""trial"",""time""
""fullscreenenter"",""1"",""8094""
","
","","","","","","null","<div style=""font-size:60px;"">+</div>","null","","fixation","","",""
"memory-trial","177","388752","0.0-18.0-1.66","4656","approach_avoid_sv1","""event"",""trial"",""time""
""fullscreenenter"",""1"",""8094""
","
","
","""event"",""trial"",""time""
""fullscreenenter"",""1"",""8094""
","
","","","","","","1904","images/sheep3.png","","","memory_trial","4","definitely_new",""
"html-keyboard-response","178","389253","0.0-18.0-0.67","4656","approach_avoid_sv1","""event"",""trial"",""time""
""fullscreenenter"",""1"",""8094""
","
","
","""event"",""trial"",""time""
""fullscreenenter"",""1"",""8094""
","
","","","","","","null","<div style=""font-size:60px;"">+</div>","null","","fixation","","",""
"memory-trial","179","392239","0.0-18.0-1.67","4656","approach_avoid_sv1","""event"",""trial"",""time""
""fullscreenenter"",""1"",""8094""
","
","
","""event"",""trial"",""time""
""fullscreenenter"",""1"",""8094""
","
","","","","","","1985.0000000000582","images/cat1.png","","","memory_trial","3","maybe_new",""
"html-keyboard-response","180","392740","0.0-18.0-0.68","4656","approach_avoid_sv1","""event"",""trial"",""time""
""fullscreenenter"",""1"",""8094""
","
","
","""event"",""trial"",""time""
""fullscreenenter"",""1"",""8094""
","
","","","","","","null","<div style=""font-size:60px;"">+</div>","null","","fixation","","",""
"memory-trial","181","396312","0.0-18.0-1.68","4656","approach_avoid_sv1","""event"",""trial"",""time""
""fullscreenenter"",""1"",""8094""
","
","
","""event"",""trial"",""time""
""fullscreenenter"",""1"",""8094""
","
","","","","","","2570.000000000058","images/apple8.png","","","memory_trial","2","maybe_old",""
"html-keyboard-response","182","396813","0.0-18.0-0.69","4656","approach_avoid_sv1","""event"",""trial"",""time""
""fullscreenenter"",""1"",""8094""
","
","
","""event"",""trial"",""time""
""fullscreenenter"",""1"",""8094""
","
","","","","","","null","<div style=""font-size:60px;"">+</div>","null","","fixation","","",""
"memory-trial","183","399448","0.0-18.0-1.69","4656","approach_avoid_sv1","""event"",""trial"",""time""
""fullscreenenter"",""1"",""8094""
","
","
","""event"",""trial"",""time""
""fullscreenenter"",""1"",""8094""
","
","","","","","","1633.0000000000582","images/train2.png","","","memory_trial","4","definitely_new",""
"html-keyboard-response","184","399949","0.0-18.0-0.70","4656","approach_avoid_sv1","""event"",""trial"",""time""
""fullscreenenter"",""1"",""8094""
","
","
","""event"",""trial"",""time""
""fullscreenenter"",""1"",""8094""
","
","","","","","","null","<div style=""font-size:60px;"">+</div>","null","","fixation","","",""
"memory-trial","185","401720","0.0-18.0-1.70","4656","approach_avoid_sv1","""event"",""trial"",""time""
""fullscreenenter"",""1"",""8094""
","
","
","""event"",""trial"",""time""
""fullscreenenter"",""1"",""8094""
","
","","","","","","768","images/bed5.png","","","memory_trial","1","definitely_old",""
"html-keyboard-response","186","402222","0.0-18.0-0.71","4656","approach_avoid_sv1","""event"",""trial"",""time""
""fullscreenenter"",""1"",""8094""
","
","
","""event"",""trial"",""time""
""fullscreenenter"",""1"",""8094""
","
","","","","","","null","<div style=""font-size:60px;"">+</div>","null","","fixation","","",""
"memory-trial","187","404672","0.0-18.0-1.71","4656","approach_avoid_sv1","""event"",""trial"",""time""
""fullscreenenter"",""1"",""8094""
","
","
","""event"",""trial"",""time""
""fullscreenenter"",""1"",""8094""
","
","","","","","","1447","images/cat5.png","","","memory_trial","4","definitely_new",""
"html-keyboard-response","188","405173","0.0-18.0-0.72","4656","approach_avoid_sv1","""event"",""trial"",""time""
""fullscreenenter"",""1"",""8094""
","
","
","""event"",""trial"",""time""
""fullscreenenter"",""1"",""8094""
","
","","","","","","null","<div style=""font-size:60px;"">+</div>","null","","fixation","","",""
"memory-trial","189","408223","0.0-18.0-1.72","4656","approach_avoid_sv1","""event"",""trial"",""time""
""fullscreenenter"",""1"",""8094""
","
","
","""event"",""trial"",""time""
""fullscreenenter"",""1"",""8094""
","
","","","","","","2048.999999999942","images/apple6.png","","","memory_trial","3","maybe_new",""
"html-keyboard-response","190","408724","0.0-18.0-0.73","4656","approach_avoid_sv1","""event"",""trial"",""time""
""fullscreenenter"",""1"",""8094""
","
","
","""event"",""trial"",""time""
""fullscreenenter"",""1"",""8094""
","
","","","","","","null","<div style=""font-size:60px;"">+</div>","null","","fixation","","",""
"memory-trial","191","410712","0.0-18.0-1.73","4656","approach_avoid_sv1","""event"",""trial"",""time""
""fullscreenenter"",""1"",""8094""
","
","
","""event"",""trial"",""time""
""fullscreenenter"",""1"",""8094""
","
","","","","","","986","images/cactus8.png","","","memory_trial","3","maybe_new",""
"html-keyboard-response","192","411212","0.0-18.0-0.74","4656","approach_avoid_sv1","""event"",""trial"",""time""
""fullscreenenter"",""1"",""8094""
","
","
","""event"",""trial"",""time""
""fullscreenenter"",""1"",""8094""
","
","","","","","","null","<div style=""font-size:60px;"">+</div>","null","","fixation","","",""
"memory-trial","193","413879","0.0-18.0-1.74","4656","approach_avoid_sv1","""event"",""trial"",""time""
""fullscreenenter"",""1"",""8094""
","
","
","""event"",""trial"",""time""
""fullscreenenter"",""1"",""8094""
","
","","","","","","1665","images/bush1.png","","","memory_trial","1","definitely_old",""
"html-keyboard-response","194","414380","0.0-18.0-0.75","4656","approach_avoid_sv1","""event"",""trial"",""time""
""fullscreenenter"",""1"",""8094""
","
","
","""event"",""trial"",""time""
""fullscreenenter"",""1"",""8094""
","
","","","","","","null","<div style=""font-size:60px;"">+</div>","null","","fixation","","",""
"memory-trial","195","416263","0.0-18.0-1.75","4656","approach_avoid_sv1","""event"",""trial"",""time""
""fullscreenenter"",""1"",""8094""
","
","
","""event"",""trial"",""time""
""fullscreenenter"",""1"",""8094""
","
","","","","","","881.0000000000582","images/bush3.png","","","memory_trial","1","definitely_old",""
"html-keyboard-response","196","416764","0.0-18.0-0.76","4656","approach_avoid_sv1","""event"",""trial"",""time""
""fullscreenenter"",""1"",""8094""
","
","
","""event"",""trial"",""time""
""fullscreenenter"",""1"",""8094""
","
","","","","","","null","<div style=""font-size:60px;"">+</div>","null","","fixation","","",""
"memory-trial","197","418815","0.0-18.0-1.76","4656","approach_avoid_sv1","""event"",""trial"",""time""
""fullscreenenter"",""1"",""8094""
","
","
","""event"",""trial"",""time""
""fullscreenenter"",""1"",""8094""
","
","","","","","","1050","images/sofa1.png","","","memory_trial","1","definitely_old",""
"html-keyboard-response","198","419316","0.0-18.0-0.77","4656","approach_avoid_sv1","""event"",""trial"",""time""
""fullscreenenter"",""1"",""8094""
","
","
","""event"",""trial"",""time""
""fullscreenenter"",""1"",""8094""
","
","","","","","","null","<div style=""font-size:60px;"">+</div>","null","","fixation","","",""
"memory-trial","199","421312","0.0-18.0-1.77","4656","approach_avoid_sv1","""event"",""trial"",""time""
""fullscreenenter"",""1"",""8094""
","
","
","""event"",""trial"",""time""
""fullscreenenter"",""1"",""8094""
","
","","","","","","993.0000000000582","images/train5.png","","","memory_trial","4","definitely_new",""
"html-keyboard-response","200","421813","0.0-18.0-0.78","4656","approach_avoid_sv1","""event"",""trial"",""time""
""fullscreenenter"",""1"",""8094""
","
","
","""event"",""trial"",""time""
""fullscreenenter"",""1"",""8094""
","
","","","","","","null","<div style=""font-size:60px;"">+</div>","null","","fixation","","",""
"memory-trial","201","423799","0.0-18.0-1.78","4656","approach_avoid_sv1","""event"",""trial"",""time""
""fullscreenenter"",""1"",""8094""
","
","
","""event"",""trial"",""time""
""fullscreenenter"",""1"",""8094""
","
","","","","","","983.9999999999418","images/truck8.png","","","memory_trial","1","definitely_old",""
"html-keyboard-response","202","424300","0.0-18.0-0.79","4656","approach_avoid_sv1","""event"",""trial"",""time""
""fullscreenenter"",""1"",""8094""
","
","
","""event"",""trial"",""time""
""fullscreenenter"",""1"",""8094""
","
","","","","","","null","<div style=""font-size:60px;"">+</div>","null","","fixation","","",""
"memory-trial","203","426080","0.0-18.0-1.79","4656","approach_avoid_sv1","""event"",""trial"",""time""
""fullscreenenter"",""1"",""8094""
","
","
","""event"",""trial"",""time""
""fullscreenenter"",""1"",""8094""
","
","","","","","","777","images/truck6.png","","","memory_trial","1","definitely_old",""
"html-keyboard-response","204","426581","0.0-18.0-0.80","4656","approach_avoid_sv1","""event"",""trial"",""time""
""fullscreenenter"",""1"",""8094""
","
","
","""event"",""trial"",""time""
""fullscreenenter"",""1"",""8094""
","
","","","","","","null","<div style=""font-size:60px;"">+</div>","null","","fixation","","",""
"memory-trial","205","428359","0.0-18.0-1.80","4656","approach_avoid_sv1","""event"",""trial"",""time""
""fullscreenenter"",""1"",""8094""
","
","
","""event"",""trial"",""time""
""fullscreenenter"",""1"",""8094""
","
","","","","","","776.0000000000582","images/dog8.png","","","memory_trial","1","definitely_old",""
"html-keyboard-response","206","428861","0.0-18.0-0.81","4656","approach_avoid_sv1","""event"",""trial"",""time""
""fullscreenenter"",""1"",""8094""
","
","
","""event"",""trial"",""time""
""fullscreenenter"",""1"",""8094""
","
","","","","","","null","<div style=""font-size:60px;"">+</div>","null","","fixation","","",""
"memory-trial","207","430631","0.0-18.0-1.81","4656","approach_avoid_sv1","""event"",""trial"",""time""
""fullscreenenter"",""1"",""8094""
","
","
","""event"",""trial"",""time""
""fullscreenenter"",""1"",""8094""
","
","","","","","","768","images/flower2.png","","","memory_trial","1","definitely_old",""
"html-keyboard-response","208","431133","0.0-18.0-0.82","4656","approach_avoid_sv1","""event"",""trial"",""time""
""fullscreenenter"",""1"",""8094""
","
","
","""event"",""trial"",""time""
""fullscreenenter"",""1"",""8094""
","
","","","","","","null","<div style=""font-size:60px;"">+</div>","null","","fixation","","",""
"memory-trial","209","433094","0.0-18.0-1.82","4656","approach_avoid_sv1","""event"",""trial"",""time""
""fullscreenenter"",""1"",""8094""
","
","
","""event"",""trial"",""time""
""fullscreenenter"",""1"",""8094""
","
","","","","","","960","images/goat2.png","","","memory_trial","1","definitely_old",""
"html-keyboard-response","210","433595","0.0-18.0-0.83","4656","approach_avoid_sv1","""event"",""trial"",""time""
""fullscreenenter"",""1"",""8094""
","
","
","""event"",""trial"",""time""
""fullscreenenter"",""1"",""8094""
","
","","","","","","null","<div style=""font-size:60px;"">+</div>","null","","fixation","","",""
"memory-trial","211","435375","0.0-18.0-1.83","4656","approach_avoid_sv1","""event"",""trial"",""time""
""fullscreenenter"",""1"",""8094""
","
","
","""event"",""trial"",""time""
""fullscreenenter"",""1"",""8094""
","
","","","","","","777.9999999999418","images/plane8.png","","","memory_trial","1","definitely_old",""
"html-keyboard-response","212","435876","0.0-18.0-0.84","4656","approach_avoid_sv1","""event"",""trial"",""time""
""fullscreenenter"",""1"",""8094""
","
","
","""event"",""trial"",""time""
""fullscreenenter"",""1"",""8094""
","
","","","","","","null","<div style=""font-size:60px;"">+</div>","null","","fixation","","",""
"memory-trial","213","437662","0.0-18.0-1.84","4656","approach_avoid_sv1","""event"",""trial"",""time""
""fullscreenenter"",""1"",""8094""
","
","
","""event"",""trial"",""time""
""fullscreenenter"",""1"",""8094""
","
","","","","","","785","images/straw4.png","","","memory_trial","1","definitely_old",""
"html-keyboard-response","214","438163","0.0-18.0-0.85","4656","approach_avoid_sv1","""event"",""trial"",""time""
""fullscreenenter"",""1"",""8094""
","
","
","""event"",""trial"",""time""
""fullscreenenter"",""1"",""8094""
","
","","","","","","null","<div style=""font-size:60px;"">+</div>","null","","fixation","","",""
"memory-trial","215","439959","0.0-18.0-1.85","4656","approach_avoid_sv1","""event"",""trial"",""time""
""fullscreenenter"",""1"",""8094""
","
","
","""event"",""trial"",""time""
""fullscreenenter"",""1"",""8094""
","
","","","","","","794","images/banana5.png","","","memory_trial","1","definitely_old",""
"html-keyboard-response","216","440460","0.0-18.0-0.86","4656","approach_avoid_sv1","""event"",""trial"",""time""
""fullscreenenter"",""1"",""8094""
","
","
","""event"",""trial"",""time""
""fullscreenenter"",""1"",""8094""
","
","","","","","","null","<div style=""font-size:60px;"">+</div>","null","","fixation","","",""
"memory-trial","217","442327","0.0-18.0-1.86","4656","approach_avoid_sv1","""event"",""trial"",""time""
""fullscreenenter"",""1"",""8094""
","
","
","""event"",""trial"",""time""
""fullscreenenter"",""1"",""8094""
","
","","","","","","865","images/chair1.png","","","memory_trial","1","definitely_old",""
"html-keyboard-response","218","442829","0.0-18.0-0.87","4656","approach_avoid_sv1","""event"",""trial"",""time""
""fullscreenenter"",""1"",""8094""
","
","
","""event"",""trial"",""time""
""fullscreenenter"",""1"",""8094""
","
","","","","","","null","<div style=""font-size:60px;"">+</div>","null","","fixation","","",""
"memory-trial","219","444423","0.0-18.0-1.87","4656","approach_avoid_sv1","""event"",""trial"",""time""
""fullscreenenter"",""1"",""8094""
","
","
","""event"",""trial"",""time""
""fullscreenenter"",""1"",""8094""
","
","","","","","","592","images/rabbit8.png","","","memory_trial","1","definitely_old",""
"html-keyboard-response","220","444924","0.0-18.0-0.88","4656","approach_avoid_sv1","""event"",""trial"",""time""
""fullscreenenter"",""1"",""8094""
","
","
","""event"",""trial"",""time""
""fullscreenenter"",""1"",""8094""
","
","","","","","","null","<div style=""font-size:60px;"">+</div>","null","","fixation","","",""
"memory-trial","221","446647","0.0-18.0-1.88","4656","approach_avoid_sv1","""event"",""trial"",""time""
""fullscreenenter"",""1"",""8094""
","
","
","""event"",""trial"",""time""
""fullscreenenter"",""1"",""8094""
","
","","","","","","721","images/chair8.png","","","memory_trial","1","definitely_old",""
"html-keyboard-response","222","447148","0.0-18.0-0.89","4656","approach_avoid_sv1","""event"",""trial"",""time""
""fullscreenenter"",""1"",""8094""
","
","
","""event"",""trial"",""time""
""fullscreenenter"",""1"",""8094""
","
","","","","","","null","<div style=""font-size:60px;"">+</div>","null","","fixation","","",""
"memory-trial","223","448911","0.0-18.0-1.89","4656","approach_avoid_sv1","""event"",""trial"",""time""
""fullscreenenter"",""1"",""8094""
","
","
","""event"",""trial"",""time""
""fullscreenenter"",""1"",""8094""
","
","","","","","","760.9999999999418","images/truck2.png","","","memory_trial","1","definitely_old",""
"html-keyboard-response","224","449413","0.0-18.0-0.90","4656","approach_avoid_sv1","""event"",""trial"",""time""
""fullscreenenter"",""1"",""8094""
","
","
","""event"",""trial"",""time""
""fullscreenenter"",""1"",""8094""
","
","","","","","","null","<div style=""font-size:60px;"">+</div>","null","","fixation","","",""
"memory-trial","225","451455","0.0-18.0-1.90","4656","approach_avoid_sv1","""event"",""trial"",""time""
""fullscreenenter"",""1"",""8094""
","
","
","""event"",""trial"",""time""
""fullscreenenter"",""1"",""8094""
","
","","","","","","1040","images/cactus4.png","","","memory_trial","1","definitely_old",""
"html-keyboard-response","226","451956","0.0-18.0-0.91","4656","approach_avoid_sv1","""event"",""trial"",""time""
""fullscreenenter"",""1"",""8094""
","
","
","""event"",""trial"",""time""
""fullscreenenter"",""1"",""8094""
","
","","","","","","null","<div style=""font-size:60px;"">+</div>","null","","fixation","","",""
"memory-trial","227","453726","0.0-18.0-1.91","4656","approach_avoid_sv1","""event"",""trial"",""time""
""fullscreenenter"",""1"",""8094""
","
","
","""event"",""trial"",""time""
""fullscreenenter"",""1"",""8094""
","
","","","","","","769.0000000000582","images/plane7.png","","","memory_trial","1","definitely_old",""
"html-button-response","228","456388","0.0-18.0-2.91-0.91","4656","approach_avoid_sv1","""event"",""trial"",""time""
""fullscreenenter"",""1"",""8094""
","
","
","""event"",""trial"",""time""
""fullscreenenter"",""1"",""8094""
","
","","","","","","2662","<p> Take a break! </p><p> Click the button to continue. </p>","0","","break","","",""
"html-keyboard-response","229","456890","0.0-18.0-0.92","4656","approach_avoid_sv1","""event"",""trial"",""time""
""fullscreenenter"",""1"",""8094""
","
","
","""event"",""trial"",""time""
""fullscreenenter"",""1"",""8094""
","
","","","","","","null","<div style=""font-size:60px;"">+</div>","null","","fixation","","",""
"memory-trial","230","458640","0.0-18.0-1.92","4656","approach_avoid_sv1","""event"",""trial"",""time""
""fullscreenenter"",""1"",""8094""
","
","
","""event"",""trial"",""time""
""fullscreenenter"",""1"",""8094""
","
","","","","","","748","images/orange3.png","","","memory_trial","4","definitely_new",""
"html-keyboard-response","231","459140","0.0-18.0-0.93","4656","approach_avoid_sv1","""event"",""trial"",""time""
""fullscreenenter"",""1"",""8094""
","
","
","""event"",""trial"",""time""
""fullscreenenter"",""1"",""8094""
","
","","","","","","null","<div style=""font-size:60px;"">+</div>","null","","fixation","","",""
"memory-trial","232","461654","0.0-18.0-1.93","4656","approach_avoid_sv1","""event"",""trial"",""time""
""fullscreenenter"",""1"",""8094""
","
","
","""event"",""trial"",""time""
""fullscreenenter"",""1"",""8094""
","
","","","","","","1511","images/bush6.png","","","memory_trial","4","definitely_new",""
"html-keyboard-response","233","462155","0.0-18.0-0.94","4656","approach_avoid_sv1","""event"",""trial"",""time""
""fullscreenenter"",""1"",""8094""
","
","
","""event"",""trial"",""time""
""fullscreenenter"",""1"",""8094""
","
","","","","","","null","<div style=""font-size:60px;"">+</div>","null","","fixation","","",""
"memory-trial","234","463863","0.0-18.0-1.94","4656","approach_avoid_sv1","""event"",""trial"",""time""
""fullscreenenter"",""1"",""8094""
","
","
","""event"",""trial"",""time""
""fullscreenenter"",""1"",""8094""
","
","","","","","","705.9999999999418","images/bed4.png","","","memory_trial","1","definitely_old",""
"html-keyboard-response","235","464364","0.0-18.0-0.95","4656","approach_avoid_sv1","""event"",""trial"",""time""
""fullscreenenter"",""1"",""8094""
","
","
","""event"",""trial"",""time""
""fullscreenenter"",""1"",""8094""
","
","","","","","","null","<div style=""font-size:60px;"">+</div>","null","","fixation","","",""
"memory-trial","236","466294","0.0-18.0-1.95","4656","approach_avoid_sv1","""event"",""trial"",""time""
""fullscreenenter"",""1"",""8094""
","
","
","""event"",""trial"",""time""
""fullscreenenter"",""1"",""8094""
","
","","","","","","929","images/chair5.png","","","memory_trial","4","definitely_new",""
"html-keyboard-response","237","466796","0.0-18.0-0.96","4656","approach_avoid_sv1","""event"",""trial"",""time""
""fullscreenenter"",""1"",""8094""
","
","
","""event"",""trial"",""time""
""fullscreenenter"",""1"",""8094""
","
","","","","","","null","<div style=""font-size:60px;"">+</div>","null","","fixation","","",""
"memory-trial","238","468375","0.0-18.0-1.96","4656","approach_avoid_sv1","""event"",""trial"",""time""
""fullscreenenter"",""1"",""8094""
","
","
","""event"",""trial"",""time""
""fullscreenenter"",""1"",""8094""
","
","","","","","","577","images/sofa3.png","","","memory_trial","1","definitely_old",""
"html-keyboard-response","239","468876","0.0-18.0-0.97","4656","approach_avoid_sv1","""event"",""trial"",""time""
""fullscreenenter"",""1"",""8094""
","
","
","""event"",""trial"",""time""
""fullscreenenter"",""1"",""8094""
","
","","","","","","null","<div style=""font-size:60px;"">+</div>","null","","fixation","","",""
"memory-trial","240","470878","0.0-18.0-1.97","4656","approach_avoid_sv1","""event"",""trial"",""time""
""fullscreenenter"",""1"",""8094""
","
","
","""event"",""trial"",""time""
""fullscreenenter"",""1"",""8094""
","
","","","","","","1000","images/banana4.png","","","memory_trial","1","definitely_old",""
"html-keyboard-response","241","471379","0.0-18.0-0.98","4656","approach_avoid_sv1","""event"",""trial"",""time""
""fullscreenenter"",""1"",""8094""
","
","
","""event"",""trial"",""time""
""fullscreenenter"",""1"",""8094""
","
","","","","","","null","<div style=""font-size:60px;"">+</div>","null","","fixation","","",""
"memory-trial","242","473215","0.0-18.0-1.98","4656","approach_avoid_sv1","""event"",""trial"",""time""
""fullscreenenter"",""1"",""8094""
","
","
","""event"",""trial"",""time""
""fullscreenenter"",""1"",""8094""
","
","","","","","","833.0000000000582","images/apple7.png","","","memory_trial","4","definitely_new",""
"html-keyboard-response","243","473715","0.0-18.0-0.99","4656","approach_avoid_sv1","""event"",""trial"",""time""
""fullscreenenter"",""1"",""8094""
","
","
","""event"",""trial"",""time""
""fullscreenenter"",""1"",""8094""
","
","","","","","","null","<div style=""font-size:60px;"">+</div>","null","","fixation","","",""
"memory-trial","244","475526","0.0-18.0-1.99","4656","approach_avoid_sv1","""event"",""trial"",""time""
""fullscreenenter"",""1"",""8094""
","
","
","""event"",""trial"",""time""
""fullscreenenter"",""1"",""8094""
","
","","","","","","809","images/train3.png","","","memory_trial","4","definitely_new",""
"html-keyboard-response","245","476028","0.0-18.0-0.100","4656","approach_avoid_sv1","""event"",""trial"",""time""
""fullscreenenter"",""1"",""8094""
","
","
","""event"",""trial"",""time""
""fullscreenenter"",""1"",""8094""
","
","","","","","","null","<div style=""font-size:60px;"">+</div>","null","","fixation","","",""
"memory-trial","246","477767","0.0-18.0-1.100","4656","approach_avoid_sv1","""event"",""trial"",""time""
""fullscreenenter"",""1"",""8094""
","
","
","""event"",""trial"",""time""
""fullscreenenter"",""1"",""8094""
","
","","","","","","736","images/plane1.png","","","memory_trial","1","definitely_old",""
"html-keyboard-response","247","478267","0.0-18.0-0.101","4656","approach_avoid_sv1","""event"",""trial"",""time""
""fullscreenenter"",""1"",""8094""
","
","
","""event"",""trial"",""time""
""fullscreenenter"",""1"",""8094""
","
","","","","","","null","<div style=""font-size:60px;"">+</div>","null","","fixation","","",""
"memory-trial","248","480638","0.0-18.0-1.101","4656","approach_avoid_sv1","""event"",""trial"",""time""
""fullscreenenter"",""1"",""8094""
","
","
","""event"",""trial"",""time""
""fullscreenenter"",""1"",""8094""
","
","","","","","","1368.9999999999418","images/rabbit7.png","","","memory_trial","1","definitely_old",""
"html-keyboard-response","249","481139","0.0-18.0-0.102","4656","approach_avoid_sv1","""event"",""trial"",""time""
""fullscreenenter"",""1"",""8094""
","
","
","""event"",""trial"",""time""
""fullscreenenter"",""1"",""8094""
","
","","","","","","null","<div style=""font-size:60px;"">+</div>","null","","fixation","","",""
"memory-trial","250","482814","0.0-18.0-1.102","4656","approach_avoid_sv1","""event"",""trial"",""time""
""fullscreenenter"",""1"",""8094""
","
","
","""event"",""trial"",""time""
""fullscreenenter"",""1"",""8094""
","
","","","","","","673","images/sofa5.png","","","memory_trial","1","definitely_old",""
"html-keyboard-response","251","483315","0.0-18.0-0.103","4656","approach_avoid_sv1","""event"",""trial"",""time""
""fullscreenenter"",""1"",""8094""
","
","
","""event"",""trial"",""time""
""fullscreenenter"",""1"",""8094""
","
","","","","","","null","<div style=""font-size:60px;"">+</div>","null","","fixation","","",""
"memory-trial","252","484950","0.0-18.0-1.103","4656","approach_avoid_sv1","""event"",""trial"",""time""
""fullscreenenter"",""1"",""8094""
","
","
","""event"",""trial"",""time""
""fullscreenenter"",""1"",""8094""
","
","","","","","","633","images/banana1.png","","","memory_trial","1","definitely_old",""
"html-keyboard-response","253","485453","0.0-18.0-0.104","4656","approach_avoid_sv1","""event"",""trial"",""time""
""fullscreenenter"",""1"",""8094""
","
","
","""event"",""trial"",""time""
""fullscreenenter"",""1"",""8094""
","
","","","","","","null","<div style=""font-size:60px;"">+</div>","null","","fixation","","",""
"memory-trial","254","487230","0.0-18.0-1.104","4656","approach_avoid_sv1","""event"",""trial"",""time""
""fullscreenenter"",""1"",""8094""
","
","
","""event"",""trial"",""time""
""fullscreenenter"",""1"",""8094""
","
","","","","","","775","images/sheep5.png","","","memory_trial","4","definitely_new",""
"html-keyboard-response","255","487731","0.0-18.0-0.105","4656","approach_avoid_sv1","""event"",""trial"",""time""
""fullscreenenter"",""1"",""8094""
","
","
","""event"",""trial"",""time""
""fullscreenenter"",""1"",""8094""
","
","","","","","","null","<div style=""font-size:60px;"">+</div>","null","","fixation","","",""
"memory-trial","256","489613","0.0-18.0-1.105","4656","approach_avoid_sv1","""event"",""trial"",""time""
""fullscreenenter"",""1"",""8094""
","
","
","""event"",""trial"",""time""
""fullscreenenter"",""1"",""8094""
","
","","","","","","880.9999999999418","images/horse5.png","","","memory_trial","1","definitely_old",""
"html-keyboard-response","257","490115","0.0-18.0-0.106","4656","approach_avoid_sv1","""event"",""trial"",""time""
""fullscreenenter"",""1"",""8094""
","
","
","""event"",""trial"",""time""
""fullscreenenter"",""1"",""8094""
","
","","","","","","null","<div style=""font-size:60px;"">+</div>","null","","fixation","","",""
"memory-trial","258","492526","0.0-18.0-1.106","4656","approach_avoid_sv1","""event"",""trial"",""time""
""fullscreenenter"",""1"",""8094""
","
","
","""event"",""trial"",""time""
""fullscreenenter"",""1"",""8094""
","
","","","","","","1409","images/dog7.png","","","memory_trial","4","definitely_new",""
"html-keyboard-response","259","493027","0.0-18.0-0.107","4656","approach_avoid_sv1","""event"",""trial"",""time""
""fullscreenenter"",""1"",""8094""
","
","
","""event"",""trial"",""time""
""fullscreenenter"",""1"",""8094""
","
","","","","","","null","<div style=""font-size:60px;"">+</div>","null","","fixation","","",""
"memory-trial","260","494958","0.0-18.0-1.107","4656","approach_avoid_sv1","""event"",""trial"",""time""
""fullscreenenter"",""1"",""8094""
","
","
","""event"",""trial"",""time""
""fullscreenenter"",""1"",""8094""
","
","","","","","","928","images/chair4.png","","","memory_trial","4","definitely_new",""
"html-keyboard-response","261","495459","0.0-18.0-0.108","4656","approach_avoid_sv1","""event"",""trial"",""time""
""fullscreenenter"",""1"",""8094""
","
","
","""event"",""trial"",""time""
""fullscreenenter"",""1"",""8094""
","
","","","","","","null","<div style=""font-size:60px;"">+</div>","null","","fixation","","",""
"memory-trial","262","497365","0.0-18.0-1.108","4656","approach_avoid_sv1","""event"",""trial"",""time""
""fullscreenenter"",""1"",""8094""
","
","
","""event"",""trial"",""time""
""fullscreenenter"",""1"",""8094""
","
","","","","","","905","images/train1.png","","","memory_trial","4","definitely_new",""
"html-keyboard-response","263","497866","0.0-18.0-0.109","4656","approach_avoid_sv1","""event"",""trial"",""time""
""fullscreenenter"",""1"",""8094""
","
","
","""event"",""trial"",""time""
""fullscreenenter"",""1"",""8094""
","
","","","","","","null","<div style=""font-size:60px;"">+</div>","null","","fixation","","",""
"memory-trial","264","499661","0.0-18.0-1.109","4656","approach_avoid_sv1","""event"",""trial"",""time""
""fullscreenenter"",""1"",""8094""
","
","
","""event"",""trial"",""time""
""fullscreenenter"",""1"",""8094""
","
","","","","","","793","images/boat3.png","","","memory_trial","1","definitely_old",""
"html-keyboard-response","265","500165","0.0-18.0-0.110","4656","approach_avoid_sv1","""event"",""trial"",""time""
""fullscreenenter"",""1"",""8094""
","
","
","""event"",""trial"",""time""
""fullscreenenter"",""1"",""8094""
","
","","","","","","null","<div style=""font-size:60px;"">+</div>","null","","fixation","","",""
"memory-trial","266","501982","0.0-18.0-1.110","4656","approach_avoid_sv1","""event"",""trial"",""time""
""fullscreenenter"",""1"",""8094""
","
","
","""event"",""trial"",""time""
""fullscreenenter"",""1"",""8094""
","
","","","","","","815","images/horse7.png","","","memory_trial","4","definitely_new",""
"html-keyboard-response","267","502483","0.0-18.0-0.111","4656","approach_avoid_sv1","""event"",""trial"",""time""
""fullscreenenter"",""1"",""8094""
","
","
","""event"",""trial"",""time""
""fullscreenenter"",""1"",""8094""
","
","","","","","","null","<div style=""font-size:60px;"">+</div>","null","","fixation","","",""
"memory-trial","268","504342","0.0-18.0-1.111","4656","approach_avoid_sv1","""event"",""trial"",""time""
""fullscreenenter"",""1"",""8094""
","
","
","""event"",""trial"",""time""
""fullscreenenter"",""1"",""8094""
","
","","","","","","856","images/bush2.png","","","memory_trial","1","definitely_old",""
"html-keyboard-response","269","504843","0.0-18.0-0.112","4656","approach_avoid_sv1","""event"",""trial"",""time""
""fullscreenenter"",""1"",""8094""
","
","
","""event"",""trial"",""time""
""fullscreenenter"",""1"",""8094""
","
","","","","","","null","<div style=""font-size:60px;"">+</div>","null","","fixation","","",""
"memory-trial","270","506861","0.0-18.0-1.112","4656","approach_avoid_sv1","""event"",""trial"",""time""
""fullscreenenter"",""1"",""8094""
","
","
","""event"",""trial"",""time""
""fullscreenenter"",""1"",""8094""
","
","","","","","","1015.9999999999418","images/goat4.png","","","memory_trial","4","definitely_new",""
"html-keyboard-response","271","507363","0.0-18.0-0.113","4656","approach_avoid_sv1","""event"",""trial"",""time""
""fullscreenenter"",""1"",""8094""
","
","
","""event"",""trial"",""time""
""fullscreenenter"",""1"",""8094""
","
","","","","","","null","<div style=""font-size:60px;"">+</div>","null","","fixation","","",""
"memory-trial","272","509277","0.0-18.0-1.113","4656","approach_avoid_sv1","""event"",""trial"",""time""
""fullscreenenter"",""1"",""8094""
","
","
","""event"",""trial"",""time""
""fullscreenenter"",""1"",""8094""
","
","","","","","","913.0000000000582","images/cat4.png","","","memory_trial","1","definitely_old",""
"html-keyboard-response","273","509778","0.0-18.0-0.114","4656","approach_avoid_sv1","""event"",""trial"",""time""
""fullscreenenter"",""1"",""8094""
","
","
","""event"",""trial"",""time""
""fullscreenenter"",""1"",""8094""
","
","","","","","","null","<div style=""font-size:60px;"">+</div>","null","","fixation","","",""
"memory-trial","274","511709","0.0-18.0-1.114","4656","approach_avoid_sv1","""event"",""trial"",""time""
""fullscreenenter"",""1"",""8094""
","
","
","""event"",""trial"",""time""
""fullscreenenter"",""1"",""8094""
","
","","","","","","929.9999999999418","images/goat7.png","","","memory_trial","4","definitely_new",""
"html-keyboard-response","275","512210","0.0-18.0-0.115","4656","approach_avoid_sv1","""event"",""trial"",""time""
""fullscreenenter"",""1"",""8094""
","
","
","""event"",""trial"",""time""
""fullscreenenter"",""1"",""8094""
","
","","","","","","null","<div style=""font-size:60px;"">+</div>","null","","fixation","","",""
"memory-trial","276","513894","0.0-18.0-1.115","4656","approach_avoid_sv1","""event"",""trial"",""time""
""fullscreenenter"",""1"",""8094""
","
","
","""event"",""trial"",""time""
""fullscreenenter"",""1"",""8094""
","
","","","","","","681.0000000000582","images/goat5.png","","","memory_trial","1","definitely_old",""
"html-keyboard-response","277","514396","0.0-18.0-0.116","4656","approach_avoid_sv1","""event"",""trial"",""time""
""fullscreenenter"",""1"",""8094""
","
","
","""event"",""trial"",""time""
""fullscreenenter"",""1"",""8094""
","
","","","","","","null","<div style=""font-size:60px;"">+</div>","null","","fixation","","",""
"memory-trial","278","516158","0.0-18.0-1.116","4656","approach_avoid_sv1","""event"",""trial"",""time""
""fullscreenenter"",""1"",""8094""
","
","
","""event"",""trial"",""time""
""fullscreenenter"",""1"",""8094""
","
","","","","","","760","images/tree8.png","","","memory_trial","4","definitely_new",""
"html-keyboard-response","279","516659","0.0-18.0-0.117","4656","approach_avoid_sv1","""event"",""trial"",""time""
""fullscreenenter"",""1"",""8094""
","
","
","""event"",""trial"",""time""
""fullscreenenter"",""1"",""8094""
","
","","","","","","null","<div style=""font-size:60px;"">+</div>","null","","fixation","","",""
"memory-trial","280","518357","0.0-18.0-1.117","4656","approach_avoid_sv1","""event"",""trial"",""time""
""fullscreenenter"",""1"",""8094""
","
","
","""event"",""trial"",""time""
""fullscreenenter"",""1"",""8094""
","
","","","","","","697","images/orange4.png","","","memory_trial","4","definitely_new",""
"html-keyboard-response","281","518858","0.0-18.0-0.118","4656","approach_avoid_sv1","""event"",""trial"",""time""
""fullscreenenter"",""1"",""8094""
","
","
","""event"",""trial"",""time""
""fullscreenenter"",""1"",""8094""
","
","","","","","","null","<div style=""font-size:60px;"">+</div>","null","","fixation","","",""
"memory-trial","282","520605","0.0-18.0-1.118","4656","approach_avoid_sv1","""event"",""trial"",""time""
""fullscreenenter"",""1"",""8094""
","
","
","""event"",""trial"",""time""
""fullscreenenter"",""1"",""8094""
","
","","","","","","745","images/sheep2.png","","","memory_trial","4","definitely_new",""
"html-keyboard-response","283","521106","0.0-18.0-0.119","4656","approach_avoid_sv1","""event"",""trial"",""time""
""fullscreenenter"",""1"",""8094""
","
","
","""event"",""trial"",""time""
""fullscreenenter"",""1"",""8094""
","
","","","","","","null","<div style=""font-size:60px;"">+</div>","null","","fixation","","",""
"memory-trial","284","522877","0.0-18.0-1.119","4656","approach_avoid_sv1","""event"",""trial"",""time""
""fullscreenenter"",""1"",""8094""
","
","
","""event"",""trial"",""time""
""fullscreenenter"",""1"",""8094""
","
","","","","","","769","images/tree6.png","","","memory_trial","4","definitely_new",""
"html-keyboard-response","285","523378","0.0-18.0-0.120","4656","approach_avoid_sv1","""event"",""trial"",""time""
""fullscreenenter"",""1"",""8094""
","
","
","""event"",""trial"",""time""
""fullscreenenter"",""1"",""8094""
","
","","","","","","null","<div style=""font-size:60px;"">+</div>","null","","fixation","","",""
"memory-trial","286","525350","0.0-18.0-1.120","4656","approach_avoid_sv1","""event"",""trial"",""time""
""fullscreenenter"",""1"",""8094""
","
","
","""event"",""trial"",""time""
""fullscreenenter"",""1"",""8094""
","
","","","","","","969","images/rodent6.png","","","memory_trial","4","definitely_new",""
"html-keyboard-response","287","525850","0.0-18.0-0.121","4656","approach_avoid_sv1","""event"",""trial"",""time""
""fullscreenenter"",""1"",""8094""
","
","
","""event"",""trial"",""time""
""fullscreenenter"",""1"",""8094""
","
","","","","","","null","<div style=""font-size:60px;"">+</div>","null","","fixation","","",""
"memory-trial","288","527869","0.0-18.0-1.121","4656","approach_avoid_sv1","""event"",""trial"",""time""
""fullscreenenter"",""1"",""8094""
","
","
","""event"",""trial"",""time""
""fullscreenenter"",""1"",""8094""
","
","","","","","","1017","images/straw1.png","","","memory_trial","4","definitely_new",""
"html-keyboard-response","289","528371","0.0-18.0-0.122","4656","approach_avoid_sv1","""event"",""trial"",""time""
""fullscreenenter"",""1"",""8094""
","
","
","""event"",""trial"",""time""
""fullscreenenter"",""1"",""8094""
","
","","","","","","null","<div style=""font-size:60px;"">+</div>","null","","fixation","","",""
"memory-trial","290","530356","0.0-18.0-1.122","4656","approach_avoid_sv1","""event"",""trial"",""time""
""fullscreenenter"",""1"",""8094""
","
","
","""event"",""trial"",""time""
""fullscreenenter"",""1"",""8094""
","
","","","","","","984","images/orange7.png","","","memory_trial","4","definitely_new",""
"html-keyboard-response","291","530857","0.0-18.0-0.123","4656","approach_avoid_sv1","""event"",""trial"",""time""
""fullscreenenter"",""1"",""8094""
","
","
","""event"",""trial"",""time""
""fullscreenenter"",""1"",""8094""
","
","","","","","","null","<div style=""font-size:60px;"">+</div>","null","","fixation","","",""
"memory-trial","292","532701","0.0-18.0-1.123","4656","approach_avoid_sv1","""event"",""trial"",""time""
""fullscreenenter"",""1"",""8094""
","
","
","""event"",""trial"",""time""
""fullscreenenter"",""1"",""8094""
","
","","","","","","842","images/horse4.png","","","memory_trial","1","definitely_old",""
"html-keyboard-response","293","533203","0.0-18.0-0.124","4656","approach_avoid_sv1","""event"",""trial"",""time""
""fullscreenenter"",""1"",""8094""
","
","
","""event"",""trial"",""time""
""fullscreenenter"",""1"",""8094""
","
","","","","","","null","<div style=""font-size:60px;"">+</div>","null","","fixation","","",""
"memory-trial","294","535069","0.0-18.0-1.124","4656","approach_avoid_sv1","""event"",""trial"",""time""
""fullscreenenter"",""1"",""8094""
","
","
","""event"",""trial"",""time""
""fullscreenenter"",""1"",""8094""
","
","","","","","","864","images/dog4.png","","","memory_trial","4","definitely_new",""
"html-keyboard-response","295","535571","0.0-18.0-0.125","4656","approach_avoid_sv1","""event"",""trial"",""time""
""fullscreenenter"",""1"",""8094""
","
","
","""event"",""trial"",""time""
""fullscreenenter"",""1"",""8094""
","
","","","","","","null","<div style=""font-size:60px;"">+</div>","null","","fixation","","",""
"memory-trial","296","537406","0.0-18.0-1.125","4656","approach_avoid_sv1","""event"",""trial"",""time""
""fullscreenenter"",""1"",""8094""
","
","
","""event"",""trial"",""time""
""fullscreenenter"",""1"",""8094""
","
","","","","","","832","images/sofa7.png","","","memory_trial","4","definitely_new",""
"html-keyboard-response","297","537908","0.0-18.0-0.126","4656","approach_avoid_sv1","""event"",""trial"",""time""
""fullscreenenter"",""1"",""8094""
","
","
","""event"",""trial"",""time""
""fullscreenenter"",""1"",""8094""
","
","","","","","","null","<div style=""font-size:60px;"">+</div>","null","","fixation","","",""
"memory-trial","298","539655","0.0-18.0-1.126","4656","approach_avoid_sv1","""event"",""trial"",""time""
""fullscreenenter"",""1"",""8094""
","
","
","""event"",""trial"",""time""
""fullscreenenter"",""1"",""8094""
","
","","","","","","744","images/train4.png","","","memory_trial","4","definitely_new",""
"html-keyboard-response","299","540157","0.0-18.0-0.127","4656","approach_avoid_sv1","""event"",""trial"",""time""
""fullscreenenter"",""1"",""8094""
","
","
","""event"",""trial"",""time""
""fullscreenenter"",""1"",""8094""
","
","","","","","","null","<div style=""font-size:60px;"">+</div>","null","","fixation","","",""
"memory-trial","300","541936","0.0-18.0-1.127","4656","approach_avoid_sv1","""event"",""trial"",""time""
""fullscreenenter"",""1"",""8094""
","
","
","""event"",""trial"",""time""
""fullscreenenter"",""1"",""8094""
","
","","","","","","776","images/goat1.png","","","memory_trial","1","definitely_old",""
