"trial_type","trial_index","time_elapsed","internal_node_id","subject_id","task_version","interactions","blur_events","focus_events","fullscreenenter_events","fullscreenexit_events","success","timeout","failed_images","failed_audio","failed_video","rt","stimulus","response","button_pressed","task_part","key_press","answer","correct"
"pavlovia","0","11","0.0-0.0","5527","approach_avoid_sv1","""event"",""trial"",""time""
""fullscreenenter"",""1"",""3216""
","
","
","""event"",""trial"",""time""
""fullscreenenter"",""1"",""3216""
","
","","","","","","","","","","","","",""
"fullscreen","1","4130","0.0-1.0","5527","approach_avoid_sv1","""event"",""trial"",""time""
""fullscreenenter"",""1"",""3216""
","
","
","""event"",""trial"",""time""
""fullscreenenter"",""1"",""3216""
","
","true","","","","","","","","","","","",""
"preload","2","19180","0.0-2.0","5527","approach_avoid_sv1","""event"",""trial"",""time""
""fullscreenenter"",""1"",""3216""
","
","
","""event"",""trial"",""time""
""fullscreenenter"",""1"",""3216""
","
","true","false","[]","[]","[]","","","","","","","",""
"preload","3","34845","0.0-3.0","5527","approach_avoid_sv1","""event"",""trial"",""time""
""fullscreenenter"",""1"",""3216""
","
","
","""event"",""trial"",""time""
""fullscreenenter"",""1"",""3216""
","
","true","false","[]","[]","[]","","","","","","","",""
"preload","4","36032","0.0-4.0","5527","approach_avoid_sv1","""event"",""trial"",""time""
""fullscreenenter"",""1"",""3216""
","
","
","""event"",""trial"",""time""
""fullscreenenter"",""1"",""3216""
","
","true","false","[]","[]","[]","","","","","","","",""
"audio-keyboard-response","5","183093","0.0-5.0","5527","approach_avoid_sv1","""event"",""trial"",""time""
""fullscreenenter"",""1"",""3216""
","
","
","""event"",""trial"",""time""
""fullscreenenter"",""1"",""3216""
","
","","","","","","0","audio/beep_loop.wav"," ","","","","",""
"audio-button-response","6","185155","0.0-6.0","5527","approach_avoid_sv1","""event"",""trial"",""time""
""fullscreenenter"",""1"",""3216""
","
","
","""event"",""trial"",""time""
""fullscreenenter"",""1"",""3216""
","
","","","","","","2008","audio/turtle.wav","3","","","","",""
"audio-button-response","7","191093","0.0-7.0","5527","approach_avoid_sv1","""event"",""trial"",""time""
""fullscreenenter"",""1"",""3216""
","
","
","""event"",""trial"",""time""
""fullscreenenter"",""1"",""3216""
","
","","","","","","4936","audio/shark.wav","0","","","","",""
"preload","8","195366","0.0-8.0","5527","approach_avoid_sv1","""event"",""trial"",""time""
""fullscreenenter"",""1"",""3216""
","
","
","""event"",""trial"",""time""
""fullscreenenter"",""1"",""3216""
","
","true","false","[]","[]","[]","","","","","","","",""
"learning-instructions","9","203736","0.0-9.0-0.0","5527","approach_avoid_sv1","""event"",""trial"",""time""
""fullscreenenter"",""1"",""3216""
","
","
","""event"",""trial"",""time""
""fullscreenenter"",""1"",""3216""
","
","","","","","","3890","<p> Welcome back! </p><p> Last week, you had to make choices about lots of different items.  </p>","","0","instructions","","",""
"learning-instructions","10","209070","0.0-9.0-0.1","5527","approach_avoid_sv1","""event"",""trial"",""time""
""fullscreenenter"",""1"",""3216""
","
","
","""event"",""trial"",""time""
""fullscreenenter"",""1"",""3216""
","
","","","","","","1220","<p> Today, we are going to ask you to try to remember all the items. </p>","","0","instructions","","",""
"learning-instructions","11","220872","0.0-9.0-0.2","5527","approach_avoid_sv1","""event"",""trial"",""time""
""fullscreenenter"",""1"",""3216""
","
","
","""event"",""trial"",""time""
""fullscreenenter"",""1"",""3216""
","
","","","","","","1672","<p> On every trial, you will see an image. </p><p> The image may be an OLD image you saw during the games last week or it may be a NEW image that was not presented. </p>","","0","instructions","","",""
"learning-instructions","12","230259","0.0-9.0-0.3","5527","approach_avoid_sv1","""event"",""trial"",""time""
""fullscreenenter"",""1"",""3216""
","
","
","""event"",""trial"",""time""
""fullscreenenter"",""1"",""3216""
","
","","","","","","893.9999999999709","<p> You need to select whether the image is:  </p><p>  'Definitely old', 'Maybe old', 'Maybe new', or 'Definitely new.'  </p><div class=""mem-choice-instructions-grid""><div class=""choice-option"" id=""choice-option-1"" ><img src=""images/definitely_old_1.png"" id=""choice-option-img-1"" class=""choice-option-img"" stage=""1""></div><div class=""choice-option"" id=""choice-option-2"" ><img src=""images/maybe_old_1.png"" id=""choice-option-img-2"" class=""choice-option-img"" stage=""1""></div><div class=""choice-option"" id=""choice-option-3"" ><img src=""images/maybe_new_1.png"" id=""choice-option-img-3"" class=""choice-option-img"" stage=""1""></div><div class=""choice-option"" id=""choice-option-4"" > <img src=""images/definitely_new_1.png"" id=""choice-option-img-4"" class=""choice-option-img"" stage=""1""></div></div>","","0","instructions","","",""
"learning-instructions","13","237416","0.0-9.0-0.4","5527","approach_avoid_sv1","""event"",""trial"",""time""
""fullscreenenter"",""1"",""3216""
","
","
","""event"",""trial"",""time""
""fullscreenenter"",""1"",""3216""
","
","","","","","","648","<p> You should use the 1, 2, 3, and 4 keys to make your responses.  </p><div class=""mem-choice-instructions-grid""><div class=""choice-option"" id=""choice-option-1"" ><img src=""images/definitely_old.png"" id=""choice-option-img-1"" class=""choice-option-img"" stage=""1""></div><div class=""choice-option"" id=""choice-option-2"" ><img src=""images/maybe_old.png"" id=""choice-option-img-2"" class=""choice-option-img"" stage=""1""></div><div class=""choice-option"" id=""choice-option-3"" ><img src=""images/maybe_new.png"" id=""choice-option-img-3"" class=""choice-option-img"" stage=""1""></div><div class=""choice-option"" id=""choice-option-4"" > <img src=""images/definitely_new.png"" id=""choice-option-img-4"" class=""choice-option-img"" stage=""1""></div></div>","","0","instructions","","",""
"learning-instructions","14","252356","0.0-9.0-0.5","5527","approach_avoid_sv1","""event"",""trial"",""time""
""fullscreenenter"",""1"",""3216""
","
","
","""event"",""trial"",""time""
""fullscreenenter"",""1"",""3216""
","
","","","","","","8614","<p> You will have 10 seconds to make each response.  </p><p>  Make sure to respond before time runs out! </p>","","0","instructions","","",""
"learning-instructions","15","259838","0.0-9.0-0.6","5527","approach_avoid_sv1","""event"",""trial"",""time""
""fullscreenenter"",""1"",""3216""
","
","
","""event"",""trial"",""time""
""fullscreenenter"",""1"",""3216""
","
","","","","","","412","<p> Today, you will see each image ONCE only.  </p><p>  That means none of the images will repeat. </p>","","0","instructions","","",""
"learning-instructions","16","274574","0.0-9.0-0.7","5527","approach_avoid_sv1","""event"",""trial"",""time""
""fullscreenenter"",""1"",""3216""
","
","
","""event"",""trial"",""time""
""fullscreenenter"",""1"",""3216""
","
","","","","","","2071.000000000058","<p> Before you play the real game, it is time to practice. </p><p>  Just like in the real game, some of the images in the practice will be ones you have seen before. </p><p>  Others will be entirely new. </p>","","0","instructions","","",""
"html-button-response","17","277273","0.0-10.0","5527","approach_avoid_sv1","""event"",""trial"",""time""
""fullscreenenter"",""1"",""3216""
","
","
","""event"",""trial"",""time""
""fullscreenenter"",""1"",""3216""
","
","","","","","","2597","<p> Ready to practice? </p><p> Remember, use the 1, 2, 3, and 4 keys to make your responses. </p>","0","","instructions","","",""
"html-keyboard-response","18","277876","0.0-11.0-0.0","5527","approach_avoid_sv1","""event"",""trial"",""time""
""fullscreenenter"",""1"",""3216""
","
","
","""event"",""trial"",""time""
""fullscreenenter"",""1"",""3216""
","
","","","","","","null","<div style=""font-size:60px;"">+</div>","null","","fixation","","",""
"memory-trial","19","280197","0.0-11.0-1.0","5527","approach_avoid_sv1","""event"",""trial"",""time""
""fullscreenenter"",""1"",""3216""
","
","
","""event"",""trial"",""time""
""fullscreenenter"",""1"",""3216""
","
","","","","","","1317","images/ball1.png","","","practice","2","maybe_old",""
"html-keyboard-response","20","280699","0.0-11.0-0.1","5527","approach_avoid_sv1","""event"",""trial"",""time""
""fullscreenenter"",""1"",""3216""
","
","
","""event"",""trial"",""time""
""fullscreenenter"",""1"",""3216""
","
","","","","","","null","<div style=""font-size:60px;"">+</div>","null","","fixation","","",""
"memory-trial","21","282753","0.0-11.0-1.1","5527","approach_avoid_sv1","""event"",""trial"",""time""
""fullscreenenter"",""1"",""3216""
","
","
","""event"",""trial"",""time""
""fullscreenenter"",""1"",""3216""
","
","","","","","","1051.0000000000582","images/ball2.png","","","practice","2","maybe_old",""
"html-keyboard-response","22","283254","0.0-11.0-0.2","5527","approach_avoid_sv1","""event"",""trial"",""time""
""fullscreenenter"",""1"",""3216""
","
","
","""event"",""trial"",""time""
""fullscreenenter"",""1"",""3216""
","
","","","","","","null","<div style=""font-size:60px;"">+</div>","null","","fixation","","",""
"memory-trial","23","285657","0.0-11.0-1.2","5527","approach_avoid_sv1","""event"",""trial"",""time""
""fullscreenenter"",""1"",""3216""
","
","
","""event"",""trial"",""time""
""fullscreenenter"",""1"",""3216""
","
","","","","","","1401","images/racket3.png","","","practice","4","definitely_new",""
"html-keyboard-response","24","286158","0.0-11.0-0.3","5527","approach_avoid_sv1","""event"",""trial"",""time""
""fullscreenenter"",""1"",""3216""
","
","
","""event"",""trial"",""time""
""fullscreenenter"",""1"",""3216""
","
","","","","","","null","<div style=""font-size:60px;"">+</div>","null","","fixation","","",""
"memory-trial","25","290548","0.0-11.0-1.3","5527","approach_avoid_sv1","""event"",""trial"",""time""
""fullscreenenter"",""1"",""3216""
","
","
","""event"",""trial"",""time""
""fullscreenenter"",""1"",""3216""
","
","","","","","","3389","images/racket1.png","","","practice","4","definitely_new",""
"html-keyboard-response","26","291050","0.0-11.0-0.4","5527","approach_avoid_sv1","""event"",""trial"",""time""
""fullscreenenter"",""1"",""3216""
","
","
","""event"",""trial"",""time""
""fullscreenenter"",""1"",""3216""
","
","","","","","","null","<div style=""font-size:60px;"">+</div>","null","","fixation","","",""
"memory-trial","27","295653","0.0-11.0-1.4","5527","approach_avoid_sv1","""event"",""trial"",""time""
""fullscreenenter"",""1"",""3216""
","
","
","""event"",""trial"",""time""
""fullscreenenter"",""1"",""3216""
","
","","","","","","3601","images/ball3.png","","","practice","3","maybe_new",""
"html-keyboard-response","28","296154","0.0-11.0-0.5","5527","approach_avoid_sv1","""event"",""trial"",""time""
""fullscreenenter"",""1"",""3216""
","
","
","""event"",""trial"",""time""
""fullscreenenter"",""1"",""3216""
","
","","","","","","null","<div style=""font-size:60px;"">+</div>","null","","fixation","","",""
"memory-trial","29","300437","0.0-11.0-1.5","5527","approach_avoid_sv1","""event"",""trial"",""time""
""fullscreenenter"",""1"",""3216""
","
","
","""event"",""trial"",""time""
""fullscreenenter"",""1"",""3216""
","
","","","","","","3281.000000000058","images/racket5.png","","","practice","3","maybe_new",""
"html-keyboard-response","30","300938","0.0-11.0-0.6","5527","approach_avoid_sv1","""event"",""trial"",""time""
""fullscreenenter"",""1"",""3216""
","
","
","""event"",""trial"",""time""
""fullscreenenter"",""1"",""3216""
","
","","","","","","null","<div style=""font-size:60px;"">+</div>","null","","fixation","","",""
"memory-trial","31","304574","0.0-11.0-1.6","5527","approach_avoid_sv1","""event"",""trial"",""time""
""fullscreenenter"",""1"",""3216""
","
","
","""event"",""trial"",""time""
""fullscreenenter"",""1"",""3216""
","
","","","","","","2633.000000000058","images/ball5.png","","","practice","1","definitely_old",""
"html-keyboard-response","32","305077","0.0-11.0-0.7","5527","approach_avoid_sv1","""event"",""trial"",""time""
""fullscreenenter"",""1"",""3216""
","
","
","""event"",""trial"",""time""
""fullscreenenter"",""1"",""3216""
","
","","","","","","null","<div style=""font-size:60px;"">+</div>","null","","fixation","","",""
"memory-trial","33","307303","0.0-11.0-1.7","5527","approach_avoid_sv1","""event"",""trial"",""time""
""fullscreenenter"",""1"",""3216""
","
","
","""event"",""trial"",""time""
""fullscreenenter"",""1"",""3216""
","
","","","","","","1224.9999999999418","images/racket2.png","","","practice","4","definitely_new",""
"learning-instructions","34","317549","0.0-12.0-0.0","5527","approach_avoid_sv1","""event"",""trial"",""time""
""fullscreenenter"",""1"",""3216""
","
","
","""event"",""trial"",""time""
""fullscreenenter"",""1"",""3216""
","
","","","","","","2940","<p> Great! You have completed the practice. </p><p> Before you start, we're going to ask you a few questions about how the game works.  </p>","","0","instructions","","",""
"preload","35","326492","0.0-13.0","5527","approach_avoid_sv1","""event"",""trial"",""time""
""fullscreenenter"",""1"",""3216""
","
","
","""event"",""trial"",""time""
""fullscreenenter"",""1"",""3216""
","
","true","false","[]","[]","[]","","","","","","","",""
"comp-q","36","333707","0.0-14.0-0.0","5527","approach_avoid_sv1","""event"",""trial"",""time""
""fullscreenenter"",""1"",""3216""
","
","
","""event"",""trial"",""time""
""fullscreenenter"",""1"",""3216""
","
","","","","","","1381","<p> <b> True or False? </b> </p><p> In this game, you will only see each image once. </p>","","0","comp_question","","","true"
"comp-q","37","346802","0.0-14.0-1.0","5527","approach_avoid_sv1","""event"",""trial"",""time""
""fullscreenenter"",""1"",""3216""
","
","
","""event"",""trial"",""time""
""fullscreenenter"",""1"",""3216""
","
","","","","","","6761","<p> <b> That's right! </b> You will see many different images <i> one time each </i> in this game. </p>","","0","comp_answer","","",""
"comp-q","38","352659","0.0-15.0-0.0","5527","approach_avoid_sv1","""event"",""trial"",""time""
""fullscreenenter"",""1"",""3216""
","
","
","""event"",""trial"",""time""
""fullscreenenter"",""1"",""3216""
","
","","","","","","854","<p> <b> True or False? </b> </p><p> You should use the mouse and click to make your response. </p>","","1","comp_question","","","true"
"comp-q","39","359871","0.0-15.0-1.0","5527","approach_avoid_sv1","""event"",""trial"",""time""
""fullscreenenter"",""1"",""3216""
","
","
","""event"",""trial"",""time""
""fullscreenenter"",""1"",""3216""
","
","","","","","","711.9999999999418","<p><b> That's right! </b> You should use the '1', '2', '3', and '4' keys to make your response. </p>","","0","comp_answer","","",""
"comp-q","40","367762","0.0-16.0-0.0","5527","approach_avoid_sv1","""event"",""trial"",""time""
""fullscreenenter"",""1"",""3216""
","
","
","""event"",""trial"",""time""
""fullscreenenter"",""1"",""3216""
","
","","","","","","2219","<p> <b> True or False? </b> </p><p> You will have as much time as you want to make each choice. </p>","","1","comp_question","","","true"
"comp-q","41","374951","0.0-16.0-1.0","5527","approach_avoid_sv1","""event"",""trial"",""time""
""fullscreenenter"",""1"",""3216""
","
","
","""event"",""trial"",""time""
""fullscreenenter"",""1"",""3216""
","
","","","","","","2498","<p> <b> That's right! </b> You will only have 10 seconds to make each choice. </p>","","0","comp_answer","","",""
"learning-instructions","42","384980","0.0-17.0","5527","approach_avoid_sv1","""event"",""trial"",""time""
""fullscreenenter"",""1"",""3216""
","
","
","""event"",""trial"",""time""
""fullscreenenter"",""1"",""3216""
","
","","","","","","1361.0000000000582","<p> Great! You are now ready to begin the game. </p><p> Remember, use the 1, 2, 3, and 4 keys to make your responses. </p>","","0","instructions","","",""
"html-keyboard-response","43","385583","0.0-18.0-0.0","5527","approach_avoid_sv1","""event"",""trial"",""time""
""fullscreenenter"",""1"",""3216""
","
","
","""event"",""trial"",""time""
""fullscreenenter"",""1"",""3216""
","
","","","","","","null","<div style=""font-size:60px;"">+</div>","null","","fixation","","",""
"memory-trial","44","388150","0.0-18.0-1.0","5527","approach_avoid_sv1","""event"",""trial"",""time""
""fullscreenenter"",""1"",""3216""
","
","
","""event"",""trial"",""time""
""fullscreenenter"",""1"",""3216""
","
","","","","","","1564","images/boat4.png","","","memory_trial","4","definitely_new",""
"html-keyboard-response","45","388652","0.0-18.0-0.1","5527","approach_avoid_sv1","""event"",""trial"",""time""
""fullscreenenter"",""1"",""3216""
","
","
","""event"",""trial"",""time""
""fullscreenenter"",""1"",""3216""
","
","","","","","","null","<div style=""font-size:60px;"">+</div>","null","","fixation","","",""
"memory-trial","46","390787","0.0-18.0-1.1","5527","approach_avoid_sv1","""event"",""trial"",""time""
""fullscreenenter"",""1"",""3216""
","
","
","""event"",""trial"",""time""
""fullscreenenter"",""1"",""3216""
","
","","","","","","1133","images/chair5.png","","","memory_trial","1","definitely_old",""
"html-keyboard-response","47","391289","0.0-18.0-0.2","5527","approach_avoid_sv1","""event"",""trial"",""time""
""fullscreenenter"",""1"",""3216""
","
","
","""event"",""trial"",""time""
""fullscreenenter"",""1"",""3216""
","
","","","","","","null","<div style=""font-size:60px;"">+</div>","null","","fixation","","",""
"memory-trial","48","395025","0.0-18.0-1.2","5527","approach_avoid_sv1","""event"",""trial"",""time""
""fullscreenenter"",""1"",""3216""
","
","
","""event"",""trial"",""time""
""fullscreenenter"",""1"",""3216""
","
","","","","","","2733","images/cow2.png","","","memory_trial","2","maybe_old",""
"html-keyboard-response","49","395526","0.0-18.0-0.3","5527","approach_avoid_sv1","""event"",""trial"",""time""
""fullscreenenter"",""1"",""3216""
","
","
","""event"",""trial"",""time""
""fullscreenenter"",""1"",""3216""
","
","","","","","","null","<div style=""font-size:60px;"">+</div>","null","","fixation","","",""
"memory-trial","50","397472","0.0-18.0-1.3","5527","approach_avoid_sv1","""event"",""trial"",""time""
""fullscreenenter"",""1"",""3216""
","
","
","""event"",""trial"",""time""
""fullscreenenter"",""1"",""3216""
","
","","","","","","944","images/banana5.png","","","memory_trial","1","definitely_old",""
"html-keyboard-response","51","397974","0.0-18.0-0.4","5527","approach_avoid_sv1","""event"",""trial"",""time""
""fullscreenenter"",""1"",""3216""
","
","
","""event"",""trial"",""time""
""fullscreenenter"",""1"",""3216""
","
","","","","","","null","<div style=""font-size:60px;"">+</div>","null","","fixation","","",""
"memory-trial","52","401135","0.0-18.0-1.4","5527","approach_avoid_sv1","""event"",""trial"",""time""
""fullscreenenter"",""1"",""3216""
","
","
","""event"",""trial"",""time""
""fullscreenenter"",""1"",""3216""
","
","","","","","","2159","images/horse2.png","","","memory_trial","1","definitely_old",""
"html-keyboard-response","53","401636","0.0-18.0-0.5","5527","approach_avoid_sv1","""event"",""trial"",""time""
""fullscreenenter"",""1"",""3216""
","
","
","""event"",""trial"",""time""
""fullscreenenter"",""1"",""3216""
","
","","","","","","null","<div style=""font-size:60px;"">+</div>","null","","fixation","","",""
"memory-trial","54","405936","0.0-18.0-1.5","5527","approach_avoid_sv1","""event"",""trial"",""time""
""fullscreenenter"",""1"",""3216""
","
","
","""event"",""trial"",""time""
""fullscreenenter"",""1"",""3216""
","
","","","","","","3298","images/goat7.png","","","memory_trial","2","maybe_old",""
"html-keyboard-response","55","406438","0.0-18.0-0.6","5527","approach_avoid_sv1","""event"",""trial"",""time""
""fullscreenenter"",""1"",""3216""
","
","
","""event"",""trial"",""time""
""fullscreenenter"",""1"",""3216""
","
","","","","","","null","<div style=""font-size:60px;"">+</div>","null","","fixation","","",""
"memory-trial","56","408139","0.0-18.0-1.6","5527","approach_avoid_sv1","""event"",""trial"",""time""
""fullscreenenter"",""1"",""3216""
","
","
","""event"",""trial"",""time""
""fullscreenenter"",""1"",""3216""
","
","","","","","","699","images/table8.png","","","memory_trial","3","maybe_new",""
"html-keyboard-response","57","408641","0.0-18.0-0.7","5527","approach_avoid_sv1","""event"",""trial"",""time""
""fullscreenenter"",""1"",""3216""
","
","
","""event"",""trial"",""time""
""fullscreenenter"",""1"",""3216""
","
","","","","","","null","<div style=""font-size:60px;"">+</div>","null","","fixation","","",""
"memory-trial","58","411467","0.0-18.0-1.7","5527","approach_avoid_sv1","""event"",""trial"",""time""
""fullscreenenter"",""1"",""3216""
","
","
","""event"",""trial"",""time""
""fullscreenenter"",""1"",""3216""
","
","","","","","","1824","images/boat1.png","","","memory_trial","3","maybe_new",""
"html-keyboard-response","59","411969","0.0-18.0-0.8","5527","approach_avoid_sv1","""event"",""trial"",""time""
""fullscreenenter"",""1"",""3216""
","
","
","""event"",""trial"",""time""
""fullscreenenter"",""1"",""3216""
","
","","","","","","null","<div style=""font-size:60px;"">+</div>","null","","fixation","","",""
"memory-trial","60","413771","0.0-18.0-1.8","5527","approach_avoid_sv1","""event"",""trial"",""time""
""fullscreenenter"",""1"",""3216""
","
","
","""event"",""trial"",""time""
""fullscreenenter"",""1"",""3216""
","
","","","","","","801","images/orange6.png","","","memory_trial","3","maybe_new",""
"html-keyboard-response","61","414272","0.0-18.0-0.9","5527","approach_avoid_sv1","""event"",""trial"",""time""
""fullscreenenter"",""1"",""3216""
","
","
","""event"",""trial"",""time""
""fullscreenenter"",""1"",""3216""
","
","","","","","","null","<div style=""font-size:60px;"">+</div>","null","","fixation","","",""
"memory-trial","62","415656","0.0-18.0-1.9","5527","approach_avoid_sv1","""event"",""trial"",""time""
""fullscreenenter"",""1"",""3216""
","
","
","""event"",""trial"",""time""
""fullscreenenter"",""1"",""3216""
","
","","","","","","382","images/train3.png","","","memory_trial","2","maybe_old",""
"html-keyboard-response","63","416158","0.0-18.0-0.10","5527","approach_avoid_sv1","""event"",""trial"",""time""
""fullscreenenter"",""1"",""3216""
","
","
","""event"",""trial"",""time""
""fullscreenenter"",""1"",""3216""
","
","","","","","","null","<div style=""font-size:60px;"">+</div>","null","","fixation","","",""
"memory-trial","64","420978","0.0-18.0-1.10","5527","approach_avoid_sv1","""event"",""trial"",""time""
""fullscreenenter"",""1"",""3216""
","
","
","""event"",""trial"",""time""
""fullscreenenter"",""1"",""3216""
","
","","","","","","3818","images/straw6.png","","","memory_trial","1","definitely_old",""
"html-keyboard-response","65","421480","0.0-18.0-0.11","5527","approach_avoid_sv1","""event"",""trial"",""time""
""fullscreenenter"",""1"",""3216""
","
","
","""event"",""trial"",""time""
""fullscreenenter"",""1"",""3216""
","
","","","","","","null","<div style=""font-size:60px;"">+</div>","null","","fixation","","",""
"memory-trial","66","422871","0.0-18.0-1.11","5527","approach_avoid_sv1","""event"",""trial"",""time""
""fullscreenenter"",""1"",""3216""
","
","
","""event"",""trial"",""time""
""fullscreenenter"",""1"",""3216""
","
","","","","","","388","images/straw1.png","","","memory_trial","1","definitely_old",""
"html-keyboard-response","67","423373","0.0-18.0-0.12","5527","approach_avoid_sv1","""event"",""trial"",""time""
""fullscreenenter"",""1"",""3216""
","
","
","""event"",""trial"",""time""
""fullscreenenter"",""1"",""3216""
","
","","","","","","null","<div style=""font-size:60px;"">+</div>","null","","fixation","","",""
"memory-trial","68","425266","0.0-18.0-1.12","5527","approach_avoid_sv1","""event"",""trial"",""time""
""fullscreenenter"",""1"",""3216""
","
","
","""event"",""trial"",""time""
""fullscreenenter"",""1"",""3216""
","
","","","","","","892","images/sheep4.png","","","memory_trial","1","definitely_old",""
"html-keyboard-response","69","425767","0.0-18.0-0.13","5527","approach_avoid_sv1","""event"",""trial"",""time""
""fullscreenenter"",""1"",""3216""
","
","
","""event"",""trial"",""time""
""fullscreenenter"",""1"",""3216""
","
","","","","","","null","<div style=""font-size:60px;"">+</div>","null","","fixation","","",""
"memory-trial","70","427676","0.0-18.0-1.13","5527","approach_avoid_sv1","""event"",""trial"",""time""
""fullscreenenter"",""1"",""3216""
","
","
","""event"",""trial"",""time""
""fullscreenenter"",""1"",""3216""
","
","","","","","","906","images/straw3.png","","","memory_trial","1","definitely_old",""
"html-keyboard-response","71","428178","0.0-18.0-0.14","5527","approach_avoid_sv1","""event"",""trial"",""time""
""fullscreenenter"",""1"",""3216""
","
","
","""event"",""trial"",""time""
""fullscreenenter"",""1"",""3216""
","
","","","","","","null","<div style=""font-size:60px;"">+</div>","null","","fixation","","",""
"memory-trial","72","429976","0.0-18.0-1.14","5527","approach_avoid_sv1","""event"",""trial"",""time""
""fullscreenenter"",""1"",""3216""
","
","
","""event"",""trial"",""time""
""fullscreenenter"",""1"",""3216""
","
","","","","","","797","images/boat6.png","","","memory_trial","1","definitely_old",""
"html-keyboard-response","73","430478","0.0-18.0-0.15","5527","approach_avoid_sv1","""event"",""trial"",""time""
""fullscreenenter"",""1"",""3216""
","
","
","""event"",""trial"",""time""
""fullscreenenter"",""1"",""3216""
","
","","","","","","null","<div style=""font-size:60px;"">+</div>","null","","fixation","","",""
"memory-trial","74","432334","0.0-18.0-1.15","5527","approach_avoid_sv1","""event"",""trial"",""time""
""fullscreenenter"",""1"",""3216""
","
","
","""event"",""trial"",""time""
""fullscreenenter"",""1"",""3216""
","
","","","","","","854","images/horse8.png","","","memory_trial","1","definitely_old",""
"html-keyboard-response","75","432835","0.0-18.0-0.16","5527","approach_avoid_sv1","""event"",""trial"",""time""
""fullscreenenter"",""1"",""3216""
","
","
","""event"",""trial"",""time""
""fullscreenenter"",""1"",""3216""
","
","","","","","","null","<div style=""font-size:60px;"">+</div>","null","","fixation","","",""
"memory-trial","76","434337","0.0-18.0-1.16","5527","approach_avoid_sv1","""event"",""trial"",""time""
""fullscreenenter"",""1"",""3216""
","
","
","""event"",""trial"",""time""
""fullscreenenter"",""1"",""3216""
","
","","","","","","499","images/cat2.png","","","memory_trial","1","definitely_old",""
"html-keyboard-response","77","434838","0.0-18.0-0.17","5527","approach_avoid_sv1","""event"",""trial"",""time""
""fullscreenenter"",""1"",""3216""
","
","
","""event"",""trial"",""time""
""fullscreenenter"",""1"",""3216""
","
","","","","","","null","<div style=""font-size:60px;"">+</div>","null","","fixation","","",""
"memory-trial","78","436920","0.0-18.0-1.17","5527","approach_avoid_sv1","""event"",""trial"",""time""
""fullscreenenter"",""1"",""3216""
","
","
","""event"",""trial"",""time""
""fullscreenenter"",""1"",""3216""
","
","","","","","","1081","images/cow7.png","","","memory_trial","4","definitely_new",""
"html-keyboard-response","79","437421","0.0-18.0-0.18","5527","approach_avoid_sv1","""event"",""trial"",""time""
""fullscreenenter"",""1"",""3216""
","
","
","""event"",""trial"",""time""
""fullscreenenter"",""1"",""3216""
","
","","","","","","null","<div style=""font-size:60px;"">+</div>","null","","fixation","","",""
"memory-trial","80","439293","0.0-18.0-1.18","5527","approach_avoid_sv1","""event"",""trial"",""time""
""fullscreenenter"",""1"",""3216""
","
","
","""event"",""trial"",""time""
""fullscreenenter"",""1"",""3216""
","
","","","","","","870.0000000000582","images/bush8.png","","","memory_trial","3","maybe_new",""
"html-keyboard-response","81","439795","0.0-18.0-0.19","5527","approach_avoid_sv1","""event"",""trial"",""time""
""fullscreenenter"",""1"",""3216""
","
","
","""event"",""trial"",""time""
""fullscreenenter"",""1"",""3216""
","
","","","","","","null","<div style=""font-size:60px;"">+</div>","null","","fixation","","",""
"memory-trial","82","441600","0.0-18.0-1.19","5527","approach_avoid_sv1","""event"",""trial"",""time""
""fullscreenenter"",""1"",""3216""
","
","
","""event"",""trial"",""time""
""fullscreenenter"",""1"",""3216""
","
","","","","","","803","images/rodent8.png","","","memory_trial","2","maybe_old",""
"html-keyboard-response","83","442102","0.0-18.0-0.20","5527","approach_avoid_sv1","""event"",""trial"",""time""
""fullscreenenter"",""1"",""3216""
","
","
","""event"",""trial"",""time""
""fullscreenenter"",""1"",""3216""
","
","","","","","","null","<div style=""font-size:60px;"">+</div>","null","","fixation","","",""
"memory-trial","84","443802","0.0-18.0-1.20","5527","approach_avoid_sv1","""event"",""trial"",""time""
""fullscreenenter"",""1"",""3216""
","
","
","""event"",""trial"",""time""
""fullscreenenter"",""1"",""3216""
","
","","","","","","699","images/plane3.png","","","memory_trial","2","maybe_old",""
"html-keyboard-response","85","444304","0.0-18.0-0.21","5527","approach_avoid_sv1","""event"",""trial"",""time""
""fullscreenenter"",""1"",""3216""
","
","
","""event"",""trial"",""time""
""fullscreenenter"",""1"",""3216""
","
","","","","","","null","<div style=""font-size:60px;"">+</div>","null","","fixation","","",""
"memory-trial","86","447550","0.0-18.0-1.21","5527","approach_avoid_sv1","""event"",""trial"",""time""
""fullscreenenter"",""1"",""3216""
","
","
","""event"",""trial"",""time""
""fullscreenenter"",""1"",""3216""
","
","","","","","","2243","images/flower5.png","","","memory_trial","2","maybe_old",""
"html-keyboard-response","87","448051","0.0-18.0-0.22","5527","approach_avoid_sv1","""event"",""trial"",""time""
""fullscreenenter"",""1"",""3216""
","
","
","""event"",""trial"",""time""
""fullscreenenter"",""1"",""3216""
","
","","","","","","null","<div style=""font-size:60px;"">+</div>","null","","fixation","","",""
"memory-trial","88","449681","0.0-18.0-1.22","5527","approach_avoid_sv1","""event"",""trial"",""time""
""fullscreenenter"",""1"",""3216""
","
","
","""event"",""trial"",""time""
""fullscreenenter"",""1"",""3216""
","
","","","","","","628","images/bed3.png","","","memory_trial","2","maybe_old",""
"html-keyboard-response","89","450182","0.0-18.0-0.23","5527","approach_avoid_sv1","""event"",""trial"",""time""
""fullscreenenter"",""1"",""3216""
","
","
","""event"",""trial"",""time""
""fullscreenenter"",""1"",""3216""
","
","","","","","","null","<div style=""font-size:60px;"">+</div>","null","","fixation","","",""
"memory-trial","90","452323","0.0-18.0-1.23","5527","approach_avoid_sv1","""event"",""trial"",""time""
""fullscreenenter"",""1"",""3216""
","
","
","""event"",""trial"",""time""
""fullscreenenter"",""1"",""3216""
","
","","","","","","1140","images/rodent2.png","","","memory_trial","2","maybe_old",""
"html-keyboard-response","91","452825","0.0-18.0-0.24","5527","approach_avoid_sv1","""event"",""trial"",""time""
""fullscreenenter"",""1"",""3216""
","
","
","""event"",""trial"",""time""
""fullscreenenter"",""1"",""3216""
","
","","","","","","null","<div style=""font-size:60px;"">+</div>","null","","fixation","","",""
"memory-trial","92","456646","0.0-18.0-1.24","5527","approach_avoid_sv1","""event"",""trial"",""time""
""fullscreenenter"",""1"",""3216""
","
","
","""event"",""trial"",""time""
""fullscreenenter"",""1"",""3216""
","
","","","","","","2820","images/chair6.png","","","memory_trial","2","maybe_old",""
"html-keyboard-response","93","457148","0.0-18.0-0.25","5527","approach_avoid_sv1","""event"",""trial"",""time""
""fullscreenenter"",""1"",""3216""
","
","
","""event"",""trial"",""time""
""fullscreenenter"",""1"",""3216""
","
","","","","","","null","<div style=""font-size:60px;"">+</div>","null","","fixation","","",""
"memory-trial","94","459625","0.0-18.0-1.25","5527","approach_avoid_sv1","""event"",""trial"",""time""
""fullscreenenter"",""1"",""3216""
","
","
","""event"",""trial"",""time""
""fullscreenenter"",""1"",""3216""
","
","","","","","","1476","images/banana4.png","","","memory_trial","1","definitely_old",""
"html-keyboard-response","95","460127","0.0-18.0-0.26","5527","approach_avoid_sv1","""event"",""trial"",""time""
""fullscreenenter"",""1"",""3216""
","
","
","""event"",""trial"",""time""
""fullscreenenter"",""1"",""3216""
","
","","","","","","null","<div style=""font-size:60px;"">+</div>","null","","fixation","","",""
"memory-trial","96","463159","0.0-18.0-1.26","5527","approach_avoid_sv1","""event"",""trial"",""time""
""fullscreenenter"",""1"",""3216""
","
","
","""event"",""trial"",""time""
""fullscreenenter"",""1"",""3216""
","
","","","","","","2030","images/cat5.png","","","memory_trial","4","definitely_new",""
"html-keyboard-response","97","463661","0.0-18.0-0.27","5527","approach_avoid_sv1","""event"",""trial"",""time""
""fullscreenenter"",""1"",""3216""
","
","
","""event"",""trial"",""time""
""fullscreenenter"",""1"",""3216""
","
","","","","","","null","<div style=""font-size:60px;"">+</div>","null","","fixation","","",""
"memory-trial","98","466086","0.0-18.0-1.27","5527","approach_avoid_sv1","""event"",""trial"",""time""
""fullscreenenter"",""1"",""3216""
","
","
","""event"",""trial"",""time""
""fullscreenenter"",""1"",""3216""
","
","","","","","","1421","images/straw2.png","","","memory_trial","1","definitely_old",""
"html-keyboard-response","99","466587","0.0-18.0-0.28","5527","approach_avoid_sv1","""event"",""trial"",""time""
""fullscreenenter"",""1"",""3216""
","
","
","""event"",""trial"",""time""
""fullscreenenter"",""1"",""3216""
","
","","","","","","null","<div style=""font-size:60px;"">+</div>","null","","fixation","","",""
"memory-trial","100","472026","0.0-18.0-1.28","5527","approach_avoid_sv1","""event"",""trial"",""time""
""fullscreenenter"",""1"",""3216""
","
","
","""event"",""trial"",""time""
""fullscreenenter"",""1"",""3216""
","
","","","","","","4438","images/table2.png","","","memory_trial","1","definitely_old",""
"html-keyboard-response","101","472527","0.0-18.0-0.29","5527","approach_avoid_sv1","""event"",""trial"",""time""
""fullscreenenter"",""1"",""3216""
","
","
","""event"",""trial"",""time""
""fullscreenenter"",""1"",""3216""
","
","","","","","","null","<div style=""font-size:60px;"">+</div>","null","","fixation","","",""
"memory-trial","102","477154","0.0-18.0-1.29","5527","approach_avoid_sv1","""event"",""trial"",""time""
""fullscreenenter"",""1"",""3216""
","
","
","""event"",""trial"",""time""
""fullscreenenter"",""1"",""3216""
","
","","","","","","3625","images/rodent4.png","","","memory_trial","4","definitely_new",""
"html-keyboard-response","103","477655","0.0-18.0-0.30","5527","approach_avoid_sv1","""event"",""trial"",""time""
""fullscreenenter"",""1"",""3216""
","
","
","""event"",""trial"",""time""
""fullscreenenter"",""1"",""3216""
","
","","","","","","null","<div style=""font-size:60px;"">+</div>","null","","fixation","","",""
"memory-trial","104","480538","0.0-18.0-1.30","5527","approach_avoid_sv1","""event"",""trial"",""time""
""fullscreenenter"",""1"",""3216""
","
","
","""event"",""trial"",""time""
""fullscreenenter"",""1"",""3216""
","
","","","","","","1882","images/apple4.png","","","memory_trial","1","definitely_old",""
"html-keyboard-response","105","481039","0.0-18.0-0.31","5527","approach_avoid_sv1","""event"",""trial"",""time""
""fullscreenenter"",""1"",""3216""
","
","
","""event"",""trial"",""time""
""fullscreenenter"",""1"",""3216""
","
","","","","","","null","<div style=""font-size:60px;"">+</div>","null","","fixation","","",""
"memory-trial","106","483319","0.0-18.0-1.31","5527","approach_avoid_sv1","""event"",""trial"",""time""
""fullscreenenter"",""1"",""3216""
","
","
","""event"",""trial"",""time""
""fullscreenenter"",""1"",""3216""
","
","","","","","","1279","images/straw4.png","","","memory_trial","1","definitely_old",""
"html-keyboard-response","107","483820","0.0-18.0-0.32","5527","approach_avoid_sv1","""event"",""trial"",""time""
""fullscreenenter"",""1"",""3216""
","
","
","""event"",""trial"",""time""
""fullscreenenter"",""1"",""3216""
","
","","","","","","null","<div style=""font-size:60px;"">+</div>","null","","fixation","","",""
"memory-trial","108","486360","0.0-18.0-1.32","5527","approach_avoid_sv1","""event"",""trial"",""time""
""fullscreenenter"",""1"",""3216""
","
","
","""event"",""trial"",""time""
""fullscreenenter"",""1"",""3216""
","
","","","","","","1540","images/rodent1.png","","","memory_trial","1","definitely_old",""
"html-keyboard-response","109","486862","0.0-18.0-0.33","5527","approach_avoid_sv1","""event"",""trial"",""time""
""fullscreenenter"",""1"",""3216""
","
","
","""event"",""trial"",""time""
""fullscreenenter"",""1"",""3216""
","
","","","","","","null","<div style=""font-size:60px;"">+</div>","null","","fixation","","",""
"memory-trial","110","490253","0.0-18.0-1.33","5527","approach_avoid_sv1","""event"",""trial"",""time""
""fullscreenenter"",""1"",""3216""
","
","
","""event"",""trial"",""time""
""fullscreenenter"",""1"",""3216""
","
","","","","","","2388.999999999942","images/rodent6.png","","","memory_trial","1","definitely_old",""
"html-keyboard-response","111","490754","0.0-18.0-0.34","5527","approach_avoid_sv1","""event"",""trial"",""time""
""fullscreenenter"",""1"",""3216""
","
","
","""event"",""trial"",""time""
""fullscreenenter"",""1"",""3216""
","
","","","","","","null","<div style=""font-size:60px;"">+</div>","null","","fixation","","",""
"memory-trial","112","497445","0.0-18.0-1.34","5527","approach_avoid_sv1","""event"",""trial"",""time""
""fullscreenenter"",""1"",""3216""
","
","
","""event"",""trial"",""time""
""fullscreenenter"",""1"",""3216""
","
","","","","","","5688.000000000058","images/plane2.png","","","memory_trial","1","definitely_old",""
"html-keyboard-response","113","497947","0.0-18.0-0.35","5527","approach_avoid_sv1","""event"",""trial"",""time""
""fullscreenenter"",""1"",""3216""
","
","
","""event"",""trial"",""time""
""fullscreenenter"",""1"",""3216""
","
","","","","","","null","<div style=""font-size:60px;"">+</div>","null","","fixation","","",""
"memory-trial","114","502667","0.0-18.0-1.35","5527","approach_avoid_sv1","""event"",""trial"",""time""
""fullscreenenter"",""1"",""3216""
","
","
","""event"",""trial"",""time""
""fullscreenenter"",""1"",""3216""
","
","","","","","","3718","images/table3.png","","","memory_trial","3","maybe_new",""
"html-keyboard-response","115","503167","0.0-18.0-0.36","5527","approach_avoid_sv1","""event"",""trial"",""time""
""fullscreenenter"",""1"",""3216""
","
","
","""event"",""trial"",""time""
""fullscreenenter"",""1"",""3216""
","
","","","","","","null","<div style=""font-size:60px;"">+</div>","null","","fixation","","",""
"memory-trial","116","510525","0.0-18.0-1.36","5527","approach_avoid_sv1","""event"",""trial"",""time""
""fullscreenenter"",""1"",""3216""
","
","
","""event"",""trial"",""time""
""fullscreenenter"",""1"",""3216""
","
","","","","","","6356.999999999942","images/rabbit7.png","","","memory_trial","2","maybe_old",""
"html-keyboard-response","117","511026","0.0-18.0-0.37","5527","approach_avoid_sv1","""event"",""trial"",""time""
""fullscreenenter"",""1"",""3216""
","
","
","""event"",""trial"",""time""
""fullscreenenter"",""1"",""3216""
","
","","","","","","null","<div style=""font-size:60px;"">+</div>","null","","fixation","","",""
"memory-trial","118","512895","0.0-18.0-1.37","5527","approach_avoid_sv1","""event"",""trial"",""time""
""fullscreenenter"",""1"",""3216""
","
","
","""event"",""trial"",""time""
""fullscreenenter"",""1"",""3216""
","
","","","","","","865.9999999999418","images/train7.png","","","memory_trial","3","maybe_new",""
"html-keyboard-response","119","513396","0.0-18.0-0.38","5527","approach_avoid_sv1","""event"",""trial"",""time""
""fullscreenenter"",""1"",""3216""
","
","
","""event"",""trial"",""time""
""fullscreenenter"",""1"",""3216""
","
","","","","","","null","<div style=""font-size:60px;"">+</div>","null","","fixation","","",""
"memory-trial","120","517777","0.0-18.0-1.38","5527","approach_avoid_sv1","""event"",""trial"",""time""
""fullscreenenter"",""1"",""3216""
","
","
","""event"",""trial"",""time""
""fullscreenenter"",""1"",""3216""
","
","","","","","","3377.9999999998836","images/train8.png","","","memory_trial","4","definitely_new",""
"html-keyboard-response","121","518277","0.0-18.0-0.39","5527","approach_avoid_sv1","""event"",""trial"",""time""
""fullscreenenter"",""1"",""3216""
","
","
","""event"",""trial"",""time""
""fullscreenenter"",""1"",""3216""
","
","","","","","","null","<div style=""font-size:60px;"">+</div>","null","","fixation","","",""
"memory-trial","122","522187","0.0-18.0-1.39","5527","approach_avoid_sv1","""event"",""trial"",""time""
""fullscreenenter"",""1"",""3216""
","
","
","""event"",""trial"",""time""
""fullscreenenter"",""1"",""3216""
","
","","","","","","2906","images/goat1.png","","","memory_trial","3","maybe_new",""
"html-keyboard-response","123","522689","0.0-18.0-0.40","5527","approach_avoid_sv1","""event"",""trial"",""time""
""fullscreenenter"",""1"",""3216""
","
","
","""event"",""trial"",""time""
""fullscreenenter"",""1"",""3216""
","
","","","","","","null","<div style=""font-size:60px;"">+</div>","null","","fixation","","",""
"memory-trial","124","528854","0.0-18.0-1.40","5527","approach_avoid_sv1","""event"",""trial"",""time""
""fullscreenenter"",""1"",""3216""
","
","
","""event"",""trial"",""time""
""fullscreenenter"",""1"",""3216""
","
","","","","","","5163","images/sofa6.png","","","memory_trial","1","definitely_old",""
"html-keyboard-response","125","529357","0.0-18.0-0.41","5527","approach_avoid_sv1","""event"",""trial"",""time""
""fullscreenenter"",""1"",""3216""
","
","
","""event"",""trial"",""time""
""fullscreenenter"",""1"",""3216""
","
","","","","","","null","<div style=""font-size:60px;"">+</div>","null","","fixation","","",""
"memory-trial","126","531537","0.0-18.0-1.41","5527","approach_avoid_sv1","""event"",""trial"",""time""
""fullscreenenter"",""1"",""3216""
","
","
","""event"",""trial"",""time""
""fullscreenenter"",""1"",""3216""
","
","","","","","","1179","images/boat2.png","","","memory_trial","1","definitely_old",""
"html-button-response","127","535563","0.0-18.0-2.41-0.41","5527","approach_avoid_sv1","""event"",""trial"",""time""
""fullscreenenter"",""1"",""3216""
","
","
","""event"",""trial"",""time""
""fullscreenenter"",""1"",""3216""
","
","","","","","","4025.0000000001164","<p> Take a break! </p><p> Click the button to continue. </p>","0","","break","","",""
"html-keyboard-response","128","536064","0.0-18.0-0.42","5527","approach_avoid_sv1","""event"",""trial"",""time""
""fullscreenenter"",""1"",""3216""
","
","
","""event"",""trial"",""time""
""fullscreenenter"",""1"",""3216""
","
","","","","","","null","<div style=""font-size:60px;"">+</div>","null","","fixation","","",""
"memory-trial","129","537879","0.0-18.0-1.42","5527","approach_avoid_sv1","""event"",""trial"",""time""
""fullscreenenter"",""1"",""3216""
","
","
","""event"",""trial"",""time""
""fullscreenenter"",""1"",""3216""
","
","","","","","","813","images/chair8.png","","","memory_trial","2","maybe_old",""
"html-keyboard-response","130","538380","0.0-18.0-0.43","5527","approach_avoid_sv1","""event"",""trial"",""time""
""fullscreenenter"",""1"",""3216""
","
","
","""event"",""trial"",""time""
""fullscreenenter"",""1"",""3216""
","
","","","","","","null","<div style=""font-size:60px;"">+</div>","null","","fixation","","",""
"memory-trial","131","540227","0.0-18.0-1.43","5527","approach_avoid_sv1","""event"",""trial"",""time""
""fullscreenenter"",""1"",""3216""
","
","
","""event"",""trial"",""time""
""fullscreenenter"",""1"",""3216""
","
","","","","","","846","images/horse1.png","","","memory_trial","2","maybe_old",""
"html-keyboard-response","132","540728","0.0-18.0-0.44","5527","approach_avoid_sv1","""event"",""trial"",""time""
""fullscreenenter"",""1"",""3216""
","
","
","""event"",""trial"",""time""
""fullscreenenter"",""1"",""3216""
","
","","","","","","null","<div style=""font-size:60px;"">+</div>","null","","fixation","","",""
"memory-trial","133","543723","0.0-18.0-1.44","5527","approach_avoid_sv1","""event"",""trial"",""time""
""fullscreenenter"",""1"",""3216""
","
","
","""event"",""trial"",""time""
""fullscreenenter"",""1"",""3216""
","
","","","","","","1994","images/apple3.png","","","memory_trial","1","definitely_old",""
"html-keyboard-response","134","544224","0.0-18.0-0.45","5527","approach_avoid_sv1","""event"",""trial"",""time""
""fullscreenenter"",""1"",""3216""
","
","
","""event"",""trial"",""time""
""fullscreenenter"",""1"",""3216""
","
","","","","","","null","<div style=""font-size:60px;"">+</div>","null","","fixation","","",""
"memory-trial","135","552240","0.0-18.0-1.45","5527","approach_avoid_sv1","""event"",""trial"",""time""
""fullscreenenter"",""1"",""3216""
","
","
","""event"",""trial"",""time""
""fullscreenenter"",""1"",""3216""
","
","","","","","","7015","images/dog2.png","","","memory_trial","1","definitely_old",""
"html-keyboard-response","136","552741","0.0-18.0-0.46","5527","approach_avoid_sv1","""event"",""trial"",""time""
""fullscreenenter"",""1"",""3216""
","
","
","""event"",""trial"",""time""
""fullscreenenter"",""1"",""3216""
","
","","","","","","null","<div style=""font-size:60px;"">+</div>","null","","fixation","","",""
"memory-trial","137","554514","0.0-18.0-1.46","5527","approach_avoid_sv1","""event"",""trial"",""time""
""fullscreenenter"",""1"",""3216""
","
","
","""event"",""trial"",""time""
""fullscreenenter"",""1"",""3216""
","
","","","","","","772.0000000001164","images/table7.png","","","memory_trial","1","definitely_old",""
"html-keyboard-response","138","555015","0.0-18.0-0.47","5527","approach_avoid_sv1","""event"",""trial"",""time""
""fullscreenenter"",""1"",""3216""
","
","
","""event"",""trial"",""time""
""fullscreenenter"",""1"",""3216""
","
","","","","","","null","<div style=""font-size:60px;"">+</div>","null","","fixation","","",""
"memory-trial","139","560465","0.0-18.0-1.47","5527","approach_avoid_sv1","""event"",""trial"",""time""
""fullscreenenter"",""1"",""3216""
","
","
","""event"",""trial"",""time""
""fullscreenenter"",""1"",""3216""
","
","","","","","","4449","images/sheep8.png","","","memory_trial","1","definitely_old",""
"html-keyboard-response","140","560966","0.0-18.0-0.48","5527","approach_avoid_sv1","""event"",""trial"",""time""
""fullscreenenter"",""1"",""3216""
","
","
","""event"",""trial"",""time""
""fullscreenenter"",""1"",""3216""
","
","","","","","","null","<div style=""font-size:60px;"">+</div>","null","","fixation","","",""
"memory-trial","141","564006","0.0-18.0-1.48","5527","approach_avoid_sv1","""event"",""trial"",""time""
""fullscreenenter"",""1"",""3216""
","
","
","""event"",""trial"",""time""
""fullscreenenter"",""1"",""3216""
","
","","","","","","2036","images/cow5.png","","","memory_trial","1","definitely_old",""
"html-keyboard-response","142","564507","0.0-18.0-0.49","5527","approach_avoid_sv1","""event"",""trial"",""time""
""fullscreenenter"",""1"",""3216""
","
","
","""event"",""trial"",""time""
""fullscreenenter"",""1"",""3216""
","
","","","","","","null","<div style=""font-size:60px;"">+</div>","null","","fixation","","",""
"memory-trial","143","568026","0.0-18.0-1.49","5527","approach_avoid_sv1","""event"",""trial"",""time""
""fullscreenenter"",""1"",""3216""
","
","
","""event"",""trial"",""time""
""fullscreenenter"",""1"",""3216""
","
","","","","","","2517","images/cat8.png","","","memory_trial","4","definitely_new",""
"html-keyboard-response","144","568527","0.0-18.0-0.50","5527","approach_avoid_sv1","""event"",""trial"",""time""
""fullscreenenter"",""1"",""3216""
","
","
","""event"",""trial"",""time""
""fullscreenenter"",""1"",""3216""
","
","","","","","","null","<div style=""font-size:60px;"">+</div>","null","","fixation","","",""
"memory-trial","145","571923","0.0-18.0-1.50","5527","approach_avoid_sv1","""event"",""trial"",""time""
""fullscreenenter"",""1"",""3216""
","
","
","""event"",""trial"",""time""
""fullscreenenter"",""1"",""3216""
","
","","","","","","2393","images/banana6.png","","","memory_trial","2","maybe_old",""
"html-keyboard-response","146","572424","0.0-18.0-0.51","5527","approach_avoid_sv1","""event"",""trial"",""time""
""fullscreenenter"",""1"",""3216""
","
","
","""event"",""trial"",""time""
""fullscreenenter"",""1"",""3216""
","
","","","","","","null","<div style=""font-size:60px;"">+</div>","null","","fixation","","",""
"memory-trial","147","577184","0.0-18.0-1.51","5527","approach_avoid_sv1","""event"",""trial"",""time""
""fullscreenenter"",""1"",""3216""
","
","
","""event"",""trial"",""time""
""fullscreenenter"",""1"",""3216""
","
","","","","","","3758","images/flower7.png","","","memory_trial","2","maybe_old",""
"html-keyboard-response","148","577686","0.0-18.0-0.52","5527","approach_avoid_sv1","""event"",""trial"",""time""
""fullscreenenter"",""1"",""3216""
","
","
","""event"",""trial"",""time""
""fullscreenenter"",""1"",""3216""
","
","","","","","","null","<div style=""font-size:60px;"">+</div>","null","","fixation","","",""
"memory-trial","149","580686","0.0-18.0-1.52","5527","approach_avoid_sv1","""event"",""trial"",""time""
""fullscreenenter"",""1"",""3216""
","
","
","""event"",""trial"",""time""
""fullscreenenter"",""1"",""3216""
","
","","","","","","1998","images/sofa1.png","","","memory_trial","2","maybe_old",""
"html-keyboard-response","150","581187","0.0-18.0-0.53","5527","approach_avoid_sv1","""event"",""trial"",""time""
""fullscreenenter"",""1"",""3216""
","
","
","""event"",""trial"",""time""
""fullscreenenter"",""1"",""3216""
","
","","","","","","null","<div style=""font-size:60px;"">+</div>","null","","fixation","","",""
"memory-trial","151","583708","0.0-18.0-1.53","5527","approach_avoid_sv1","""event"",""trial"",""time""
""fullscreenenter"",""1"",""3216""
","
","
","""event"",""trial"",""time""
""fullscreenenter"",""1"",""3216""
","
","","","","","","1519","images/goat6.png","","","memory_trial","1","definitely_old",""
"html-keyboard-response","152","584210","0.0-18.0-0.54","5527","approach_avoid_sv1","""event"",""trial"",""time""
""fullscreenenter"",""1"",""3216""
","
","
","""event"",""trial"",""time""
""fullscreenenter"",""1"",""3216""
","
","","","","","","null","<div style=""font-size:60px;"">+</div>","null","","fixation","","",""
"memory-trial","153","591781","0.0-18.0-1.54","5527","approach_avoid_sv1","""event"",""trial"",""time""
""fullscreenenter"",""1"",""3216""
","
","
","""event"",""trial"",""time""
""fullscreenenter"",""1"",""3216""
","
","","","","","","6567","images/flower2.png","","","memory_trial","1","definitely_old",""
"html-keyboard-response","154","592282","0.0-18.0-0.55","5527","approach_avoid_sv1","""event"",""trial"",""time""
""fullscreenenter"",""1"",""3216""
","
","
","""event"",""trial"",""time""
""fullscreenenter"",""1"",""3216""
","
","","","","","","null","<div style=""font-size:60px;"">+</div>","null","","fixation","","",""
"memory-trial","155","594276","0.0-18.0-1.55","5527","approach_avoid_sv1","""event"",""trial"",""time""
""fullscreenenter"",""1"",""3216""
","
","
","""event"",""trial"",""time""
""fullscreenenter"",""1"",""3216""
","
","","","","","","992","images/flower1.png","","","memory_trial","1","definitely_old",""
"html-keyboard-response","156","594778","0.0-18.0-0.56","5527","approach_avoid_sv1","""event"",""trial"",""time""
""fullscreenenter"",""1"",""3216""
","
","
","""event"",""trial"",""time""
""fullscreenenter"",""1"",""3216""
","
","","","","","","null","<div style=""font-size:60px;"">+</div>","null","","fixation","","",""
"memory-trial","157","596191","0.0-18.0-1.56","5527","approach_avoid_sv1","""event"",""trial"",""time""
""fullscreenenter"",""1"",""3216""
","
","
","""event"",""trial"",""time""
""fullscreenenter"",""1"",""3216""
","
","","","","","","412.0000000001164","images/rabbit1.png","","","memory_trial","1","definitely_old",""
"html-keyboard-response","158","596692","0.0-18.0-0.57","5527","approach_avoid_sv1","""event"",""trial"",""time""
""fullscreenenter"",""1"",""3216""
","
","
","""event"",""trial"",""time""
""fullscreenenter"",""1"",""3216""
","
","","","","","","null","<div style=""font-size:60px;"">+</div>","null","","fixation","","",""
"memory-trial","159","604359","0.0-18.0-1.57","5527","approach_avoid_sv1","""event"",""trial"",""time""
""fullscreenenter"",""1"",""3216""
","
","
","""event"",""trial"",""time""
""fullscreenenter"",""1"",""3216""
","
","","","","","","6665.000000000116","images/sheep5.png","","","memory_trial","2","maybe_old",""
"html-keyboard-response","160","604860","0.0-18.0-0.58","5527","approach_avoid_sv1","""event"",""trial"",""time""
""fullscreenenter"",""1"",""3216""
","
","
","""event"",""trial"",""time""
""fullscreenenter"",""1"",""3216""
","
","","","","","","null","<div style=""font-size:60px;"">+</div>","null","","fixation","","",""
"memory-trial","161","614798","0.0-18.0-1.58","5527","approach_avoid_sv1","""event"",""trial"",""time""
""fullscreenenter"",""1"",""3216""
","
","
","""event"",""trial"",""time""
""fullscreenenter"",""1"",""3216""
","
","","","","","","8936","images/bed1.png","","","memory_trial","2","maybe_old",""
"html-keyboard-response","162","615299","0.0-18.0-0.59","5527","approach_avoid_sv1","""event"",""trial"",""time""
""fullscreenenter"",""1"",""3216""
","
","
","""event"",""trial"",""time""
""fullscreenenter"",""1"",""3216""
","
","","","","","","null","<div style=""font-size:60px;"">+</div>","null","","fixation","","",""
"memory-trial","163","622467","0.0-18.0-1.59","5527","approach_avoid_sv1","""event"",""trial"",""time""
""fullscreenenter"",""1"",""3216""
","
","
","""event"",""trial"",""time""
""fullscreenenter"",""1"",""3216""
","
","","","","","","6166","images/tree8.png","","","memory_trial","1","definitely_old",""
"html-keyboard-response","164","622968","0.0-18.0-0.60","5527","approach_avoid_sv1","""event"",""trial"",""time""
""fullscreenenter"",""1"",""3216""
","
","
","""event"",""trial"",""time""
""fullscreenenter"",""1"",""3216""
","
","","","","","","null","<div style=""font-size:60px;"">+</div>","null","","fixation","","",""
"memory-trial","165","627128","0.0-18.0-1.60","5527","approach_avoid_sv1","""event"",""trial"",""time""
""fullscreenenter"",""1"",""3216""
","
","
","""event"",""trial"",""time""
""fullscreenenter"",""1"",""3216""
","
","","","","","","3159","images/boat8.png","","","memory_trial","2","maybe_old",""
"html-keyboard-response","166","627630","0.0-18.0-0.61","5527","approach_avoid_sv1","""event"",""trial"",""time""
""fullscreenenter"",""1"",""3216""
","
","
","""event"",""trial"",""time""
""fullscreenenter"",""1"",""3216""
","
","","","","","","null","<div style=""font-size:60px;"">+</div>","null","","fixation","","",""
"memory-trial","167","629870","0.0-18.0-1.61","5527","approach_avoid_sv1","""event"",""trial"",""time""
""fullscreenenter"",""1"",""3216""
","
","
","""event"",""trial"",""time""
""fullscreenenter"",""1"",""3216""
","
","","","","","","1239","images/banana1.png","","","memory_trial","2","maybe_old",""
"html-keyboard-response","168","630372","0.0-18.0-0.62","5527","approach_avoid_sv1","""event"",""trial"",""time""
""fullscreenenter"",""1"",""3216""
","
","
","""event"",""trial"",""time""
""fullscreenenter"",""1"",""3216""
","
","","","","","","null","<div style=""font-size:60px;"">+</div>","null","","fixation","","",""
"memory-trial","169","632470","0.0-18.0-1.62","5527","approach_avoid_sv1","""event"",""trial"",""time""
""fullscreenenter"",""1"",""3216""
","
","
","""event"",""trial"",""time""
""fullscreenenter"",""1"",""3216""
","
","","","","","","1096","images/boat5.png","","","memory_trial","3","maybe_new",""
"html-keyboard-response","170","632973","0.0-18.0-0.63","5527","approach_avoid_sv1","""event"",""trial"",""time""
""fullscreenenter"",""1"",""3216""
","
","
","""event"",""trial"",""time""
""fullscreenenter"",""1"",""3216""
","
","","","","","","null","<div style=""font-size:60px;"">+</div>","null","","fixation","","",""
"memory-trial","171","636028","0.0-18.0-1.63","5527","approach_avoid_sv1","""event"",""trial"",""time""
""fullscreenenter"",""1"",""3216""
","
","
","""event"",""trial"",""time""
""fullscreenenter"",""1"",""3216""
","
","","","","","","2054","images/horse3.png","","","memory_trial","2","maybe_old",""
"html-keyboard-response","172","636530","0.0-18.0-0.64","5527","approach_avoid_sv1","""event"",""trial"",""time""
""fullscreenenter"",""1"",""3216""
","
","
","""event"",""trial"",""time""
""fullscreenenter"",""1"",""3216""
","
","","","","","","null","<div style=""font-size:60px;"">+</div>","null","","fixation","","",""
"memory-trial","173","638719","0.0-18.0-1.64","5527","approach_avoid_sv1","""event"",""trial"",""time""
""fullscreenenter"",""1"",""3216""
","
","
","""event"",""trial"",""time""
""fullscreenenter"",""1"",""3216""
","
","","","","","","1188","images/sofa4.png","","","memory_trial","1","definitely_old",""
"html-keyboard-response","174","639220","0.0-18.0-0.65","5527","approach_avoid_sv1","""event"",""trial"",""time""
""fullscreenenter"",""1"",""3216""
","
","
","""event"",""trial"",""time""
""fullscreenenter"",""1"",""3216""
","
","","","","","","null","<div style=""font-size:60px;"">+</div>","null","","fixation","","",""
"memory-trial","175","641279","0.0-18.0-1.65","5527","approach_avoid_sv1","""event"",""trial"",""time""
""fullscreenenter"",""1"",""3216""
","
","
","""event"",""trial"",""time""
""fullscreenenter"",""1"",""3216""
","
","","","","","","1057","images/horse5.png","","","memory_trial","2","maybe_old",""
"html-keyboard-response","176","641780","0.0-18.0-0.66","5527","approach_avoid_sv1","""event"",""trial"",""time""
""fullscreenenter"",""1"",""3216""
","
","
","""event"",""trial"",""time""
""fullscreenenter"",""1"",""3216""
","
","","","","","","null","<div style=""font-size:60px;"">+</div>","null","","fixation","","",""
"memory-trial","177","644985","0.0-18.0-1.66","5527","approach_avoid_sv1","""event"",""trial"",""time""
""fullscreenenter"",""1"",""3216""
","
","
","""event"",""trial"",""time""
""fullscreenenter"",""1"",""3216""
","
","","","","","","2202","images/apple1.png","","","memory_trial","3","maybe_new",""
"html-keyboard-response","178","645487","0.0-18.0-0.67","5527","approach_avoid_sv1","""event"",""trial"",""time""
""fullscreenenter"",""1"",""3216""
","
","
","""event"",""trial"",""time""
""fullscreenenter"",""1"",""3216""
","
","","","","","","null","<div style=""font-size:60px;"">+</div>","null","","fixation","","",""
"memory-trial","179","647411","0.0-18.0-1.67","5527","approach_avoid_sv1","""event"",""trial"",""time""
""fullscreenenter"",""1"",""3216""
","
","
","""event"",""trial"",""time""
""fullscreenenter"",""1"",""3216""
","
","","","","","","922","images/orange2.png","","","memory_trial","2","maybe_old",""
"html-keyboard-response","180","647913","0.0-18.0-0.68","5527","approach_avoid_sv1","""event"",""trial"",""time""
""fullscreenenter"",""1"",""3216""
","
","
","""event"",""trial"",""time""
""fullscreenenter"",""1"",""3216""
","
","","","","","","null","<div style=""font-size:60px;"">+</div>","null","","fixation","","",""
"memory-trial","181","650006","0.0-18.0-1.68","5527","approach_avoid_sv1","""event"",""trial"",""time""
""fullscreenenter"",""1"",""3216""
","
","
","""event"",""trial"",""time""
""fullscreenenter"",""1"",""3216""
","
","","","","","","1089.9999999998836","images/orange7.png","","","memory_trial","2","maybe_old",""
"html-keyboard-response","182","650508","0.0-18.0-0.69","5527","approach_avoid_sv1","""event"",""trial"",""time""
""fullscreenenter"",""1"",""3216""
","
","
","""event"",""trial"",""time""
""fullscreenenter"",""1"",""3216""
","
","","","","","","null","<div style=""font-size:60px;"">+</div>","null","","fixation","","",""
"memory-trial","183","652403","0.0-18.0-1.69","5527","approach_avoid_sv1","""event"",""trial"",""time""
""fullscreenenter"",""1"",""3216""
","
","
","""event"",""trial"",""time""
""fullscreenenter"",""1"",""3216""
","
","","","","","","893","images/cactus1.png","","","memory_trial","3","maybe_new",""
"html-keyboard-response","184","652905","0.0-18.0-0.70","5527","approach_avoid_sv1","""event"",""trial"",""time""
""fullscreenenter"",""1"",""3216""
","
","
","""event"",""trial"",""time""
""fullscreenenter"",""1"",""3216""
","
","","","","","","null","<div style=""font-size:60px;"">+</div>","null","","fixation","","",""
"memory-trial","185","654550","0.0-18.0-1.70","5527","approach_avoid_sv1","""event"",""trial"",""time""
""fullscreenenter"",""1"",""3216""
","
","
","""event"",""trial"",""time""
""fullscreenenter"",""1"",""3216""
","
","","","","","","643","images/sofa2.png","","","memory_trial","3","maybe_new",""
"html-keyboard-response","186","655051","0.0-18.0-0.71","5527","approach_avoid_sv1","""event"",""trial"",""time""
""fullscreenenter"",""1"",""3216""
","
","
","""event"",""trial"",""time""
""fullscreenenter"",""1"",""3216""
","
","","","","","","null","<div style=""font-size:60px;"">+</div>","null","","fixation","","",""
"memory-trial","187","656595","0.0-18.0-1.71","5527","approach_avoid_sv1","""event"",""trial"",""time""
""fullscreenenter"",""1"",""3216""
","
","
","""event"",""trial"",""time""
""fullscreenenter"",""1"",""3216""
","
","","","","","","541","images/bush1.png","","","memory_trial","3","maybe_new",""
"html-keyboard-response","188","657096","0.0-18.0-0.72","5527","approach_avoid_sv1","""event"",""trial"",""time""
""fullscreenenter"",""1"",""3216""
","
","
","""event"",""trial"",""time""
""fullscreenenter"",""1"",""3216""
","
","","","","","","null","<div style=""font-size:60px;"">+</div>","null","","fixation","","",""
"memory-trial","189","664651","0.0-18.0-1.72","5527","approach_avoid_sv1","""event"",""trial"",""time""
""fullscreenenter"",""1"",""3216""
","
","
","""event"",""trial"",""time""
""fullscreenenter"",""1"",""3216""
","
","","","","","","6554","images/straw7.png","","","memory_trial","1","definitely_old",""
"html-keyboard-response","190","665152","0.0-18.0-0.73","5527","approach_avoid_sv1","""event"",""trial"",""time""
""fullscreenenter"",""1"",""3216""
","
","
","""event"",""trial"",""time""
""fullscreenenter"",""1"",""3216""
","
","","","","","","null","<div style=""font-size:60px;"">+</div>","null","","fixation","","",""
"memory-trial","191","667110","0.0-18.0-1.73","5527","approach_avoid_sv1","""event"",""trial"",""time""
""fullscreenenter"",""1"",""3216""
","
","
","""event"",""trial"",""time""
""fullscreenenter"",""1"",""3216""
","
","","","","","","956","images/cow6.png","","","memory_trial","2","maybe_old",""
"html-keyboard-response","192","667610","0.0-18.0-0.74","5527","approach_avoid_sv1","""event"",""trial"",""time""
""fullscreenenter"",""1"",""3216""
","
","
","""event"",""trial"",""time""
""fullscreenenter"",""1"",""3216""
","
","","","","","","null","<div style=""font-size:60px;"">+</div>","null","","fixation","","",""
"memory-trial","193","671773","0.0-18.0-1.74","5527","approach_avoid_sv1","""event"",""trial"",""time""
""fullscreenenter"",""1"",""3216""
","
","
","""event"",""trial"",""time""
""fullscreenenter"",""1"",""3216""
","
","","","","","","3161","images/dog8.png","","","memory_trial","2","maybe_old",""
"html-keyboard-response","194","672274","0.0-18.0-0.75","5527","approach_avoid_sv1","""event"",""trial"",""time""
""fullscreenenter"",""1"",""3216""
","
","
","""event"",""trial"",""time""
""fullscreenenter"",""1"",""3216""
","
","","","","","","null","<div style=""font-size:60px;"">+</div>","null","","fixation","","",""
"memory-trial","195","674199","0.0-18.0-1.75","5527","approach_avoid_sv1","""event"",""trial"",""time""
""fullscreenenter"",""1"",""3216""
","
","
","""event"",""trial"",""time""
""fullscreenenter"",""1"",""3216""
","
","","","","","","921","images/cactus5.png","","","memory_trial","3","maybe_new",""
"html-keyboard-response","196","674701","0.0-18.0-0.76","5527","approach_avoid_sv1","""event"",""trial"",""time""
""fullscreenenter"",""1"",""3216""
","
","
","""event"",""trial"",""time""
""fullscreenenter"",""1"",""3216""
","
","","","","","","null","<div style=""font-size:60px;"">+</div>","null","","fixation","","",""
"memory-trial","197","677353","0.0-18.0-1.76","5527","approach_avoid_sv1","""event"",""trial"",""time""
""fullscreenenter"",""1"",""3216""
","
","
","""event"",""trial"",""time""
""fullscreenenter"",""1"",""3216""
","
","","","","","","1651","images/sheep1.png","","","memory_trial","3","maybe_new",""
"html-keyboard-response","198","677854","0.0-18.0-0.77","5527","approach_avoid_sv1","""event"",""trial"",""time""
""fullscreenenter"",""1"",""3216""
","
","
","""event"",""trial"",""time""
""fullscreenenter"",""1"",""3216""
","
","","","","","","null","<div style=""font-size:60px;"">+</div>","null","","fixation","","",""
"memory-trial","199","678898","0.0-18.0-1.77","5527","approach_avoid_sv1","""event"",""trial"",""time""
""fullscreenenter"",""1"",""3216""
","
","
","""event"",""trial"",""time""
""fullscreenenter"",""1"",""3216""
","
","","","","","","42.999999999883585","images/dog1.png","","","memory_trial","2","maybe_old",""
"html-keyboard-response","200","679399","0.0-18.0-0.78","5527","approach_avoid_sv1","""event"",""trial"",""time""
""fullscreenenter"",""1"",""3216""
","
","
","""event"",""trial"",""time""
""fullscreenenter"",""1"",""3216""
","
","","","","","","null","<div style=""font-size:60px;"">+</div>","null","","fixation","","",""
"memory-trial","201","680609","0.0-18.0-1.78","5527","approach_avoid_sv1","""event"",""trial"",""time""
""fullscreenenter"",""1"",""3216""
","
","
","""event"",""trial"",""time""
""fullscreenenter"",""1"",""3216""
","
","","","","","","208","images/tree3.png","","","memory_trial","3","maybe_new",""
"html-keyboard-response","202","681110","0.0-18.0-0.79","5527","approach_avoid_sv1","""event"",""trial"",""time""
""fullscreenenter"",""1"",""3216""
","
","
","""event"",""trial"",""time""
""fullscreenenter"",""1"",""3216""
","
","","","","","","null","<div style=""font-size:60px;"">+</div>","null","","fixation","","",""
"memory-trial","203","682632","0.0-18.0-1.79","5527","approach_avoid_sv1","""event"",""trial"",""time""
""fullscreenenter"",""1"",""3216""
","
","
","""event"",""trial"",""time""
""fullscreenenter"",""1"",""3216""
","
","","","","","","521","images/bush5.png","","","memory_trial","2","maybe_old",""
"html-keyboard-response","204","683136","0.0-18.0-0.80","5527","approach_avoid_sv1","""event"",""trial"",""time""
""fullscreenenter"",""1"",""3216""
","
","
","""event"",""trial"",""time""
""fullscreenenter"",""1"",""3216""
","
","","","","","","null","<div style=""font-size:60px;"">+</div>","null","","fixation","","",""
"memory-trial","205","685079","0.0-18.0-1.80","5527","approach_avoid_sv1","""event"",""trial"",""time""
""fullscreenenter"",""1"",""3216""
","
","
","""event"",""trial"",""time""
""fullscreenenter"",""1"",""3216""
","
","","","","","","941","images/rabbit5.png","","","memory_trial","2","maybe_old",""
"html-keyboard-response","206","685580","0.0-18.0-0.81","5527","approach_avoid_sv1","""event"",""trial"",""time""
""fullscreenenter"",""1"",""3216""
","
","
","""event"",""trial"",""time""
""fullscreenenter"",""1"",""3216""
","
","","","","","","null","<div style=""font-size:60px;"">+</div>","null","","fixation","","",""
"memory-trial","207","689060","0.0-18.0-1.81","5527","approach_avoid_sv1","""event"",""trial"",""time""
""fullscreenenter"",""1"",""3216""
","
","
","""event"",""trial"",""time""
""fullscreenenter"",""1"",""3216""
","
","","","","","","2479","images/sofa3.png","","","memory_trial","2","maybe_old",""
"html-keyboard-response","208","689561","0.0-18.0-0.82","5527","approach_avoid_sv1","""event"",""trial"",""time""
""fullscreenenter"",""1"",""3216""
","
","
","""event"",""trial"",""time""
""fullscreenenter"",""1"",""3216""
","
","","","","","","null","<div style=""font-size:60px;"">+</div>","null","","fixation","","",""
"memory-trial","209","693214","0.0-18.0-1.82","5527","approach_avoid_sv1","""event"",""trial"",""time""
""fullscreenenter"",""1"",""3216""
","
","
","""event"",""trial"",""time""
""fullscreenenter"",""1"",""3216""
","
","","","","","","2651","images/straw5.png","","","memory_trial","3","maybe_new",""
"html-keyboard-response","210","693715","0.0-18.0-0.83","5527","approach_avoid_sv1","""event"",""trial"",""time""
""fullscreenenter"",""1"",""3216""
","
","
","""event"",""trial"",""time""
""fullscreenenter"",""1"",""3216""
","
","","","","","","null","<div style=""font-size:60px;"">+</div>","null","","fixation","","",""
"memory-trial","211","695148","0.0-18.0-1.83","5527","approach_avoid_sv1","""event"",""trial"",""time""
""fullscreenenter"",""1"",""3216""
","
","
","""event"",""trial"",""time""
""fullscreenenter"",""1"",""3216""
","
","","","","","","430","images/rabbit8.png","","","memory_trial","1","definitely_old",""
"html-keyboard-response","212","695649","0.0-18.0-0.84","5527","approach_avoid_sv1","""event"",""trial"",""time""
""fullscreenenter"",""1"",""3216""
","
","
","""event"",""trial"",""time""
""fullscreenenter"",""1"",""3216""
","
","","","","","","null","<div style=""font-size:60px;"">+</div>","null","","fixation","","",""
"memory-trial","213","697395","0.0-18.0-1.84","5527","approach_avoid_sv1","""event"",""trial"",""time""
""fullscreenenter"",""1"",""3216""
","
","
","""event"",""trial"",""time""
""fullscreenenter"",""1"",""3216""
","
","","","","","","744","images/sofa5.png","","","memory_trial","2","maybe_old",""
"html-keyboard-response","214","697896","0.0-18.0-0.85","5527","approach_avoid_sv1","""event"",""trial"",""time""
""fullscreenenter"",""1"",""3216""
","
","
","""event"",""trial"",""time""
""fullscreenenter"",""1"",""3216""
","
","","","","","","null","<div style=""font-size:60px;"">+</div>","null","","fixation","","",""
"memory-trial","215","699528","0.0-18.0-1.85","5527","approach_avoid_sv1","""event"",""trial"",""time""
""fullscreenenter"",""1"",""3216""
","
","
","""event"",""trial"",""time""
""fullscreenenter"",""1"",""3216""
","
","","","","","","629.0000000001164","images/boat3.png","","","memory_trial","3","maybe_new",""
"html-keyboard-response","216","700030","0.0-18.0-0.86","5527","approach_avoid_sv1","""event"",""trial"",""time""
""fullscreenenter"",""1"",""3216""
","
","
","""event"",""trial"",""time""
""fullscreenenter"",""1"",""3216""
","
","","","","","","null","<div style=""font-size:60px;"">+</div>","null","","fixation","","",""
"memory-trial","217","701051","0.0-18.0-1.86","5527","approach_avoid_sv1","""event"",""trial"",""time""
""fullscreenenter"",""1"",""3216""
","
","
","""event"",""trial"",""time""
""fullscreenenter"",""1"",""3216""
","
","","","","","","20","images/chair3.png","","","memory_trial","3","maybe_new",""
"html-keyboard-response","218","701552","0.0-18.0-0.87","5527","approach_avoid_sv1","""event"",""trial"",""time""
""fullscreenenter"",""1"",""3216""
","
","
","""event"",""trial"",""time""
""fullscreenenter"",""1"",""3216""
","
","","","","","","null","<div style=""font-size:60px;"">+</div>","null","","fixation","","",""
"memory-trial","219","704052","0.0-18.0-1.87","5527","approach_avoid_sv1","""event"",""trial"",""time""
""fullscreenenter"",""1"",""3216""
","
","
","""event"",""trial"",""time""
""fullscreenenter"",""1"",""3216""
","
","","","","","","1497","images/straw8.png","","","memory_trial","3","maybe_new",""
"html-keyboard-response","220","704553","0.0-18.0-0.88","5527","approach_avoid_sv1","""event"",""trial"",""time""
""fullscreenenter"",""1"",""3216""
","
","
","""event"",""trial"",""time""
""fullscreenenter"",""1"",""3216""
","
","","","","","","null","<div style=""font-size:60px;"">+</div>","null","","fixation","","",""
"memory-trial","221","706986","0.0-18.0-1.88","5527","approach_avoid_sv1","""event"",""trial"",""time""
""fullscreenenter"",""1"",""3216""
","
","
","""event"",""trial"",""time""
""fullscreenenter"",""1"",""3216""
","
","","","","","","1430","images/cow8.png","","","memory_trial","3","maybe_new",""
"html-keyboard-response","222","707489","0.0-18.0-0.89","5527","approach_avoid_sv1","""event"",""trial"",""time""
""fullscreenenter"",""1"",""3216""
","
","
","""event"",""trial"",""time""
""fullscreenenter"",""1"",""3216""
","
","","","","","","null","<div style=""font-size:60px;"">+</div>","null","","fixation","","",""
"memory-trial","223","708931","0.0-18.0-1.89","5527","approach_avoid_sv1","""event"",""trial"",""time""
""fullscreenenter"",""1"",""3216""
","
","
","""event"",""trial"",""time""
""fullscreenenter"",""1"",""3216""
","
","","","","","","434.9999999998836","images/bush7.png","","","memory_trial","1","definitely_old",""
"html-keyboard-response","224","709434","0.0-18.0-0.90","5527","approach_avoid_sv1","""event"",""trial"",""time""
""fullscreenenter"",""1"",""3216""
","
","
","""event"",""trial"",""time""
""fullscreenenter"",""1"",""3216""
","
","","","","","","null","<div style=""font-size:60px;"">+</div>","null","","fixation","","",""
"memory-trial","225","711100","0.0-18.0-1.90","5527","approach_avoid_sv1","""event"",""trial"",""time""
""fullscreenenter"",""1"",""3216""
","
","
","""event"",""trial"",""time""
""fullscreenenter"",""1"",""3216""
","
","","","","","","661","images/train1.png","","","memory_trial","2","maybe_old",""
"html-keyboard-response","226","711603","0.0-18.0-0.91","5527","approach_avoid_sv1","""event"",""trial"",""time""
""fullscreenenter"",""1"",""3216""
","
","
","""event"",""trial"",""time""
""fullscreenenter"",""1"",""3216""
","
","","","","","","null","<div style=""font-size:60px;"">+</div>","null","","fixation","","",""
"memory-trial","227","712835","0.0-18.0-1.91","5527","approach_avoid_sv1","""event"",""trial"",""time""
""fullscreenenter"",""1"",""3216""
","
","
","""event"",""trial"",""time""
""fullscreenenter"",""1"",""3216""
","
","","","","","","226","images/apple6.png","","","memory_trial","2","maybe_old",""
"html-button-response","228","848104","0.0-18.0-2.91-0.91","5527","approach_avoid_sv1","""event"",""trial"",""time""
""fullscreenenter"",""1"",""3216""
","
","
","""event"",""trial"",""time""
""fullscreenenter"",""1"",""3216""
","
","","","","","","135243","<p> Take a break! </p><p> Click the button to continue. </p>","0","","break","","",""
"html-keyboard-response","229","848607","0.0-18.0-0.92","5527","approach_avoid_sv1","""event"",""trial"",""time""
""fullscreenenter"",""1"",""3216""
","
","
","""event"",""trial"",""time""
""fullscreenenter"",""1"",""3216""
","
","","","","","","null","<div style=""font-size:60px;"">+</div>","null","","fixation","","",""
"memory-trial","230","851036","0.0-18.0-1.92","5527","approach_avoid_sv1","""event"",""trial"",""time""
""fullscreenenter"",""1"",""3216""
","
","
","""event"",""trial"",""time""
""fullscreenenter"",""1"",""3216""
","
","","","","","","1428","images/chair1.png","","","memory_trial","3","maybe_new",""
"html-keyboard-response","231","851537","0.0-18.0-0.93","5527","approach_avoid_sv1","""event"",""trial"",""time""
""fullscreenenter"",""1"",""3216""
","
","
","""event"",""trial"",""time""
""fullscreenenter"",""1"",""3216""
","
","","","","","","null","<div style=""font-size:60px;"">+</div>","null","","fixation","","",""
"memory-trial","232","854751","0.0-18.0-1.93","5527","approach_avoid_sv1","""event"",""trial"",""time""
""fullscreenenter"",""1"",""3216""
","
","
","""event"",""trial"",""time""
""fullscreenenter"",""1"",""3216""
","
","","","","","","2211","images/bush2.png","","","memory_trial","2","maybe_old",""
"html-keyboard-response","233","855252","0.0-18.0-0.94","5527","approach_avoid_sv1","""event"",""trial"",""time""
""fullscreenenter"",""1"",""3216""
","
","
","""event"",""trial"",""time""
""fullscreenenter"",""1"",""3216""
","
","","","","","","null","<div style=""font-size:60px;"">+</div>","null","","fixation","","",""
"memory-trial","234","856714","0.0-18.0-1.94","5527","approach_avoid_sv1","""event"",""trial"",""time""
""fullscreenenter"",""1"",""3216""
","
","
","""event"",""trial"",""time""
""fullscreenenter"",""1"",""3216""
","
","","","","","","458.9999999998836","images/cactus3.png","","","memory_trial","1","definitely_old",""
"html-keyboard-response","235","857215","0.0-18.0-0.95","5527","approach_avoid_sv1","""event"",""trial"",""time""
""fullscreenenter"",""1"",""3216""
","
","
","""event"",""trial"",""time""
""fullscreenenter"",""1"",""3216""
","
","","","","","","null","<div style=""font-size:60px;"">+</div>","null","","fixation","","",""
"memory-trial","236","858849","0.0-18.0-1.95","5527","approach_avoid_sv1","""event"",""trial"",""time""
""fullscreenenter"",""1"",""3216""
","
","
","""event"",""trial"",""time""
""fullscreenenter"",""1"",""3216""
","
","","","","","","634.0000000001164","images/cactus2.png","","","memory_trial","2","maybe_old",""
"html-keyboard-response","237","859351","0.0-18.0-0.96","5527","approach_avoid_sv1","""event"",""trial"",""time""
""fullscreenenter"",""1"",""3216""
","
","
","""event"",""trial"",""time""
""fullscreenenter"",""1"",""3216""
","
","","","","","","null","<div style=""font-size:60px;"">+</div>","null","","fixation","","",""
"memory-trial","238","865163","0.0-18.0-1.96","5527","approach_avoid_sv1","""event"",""trial"",""time""
""fullscreenenter"",""1"",""3216""
","
","
","""event"",""trial"",""time""
""fullscreenenter"",""1"",""3216""
","
","","","","","","4811","images/goat5.png","","","memory_trial","2","maybe_old",""
"html-keyboard-response","239","865664","0.0-18.0-0.97","5527","approach_avoid_sv1","""event"",""trial"",""time""
""fullscreenenter"",""1"",""3216""
","
","
","""event"",""trial"",""time""
""fullscreenenter"",""1"",""3216""
","
","","","","","","null","<div style=""font-size:60px;"">+</div>","null","","fixation","","",""
"memory-trial","240","871395","0.0-18.0-1.97","5527","approach_avoid_sv1","""event"",""trial"",""time""
""fullscreenenter"",""1"",""3216""
","
","
","""event"",""trial"",""time""
""fullscreenenter"",""1"",""3216""
","
","","","","","","4728.999999999884","images/cactus4.png","","","memory_trial","1","definitely_old",""
"html-keyboard-response","241","871897","0.0-18.0-0.98","5527","approach_avoid_sv1","""event"",""trial"",""time""
""fullscreenenter"",""1"",""3216""
","
","
","""event"",""trial"",""time""
""fullscreenenter"",""1"",""3216""
","
","","","","","","null","<div style=""font-size:60px;"">+</div>","null","","fixation","","",""
"memory-trial","242","879436","0.0-18.0-1.98","5527","approach_avoid_sv1","""event"",""trial"",""time""
""fullscreenenter"",""1"",""3216""
","
","
","""event"",""trial"",""time""
""fullscreenenter"",""1"",""3216""
","
","","","","","","6537","images/rabbit6.png","","","memory_trial","1","definitely_old",""
"html-keyboard-response","243","879938","0.0-18.0-0.99","5527","approach_avoid_sv1","""event"",""trial"",""time""
""fullscreenenter"",""1"",""3216""
","
","
","""event"",""trial"",""time""
""fullscreenenter"",""1"",""3216""
","
","","","","","","null","<div style=""font-size:60px;"">+</div>","null","","fixation","","",""
"memory-trial","244","882988","0.0-18.0-1.99","5527","approach_avoid_sv1","""event"",""trial"",""time""
""fullscreenenter"",""1"",""3216""
","
","
","""event"",""trial"",""time""
""fullscreenenter"",""1"",""3216""
","
","","","","","","2048","images/goat2.png","","","memory_trial","1","definitely_old",""
"html-keyboard-response","245","883489","0.0-18.0-0.100","5527","approach_avoid_sv1","""event"",""trial"",""time""
""fullscreenenter"",""1"",""3216""
","
","
","""event"",""trial"",""time""
""fullscreenenter"",""1"",""3216""
","
","","","","","","null","<div style=""font-size:60px;"">+</div>","null","","fixation","","",""
"memory-trial","246","893390","0.0-18.0-1.100","5527","approach_avoid_sv1","""event"",""trial"",""time""
""fullscreenenter"",""1"",""3216""
","
","
","""event"",""trial"",""time""
""fullscreenenter"",""1"",""3216""
","
","","","","","","8899","images/dog5.png","","","memory_trial","1","definitely_old",""
"html-keyboard-response","247","893892","0.0-18.0-0.101","5527","approach_avoid_sv1","""event"",""trial"",""time""
""fullscreenenter"",""1"",""3216""
","
","
","""event"",""trial"",""time""
""fullscreenenter"",""1"",""3216""
","
","","","","","","null","<div style=""font-size:60px;"">+</div>","null","","fixation","","",""
"memory-trial","248","895174","0.0-18.0-1.101","5527","approach_avoid_sv1","""event"",""trial"",""time""
""fullscreenenter"",""1"",""3216""
","
","
","""event"",""trial"",""time""
""fullscreenenter"",""1"",""3216""
","
","","","","","","281","images/rodent5.png","","","memory_trial","1","definitely_old",""
"html-keyboard-response","249","895676","0.0-18.0-0.102","5527","approach_avoid_sv1","""event"",""trial"",""time""
""fullscreenenter"",""1"",""3216""
","
","
","""event"",""trial"",""time""
""fullscreenenter"",""1"",""3216""
","
","","","","","","null","<div style=""font-size:60px;"">+</div>","null","","fixation","","",""
"memory-trial","250","898351","0.0-18.0-1.102","5527","approach_avoid_sv1","""event"",""trial"",""time""
""fullscreenenter"",""1"",""3216""
","
","
","""event"",""trial"",""time""
""fullscreenenter"",""1"",""3216""
","
","","","","","","1673","images/sheep2.png","","","memory_trial","1","definitely_old",""
"html-keyboard-response","251","898852","0.0-18.0-0.103","5527","approach_avoid_sv1","""event"",""trial"",""time""
""fullscreenenter"",""1"",""3216""
","
","
","""event"",""trial"",""time""
""fullscreenenter"",""1"",""3216""
","
","","","","","","null","<div style=""font-size:60px;"">+</div>","null","","fixation","","",""
"memory-trial","252","901827","0.0-18.0-1.103","5527","approach_avoid_sv1","""event"",""trial"",""time""
""fullscreenenter"",""1"",""3216""
","
","
","""event"",""trial"",""time""
""fullscreenenter"",""1"",""3216""
","
","","","","","","1972","images/tree7.png","","","memory_trial","1","definitely_old",""
"html-keyboard-response","253","902329","0.0-18.0-0.104","5527","approach_avoid_sv1","""event"",""trial"",""time""
""fullscreenenter"",""1"",""3216""
","
","
","""event"",""trial"",""time""
""fullscreenenter"",""1"",""3216""
","
","","","","","","null","<div style=""font-size:60px;"">+</div>","null","","fixation","","",""
"memory-trial","254","903337","0.0-18.0-1.104","5527","approach_avoid_sv1","""event"",""trial"",""time""
""fullscreenenter"",""1"",""3216""
","
","
","""event"",""trial"",""time""
""fullscreenenter"",""1"",""3216""
","
","","","","","","6","images/tree4.png","","","memory_trial","1","definitely_old",""
"html-keyboard-response","255","903839","0.0-18.0-0.105","5527","approach_avoid_sv1","""event"",""trial"",""time""
""fullscreenenter"",""1"",""3216""
","
","
","""event"",""trial"",""time""
""fullscreenenter"",""1"",""3216""
","
","","","","","","null","<div style=""font-size:60px;"">+</div>","null","","fixation","","",""
"memory-trial","256","906506","0.0-18.0-1.105","5527","approach_avoid_sv1","""event"",""trial"",""time""
""fullscreenenter"",""1"",""3216""
","
","
","""event"",""trial"",""time""
""fullscreenenter"",""1"",""3216""
","
","","","","","","1666","images/sheep6.png","","","memory_trial","1","definitely_old",""
"html-keyboard-response","257","907008","0.0-18.0-0.106","5527","approach_avoid_sv1","""event"",""trial"",""time""
""fullscreenenter"",""1"",""3216""
","
","
","""event"",""trial"",""time""
""fullscreenenter"",""1"",""3216""
","
","","","","","","null","<div style=""font-size:60px;"">+</div>","null","","fixation","","",""
"memory-trial","258","912510","0.0-18.0-1.106","5527","approach_avoid_sv1","""event"",""trial"",""time""
""fullscreenenter"",""1"",""3216""
","
","
","""event"",""trial"",""time""
""fullscreenenter"",""1"",""3216""
","
","","","","","","4501.000000000116","images/apple5.png","","","memory_trial","1","definitely_old",""
"html-keyboard-response","259","913011","0.0-18.0-0.107","5527","approach_avoid_sv1","""event"",""trial"",""time""
""fullscreenenter"",""1"",""3216""
","
","
","""event"",""trial"",""time""
""fullscreenenter"",""1"",""3216""
","
","","","","","","null","<div style=""font-size:60px;"">+</div>","null","","fixation","","",""
"memory-trial","260","916237","0.0-18.0-1.107","5527","approach_avoid_sv1","""event"",""trial"",""time""
""fullscreenenter"",""1"",""3216""
","
","
","""event"",""trial"",""time""
""fullscreenenter"",""1"",""3216""
","
","","","","","","2223.0000000001164","images/train2.png","","","memory_trial","1","definitely_old",""
"html-keyboard-response","261","916738","0.0-18.0-0.108","5527","approach_avoid_sv1","""event"",""trial"",""time""
""fullscreenenter"",""1"",""3216""
","
","
","""event"",""trial"",""time""
""fullscreenenter"",""1"",""3216""
","
","","","","","","null","<div style=""font-size:60px;"">+</div>","null","","fixation","","",""
"memory-trial","262","918387","0.0-18.0-1.108","5527","approach_avoid_sv1","""event"",""trial"",""time""
""fullscreenenter"",""1"",""3216""
","
","
","""event"",""trial"",""time""
""fullscreenenter"",""1"",""3216""
","
","","","","","","647","images/plane5.png","","","memory_trial","1","definitely_old",""
"html-keyboard-response","263","918888","0.0-18.0-0.109","5527","approach_avoid_sv1","""event"",""trial"",""time""
""fullscreenenter"",""1"",""3216""
","
","
","""event"",""trial"",""time""
""fullscreenenter"",""1"",""3216""
","
","","","","","","null","<div style=""font-size:60px;"">+</div>","null","","fixation","","",""
"memory-trial","264","920112","0.0-18.0-1.109","5527","approach_avoid_sv1","""event"",""trial"",""time""
""fullscreenenter"",""1"",""3216""
","
","
","""event"",""trial"",""time""
""fullscreenenter"",""1"",""3216""
","
","","","","","","223","images/tree1.png","","","memory_trial","2","maybe_old",""
"html-keyboard-response","265","920614","0.0-18.0-0.110","5527","approach_avoid_sv1","""event"",""trial"",""time""
""fullscreenenter"",""1"",""3216""
","
","
","""event"",""trial"",""time""
""fullscreenenter"",""1"",""3216""
","
","","","","","","null","<div style=""font-size:60px;"">+</div>","null","","fixation","","",""
"memory-trial","266","921884","0.0-18.0-1.110","5527","approach_avoid_sv1","""event"",""trial"",""time""
""fullscreenenter"",""1"",""3216""
","
","
","""event"",""trial"",""time""
""fullscreenenter"",""1"",""3216""
","
","","","","","","268","images/orange8.png","","","memory_trial","1","definitely_old",""
"html-keyboard-response","267","922385","0.0-18.0-0.111","5527","approach_avoid_sv1","""event"",""trial"",""time""
""fullscreenenter"",""1"",""3216""
","
","
","""event"",""trial"",""time""
""fullscreenenter"",""1"",""3216""
","
","","","","","","null","<div style=""font-size:60px;"">+</div>","null","","fixation","","",""
"memory-trial","268","923629","0.0-18.0-1.111","5527","approach_avoid_sv1","""event"",""trial"",""time""
""fullscreenenter"",""1"",""3216""
","
","
","""event"",""trial"",""time""
""fullscreenenter"",""1"",""3216""
","
","","","","","","241","images/train4.png","","","memory_trial","2","maybe_old",""
"html-keyboard-response","269","924131","0.0-18.0-0.112","5527","approach_avoid_sv1","""event"",""trial"",""time""
""fullscreenenter"",""1"",""3216""
","
","
","""event"",""trial"",""time""
""fullscreenenter"",""1"",""3216""
","
","","","","","","null","<div style=""font-size:60px;"">+</div>","null","","fixation","","",""
"memory-trial","270","925211","0.0-18.0-1.112","5527","approach_avoid_sv1","""event"",""trial"",""time""
""fullscreenenter"",""1"",""3216""
","
","
","""event"",""trial"",""time""
""fullscreenenter"",""1"",""3216""
","
","","","","","","79","images/banana2.png","","","memory_trial","2","maybe_old",""
"html-keyboard-response","271","925712","0.0-18.0-0.113","5527","approach_avoid_sv1","""event"",""trial"",""time""
""fullscreenenter"",""1"",""3216""
","
","
","""event"",""trial"",""time""
""fullscreenenter"",""1"",""3216""
","
","","","","","","null","<div style=""font-size:60px;"">+</div>","null","","fixation","","",""
"memory-trial","272","935715","0.0-18.0-1.113","5527","approach_avoid_sv1","""event"",""trial"",""time""
""fullscreenenter"",""1"",""3216""
","
","
","""event"",""trial"",""time""
""fullscreenenter"",""1"",""3216""
","
","","","","","","9551.000000000116","images/orange3.png","","","memory_trial","1","definitely_old",""
"html-keyboard-response","273","936217","0.0-18.0-0.114","5527","approach_avoid_sv1","""event"",""trial"",""time""
""fullscreenenter"",""1"",""3216""
","
","
","""event"",""trial"",""time""
""fullscreenenter"",""1"",""3216""
","
","","","","","","null","<div style=""font-size:60px;"">+</div>","null","","fixation","","",""
"memory-trial","274","943349","0.0-18.0-1.114","5527","approach_avoid_sv1","""event"",""trial"",""time""
""fullscreenenter"",""1"",""3216""
","
","
","""event"",""trial"",""time""
""fullscreenenter"",""1"",""3216""
","
","","","","","","6131","images/dog6.png","","","memory_trial","1","definitely_old",""
"html-keyboard-response","275","943851","0.0-18.0-0.115","5527","approach_avoid_sv1","""event"",""trial"",""time""
""fullscreenenter"",""1"",""3216""
","
","
","""event"",""trial"",""time""
""fullscreenenter"",""1"",""3216""
","
","","","","","","null","<div style=""font-size:60px;"">+</div>","null","","fixation","","",""
"memory-trial","276","945566","0.0-18.0-1.115","5527","approach_avoid_sv1","""event"",""trial"",""time""
""fullscreenenter"",""1"",""3216""
","
","
","""event"",""trial"",""time""
""fullscreenenter"",""1"",""3216""
","
","","","","","","713","images/table6.png","","","memory_trial","2","maybe_old",""
"html-keyboard-response","277","946067","0.0-18.0-0.116","5527","approach_avoid_sv1","""event"",""trial"",""time""
""fullscreenenter"",""1"",""3216""
","
","
","""event"",""trial"",""time""
""fullscreenenter"",""1"",""3216""
","
","","","","","","null","<div style=""font-size:60px;"">+</div>","null","","fixation","","",""
"memory-trial","278","949618","0.0-18.0-1.116","5527","approach_avoid_sv1","""event"",""trial"",""time""
""fullscreenenter"",""1"",""3216""
","
","
","""event"",""trial"",""time""
""fullscreenenter"",""1"",""3216""
","
","","","","","","2551","images/table5.png","","","memory_trial","2","maybe_old",""
"html-keyboard-response","279","950119","0.0-18.0-0.117","5527","approach_avoid_sv1","""event"",""trial"",""time""
""fullscreenenter"",""1"",""3216""
","
","
","""event"",""trial"",""time""
""fullscreenenter"",""1"",""3216""
","
","","","","","","null","<div style=""font-size:60px;"">+</div>","null","","fixation","","",""
"memory-trial","280","953697","0.0-18.0-1.117","5527","approach_avoid_sv1","""event"",""trial"",""time""
""fullscreenenter"",""1"",""3216""
","
","
","""event"",""trial"",""time""
""fullscreenenter"",""1"",""3216""
","
","","","","","","2576.0000000001164","images/orange4.png","","","memory_trial","3","maybe_new",""
"html-keyboard-response","281","954198","0.0-18.0-0.118","5527","approach_avoid_sv1","""event"",""trial"",""time""
""fullscreenenter"",""1"",""3216""
","
","
","""event"",""trial"",""time""
""fullscreenenter"",""1"",""3216""
","
","","","","","","null","<div style=""font-size:60px;"">+</div>","null","","fixation","","",""
"memory-trial","282","958166","0.0-18.0-1.118","5527","approach_avoid_sv1","""event"",""trial"",""time""
""fullscreenenter"",""1"",""3216""
","
","
","""event"",""trial"",""time""
""fullscreenenter"",""1"",""3216""
","
","","","","","","2967","images/tree6.png","","","memory_trial","3","maybe_new",""
"html-keyboard-response","283","958667","0.0-18.0-0.119","5527","approach_avoid_sv1","""event"",""trial"",""time""
""fullscreenenter"",""1"",""3216""
","
","
","""event"",""trial"",""time""
""fullscreenenter"",""1"",""3216""
","
","","","","","","null","<div style=""font-size:60px;"">+</div>","null","","fixation","","",""
"memory-trial","284","960804","0.0-18.0-1.119","5527","approach_avoid_sv1","""event"",""trial"",""time""
""fullscreenenter"",""1"",""3216""
","
","
","""event"",""trial"",""time""
""fullscreenenter"",""1"",""3216""
","
","","","","","","1136","images/bush4.png","","","memory_trial","2","maybe_old",""
"html-keyboard-response","285","961305","0.0-18.0-0.120","5527","approach_avoid_sv1","""event"",""trial"",""time""
""fullscreenenter"",""1"",""3216""
","
","
","""event"",""trial"",""time""
""fullscreenenter"",""1"",""3216""
","
","","","","","","null","<div style=""font-size:60px;"">+</div>","null","","fixation","","",""
"memory-trial","286","965124","0.0-18.0-1.120","5527","approach_avoid_sv1","""event"",""trial"",""time""
""fullscreenenter"",""1"",""3216""
","
","
","""event"",""trial"",""time""
""fullscreenenter"",""1"",""3216""
","
","","","","","","2817.0000000001164","images/table1.png","","","memory_trial","2","maybe_old",""
"html-keyboard-response","287","965625","0.0-18.0-0.121","5527","approach_avoid_sv1","""event"",""trial"",""time""
""fullscreenenter"",""1"",""3216""
","
","
","""event"",""trial"",""time""
""fullscreenenter"",""1"",""3216""
","
","","","","","","null","<div style=""font-size:60px;"">+</div>","null","","fixation","","",""
"memory-trial","288","967757","0.0-18.0-1.121","5527","approach_avoid_sv1","""event"",""trial"",""time""
""fullscreenenter"",""1"",""3216""
","
","
","""event"",""trial"",""time""
""fullscreenenter"",""1"",""3216""
","
","","","","","","1129","images/goat3.png","","","memory_trial","2","maybe_old",""
"html-keyboard-response","289","968258","0.0-18.0-0.122","5527","approach_avoid_sv1","""event"",""trial"",""time""
""fullscreenenter"",""1"",""3216""
","
","
","""event"",""trial"",""time""
""fullscreenenter"",""1"",""3216""
","
","","","","","","null","<div style=""font-size:60px;"">+</div>","null","","fixation","","",""
"memory-trial","290","969640","0.0-18.0-1.122","5527","approach_avoid_sv1","""event"",""trial"",""time""
""fullscreenenter"",""1"",""3216""
","
","
","""event"",""trial"",""time""
""fullscreenenter"",""1"",""3216""
","
","","","","","","380","images/truck6.png","","","memory_trial","1","definitely_old",""
"html-keyboard-response","291","970142","0.0-18.0-0.123","5527","approach_avoid_sv1","""event"",""trial"",""time""
""fullscreenenter"",""1"",""3216""
","
","
","""event"",""trial"",""time""
""fullscreenenter"",""1"",""3216""
","
","","","","","","null","<div style=""font-size:60px;"">+</div>","null","","fixation","","",""
"memory-trial","292","973674","0.0-18.0-1.123","5527","approach_avoid_sv1","""event"",""trial"",""time""
""fullscreenenter"",""1"",""3216""
","
","
","""event"",""trial"",""time""
""fullscreenenter"",""1"",""3216""
","
","","","","","","2530","images/flower8.png","","","memory_trial","3","maybe_new",""
"html-keyboard-response","293","974175","0.0-18.0-0.124","5527","approach_avoid_sv1","""event"",""trial"",""time""
""fullscreenenter"",""1"",""3216""
","
","
","""event"",""trial"",""time""
""fullscreenenter"",""1"",""3216""
","
","","","","","","null","<div style=""font-size:60px;"">+</div>","null","","fixation","","",""
"memory-trial","294","978919","0.0-18.0-1.124","5527","approach_avoid_sv1","""event"",""trial"",""time""
""fullscreenenter"",""1"",""3216""
","
","
","""event"",""trial"",""time""
""fullscreenenter"",""1"",""3216""
","
","","","","","","3742","images/bed6.png","","","memory_trial","3","maybe_new",""
"html-keyboard-response","295","979420","0.0-18.0-0.125","5527","approach_avoid_sv1","""event"",""trial"",""time""
""fullscreenenter"",""1"",""3216""
","
","
","""event"",""trial"",""time""
""fullscreenenter"",""1"",""3216""
","
","","","","","","null","<div style=""font-size:60px;"">+</div>","null","","fixation","","",""
"memory-trial","296","983263","0.0-18.0-1.125","5527","approach_avoid_sv1","""event"",""trial"",""time""
""fullscreenenter"",""1"",""3216""
","
","
","""event"",""trial"",""time""
""fullscreenenter"",""1"",""3216""
","
","","","","","","2839","images/cow3.png","","","memory_trial","2","maybe_old",""
"html-keyboard-response","297","983764","0.0-18.0-0.126","5527","approach_avoid_sv1","""event"",""trial"",""time""
""fullscreenenter"",""1"",""3216""
","
","
","""event"",""trial"",""time""
""fullscreenenter"",""1"",""3216""
","
","","","","","","null","<div style=""font-size:60px;"">+</div>","null","","fixation","","",""
"memory-trial","298","990342","0.0-18.0-1.126","5527","approach_avoid_sv1","""event"",""trial"",""time""
""fullscreenenter"",""1"",""3216""
","
","
","""event"",""trial"",""time""
""fullscreenenter"",""1"",""3216""
","
","","","","","","5577","images/plane8.png","","","memory_trial","1","definitely_old",""
"html-keyboard-response","299","990843","0.0-18.0-0.127","5527","approach_avoid_sv1","""event"",""trial"",""time""
""fullscreenenter"",""1"",""3216""
","
","
","""event"",""trial"",""time""
""fullscreenenter"",""1"",""3216""
","
","","","","","","null","<div style=""font-size:60px;"">+</div>","null","","fixation","","",""
"memory-trial","300","991937","0.0-18.0-1.127","5527","approach_avoid_sv1","""event"",""trial"",""time""
""fullscreenenter"",""1"",""3216""
","
","
","""event"",""trial"",""time""
""fullscreenenter"",""1"",""3216""
","
","","","","","","92","images/rabbit2.png","","","memory_trial","1","definitely_old",""
"html-keyboard-response","301","992438","0.0-18.0-0.128","5527","approach_avoid_sv1","""event"",""trial"",""time""
""fullscreenenter"",""1"",""3216""
","
","
","""event"",""trial"",""time""
""fullscreenenter"",""1"",""3216""
","
","","","","","","null","<div style=""font-size:60px;"">+</div>","null","","fixation","","",""
