"trial_type","trial_index","time_elapsed","internal_node_id","subject_id","task_version","interactions","blur_events","focus_events","fullscreenenter_events","fullscreenexit_events","success","timeout","failed_images","failed_audio","failed_video","rt","stimulus","response","button_pressed","task_part","key_press","answer","correct"
"pavlovia","0","4","0.0-0.0","6268","approach_avoid_sv1","""event"",""trial"",""time""
""fullscreenenter"",""1"",""2391""
","
","
","""event"",""trial"",""time""
""fullscreenenter"",""1"",""2391""
","
","","","","","","","","","","","","",""
"fullscreen","1","3372","0.0-1.0","6268","approach_avoid_sv1","""event"",""trial"",""time""
""fullscreenenter"",""1"",""2391""
","
","
","""event"",""trial"",""time""
""fullscreenenter"",""1"",""2391""
","
","true","","","","","","","","","","","",""
"preload","2","5132","0.0-2.0","6268","approach_avoid_sv1","""event"",""trial"",""time""
""fullscreenenter"",""1"",""2391""
","
","
","""event"",""trial"",""time""
""fullscreenenter"",""1"",""2391""
","
","true","false","[]","[]","[]","","","","","","","",""
"preload","3","6504","0.0-3.0","6268","approach_avoid_sv1","""event"",""trial"",""time""
""fullscreenenter"",""1"",""2391""
","
","
","""event"",""trial"",""time""
""fullscreenenter"",""1"",""2391""
","
","true","false","[]","[]","[]","","","","","","","",""
"preload","4","6697","0.0-4.0","6268","approach_avoid_sv1","""event"",""trial"",""time""
""fullscreenenter"",""1"",""2391""
","
","
","""event"",""trial"",""time""
""fullscreenenter"",""1"",""2391""
","
","true","false","[]","[]","[]","","","","","","","",""
"audio-keyboard-response","5","8887","0.0-5.0","6268","approach_avoid_sv1","""event"",""trial"",""time""
""fullscreenenter"",""1"",""2391""
","
","
","""event"",""trial"",""time""
""fullscreenenter"",""1"",""2391""
","
","","","","","","2186.6666666666665","audio/beep_loop.wav"," ","","","","",""
"audio-button-response","6","10977","0.0-6.0","6268","approach_avoid_sv1","""event"",""trial"",""time""
""fullscreenenter"",""1"",""2391""
","
","
","""event"",""trial"",""time""
""fullscreenenter"",""1"",""2391""
","
","","","","","","2091","audio/turtle.wav","3","","","","",""
"audio-button-response","7","13304","0.0-7.0","6268","approach_avoid_sv1","""event"",""trial"",""time""
""fullscreenenter"",""1"",""2391""
","
","
","""event"",""trial"",""time""
""fullscreenenter"",""1"",""2391""
","
","","","","","","1323","audio/shark.wav","2","","","","",""
"preload","8","17494","0.0-8.0","6268","approach_avoid_sv1","""event"",""trial"",""time""
""fullscreenenter"",""1"",""2391""
","
","
","""event"",""trial"",""time""
""fullscreenenter"",""1"",""2391""
","
","true","false","[]","[]","[]","","","","","","","",""
"learning-instructions","9","25786","0.0-9.0-0.0","6268","approach_avoid_sv1","""event"",""trial"",""time""
""fullscreenenter"",""1"",""2391""
","
","
","""event"",""trial"",""time""
""fullscreenenter"",""1"",""2391""
","
","","","","","","3810.699999988079","<p> Welcome back! </p><p> Last week, you had to make choices about lots of different items.  </p>","","0","instructions","","",""
"learning-instructions","10","37698","0.0-9.0-0.1","6268","approach_avoid_sv1","""event"",""trial"",""time""
""fullscreenenter"",""1"",""2391""
","
","
","""event"",""trial"",""time""
""fullscreenenter"",""1"",""2391""
","
","","","","","","7796","<p> Today, we are going to ask you to try to remember all the items. </p>","","0","instructions","","",""
"learning-instructions","11","59298","0.0-9.0-0.2","6268","approach_avoid_sv1","""event"",""trial"",""time""
""fullscreenenter"",""1"",""2391""
","
","
","""event"",""trial"",""time""
""fullscreenenter"",""1"",""2391""
","
","","","","","","11466.59999999404","<p> On every trial, you will see an image. </p><p> The image may be an OLD image you saw during the games last week or it may be a NEW image that was not presented. </p>","","0","instructions","","",""
"learning-instructions","12","69324","0.0-9.0-0.3","6268","approach_avoid_sv1","""event"",""trial"",""time""
""fullscreenenter"",""1"",""2391""
","
","
","""event"",""trial"",""time""
""fullscreenenter"",""1"",""2391""
","
","","","","","","1523","<p> You need to select whether the image is:  </p><p>  'Definitely old', 'Maybe old', 'Maybe new', or 'Definitely new.'  </p><div class=""mem-choice-instructions-grid""><div class=""choice-option"" id=""choice-option-1"" ><img src=""images/definitely_old_1.png"" id=""choice-option-img-1"" class=""choice-option-img"" stage=""1""></div><div class=""choice-option"" id=""choice-option-2"" ><img src=""images/maybe_old_1.png"" id=""choice-option-img-2"" class=""choice-option-img"" stage=""1""></div><div class=""choice-option"" id=""choice-option-3"" ><img src=""images/maybe_new_1.png"" id=""choice-option-img-3"" class=""choice-option-img"" stage=""1""></div><div class=""choice-option"" id=""choice-option-4"" > <img src=""images/definitely_new_1.png"" id=""choice-option-img-4"" class=""choice-option-img"" stage=""1""></div></div>","","0","instructions","","",""
"learning-instructions","13","78134","0.0-9.0-0.4","6268","approach_avoid_sv1","""event"",""trial"",""time""
""fullscreenenter"",""1"",""2391""
","
","
","""event"",""trial"",""time""
""fullscreenenter"",""1"",""2391""
","
","","","","","","2296.9000000059605","<p> You should use the 1, 2, 3, and 4 keys to make your responses.  </p><div class=""mem-choice-instructions-grid""><div class=""choice-option"" id=""choice-option-1"" ><img src=""images/definitely_old.png"" id=""choice-option-img-1"" class=""choice-option-img"" stage=""1""></div><div class=""choice-option"" id=""choice-option-2"" ><img src=""images/maybe_old.png"" id=""choice-option-img-2"" class=""choice-option-img"" stage=""1""></div><div class=""choice-option"" id=""choice-option-3"" ><img src=""images/maybe_new.png"" id=""choice-option-img-3"" class=""choice-option-img"" stage=""1""></div><div class=""choice-option"" id=""choice-option-4"" > <img src=""images/definitely_new.png"" id=""choice-option-img-4"" class=""choice-option-img"" stage=""1""></div></div>","","0","instructions","","",""
"learning-instructions","14","85661","0.0-9.0-0.5","6268","approach_avoid_sv1","""event"",""trial"",""time""
""fullscreenenter"",""1"",""2391""
","
","
","""event"",""trial"",""time""
""fullscreenenter"",""1"",""2391""
","
","","","","","","1202.0999999940395","<p> You will have 10 seconds to make each response.  </p><p>  Make sure to respond before time runs out! </p>","","0","instructions","","",""
"learning-instructions","15","93373","0.0-9.0-0.6","6268","approach_avoid_sv1","""event"",""trial"",""time""
""fullscreenenter"",""1"",""2391""
","
","
","""event"",""trial"",""time""
""fullscreenenter"",""1"",""2391""
","
","","","","","","636.8000000119209","<p> Today, you will see each image ONCE only.  </p><p>  That means none of the images will repeat. </p>","","0","instructions","","",""
"learning-instructions","16","106541","0.0-9.0-0.7","6268","approach_avoid_sv1","""event"",""trial"",""time""
""fullscreenenter"",""1"",""2391""
","
","
","""event"",""trial"",""time""
""fullscreenenter"",""1"",""2391""
","
","","","","","","497.09999999403954","<p> Before you play the real game, it is time to practice. </p><p>  Just like in the real game, some of the images in the practice will be ones you have seen before. </p><p>  Others will be entirely new. </p>","","0","instructions","","",""
"html-button-response","17","108247","0.0-10.0","6268","approach_avoid_sv1","""event"",""trial"",""time""
""fullscreenenter"",""1"",""2391""
","
","
","""event"",""trial"",""time""
""fullscreenenter"",""1"",""2391""
","
","","","","","","1600.7999999821186","<p> Ready to practice? </p><p> Remember, use the 1, 2, 3, and 4 keys to make your responses. </p>","0","","instructions","","",""
"html-keyboard-response","18","108853","0.0-11.0-0.0","6268","approach_avoid_sv1","""event"",""trial"",""time""
""fullscreenenter"",""1"",""2391""
","
","
","""event"",""trial"",""time""
""fullscreenenter"",""1"",""2391""
","
","","","","","","null","<div style=""font-size:60px;"">+</div>","null","","fixation","","",""
"memory-trial","19","109940","0.0-11.0-1.0","6268","approach_avoid_sv1","""event"",""trial"",""time""
""fullscreenenter"",""1"",""2391""
","
","
","""event"",""trial"",""time""
""fullscreenenter"",""1"",""2391""
","
","","","","","","78.39999997615814","images/ball5.png","","","practice","1","definitely_old",""
"html-keyboard-response","20","110446","0.0-11.0-0.1","6268","approach_avoid_sv1","""event"",""trial"",""time""
""fullscreenenter"",""1"",""2391""
","
","
","""event"",""trial"",""time""
""fullscreenenter"",""1"",""2391""
","
","","","","","","null","<div style=""font-size:60px;"">+</div>","null","","fixation","","",""
"memory-trial","21","112793","0.0-11.0-1.1","6268","approach_avoid_sv1","""event"",""trial"",""time""
""fullscreenenter"",""1"",""2391""
","
","
","""event"",""trial"",""time""
""fullscreenenter"",""1"",""2391""
","
","","","","","","1343.1000000238419","images/ball2.png","","","practice","1","definitely_old",""
"html-keyboard-response","22","113300","0.0-11.0-0.2","6268","approach_avoid_sv1","""event"",""trial"",""time""
""fullscreenenter"",""1"",""2391""
","
","
","""event"",""trial"",""time""
""fullscreenenter"",""1"",""2391""
","
","","","","","","null","<div style=""font-size:60px;"">+</div>","null","","fixation","","",""
"memory-trial","23","116142","0.0-11.0-1.2","6268","approach_avoid_sv1","""event"",""trial"",""time""
""fullscreenenter"",""1"",""2391""
","
","
","""event"",""trial"",""time""
""fullscreenenter"",""1"",""2391""
","
","","","","","","1836.7000000178814","images/racket1.png","","","practice","2","maybe_old",""
"html-keyboard-response","24","116644","0.0-11.0-0.3","6268","approach_avoid_sv1","""event"",""trial"",""time""
""fullscreenenter"",""1"",""2391""
","
","
","""event"",""trial"",""time""
""fullscreenenter"",""1"",""2391""
","
","","","","","","null","<div style=""font-size:60px;"">+</div>","null","","fixation","","",""
"memory-trial","25","118793","0.0-11.0-1.3","6268","approach_avoid_sv1","""event"",""trial"",""time""
""fullscreenenter"",""1"",""2391""
","
","
","""event"",""trial"",""time""
""fullscreenenter"",""1"",""2391""
","
","","","","","","1144.699999988079","images/racket3.png","","","practice","1","definitely_old",""
"html-keyboard-response","26","119295","0.0-11.0-0.4","6268","approach_avoid_sv1","""event"",""trial"",""time""
""fullscreenenter"",""1"",""2391""
","
","
","""event"",""trial"",""time""
""fullscreenenter"",""1"",""2391""
","
","","","","","","null","<div style=""font-size:60px;"">+</div>","null","","fixation","","",""
"memory-trial","27","121551","0.0-11.0-1.4","6268","approach_avoid_sv1","""event"",""trial"",""time""
""fullscreenenter"",""1"",""2391""
","
","
","""event"",""trial"",""time""
""fullscreenenter"",""1"",""2391""
","
","","","","","","1247.699999988079","images/racket2.png","","","practice","1","definitely_old",""
"html-keyboard-response","28","122053","0.0-11.0-0.5","6268","approach_avoid_sv1","""event"",""trial"",""time""
""fullscreenenter"",""1"",""2391""
","
","
","""event"",""trial"",""time""
""fullscreenenter"",""1"",""2391""
","
","","","","","","null","<div style=""font-size:60px;"">+</div>","null","","fixation","","",""
"memory-trial","29","124247","0.0-11.0-1.5","6268","approach_avoid_sv1","""event"",""trial"",""time""
""fullscreenenter"",""1"",""2391""
","
","
","""event"",""trial"",""time""
""fullscreenenter"",""1"",""2391""
","
","","","","","","1187.199999988079","images/ball1.png","","","practice","1","definitely_old",""
"html-keyboard-response","30","124750","0.0-11.0-0.6","6268","approach_avoid_sv1","""event"",""trial"",""time""
""fullscreenenter"",""1"",""2391""
","
","
","""event"",""trial"",""time""
""fullscreenenter"",""1"",""2391""
","
","","","","","","null","<div style=""font-size:60px;"">+</div>","null","","fixation","","",""
"memory-trial","31","126794","0.0-11.0-1.6","6268","approach_avoid_sv1","""event"",""trial"",""time""
""fullscreenenter"",""1"",""2391""
","
","
","""event"",""trial"",""time""
""fullscreenenter"",""1"",""2391""
","
","","","","","","1040.6000000238419","images/racket5.png","","","practice","4","definitely_new",""
"html-keyboard-response","32","127300","0.0-11.0-0.7","6268","approach_avoid_sv1","""event"",""trial"",""time""
""fullscreenenter"",""1"",""2391""
","
","
","""event"",""trial"",""time""
""fullscreenenter"",""1"",""2391""
","
","","","","","","null","<div style=""font-size:60px;"">+</div>","null","","fixation","","",""
"memory-trial","33","129412","0.0-11.0-1.7","6268","approach_avoid_sv1","""event"",""trial"",""time""
""fullscreenenter"",""1"",""2391""
","
","
","""event"",""trial"",""time""
""fullscreenenter"",""1"",""2391""
","
","","","","","","1108.300000011921","images/ball3.png","","","practice","4","definitely_new",""
"learning-instructions","34","242956","0.0-12.0-0.0","6268","approach_avoid_sv1","""event"",""trial"",""time""
""fullscreenenter"",""1"",""2391""
","
","
","""event"",""trial"",""time""
""fullscreenenter"",""1"",""2391""
","
","","","","","","106232.19999998808","<p> Great! You have completed the practice. </p><p> Before you start, we're going to ask you a few questions about how the game works.  </p>","","0","instructions","","",""
"preload","35","244857","0.0-13.0","6268","approach_avoid_sv1","""event"",""trial"",""time""
""fullscreenenter"",""1"",""2391""
","
","
","""event"",""trial"",""time""
""fullscreenenter"",""1"",""2391""
","
","true","false","[]","[]","[]","","","","","","","",""
"comp-q","36","251869","0.0-14.0-0.0","6268","approach_avoid_sv1","""event"",""trial"",""time""
""fullscreenenter"",""1"",""2391""
","
","
","""event"",""trial"",""time""
""fullscreenenter"",""1"",""2391""
","
","","","","","","1140.9000000059605","<p> <b> True or False? </b> </p><p> In this game, you will only see each image once. </p>","","0","comp_question","","","true"
"comp-q","37","259273","0.0-14.0-1.0","6268","approach_avoid_sv1","""event"",""trial"",""time""
""fullscreenenter"",""1"",""2391""
","
","
","""event"",""trial"",""time""
""fullscreenenter"",""1"",""2391""
","
","","","","","","1053.2999999821186","<p> <b> That's right! </b> You will see many different images <i> one time each </i> in this game. </p>","","0","comp_answer","","",""
"comp-q","38","265013","0.0-15.0-0.0","6268","approach_avoid_sv1","""event"",""trial"",""time""
""fullscreenenter"",""1"",""2391""
","
","
","""event"",""trial"",""time""
""fullscreenenter"",""1"",""2391""
","
","","","","","","736.3000000119209","<p> <b> True or False? </b> </p><p> You should use the mouse and click to make your response. </p>","","1","comp_question","","","true"
"comp-q","39","272881","0.0-15.0-1.0","6268","approach_avoid_sv1","""event"",""trial"",""time""
""fullscreenenter"",""1"",""2391""
","
","
","""event"",""trial"",""time""
""fullscreenenter"",""1"",""2391""
","
","","","","","","1361.4000000059605","<p><b> That's right! </b> You should use the '1', '2', '3', and '4' keys to make your response. </p>","","0","comp_answer","","",""
"comp-q","40","279180","0.0-16.0-0.0","6268","approach_avoid_sv1","""event"",""trial"",""time""
""fullscreenenter"",""1"",""2391""
","
","
","""event"",""trial"",""time""
""fullscreenenter"",""1"",""2391""
","
","","","","","","619.9000000059605","<p> <b> True or False? </b> </p><p> You will have as much time as you want to make each choice. </p>","","1","comp_question","","","true"
"comp-q","41","284929","0.0-16.0-1.0","6268","approach_avoid_sv1","""event"",""trial"",""time""
""fullscreenenter"",""1"",""2391""
","
","
","""event"",""trial"",""time""
""fullscreenenter"",""1"",""2391""
","
","","","","","","1050.2000000178814","<p> <b> That's right! </b> You will only have 10 seconds to make each choice. </p>","","0","comp_answer","","",""
"learning-instructions","42","294918","0.0-17.0","6268","approach_avoid_sv1","""event"",""trial"",""time""
""fullscreenenter"",""1"",""2391""
","
","
","""event"",""trial"",""time""
""fullscreenenter"",""1"",""2391""
","
","","","","","","1322.7000000178814","<p> Great! You are now ready to begin the game. </p><p> Remember, use the 1, 2, 3, and 4 keys to make your responses. </p>","","0","instructions","","",""
"html-keyboard-response","43","295522","0.0-18.0-0.0","6268","approach_avoid_sv1","""event"",""trial"",""time""
""fullscreenenter"",""1"",""2391""
","
","
","""event"",""trial"",""time""
""fullscreenenter"",""1"",""2391""
","
","","","","","","null","<div style=""font-size:60px;"">+</div>","null","","fixation","","",""
"memory-trial","44","297620","0.0-18.0-1.0","6268","approach_avoid_sv1","""event"",""trial"",""time""
""fullscreenenter"",""1"",""2391""
","
","
","""event"",""trial"",""time""
""fullscreenenter"",""1"",""2391""
","
","","","","","","1090.7000000178814","images/boat6.png","","","memory_trial","4","definitely_new",""
"html-keyboard-response","45","298127","0.0-18.0-0.1","6268","approach_avoid_sv1","""event"",""trial"",""time""
""fullscreenenter"",""1"",""2391""
","
","
","""event"",""trial"",""time""
""fullscreenenter"",""1"",""2391""
","
","","","","","","null","<div style=""font-size:60px;"">+</div>","null","","fixation","","",""
"memory-trial","46","301368","0.0-18.0-1.1","6268","approach_avoid_sv1","""event"",""trial"",""time""
""fullscreenenter"",""1"",""2391""
","
","
","""event"",""trial"",""time""
""fullscreenenter"",""1"",""2391""
","
","","","","","","2236.9000000059605","images/apple8.png","","","memory_trial","3","maybe_new",""
"html-keyboard-response","47","301871","0.0-18.0-0.2","6268","approach_avoid_sv1","""event"",""trial"",""time""
""fullscreenenter"",""1"",""2391""
","
","
","""event"",""trial"",""time""
""fullscreenenter"",""1"",""2391""
","
","","","","","","null","<div style=""font-size:60px;"">+</div>","null","","fixation","","",""
"memory-trial","48","305167","0.0-18.0-1.2","6268","approach_avoid_sv1","""event"",""trial"",""time""
""fullscreenenter"",""1"",""2391""
","
","
","""event"",""trial"",""time""
""fullscreenenter"",""1"",""2391""
","
","","","","","","2290.9000000059605","images/cactus7.png","","","memory_trial","1","definitely_old",""
"html-keyboard-response","49","305673","0.0-18.0-0.3","6268","approach_avoid_sv1","""event"",""trial"",""time""
""fullscreenenter"",""1"",""2391""
","
","
","""event"",""trial"",""time""
""fullscreenenter"",""1"",""2391""
","
","","","","","","null","<div style=""font-size:60px;"">+</div>","null","","fixation","","",""
"memory-trial","50","310287","0.0-18.0-1.3","6268","approach_avoid_sv1","""event"",""trial"",""time""
""fullscreenenter"",""1"",""2391""
","
","
","""event"",""trial"",""time""
""fullscreenenter"",""1"",""2391""
","
","","","","","","3607","images/sheep8.png","","","memory_trial","2","maybe_old",""
"html-keyboard-response","51","310794","0.0-18.0-0.4","6268","approach_avoid_sv1","""event"",""trial"",""time""
""fullscreenenter"",""1"",""2391""
","
","
","""event"",""trial"",""time""
""fullscreenenter"",""1"",""2391""
","
","","","","","","null","<div style=""font-size:60px;"">+</div>","null","","fixation","","",""
"memory-trial","52","312884","0.0-18.0-1.4","6268","approach_avoid_sv1","""event"",""trial"",""time""
""fullscreenenter"",""1"",""2391""
","
","
","""event"",""trial"",""time""
""fullscreenenter"",""1"",""2391""
","
","","","","","","1085.7999999821186","images/sofa1.png","","","memory_trial","1","definitely_old",""
"html-keyboard-response","53","313387","0.0-18.0-0.5","6268","approach_avoid_sv1","""event"",""trial"",""time""
""fullscreenenter"",""1"",""2391""
","
","
","""event"",""trial"",""time""
""fullscreenenter"",""1"",""2391""
","
","","","","","","null","<div style=""font-size:60px;"">+</div>","null","","fixation","","",""
"memory-trial","54","315434","0.0-18.0-1.5","6268","approach_avoid_sv1","""event"",""trial"",""time""
""fullscreenenter"",""1"",""2391""
","
","
","""event"",""trial"",""time""
""fullscreenenter"",""1"",""2391""
","
","","","","","","1044","images/goat7.png","","","memory_trial","4","definitely_new",""
"html-keyboard-response","55","315940","0.0-18.0-0.6","6268","approach_avoid_sv1","""event"",""trial"",""time""
""fullscreenenter"",""1"",""2391""
","
","
","""event"",""trial"",""time""
""fullscreenenter"",""1"",""2391""
","
","","","","","","null","<div style=""font-size:60px;"">+</div>","null","","fixation","","",""
"memory-trial","56","319245","0.0-18.0-1.6","6268","approach_avoid_sv1","""event"",""trial"",""time""
""fullscreenenter"",""1"",""2391""
","
","
","""event"",""trial"",""time""
""fullscreenenter"",""1"",""2391""
","
","","","","","","2299.300000011921","images/cactus2.png","","","memory_trial","3","maybe_new",""
"html-keyboard-response","57","319746","0.0-18.0-0.7","6268","approach_avoid_sv1","""event"",""trial"",""time""
""fullscreenenter"",""1"",""2391""
","
","
","""event"",""trial"",""time""
""fullscreenenter"",""1"",""2391""
","
","","","","","","null","<div style=""font-size:60px;"">+</div>","null","","fixation","","",""
"memory-trial","58","322212","0.0-18.0-1.7","6268","approach_avoid_sv1","""event"",""trial"",""time""
""fullscreenenter"",""1"",""2391""
","
","
","""event"",""trial"",""time""
""fullscreenenter"",""1"",""2391""
","
","","","","","","1459.5999999940395","images/flower8.png","","","memory_trial","1","definitely_old",""
"html-keyboard-response","59","322715","0.0-18.0-0.8","6268","approach_avoid_sv1","""event"",""trial"",""time""
""fullscreenenter"",""1"",""2391""
","
","
","""event"",""trial"",""time""
""fullscreenenter"",""1"",""2391""
","
","","","","","","null","<div style=""font-size:60px;"">+</div>","null","","fixation","","",""
"memory-trial","60","325136","0.0-18.0-1.8","6268","approach_avoid_sv1","""event"",""trial"",""time""
""fullscreenenter"",""1"",""2391""
","
","
","""event"",""trial"",""time""
""fullscreenenter"",""1"",""2391""
","
","","","","","","1417.4000000059605","images/sofa8.png","","","memory_trial","4","definitely_new",""
"html-keyboard-response","61","325639","0.0-18.0-0.9","6268","approach_avoid_sv1","""event"",""trial"",""time""
""fullscreenenter"",""1"",""2391""
","
","
","""event"",""trial"",""time""
""fullscreenenter"",""1"",""2391""
","
","","","","","","null","<div style=""font-size:60px;"">+</div>","null","","fixation","","",""
"memory-trial","62","329409","0.0-18.0-1.9","6268","approach_avoid_sv1","""event"",""trial"",""time""
""fullscreenenter"",""1"",""2391""
","
","
","""event"",""trial"",""time""
""fullscreenenter"",""1"",""2391""
","
","","","","","","2766.0999999940395","images/table8.png","","","memory_trial","4","definitely_new",""
"html-keyboard-response","63","329910","0.0-18.0-0.10","6268","approach_avoid_sv1","""event"",""trial"",""time""
""fullscreenenter"",""1"",""2391""
","
","
","""event"",""trial"",""time""
""fullscreenenter"",""1"",""2391""
","
","","","","","","null","<div style=""font-size:60px;"">+</div>","null","","fixation","","",""
"memory-trial","64","332076","0.0-18.0-1.10","6268","approach_avoid_sv1","""event"",""trial"",""time""
""fullscreenenter"",""1"",""2391""
","
","
","""event"",""trial"",""time""
""fullscreenenter"",""1"",""2391""
","
","","","","","","1158.5999999940395","images/horse5.png","","","memory_trial","4","definitely_new",""
"html-keyboard-response","65","332581","0.0-18.0-0.11","6268","approach_avoid_sv1","""event"",""trial"",""time""
""fullscreenenter"",""1"",""2391""
","
","
","""event"",""trial"",""time""
""fullscreenenter"",""1"",""2391""
","
","","","","","","null","<div style=""font-size:60px;"">+</div>","null","","fixation","","",""
"memory-trial","66","334737","0.0-18.0-1.11","6268","approach_avoid_sv1","""event"",""trial"",""time""
""fullscreenenter"",""1"",""2391""
","
","
","""event"",""trial"",""time""
""fullscreenenter"",""1"",""2391""
","
","","","","","","1148.2000000178814","images/rabbit3.png","","","memory_trial","1","definitely_old",""
"html-keyboard-response","67","335242","0.0-18.0-0.12","6268","approach_avoid_sv1","""event"",""trial"",""time""
""fullscreenenter"",""1"",""2391""
","
","
","""event"",""trial"",""time""
""fullscreenenter"",""1"",""2391""
","
","","","","","","null","<div style=""font-size:60px;"">+</div>","null","","fixation","","",""
"memory-trial","68","338108","0.0-18.0-1.12","6268","approach_avoid_sv1","""event"",""trial"",""time""
""fullscreenenter"",""1"",""2391""
","
","
","""event"",""trial"",""time""
""fullscreenenter"",""1"",""2391""
","
","","","","","","1859.5","images/bed3.png","","","memory_trial","4","definitely_new",""
"html-keyboard-response","69","338615","0.0-18.0-0.13","6268","approach_avoid_sv1","""event"",""trial"",""time""
""fullscreenenter"",""1"",""2391""
","
","
","""event"",""trial"",""time""
""fullscreenenter"",""1"",""2391""
","
","","","","","","null","<div style=""font-size:60px;"">+</div>","null","","fixation","","",""
"memory-trial","70","340978","0.0-18.0-1.13","6268","approach_avoid_sv1","""event"",""trial"",""time""
""fullscreenenter"",""1"",""2391""
","
","
","""event"",""trial"",""time""
""fullscreenenter"",""1"",""2391""
","
","","","","","","1358.0999999940395","images/cat2.png","","","memory_trial","1","definitely_old",""
"html-keyboard-response","71","341484","0.0-18.0-0.14","6268","approach_avoid_sv1","""event"",""trial"",""time""
""fullscreenenter"",""1"",""2391""
","
","
","""event"",""trial"",""time""
""fullscreenenter"",""1"",""2391""
","
","","","","","","null","<div style=""font-size:60px;"">+</div>","null","","fixation","","",""
"memory-trial","72","344135","0.0-18.0-1.14","6268","approach_avoid_sv1","""event"",""trial"",""time""
""fullscreenenter"",""1"",""2391""
","
","
","""event"",""trial"",""time""
""fullscreenenter"",""1"",""2391""
","
","","","","","","1647.800000011921","images/chair6.png","","","memory_trial","1","definitely_old",""
"html-keyboard-response","73","344642","0.0-18.0-0.15","6268","approach_avoid_sv1","""event"",""trial"",""time""
""fullscreenenter"",""1"",""2391""
","
","
","""event"",""trial"",""time""
""fullscreenenter"",""1"",""2391""
","
","","","","","","null","<div style=""font-size:60px;"">+</div>","null","","fixation","","",""
"memory-trial","74","346711","0.0-18.0-1.15","6268","approach_avoid_sv1","""event"",""trial"",""time""
""fullscreenenter"",""1"",""2391""
","
","
","""event"",""trial"",""time""
""fullscreenenter"",""1"",""2391""
","
","","","","","","1065.5999999940395","images/apple1.png","","","memory_trial","4","definitely_new",""
"html-keyboard-response","75","347218","0.0-18.0-0.16","6268","approach_avoid_sv1","""event"",""trial"",""time""
""fullscreenenter"",""1"",""2391""
","
","
","""event"",""trial"",""time""
""fullscreenenter"",""1"",""2391""
","
","","","","","","null","<div style=""font-size:60px;"">+</div>","null","","fixation","","",""
"memory-trial","76","349111","0.0-18.0-1.16","6268","approach_avoid_sv1","""event"",""trial"",""time""
""fullscreenenter"",""1"",""2391""
","
","
","""event"",""trial"",""time""
""fullscreenenter"",""1"",""2391""
","
","","","","","","886.3000000119209","images/bush7.png","","","memory_trial","4","definitely_new",""
"html-keyboard-response","77","349612","0.0-18.0-0.17","6268","approach_avoid_sv1","""event"",""trial"",""time""
""fullscreenenter"",""1"",""2391""
","
","
","""event"",""trial"",""time""
""fullscreenenter"",""1"",""2391""
","
","","","","","","null","<div style=""font-size:60px;"">+</div>","null","","fixation","","",""
"memory-trial","78","352439","0.0-18.0-1.17","6268","approach_avoid_sv1","""event"",""trial"",""time""
""fullscreenenter"",""1"",""2391""
","
","
","""event"",""trial"",""time""
""fullscreenenter"",""1"",""2391""
","
","","","","","","1823.2000000178814","images/tree1.png","","","memory_trial","1","definitely_old",""
"html-keyboard-response","79","352940","0.0-18.0-0.18","6268","approach_avoid_sv1","""event"",""trial"",""time""
""fullscreenenter"",""1"",""2391""
","
","
","""event"",""trial"",""time""
""fullscreenenter"",""1"",""2391""
","
","","","","","","null","<div style=""font-size:60px;"">+</div>","null","","fixation","","",""
"memory-trial","80","356455","0.0-18.0-1.18","6268","approach_avoid_sv1","""event"",""trial"",""time""
""fullscreenenter"",""1"",""2391""
","
","
","""event"",""trial"",""time""
""fullscreenenter"",""1"",""2391""
","
","","","","","","2509.9000000059605","images/truck7.png","","","memory_trial","4","definitely_new",""
"html-keyboard-response","81","356956","0.0-18.0-0.19","6268","approach_avoid_sv1","""event"",""trial"",""time""
""fullscreenenter"",""1"",""2391""
","
","
","""event"",""trial"",""time""
""fullscreenenter"",""1"",""2391""
","
","","","","","","null","<div style=""font-size:60px;"">+</div>","null","","fixation","","",""
"memory-trial","82","359137","0.0-18.0-1.19","6268","approach_avoid_sv1","""event"",""trial"",""time""
""fullscreenenter"",""1"",""2391""
","
","
","""event"",""trial"",""time""
""fullscreenenter"",""1"",""2391""
","
","","","","","","1176.5999999940395","images/train6.png","","","memory_trial","1","definitely_old",""
"html-keyboard-response","83","359639","0.0-18.0-0.20","6268","approach_avoid_sv1","""event"",""trial"",""time""
""fullscreenenter"",""1"",""2391""
","
","
","""event"",""trial"",""time""
""fullscreenenter"",""1"",""2391""
","
","","","","","","null","<div style=""font-size:60px;"">+</div>","null","","fixation","","",""
"memory-trial","84","362871","0.0-18.0-1.20","6268","approach_avoid_sv1","""event"",""trial"",""time""
""fullscreenenter"",""1"",""2391""
","
","
","""event"",""trial"",""time""
""fullscreenenter"",""1"",""2391""
","
","","","","","","2228.9000000059605","images/plane6.png","","","memory_trial","2","maybe_old",""
"html-keyboard-response","85","363373","0.0-18.0-0.21","6268","approach_avoid_sv1","""event"",""trial"",""time""
""fullscreenenter"",""1"",""2391""
","
","
","""event"",""trial"",""time""
""fullscreenenter"",""1"",""2391""
","
","","","","","","null","<div style=""font-size:60px;"">+</div>","null","","fixation","","",""
"memory-trial","86","365677","0.0-18.0-1.21","6268","approach_avoid_sv1","""event"",""trial"",""time""
""fullscreenenter"",""1"",""2391""
","
","
","""event"",""trial"",""time""
""fullscreenenter"",""1"",""2391""
","
","","","","","","1298.7000000178814","images/rodent8.png","","","memory_trial","4","definitely_new",""
"html-keyboard-response","87","366178","0.0-18.0-0.22","6268","approach_avoid_sv1","""event"",""trial"",""time""
""fullscreenenter"",""1"",""2391""
","
","
","""event"",""trial"",""time""
""fullscreenenter"",""1"",""2391""
","
","","","","","","null","<div style=""font-size:60px;"">+</div>","null","","fixation","","",""
"memory-trial","88","368690","0.0-18.0-1.22","6268","approach_avoid_sv1","""event"",""trial"",""time""
""fullscreenenter"",""1"",""2391""
","
","
","""event"",""trial"",""time""
""fullscreenenter"",""1"",""2391""
","
","","","","","","1504.7000000178814","images/flower7.png","","","memory_trial","3","maybe_new",""
"html-keyboard-response","89","369191","0.0-18.0-0.23","6268","approach_avoid_sv1","""event"",""trial"",""time""
""fullscreenenter"",""1"",""2391""
","
","
","""event"",""trial"",""time""
""fullscreenenter"",""1"",""2391""
","
","","","","","","null","<div style=""font-size:60px;"">+</div>","null","","fixation","","",""
"memory-trial","90","371931","0.0-18.0-1.23","6268","approach_avoid_sv1","""event"",""trial"",""time""
""fullscreenenter"",""1"",""2391""
","
","
","""event"",""trial"",""time""
""fullscreenenter"",""1"",""2391""
","
","","","","","","1734.199999988079","images/sofa3.png","","","memory_trial","2","maybe_old",""
"html-keyboard-response","91","372434","0.0-18.0-0.24","6268","approach_avoid_sv1","""event"",""trial"",""time""
""fullscreenenter"",""1"",""2391""
","
","
","""event"",""trial"",""time""
""fullscreenenter"",""1"",""2391""
","
","","","","","","null","<div style=""font-size:60px;"">+</div>","null","","fixation","","",""
"memory-trial","92","374792","0.0-18.0-1.24","6268","approach_avoid_sv1","""event"",""trial"",""time""
""fullscreenenter"",""1"",""2391""
","
","
","""event"",""trial"",""time""
""fullscreenenter"",""1"",""2391""
","
","","","","","","1351.199999988079","images/rodent3.png","","","memory_trial","4","definitely_new",""
"html-keyboard-response","93","375293","0.0-18.0-0.25","6268","approach_avoid_sv1","""event"",""trial"",""time""
""fullscreenenter"",""1"",""2391""
","
","
","""event"",""trial"",""time""
""fullscreenenter"",""1"",""2391""
","
","","","","","","null","<div style=""font-size:60px;"">+</div>","null","","fixation","","",""
"memory-trial","94","377723","0.0-18.0-1.25","6268","approach_avoid_sv1","""event"",""trial"",""time""
""fullscreenenter"",""1"",""2391""
","
","
","""event"",""trial"",""time""
""fullscreenenter"",""1"",""2391""
","
","","","","","","1424.5999999940395","images/sheep1.png","","","memory_trial","3","maybe_new",""
"html-keyboard-response","95","378226","0.0-18.0-0.26","6268","approach_avoid_sv1","""event"",""trial"",""time""
""fullscreenenter"",""1"",""2391""
","
","
","""event"",""trial"",""time""
""fullscreenenter"",""1"",""2391""
","
","","","","","","null","<div style=""font-size:60px;"">+</div>","null","","fixation","","",""
"memory-trial","96","380274","0.0-18.0-1.26","6268","approach_avoid_sv1","""event"",""trial"",""time""
""fullscreenenter"",""1"",""2391""
","
","
","""event"",""trial"",""time""
""fullscreenenter"",""1"",""2391""
","
","","","","","","1043.199999988079","images/chair1.png","","","memory_trial","1","definitely_old",""
"html-keyboard-response","97","380775","0.0-18.0-0.27","6268","approach_avoid_sv1","""event"",""trial"",""time""
""fullscreenenter"",""1"",""2391""
","
","
","""event"",""trial"",""time""
""fullscreenenter"",""1"",""2391""
","
","","","","","","null","<div style=""font-size:60px;"">+</div>","null","","fixation","","",""
"memory-trial","98","383267","0.0-18.0-1.27","6268","approach_avoid_sv1","""event"",""trial"",""time""
""fullscreenenter"",""1"",""2391""
","
","
","""event"",""trial"",""time""
""fullscreenenter"",""1"",""2391""
","
","","","","","","1488","images/tree7.png","","","memory_trial","1","definitely_old",""
"html-keyboard-response","99","383768","0.0-18.0-0.28","6268","approach_avoid_sv1","""event"",""trial"",""time""
""fullscreenenter"",""1"",""2391""
","
","
","""event"",""trial"",""time""
""fullscreenenter"",""1"",""2391""
","
","","","","","","null","<div style=""font-size:60px;"">+</div>","null","","fixation","","",""
"memory-trial","100","387011","0.0-18.0-1.28","6268","approach_avoid_sv1","""event"",""trial"",""time""
""fullscreenenter"",""1"",""2391""
","
","
","""event"",""trial"",""time""
""fullscreenenter"",""1"",""2391""
","
","","","","","","2239","images/flower5.png","","","memory_trial","1","definitely_old",""
"html-keyboard-response","101","387512","0.0-18.0-0.29","6268","approach_avoid_sv1","""event"",""trial"",""time""
""fullscreenenter"",""1"",""2391""
","
","
","""event"",""trial"",""time""
""fullscreenenter"",""1"",""2391""
","
","","","","","","null","<div style=""font-size:60px;"">+</div>","null","","fixation","","",""
"memory-trial","102","389784","0.0-18.0-1.29","6268","approach_avoid_sv1","""event"",""trial"",""time""
""fullscreenenter"",""1"",""2391""
","
","
","""event"",""trial"",""time""
""fullscreenenter"",""1"",""2391""
","
","","","","","","1265.5999999940395","images/tree6.png","","","memory_trial","1","definitely_old",""
"html-keyboard-response","103","390285","0.0-18.0-0.30","6268","approach_avoid_sv1","""event"",""trial"",""time""
""fullscreenenter"",""1"",""2391""
","
","
","""event"",""trial"",""time""
""fullscreenenter"",""1"",""2391""
","
","","","","","","null","<div style=""font-size:60px;"">+</div>","null","","fixation","","",""
"memory-trial","104","392243","0.0-18.0-1.30","6268","approach_avoid_sv1","""event"",""trial"",""time""
""fullscreenenter"",""1"",""2391""
","
","
","""event"",""trial"",""time""
""fullscreenenter"",""1"",""2391""
","
","","","","","","952.2999999821186","images/horse3.png","","","memory_trial","4","definitely_new",""
"html-keyboard-response","105","392744","0.0-18.0-0.31","6268","approach_avoid_sv1","""event"",""trial"",""time""
""fullscreenenter"",""1"",""2391""
","
","
","""event"",""trial"",""time""
""fullscreenenter"",""1"",""2391""
","
","","","","","","null","<div style=""font-size:60px;"">+</div>","null","","fixation","","",""
"memory-trial","106","394766","0.0-18.0-1.31","6268","approach_avoid_sv1","""event"",""trial"",""time""
""fullscreenenter"",""1"",""2391""
","
","
","""event"",""trial"",""time""
""fullscreenenter"",""1"",""2391""
","
","","","","","","1016.5999999940395","images/truck6.png","","","memory_trial","1","definitely_old",""
"html-keyboard-response","107","395267","0.0-18.0-0.32","6268","approach_avoid_sv1","""event"",""trial"",""time""
""fullscreenenter"",""1"",""2391""
","
","
","""event"",""trial"",""time""
""fullscreenenter"",""1"",""2391""
","
","","","","","","null","<div style=""font-size:60px;"">+</div>","null","","fixation","","",""
"memory-trial","108","397192","0.0-18.0-1.32","6268","approach_avoid_sv1","""event"",""trial"",""time""
""fullscreenenter"",""1"",""2391""
","
","
","""event"",""trial"",""time""
""fullscreenenter"",""1"",""2391""
","
","","","","","","918.6999999880791","images/boat5.png","","","memory_trial","4","definitely_new",""
"html-keyboard-response","109","397693","0.0-18.0-0.33","6268","approach_avoid_sv1","""event"",""trial"",""time""
""fullscreenenter"",""1"",""2391""
","
","
","""event"",""trial"",""time""
""fullscreenenter"",""1"",""2391""
","
","","","","","","null","<div style=""font-size:60px;"">+</div>","null","","fixation","","",""
"memory-trial","110","399848","0.0-18.0-1.33","6268","approach_avoid_sv1","""event"",""trial"",""time""
""fullscreenenter"",""1"",""2391""
","
","
","""event"",""trial"",""time""
""fullscreenenter"",""1"",""2391""
","
","","","","","","1149.7000000178814","images/truck4.png","","","memory_trial","1","definitely_old",""
"html-keyboard-response","111","400351","0.0-18.0-0.34","6268","approach_avoid_sv1","""event"",""trial"",""time""
""fullscreenenter"",""1"",""2391""
","
","
","""event"",""trial"",""time""
""fullscreenenter"",""1"",""2391""
","
","","","","","","null","<div style=""font-size:60px;"">+</div>","null","","fixation","","",""
"memory-trial","112","402526","0.0-18.0-1.34","6268","approach_avoid_sv1","""event"",""trial"",""time""
""fullscreenenter"",""1"",""2391""
","
","
","""event"",""trial"",""time""
""fullscreenenter"",""1"",""2391""
","
","","","","","","1172.5999999940395","images/sofa4.png","","","memory_trial","4","definitely_new",""
"html-keyboard-response","113","403027","0.0-18.0-0.35","6268","approach_avoid_sv1","""event"",""trial"",""time""
""fullscreenenter"",""1"",""2391""
","
","
","""event"",""trial"",""time""
""fullscreenenter"",""1"",""2391""
","
","","","","","","null","<div style=""font-size:60px;"">+</div>","null","","fixation","","",""
"memory-trial","114","405459","0.0-18.0-1.35","6268","approach_avoid_sv1","""event"",""trial"",""time""
""fullscreenenter"",""1"",""2391""
","
","
","""event"",""trial"",""time""
""fullscreenenter"",""1"",""2391""
","
","","","","","","1429.9000000059605","images/bed8.png","","","memory_trial","4","definitely_new",""
"html-keyboard-response","115","405962","0.0-18.0-0.36","6268","approach_avoid_sv1","""event"",""trial"",""time""
""fullscreenenter"",""1"",""2391""
","
","
","""event"",""trial"",""time""
""fullscreenenter"",""1"",""2391""
","
","","","","","","null","<div style=""font-size:60px;"">+</div>","null","","fixation","","",""
"memory-trial","116","408035","0.0-18.0-1.36","6268","approach_avoid_sv1","""event"",""trial"",""time""
""fullscreenenter"",""1"",""2391""
","
","
","""event"",""trial"",""time""
""fullscreenenter"",""1"",""2391""
","
","","","","","","1065.5999999940395","images/bush1.png","","","memory_trial","4","definitely_new",""
"html-keyboard-response","117","408537","0.0-18.0-0.37","6268","approach_avoid_sv1","""event"",""trial"",""time""
""fullscreenenter"",""1"",""2391""
","
","
","""event"",""trial"",""time""
""fullscreenenter"",""1"",""2391""
","
","","","","","","null","<div style=""font-size:60px;"">+</div>","null","","fixation","","",""
"memory-trial","118","410686","0.0-18.0-1.37","6268","approach_avoid_sv1","""event"",""trial"",""time""
""fullscreenenter"",""1"",""2391""
","
","
","""event"",""trial"",""time""
""fullscreenenter"",""1"",""2391""
","
","","","","","","1146","images/tree2.png","","","memory_trial","4","definitely_new",""
"html-keyboard-response","119","411187","0.0-18.0-0.38","6268","approach_avoid_sv1","""event"",""trial"",""time""
""fullscreenenter"",""1"",""2391""
","
","
","""event"",""trial"",""time""
""fullscreenenter"",""1"",""2391""
","
","","","","","","null","<div style=""font-size:60px;"">+</div>","null","","fixation","","",""
"memory-trial","120","414014","0.0-18.0-1.38","6268","approach_avoid_sv1","""event"",""trial"",""time""
""fullscreenenter"",""1"",""2391""
","
","
","""event"",""trial"",""time""
""fullscreenenter"",""1"",""2391""
","
","","","","","","1824.1000000238419","images/horse1.png","","","memory_trial","4","definitely_new",""
"html-keyboard-response","121","414515","0.0-18.0-0.39","6268","approach_avoid_sv1","""event"",""trial"",""time""
""fullscreenenter"",""1"",""2391""
","
","
","""event"",""trial"",""time""
""fullscreenenter"",""1"",""2391""
","
","","","","","","null","<div style=""font-size:60px;"">+</div>","null","","fixation","","",""
"memory-trial","122","416654","0.0-18.0-1.39","6268","approach_avoid_sv1","""event"",""trial"",""time""
""fullscreenenter"",""1"",""2391""
","
","
","""event"",""trial"",""time""
""fullscreenenter"",""1"",""2391""
","
","","","","","","1132.5","images/apple2.png","","","memory_trial","4","definitely_new",""
"html-keyboard-response","123","417156","0.0-18.0-0.40","6268","approach_avoid_sv1","""event"",""trial"",""time""
""fullscreenenter"",""1"",""2391""
","
","
","""event"",""trial"",""time""
""fullscreenenter"",""1"",""2391""
","
","","","","","","null","<div style=""font-size:60px;"">+</div>","null","","fixation","","",""
"memory-trial","124","419742","0.0-18.0-1.40","6268","approach_avoid_sv1","""event"",""trial"",""time""
""fullscreenenter"",""1"",""2391""
","
","
","""event"",""trial"",""time""
""fullscreenenter"",""1"",""2391""
","
","","","","","","1584.0999999940395","images/train4.png","","","memory_trial","4","definitely_new",""
"html-keyboard-response","125","420244","0.0-18.0-0.41","6268","approach_avoid_sv1","""event"",""trial"",""time""
""fullscreenenter"",""1"",""2391""
","
","
","""event"",""trial"",""time""
""fullscreenenter"",""1"",""2391""
","
","","","","","","null","<div style=""font-size:60px;"">+</div>","null","","fixation","","",""
"memory-trial","126","422100","0.0-18.0-1.41","6268","approach_avoid_sv1","""event"",""trial"",""time""
""fullscreenenter"",""1"",""2391""
","
","
","""event"",""trial"",""time""
""fullscreenenter"",""1"",""2391""
","
","","","","","","848.2999999821186","images/bed4.png","","","memory_trial","4","definitely_new",""
"html-button-response","127","424294","0.0-18.0-2.41-0.41","6268","approach_avoid_sv1","""event"",""trial"",""time""
""fullscreenenter"",""1"",""2391""
","
","
","""event"",""trial"",""time""
""fullscreenenter"",""1"",""2391""
","
","","","","","","2192.0999999940395","<p> Take a break! </p><p> Click the button to continue. </p>","0","","break","","",""
"html-keyboard-response","128","424796","0.0-18.0-0.42","6268","approach_avoid_sv1","""event"",""trial"",""time""
""fullscreenenter"",""1"",""2391""
","
","
","""event"",""trial"",""time""
""fullscreenenter"",""1"",""2391""
","
","","","","","","null","<div style=""font-size:60px;"">+</div>","null","","fixation","","",""
"memory-trial","129","428543","0.0-18.0-1.42","6268","approach_avoid_sv1","""event"",""trial"",""time""
""fullscreenenter"",""1"",""2391""
","
","
","""event"",""trial"",""time""
""fullscreenenter"",""1"",""2391""
","
","","","","","","2743.199999988079","images/train2.png","","","memory_trial","4","definitely_new",""
"html-keyboard-response","130","429048","0.0-18.0-0.43","6268","approach_avoid_sv1","""event"",""trial"",""time""
""fullscreenenter"",""1"",""2391""
","
","
","""event"",""trial"",""time""
""fullscreenenter"",""1"",""2391""
","
","","","","","","null","<div style=""font-size:60px;"">+</div>","null","","fixation","","",""
"memory-trial","131","432377","0.0-18.0-1.43","6268","approach_avoid_sv1","""event"",""trial"",""time""
""fullscreenenter"",""1"",""2391""
","
","
","""event"",""trial"",""time""
""fullscreenenter"",""1"",""2391""
","
","","","","","","2323","images/dog7.png","","","memory_trial","1","definitely_old",""
"html-keyboard-response","132","432879","0.0-18.0-0.44","6268","approach_avoid_sv1","""event"",""trial"",""time""
""fullscreenenter"",""1"",""2391""
","
","
","""event"",""trial"",""time""
""fullscreenenter"",""1"",""2391""
","
","","","","","","null","<div style=""font-size:60px;"">+</div>","null","","fixation","","",""
"memory-trial","133","434906","0.0-18.0-1.44","6268","approach_avoid_sv1","""event"",""trial"",""time""
""fullscreenenter"",""1"",""2391""
","
","
","""event"",""trial"",""time""
""fullscreenenter"",""1"",""2391""
","
","","","","","","1020.5","images/sofa7.png","","","memory_trial","1","definitely_old",""
"html-keyboard-response","134","435407","0.0-18.0-0.45","6268","approach_avoid_sv1","""event"",""trial"",""time""
""fullscreenenter"",""1"",""2391""
","
","
","""event"",""trial"",""time""
""fullscreenenter"",""1"",""2391""
","
","","","","","","null","<div style=""font-size:60px;"">+</div>","null","","fixation","","",""
"memory-trial","135","437258","0.0-18.0-1.45","6268","approach_avoid_sv1","""event"",""trial"",""time""
""fullscreenenter"",""1"",""2391""
","
","
","""event"",""trial"",""time""
""fullscreenenter"",""1"",""2391""
","
","","","","","","844","images/boat7.png","","","memory_trial","4","definitely_new",""
"html-keyboard-response","136","437759","0.0-18.0-0.46","6268","approach_avoid_sv1","""event"",""trial"",""time""
""fullscreenenter"",""1"",""2391""
","
","
","""event"",""trial"",""time""
""fullscreenenter"",""1"",""2391""
","
","","","","","","null","<div style=""font-size:60px;"">+</div>","null","","fixation","","",""
"memory-trial","137","441284","0.0-18.0-1.46","6268","approach_avoid_sv1","""event"",""trial"",""time""
""fullscreenenter"",""1"",""2391""
","
","
","""event"",""trial"",""time""
""fullscreenenter"",""1"",""2391""
","
","","","","","","2519.9000000059605","images/table4.png","","","memory_trial","3","maybe_new",""
"html-keyboard-response","138","441786","0.0-18.0-0.47","6268","approach_avoid_sv1","""event"",""trial"",""time""
""fullscreenenter"",""1"",""2391""
","
","
","""event"",""trial"",""time""
""fullscreenenter"",""1"",""2391""
","
","","","","","","null","<div style=""font-size:60px;"">+</div>","null","","fixation","","",""
"memory-trial","139","445536","0.0-18.0-1.47","6268","approach_avoid_sv1","""event"",""trial"",""time""
""fullscreenenter"",""1"",""2391""
","
","
","""event"",""trial"",""time""
""fullscreenenter"",""1"",""2391""
","
","","","","","","2742.5","images/bush5.png","","","memory_trial","4","definitely_new",""
"html-keyboard-response","140","446042","0.0-18.0-0.48","6268","approach_avoid_sv1","""event"",""trial"",""time""
""fullscreenenter"",""1"",""2391""
","
","
","""event"",""trial"",""time""
""fullscreenenter"",""1"",""2391""
","
","","","","","","null","<div style=""font-size:60px;"">+</div>","null","","fixation","","",""
"memory-trial","141","448765","0.0-18.0-1.48","6268","approach_avoid_sv1","""event"",""trial"",""time""
""fullscreenenter"",""1"",""2391""
","
","
","""event"",""trial"",""time""
""fullscreenenter"",""1"",""2391""
","
","","","","","","1716","images/straw2.png","","","memory_trial","3","maybe_new",""
"html-keyboard-response","142","449270","0.0-18.0-0.49","6268","approach_avoid_sv1","""event"",""trial"",""time""
""fullscreenenter"",""1"",""2391""
","
","
","""event"",""trial"",""time""
""fullscreenenter"",""1"",""2391""
","
","","","","","","null","<div style=""font-size:60px;"">+</div>","null","","fixation","","",""
"memory-trial","143","451450","0.0-18.0-1.49","6268","approach_avoid_sv1","""event"",""trial"",""time""
""fullscreenenter"",""1"",""2391""
","
","
","""event"",""trial"",""time""
""fullscreenenter"",""1"",""2391""
","
","","","","","","1177.4000000059605","images/dog3.png","","","memory_trial","1","definitely_old",""
"html-keyboard-response","144","451951","0.0-18.0-0.50","6268","approach_avoid_sv1","""event"",""trial"",""time""
""fullscreenenter"",""1"",""2391""
","
","
","""event"",""trial"",""time""
""fullscreenenter"",""1"",""2391""
","
","","","","","","null","<div style=""font-size:60px;"">+</div>","null","","fixation","","",""
"memory-trial","145","454716","0.0-18.0-1.50","6268","approach_avoid_sv1","""event"",""trial"",""time""
""fullscreenenter"",""1"",""2391""
","
","
","""event"",""trial"",""time""
""fullscreenenter"",""1"",""2391""
","
","","","","","","1757.699999988079","images/horse7.png","","","memory_trial","3","maybe_new",""
"html-keyboard-response","146","455221","0.0-18.0-0.51","6268","approach_avoid_sv1","""event"",""trial"",""time""
""fullscreenenter"",""1"",""2391""
","
","
","""event"",""trial"",""time""
""fullscreenenter"",""1"",""2391""
","
","","","","","","null","<div style=""font-size:60px;"">+</div>","null","","fixation","","",""
"memory-trial","147","457866","0.0-18.0-1.51","6268","approach_avoid_sv1","""event"",""trial"",""time""
""fullscreenenter"",""1"",""2391""
","
","
","""event"",""trial"",""time""
""fullscreenenter"",""1"",""2391""
","
","","","","","","1639.7000000178814","images/plane3.png","","","memory_trial","2","maybe_old",""
"html-keyboard-response","148","458367","0.0-18.0-0.52","6268","approach_avoid_sv1","""event"",""trial"",""time""
""fullscreenenter"",""1"",""2391""
","
","
","""event"",""trial"",""time""
""fullscreenenter"",""1"",""2391""
","
","","","","","","null","<div style=""font-size:60px;"">+</div>","null","","fixation","","",""
"memory-trial","149","460261","0.0-18.0-1.52","6268","approach_avoid_sv1","""event"",""trial"",""time""
""fullscreenenter"",""1"",""2391""
","
","
","""event"",""trial"",""time""
""fullscreenenter"",""1"",""2391""
","
","","","","","","887.2000000178814","images/rabbit1.png","","","memory_trial","1","definitely_old",""
"html-keyboard-response","150","460762","0.0-18.0-0.53","6268","approach_avoid_sv1","""event"",""trial"",""time""
""fullscreenenter"",""1"",""2391""
","
","
","""event"",""trial"",""time""
""fullscreenenter"",""1"",""2391""
","
","","","","","","null","<div style=""font-size:60px;"">+</div>","null","","fixation","","",""
"memory-trial","151","463264","0.0-18.0-1.53","6268","approach_avoid_sv1","""event"",""trial"",""time""
""fullscreenenter"",""1"",""2391""
","
","
","""event"",""trial"",""time""
""fullscreenenter"",""1"",""2391""
","
","","","","","","1496.699999988079","images/banana7.png","","","memory_trial","4","definitely_new",""
"html-keyboard-response","152","463765","0.0-18.0-0.54","6268","approach_avoid_sv1","""event"",""trial"",""time""
""fullscreenenter"",""1"",""2391""
","
","
","""event"",""trial"",""time""
""fullscreenenter"",""1"",""2391""
","
","","","","","","null","<div style=""font-size:60px;"">+</div>","null","","fixation","","",""
"memory-trial","153","466336","0.0-18.0-1.54","6268","approach_avoid_sv1","""event"",""trial"",""time""
""fullscreenenter"",""1"",""2391""
","
","
","""event"",""trial"",""time""
""fullscreenenter"",""1"",""2391""
","
","","","","","","1565.2999999821186","images/banana1.png","","","memory_trial","4","definitely_new",""
"html-keyboard-response","154","466837","0.0-18.0-0.55","6268","approach_avoid_sv1","""event"",""trial"",""time""
""fullscreenenter"",""1"",""2391""
","
","
","""event"",""trial"",""time""
""fullscreenenter"",""1"",""2391""
","
","","","","","","null","<div style=""font-size:60px;"">+</div>","null","","fixation","","",""
"memory-trial","155","468965","0.0-18.0-1.55","6268","approach_avoid_sv1","""event"",""trial"",""time""
""fullscreenenter"",""1"",""2391""
","
","
","""event"",""trial"",""time""
""fullscreenenter"",""1"",""2391""
","
","","","","","","1125.800000011921","images/bush2.png","","","memory_trial","4","definitely_new",""
"html-keyboard-response","156","469466","0.0-18.0-0.56","6268","approach_avoid_sv1","""event"",""trial"",""time""
""fullscreenenter"",""1"",""2391""
","
","
","""event"",""trial"",""time""
""fullscreenenter"",""1"",""2391""
","
","","","","","","null","<div style=""font-size:60px;"">+</div>","null","","fixation","","",""
"memory-trial","157","471424","0.0-18.0-1.56","6268","approach_avoid_sv1","""event"",""trial"",""time""
""fullscreenenter"",""1"",""2391""
","
","
","""event"",""trial"",""time""
""fullscreenenter"",""1"",""2391""
","
","","","","","","954.3000000119209","images/tree3.png","","","memory_trial","1","definitely_old",""
"html-keyboard-response","158","471925","0.0-18.0-0.57","6268","approach_avoid_sv1","""event"",""trial"",""time""
""fullscreenenter"",""1"",""2391""
","
","
","""event"",""trial"",""time""
""fullscreenenter"",""1"",""2391""
","
","","","","","","null","<div style=""font-size:60px;"">+</div>","null","","fixation","","",""
"memory-trial","159","474795","0.0-18.0-1.57","6268","approach_avoid_sv1","""event"",""trial"",""time""
""fullscreenenter"",""1"",""2391""
","
","
","""event"",""trial"",""time""
""fullscreenenter"",""1"",""2391""
","
","","","","","","1864.0999999940395","images/plane8.png","","","memory_trial","2","maybe_old",""
"html-keyboard-response","160","475296","0.0-18.0-0.58","6268","approach_avoid_sv1","""event"",""trial"",""time""
""fullscreenenter"",""1"",""2391""
","
","
","""event"",""trial"",""time""
""fullscreenenter"",""1"",""2391""
","
","","","","","","null","<div style=""font-size:60px;"">+</div>","null","","fixation","","",""
"memory-trial","161","478149","0.0-18.0-1.58","6268","approach_avoid_sv1","""event"",""trial"",""time""
""fullscreenenter"",""1"",""2391""
","
","
","""event"",""trial"",""time""
""fullscreenenter"",""1"",""2391""
","
","","","","","","1849","images/orange6.png","","","memory_trial","1","definitely_old",""
"html-keyboard-response","162","478651","0.0-18.0-0.59","6268","approach_avoid_sv1","""event"",""trial"",""time""
""fullscreenenter"",""1"",""2391""
","
","
","""event"",""trial"",""time""
""fullscreenenter"",""1"",""2391""
","
","","","","","","null","<div style=""font-size:60px;"">+</div>","null","","fixation","","",""
"memory-trial","163","481392","0.0-18.0-1.59","6268","approach_avoid_sv1","""event"",""trial"",""time""
""fullscreenenter"",""1"",""2391""
","
","
","""event"",""trial"",""time""
""fullscreenenter"",""1"",""2391""
","
","","","","","","1737.4000000059605","images/orange5.png","","","memory_trial","2","maybe_old",""
"html-keyboard-response","164","481894","0.0-18.0-0.60","6268","approach_avoid_sv1","""event"",""trial"",""time""
""fullscreenenter"",""1"",""2391""
","
","
","""event"",""trial"",""time""
""fullscreenenter"",""1"",""2391""
","
","","","","","","null","<div style=""font-size:60px;"">+</div>","null","","fixation","","",""
"memory-trial","165","485158","0.0-18.0-1.60","6268","approach_avoid_sv1","""event"",""trial"",""time""
""fullscreenenter"",""1"",""2391""
","
","
","""event"",""trial"",""time""
""fullscreenenter"",""1"",""2391""
","
","","","","","","2258.199999988079","images/cactus4.png","","","memory_trial","1","definitely_old",""
"html-keyboard-response","166","485662","0.0-18.0-0.61","6268","approach_avoid_sv1","""event"",""trial"",""time""
""fullscreenenter"",""1"",""2391""
","
","
","""event"",""trial"",""time""
""fullscreenenter"",""1"",""2391""
","
","","","","","","null","<div style=""font-size:60px;"">+</div>","null","","fixation","","",""
"memory-trial","167","488688","0.0-18.0-1.61","6268","approach_avoid_sv1","""event"",""trial"",""time""
""fullscreenenter"",""1"",""2391""
","
","
","""event"",""trial"",""time""
""fullscreenenter"",""1"",""2391""
","
","","","","","","2021.0999999940395","images/sheep2.png","","","memory_trial","4","definitely_new",""
"html-keyboard-response","168","489190","0.0-18.0-0.62","6268","approach_avoid_sv1","""event"",""trial"",""time""
""fullscreenenter"",""1"",""2391""
","
","
","""event"",""trial"",""time""
""fullscreenenter"",""1"",""2391""
","
","","","","","","null","<div style=""font-size:60px;"">+</div>","null","","fixation","","",""
"memory-trial","169","492219","0.0-18.0-1.62","6268","approach_avoid_sv1","""event"",""trial"",""time""
""fullscreenenter"",""1"",""2391""
","
","
","""event"",""trial"",""time""
""fullscreenenter"",""1"",""2391""
","
","","","","","","2021.5999999940395","images/straw5.png","","","memory_trial","1","definitely_old",""
"html-keyboard-response","170","492721","0.0-18.0-0.63","6268","approach_avoid_sv1","""event"",""trial"",""time""
""fullscreenenter"",""1"",""2391""
","
","
","""event"",""trial"",""time""
""fullscreenenter"",""1"",""2391""
","
","","","","","","null","<div style=""font-size:60px;"">+</div>","null","","fixation","","",""
"memory-trial","171","495387","0.0-18.0-1.63","6268","approach_avoid_sv1","""event"",""trial"",""time""
""fullscreenenter"",""1"",""2391""
","
","
","""event"",""trial"",""time""
""fullscreenenter"",""1"",""2391""
","
","","","","","","1659","images/sheep7.png","","","memory_trial","4","definitely_new",""
"html-keyboard-response","172","495889","0.0-18.0-0.64","6268","approach_avoid_sv1","""event"",""trial"",""time""
""fullscreenenter"",""1"",""2391""
","
","
","""event"",""trial"",""time""
""fullscreenenter"",""1"",""2391""
","
","","","","","","null","<div style=""font-size:60px;"">+</div>","null","","fixation","","",""
"memory-trial","173","497798","0.0-18.0-1.64","6268","approach_avoid_sv1","""event"",""trial"",""time""
""fullscreenenter"",""1"",""2391""
","
","
","""event"",""trial"",""time""
""fullscreenenter"",""1"",""2391""
","
","","","","","","905.8000000119209","images/boat1.png","","","memory_trial","4","definitely_new",""
"html-keyboard-response","174","498299","0.0-18.0-0.65","6268","approach_avoid_sv1","""event"",""trial"",""time""
""fullscreenenter"",""1"",""2391""
","
","
","""event"",""trial"",""time""
""fullscreenenter"",""1"",""2391""
","
","","","","","","null","<div style=""font-size:60px;"">+</div>","null","","fixation","","",""
"memory-trial","175","501494","0.0-18.0-1.65","6268","approach_avoid_sv1","""event"",""trial"",""time""
""fullscreenenter"",""1"",""2391""
","
","
","""event"",""trial"",""time""
""fullscreenenter"",""1"",""2391""
","
","","","","","","2187.699999988079","images/banana6.png","","","memory_trial","2","maybe_old",""
"html-keyboard-response","176","501995","0.0-18.0-0.66","6268","approach_avoid_sv1","""event"",""trial"",""time""
""fullscreenenter"",""1"",""2391""
","
","
","""event"",""trial"",""time""
""fullscreenenter"",""1"",""2391""
","
","","","","","","null","<div style=""font-size:60px;"">+</div>","null","","fixation","","",""
"memory-trial","177","504038","0.0-18.0-1.66","6268","approach_avoid_sv1","""event"",""trial"",""time""
""fullscreenenter"",""1"",""2391""
","
","
","""event"",""trial"",""time""
""fullscreenenter"",""1"",""2391""
","
","","","","","","1037.6000000238419","images/sheep4.png","","","memory_trial","4","definitely_new",""
"html-keyboard-response","178","504540","0.0-18.0-0.67","6268","approach_avoid_sv1","""event"",""trial"",""time""
""fullscreenenter"",""1"",""2391""
","
","
","""event"",""trial"",""time""
""fullscreenenter"",""1"",""2391""
","
","","","","","","null","<div style=""font-size:60px;"">+</div>","null","","fixation","","",""
"memory-trial","179","507163","0.0-18.0-1.67","6268","approach_avoid_sv1","""event"",""trial"",""time""
""fullscreenenter"",""1"",""2391""
","
","
","""event"",""trial"",""time""
""fullscreenenter"",""1"",""2391""
","
","","","","","","1620.4000000059605","images/banana5.png","","","memory_trial","2","maybe_old",""
"html-keyboard-response","180","507665","0.0-18.0-0.68","6268","approach_avoid_sv1","""event"",""trial"",""time""
""fullscreenenter"",""1"",""2391""
","
","
","""event"",""trial"",""time""
""fullscreenenter"",""1"",""2391""
","
","","","","","","null","<div style=""font-size:60px;"">+</div>","null","","fixation","","",""
"memory-trial","181","510182","0.0-18.0-1.68","6268","approach_avoid_sv1","""event"",""trial"",""time""
""fullscreenenter"",""1"",""2391""
","
","
","""event"",""trial"",""time""
""fullscreenenter"",""1"",""2391""
","
","","","","","","1514.800000011921","images/bush3.png","","","memory_trial","4","definitely_new",""
"html-keyboard-response","182","510684","0.0-18.0-0.69","6268","approach_avoid_sv1","""event"",""trial"",""time""
""fullscreenenter"",""1"",""2391""
","
","
","""event"",""trial"",""time""
""fullscreenenter"",""1"",""2391""
","
","","","","","","null","<div style=""font-size:60px;"">+</div>","null","","fixation","","",""
"memory-trial","183","513047","0.0-18.0-1.69","6268","approach_avoid_sv1","""event"",""trial"",""time""
""fullscreenenter"",""1"",""2391""
","
","
","""event"",""trial"",""time""
""fullscreenenter"",""1"",""2391""
","
","","","","","","1354.9000000059605","images/sheep6.png","","","memory_trial","2","maybe_old",""
"html-keyboard-response","184","513548","0.0-18.0-0.70","6268","approach_avoid_sv1","""event"",""trial"",""time""
""fullscreenenter"",""1"",""2391""
","
","
","""event"",""trial"",""time""
""fullscreenenter"",""1"",""2391""
","
","","","","","","null","<div style=""font-size:60px;"">+</div>","null","","fixation","","",""
"memory-trial","185","516177","0.0-18.0-1.70","6268","approach_avoid_sv1","""event"",""trial"",""time""
""fullscreenenter"",""1"",""2391""
","
","
","""event"",""trial"",""time""
""fullscreenenter"",""1"",""2391""
","
","","","","","","1623.800000011921","images/cat8.png","","","memory_trial","1","definitely_old",""
"html-keyboard-response","186","516679","0.0-18.0-0.71","6268","approach_avoid_sv1","""event"",""trial"",""time""
""fullscreenenter"",""1"",""2391""
","
","
","""event"",""trial"",""time""
""fullscreenenter"",""1"",""2391""
","
","","","","","","null","<div style=""font-size:60px;"">+</div>","null","","fixation","","",""
"memory-trial","187","518817","0.0-18.0-1.71","6268","approach_avoid_sv1","""event"",""trial"",""time""
""fullscreenenter"",""1"",""2391""
","
","
","""event"",""trial"",""time""
""fullscreenenter"",""1"",""2391""
","
","","","","","","1132.5999999940395","images/plane1.png","","","memory_trial","1","definitely_old",""
"html-keyboard-response","188","519319","0.0-18.0-0.72","6268","approach_avoid_sv1","""event"",""trial"",""time""
""fullscreenenter"",""1"",""2391""
","
","
","""event"",""trial"",""time""
""fullscreenenter"",""1"",""2391""
","
","","","","","","null","<div style=""font-size:60px;"">+</div>","null","","fixation","","",""
"memory-trial","189","521591","0.0-18.0-1.72","6268","approach_avoid_sv1","""event"",""trial"",""time""
""fullscreenenter"",""1"",""2391""
","
","
","""event"",""trial"",""time""
""fullscreenenter"",""1"",""2391""
","
","","","","","","1268.5999999940395","images/apple4.png","","","memory_trial","4","definitely_new",""
"html-keyboard-response","190","522092","0.0-18.0-0.73","6268","approach_avoid_sv1","""event"",""trial"",""time""
""fullscreenenter"",""1"",""2391""
","
","
","""event"",""trial"",""time""
""fullscreenenter"",""1"",""2391""
","
","","","","","","null","<div style=""font-size:60px;"">+</div>","null","","fixation","","",""
"memory-trial","191","524002","0.0-18.0-1.73","6268","approach_avoid_sv1","""event"",""trial"",""time""
""fullscreenenter"",""1"",""2391""
","
","
","""event"",""trial"",""time""
""fullscreenenter"",""1"",""2391""
","
","","","","","","905.0999999940395","images/cat7.png","","","memory_trial","1","definitely_old",""
"html-keyboard-response","192","524503","0.0-18.0-0.74","6268","approach_avoid_sv1","""event"",""trial"",""time""
""fullscreenenter"",""1"",""2391""
","
","
","""event"",""trial"",""time""
""fullscreenenter"",""1"",""2391""
","
","","","","","","null","<div style=""font-size:60px;"">+</div>","null","","fixation","","",""
"memory-trial","193","527255","0.0-18.0-1.74","6268","approach_avoid_sv1","""event"",""trial"",""time""
""fullscreenenter"",""1"",""2391""
","
","
","""event"",""trial"",""time""
""fullscreenenter"",""1"",""2391""
","
","","","","","","1745.4000000059605","images/orange2.png","","","memory_trial","4","definitely_new",""
"html-keyboard-response","194","527757","0.0-18.0-0.75","6268","approach_avoid_sv1","""event"",""trial"",""time""
""fullscreenenter"",""1"",""2391""
","
","
","""event"",""trial"",""time""
""fullscreenenter"",""1"",""2391""
","
","","","","","","null","<div style=""font-size:60px;"">+</div>","null","","fixation","","",""
"memory-trial","195","529713","0.0-18.0-1.75","6268","approach_avoid_sv1","""event"",""trial"",""time""
""fullscreenenter"",""1"",""2391""
","
","
","""event"",""trial"",""time""
""fullscreenenter"",""1"",""2391""
","
","","","","","","951.4000000059605","images/train3.png","","","memory_trial","1","definitely_old",""
"html-keyboard-response","196","530215","0.0-18.0-0.76","6268","approach_avoid_sv1","""event"",""trial"",""time""
""fullscreenenter"",""1"",""2391""
","
","
","""event"",""trial"",""time""
""fullscreenenter"",""1"",""2391""
","
","","","","","","null","<div style=""font-size:60px;"">+</div>","null","","fixation","","",""
"memory-trial","197","533084","0.0-18.0-1.76","6268","approach_avoid_sv1","""event"",""trial"",""time""
""fullscreenenter"",""1"",""2391""
","
","
","""event"",""trial"",""time""
""fullscreenenter"",""1"",""2391""
","
","","","","","","1866.800000011921","images/table5.png","","","memory_trial","2","maybe_old",""
"html-keyboard-response","198","533586","0.0-18.0-0.77","6268","approach_avoid_sv1","""event"",""trial"",""time""
""fullscreenenter"",""1"",""2391""
","
","
","""event"",""trial"",""time""
""fullscreenenter"",""1"",""2391""
","
","","","","","","null","<div style=""font-size:60px;"">+</div>","null","","fixation","","",""
"memory-trial","199","535949","0.0-18.0-1.77","6268","approach_avoid_sv1","""event"",""trial"",""time""
""fullscreenenter"",""1"",""2391""
","
","
","""event"",""trial"",""time""
""fullscreenenter"",""1"",""2391""
","
","","","","","","1360.2999999821186","images/truck1.png","","","memory_trial","4","definitely_new",""
"html-keyboard-response","200","536450","0.0-18.0-0.78","6268","approach_avoid_sv1","""event"",""trial"",""time""
""fullscreenenter"",""1"",""2391""
","
","
","""event"",""trial"",""time""
""fullscreenenter"",""1"",""2391""
","
","","","","","","null","<div style=""font-size:60px;"">+</div>","null","","fixation","","",""
"memory-trial","201","538557","0.0-18.0-1.78","6268","approach_avoid_sv1","""event"",""trial"",""time""
""fullscreenenter"",""1"",""2391""
","
","
","""event"",""trial"",""time""
""fullscreenenter"",""1"",""2391""
","
","","","","","","1098.800000011921","images/apple3.png","","","memory_trial","4","definitely_new",""
"html-keyboard-response","202","539060","0.0-18.0-0.79","6268","approach_avoid_sv1","""event"",""trial"",""time""
""fullscreenenter"",""1"",""2391""
","
","
","""event"",""trial"",""time""
""fullscreenenter"",""1"",""2391""
","
","","","","","","null","<div style=""font-size:60px;"">+</div>","null","","fixation","","",""
"memory-trial","203","541501","0.0-18.0-1.79","6268","approach_avoid_sv1","""event"",""trial"",""time""
""fullscreenenter"",""1"",""2391""
","
","
","""event"",""trial"",""time""
""fullscreenenter"",""1"",""2391""
","
","","","","","","1436.5","images/cat1.png","","","memory_trial","4","definitely_new",""
"html-keyboard-response","204","542002","0.0-18.0-0.80","6268","approach_avoid_sv1","""event"",""trial"",""time""
""fullscreenenter"",""1"",""2391""
","
","
","""event"",""trial"",""time""
""fullscreenenter"",""1"",""2391""
","
","","","","","","null","<div style=""font-size:60px;"">+</div>","null","","fixation","","",""
"memory-trial","205","544226","0.0-18.0-1.80","6268","approach_avoid_sv1","""event"",""trial"",""time""
""fullscreenenter"",""1"",""2391""
","
","
","""event"",""trial"",""time""
""fullscreenenter"",""1"",""2391""
","
","","","","","","1220.5","images/goat6.png","","","memory_trial","1","definitely_old",""
"html-keyboard-response","206","544727","0.0-18.0-0.81","6268","approach_avoid_sv1","""event"",""trial"",""time""
""fullscreenenter"",""1"",""2391""
","
","
","""event"",""trial"",""time""
""fullscreenenter"",""1"",""2391""
","
","","","","","","null","<div style=""font-size:60px;"">+</div>","null","","fixation","","",""
"memory-trial","207","547202","0.0-18.0-1.81","6268","approach_avoid_sv1","""event"",""trial"",""time""
""fullscreenenter"",""1"",""2391""
","
","
","""event"",""trial"",""time""
""fullscreenenter"",""1"",""2391""
","
","","","","","","1470.5","images/straw6.png","","","memory_trial","1","definitely_old",""
"html-keyboard-response","208","547703","0.0-18.0-0.82","6268","approach_avoid_sv1","""event"",""trial"",""time""
""fullscreenenter"",""1"",""2391""
","
","
","""event"",""trial"",""time""
""fullscreenenter"",""1"",""2391""
","
","","","","","","null","<div style=""font-size:60px;"">+</div>","null","","fixation","","",""
"memory-trial","209","550237","0.0-18.0-1.82","6268","approach_avoid_sv1","""event"",""trial"",""time""
""fullscreenenter"",""1"",""2391""
","
","
","""event"",""trial"",""time""
""fullscreenenter"",""1"",""2391""
","
","","","","","","1530.800000011921","images/chair3.png","","","memory_trial","4","definitely_new",""
"html-keyboard-response","210","550739","0.0-18.0-0.83","6268","approach_avoid_sv1","""event"",""trial"",""time""
""fullscreenenter"",""1"",""2391""
","
","
","""event"",""trial"",""time""
""fullscreenenter"",""1"",""2391""
","
","","","","","","null","<div style=""font-size:60px;"">+</div>","null","","fixation","","",""
"memory-trial","211","553416","0.0-18.0-1.83","6268","approach_avoid_sv1","""event"",""trial"",""time""
""fullscreenenter"",""1"",""2391""
","
","
","""event"",""trial"",""time""
""fullscreenenter"",""1"",""2391""
","
","","","","","","1672.7999999821186","images/cow7.png","","","memory_trial","4","definitely_new",""
"html-keyboard-response","212","553917","0.0-18.0-0.84","6268","approach_avoid_sv1","""event"",""trial"",""time""
""fullscreenenter"",""1"",""2391""
","
","
","""event"",""trial"",""time""
""fullscreenenter"",""1"",""2391""
","
","","","","","","null","<div style=""font-size:60px;"">+</div>","null","","fixation","","",""
"memory-trial","213","556104","0.0-18.0-1.84","6268","approach_avoid_sv1","""event"",""trial"",""time""
""fullscreenenter"",""1"",""2391""
","
","
","""event"",""trial"",""time""
""fullscreenenter"",""1"",""2391""
","
","","","","","","1182.800000011921","images/goat2.png","","","memory_trial","4","definitely_new",""
"html-keyboard-response","214","556605","0.0-18.0-0.85","6268","approach_avoid_sv1","""event"",""trial"",""time""
""fullscreenenter"",""1"",""2391""
","
","
","""event"",""trial"",""time""
""fullscreenenter"",""1"",""2391""
","
","","","","","","null","<div style=""font-size:60px;"">+</div>","null","","fixation","","",""
"memory-trial","215","559411","0.0-18.0-1.85","6268","approach_avoid_sv1","""event"",""trial"",""time""
""fullscreenenter"",""1"",""2391""
","
","
","""event"",""trial"",""time""
""fullscreenenter"",""1"",""2391""
","
","","","","","","1801.5","images/sofa6.png","","","memory_trial","4","definitely_new",""
"html-keyboard-response","216","559917","0.0-18.0-0.86","6268","approach_avoid_sv1","""event"",""trial"",""time""
""fullscreenenter"",""1"",""2391""
","
","
","""event"",""trial"",""time""
""fullscreenenter"",""1"",""2391""
","
","","","","","","null","<div style=""font-size:60px;"">+</div>","null","","fixation","","",""
"memory-trial","217","562333","0.0-18.0-1.86","6268","approach_avoid_sv1","""event"",""trial"",""time""
""fullscreenenter"",""1"",""2391""
","
","
","""event"",""trial"",""time""
""fullscreenenter"",""1"",""2391""
","
","","","","","","1413.699999988079","images/train7.png","","","memory_trial","1","definitely_old",""
"html-keyboard-response","218","562835","0.0-18.0-0.87","6268","approach_avoid_sv1","""event"",""trial"",""time""
""fullscreenenter"",""1"",""2391""
","
","
","""event"",""trial"",""time""
""fullscreenenter"",""1"",""2391""
","
","","","","","","null","<div style=""font-size:60px;"">+</div>","null","","fixation","","",""
"memory-trial","219","565176","0.0-18.0-1.87","6268","approach_avoid_sv1","""event"",""trial"",""time""
""fullscreenenter"",""1"",""2391""
","
","
","""event"",""trial"",""time""
""fullscreenenter"",""1"",""2391""
","
","","","","","","1335.7999999821186","images/tree5.png","","","memory_trial","3","maybe_new",""
"html-keyboard-response","220","565677","0.0-18.0-0.88","6268","approach_avoid_sv1","""event"",""trial"",""time""
""fullscreenenter"",""1"",""2391""
","
","
","""event"",""trial"",""time""
""fullscreenenter"",""1"",""2391""
","
","","","","","","null","<div style=""font-size:60px;"">+</div>","null","","fixation","","",""
"memory-trial","221","568303","0.0-18.0-1.88","6268","approach_avoid_sv1","""event"",""trial"",""time""
""fullscreenenter"",""1"",""2391""
","
","
","""event"",""trial"",""time""
""fullscreenenter"",""1"",""2391""
","
","","","","","","1622.199999988079","images/cow6.png","","","memory_trial","4","definitely_new",""
"html-keyboard-response","222","568808","0.0-18.0-0.89","6268","approach_avoid_sv1","""event"",""trial"",""time""
""fullscreenenter"",""1"",""2391""
","
","
","""event"",""trial"",""time""
""fullscreenenter"",""1"",""2391""
","
","","","","","","null","<div style=""font-size:60px;"">+</div>","null","","fixation","","",""
"memory-trial","223","571823","0.0-18.0-1.89","6268","approach_avoid_sv1","""event"",""trial"",""time""
""fullscreenenter"",""1"",""2391""
","
","
","""event"",""trial"",""time""
""fullscreenenter"",""1"",""2391""
","
","","","","","","2010.699999988079","images/cat6.png","","","memory_trial","1","definitely_old",""
"html-keyboard-response","224","572328","0.0-18.0-0.90","6268","approach_avoid_sv1","""event"",""trial"",""time""
""fullscreenenter"",""1"",""2391""
","
","
","""event"",""trial"",""time""
""fullscreenenter"",""1"",""2391""
","
","","","","","","null","<div style=""font-size:60px;"">+</div>","null","","fixation","","",""
"memory-trial","225","574398","0.0-18.0-1.90","6268","approach_avoid_sv1","""event"",""trial"",""time""
""fullscreenenter"",""1"",""2391""
","
","
","""event"",""trial"",""time""
""fullscreenenter"",""1"",""2391""
","
","","","","","","1063.4000000059605","images/apple6.png","","","memory_trial","1","definitely_old",""
"html-keyboard-response","226","574899","0.0-18.0-0.91","6268","approach_avoid_sv1","""event"",""trial"",""time""
""fullscreenenter"",""1"",""2391""
","
","
","""event"",""trial"",""time""
""fullscreenenter"",""1"",""2391""
","
","","","","","","null","<div style=""font-size:60px;"">+</div>","null","","fixation","","",""
"memory-trial","227","577662","0.0-18.0-1.91","6268","approach_avoid_sv1","""event"",""trial"",""time""
""fullscreenenter"",""1"",""2391""
","
","
","""event"",""trial"",""time""
""fullscreenenter"",""1"",""2391""
","
","","","","","","1757.5999999940395","images/truck8.png","","","memory_trial","1","definitely_old",""
"html-button-response","228","578903","0.0-18.0-2.91-0.91","6268","approach_avoid_sv1","""event"",""trial"",""time""
""fullscreenenter"",""1"",""2391""
","
","
","""event"",""trial"",""time""
""fullscreenenter"",""1"",""2391""
","
","","","","","","1239.699999988079","<p> Take a break! </p><p> Click the button to continue. </p>","0","","break","","",""
"html-keyboard-response","229","579406","0.0-18.0-0.92","6268","approach_avoid_sv1","""event"",""trial"",""time""
""fullscreenenter"",""1"",""2391""
","
","
","""event"",""trial"",""time""
""fullscreenenter"",""1"",""2391""
","
","","","","","","null","<div style=""font-size:60px;"">+</div>","null","","fixation","","",""
"memory-trial","230","581758","0.0-18.0-1.92","6268","approach_avoid_sv1","""event"",""trial"",""time""
""fullscreenenter"",""1"",""2391""
","
","
","""event"",""trial"",""time""
""fullscreenenter"",""1"",""2391""
","
","","","","","","1345.0999999940395","images/plane5.png","","","memory_trial","4","definitely_new",""
"html-keyboard-response","231","582259","0.0-18.0-0.93","6268","approach_avoid_sv1","""event"",""trial"",""time""
""fullscreenenter"",""1"",""2391""
","
","
","""event"",""trial"",""time""
""fullscreenenter"",""1"",""2391""
","
","","","","","","null","<div style=""font-size:60px;"">+</div>","null","","fixation","","",""
"memory-trial","232","585128","0.0-18.0-1.93","6268","approach_avoid_sv1","""event"",""trial"",""time""
""fullscreenenter"",""1"",""2391""
","
","
","""event"",""trial"",""time""
""fullscreenenter"",""1"",""2391""
","
","","","","","","1864.5","images/plane4.png","","","memory_trial","4","definitely_new",""
"html-keyboard-response","233","585630","0.0-18.0-0.94","6268","approach_avoid_sv1","""event"",""trial"",""time""
""fullscreenenter"",""1"",""2391""
","
","
","""event"",""trial"",""time""
""fullscreenenter"",""1"",""2391""
","
","","","","","","null","<div style=""font-size:60px;"">+</div>","null","","fixation","","",""
"memory-trial","234","587971","0.0-18.0-1.94","6268","approach_avoid_sv1","""event"",""trial"",""time""
""fullscreenenter"",""1"",""2391""
","
","
","""event"",""trial"",""time""
""fullscreenenter"",""1"",""2391""
","
","","","","","","1338.0999999940395","images/chair8.png","","","memory_trial","4","definitely_new",""
"html-keyboard-response","235","588473","0.0-18.0-0.95","6268","approach_avoid_sv1","""event"",""trial"",""time""
""fullscreenenter"",""1"",""2391""
","
","
","""event"",""trial"",""time""
""fullscreenenter"",""1"",""2391""
","
","","","","","","null","<div style=""font-size:60px;"">+</div>","null","","fixation","","",""
"memory-trial","236","590686","0.0-18.0-1.95","6268","approach_avoid_sv1","""event"",""trial"",""time""
""fullscreenenter"",""1"",""2391""
","
","
","""event"",""trial"",""time""
""fullscreenenter"",""1"",""2391""
","
","","","","","","1206.2999999821186","images/orange7.png","","","memory_trial","1","definitely_old",""
"html-keyboard-response","237","591188","0.0-18.0-0.96","6268","approach_avoid_sv1","""event"",""trial"",""time""
""fullscreenenter"",""1"",""2391""
","
","
","""event"",""trial"",""time""
""fullscreenenter"",""1"",""2391""
","
","","","","","","null","<div style=""font-size:60px;"">+</div>","null","","fixation","","",""
"memory-trial","238","593497","0.0-18.0-1.96","6268","approach_avoid_sv1","""event"",""trial"",""time""
""fullscreenenter"",""1"",""2391""
","
","
","""event"",""trial"",""time""
""fullscreenenter"",""1"",""2391""
","
","","","","","","1305.800000011921","images/flower6.png","","","memory_trial","1","definitely_old",""
"html-keyboard-response","239","593998","0.0-18.0-0.97","6268","approach_avoid_sv1","""event"",""trial"",""time""
""fullscreenenter"",""1"",""2391""
","
","
","""event"",""trial"",""time""
""fullscreenenter"",""1"",""2391""
","
","","","","","","null","<div style=""font-size:60px;"">+</div>","null","","fixation","","",""
"memory-trial","240","596542","0.0-18.0-1.97","6268","approach_avoid_sv1","""event"",""trial"",""time""
""fullscreenenter"",""1"",""2391""
","
","
","""event"",""trial"",""time""
""fullscreenenter"",""1"",""2391""
","
","","","","","","1538.6000000238419","images/goat3.png","","","memory_trial","3","maybe_new",""
"html-keyboard-response","241","597044","0.0-18.0-0.98","6268","approach_avoid_sv1","""event"",""trial"",""time""
""fullscreenenter"",""1"",""2391""
","
","
","""event"",""trial"",""time""
""fullscreenenter"",""1"",""2391""
","
","","","","","","null","<div style=""font-size:60px;"">+</div>","null","","fixation","","",""
"memory-trial","242","599817","0.0-18.0-1.98","6268","approach_avoid_sv1","""event"",""trial"",""time""
""fullscreenenter"",""1"",""2391""
","
","
","""event"",""trial"",""time""
""fullscreenenter"",""1"",""2391""
","
","","","","","","1770.0999999940395","images/apple7.png","","","memory_trial","4","definitely_new",""
"html-keyboard-response","243","600319","0.0-18.0-0.99","6268","approach_avoid_sv1","""event"",""trial"",""time""
""fullscreenenter"",""1"",""2391""
","
","
","""event"",""trial"",""time""
""fullscreenenter"",""1"",""2391""
","
","","","","","","null","<div style=""font-size:60px;"">+</div>","null","","fixation","","",""
"memory-trial","244","603311","0.0-18.0-1.99","6268","approach_avoid_sv1","""event"",""trial"",""time""
""fullscreenenter"",""1"",""2391""
","
","
","""event"",""trial"",""time""
""fullscreenenter"",""1"",""2391""
","
","","","","","","1984.2999999821186","images/chair7.png","","","memory_trial","4","definitely_new",""
"html-keyboard-response","245","603812","0.0-18.0-0.100","6268","approach_avoid_sv1","""event"",""trial"",""time""
""fullscreenenter"",""1"",""2391""
","
","
","""event"",""trial"",""time""
""fullscreenenter"",""1"",""2391""
","
","","","","","","null","<div style=""font-size:60px;"">+</div>","null","","fixation","","",""
"memory-trial","246","606260","0.0-18.0-1.100","6268","approach_avoid_sv1","""event"",""trial"",""time""
""fullscreenenter"",""1"",""2391""
","
","
","""event"",""trial"",""time""
""fullscreenenter"",""1"",""2391""
","
","","","","","","1444.5999999940395","images/dog1.png","","","memory_trial","1","definitely_old",""
"html-keyboard-response","247","606766","0.0-18.0-0.101","6268","approach_avoid_sv1","""event"",""trial"",""time""
""fullscreenenter"",""1"",""2391""
","
","
","""event"",""trial"",""time""
""fullscreenenter"",""1"",""2391""
","
","","","","","","null","<div style=""font-size:60px;"">+</div>","null","","fixation","","",""
"memory-trial","248","609599","0.0-18.0-1.101","6268","approach_avoid_sv1","""event"",""trial"",""time""
""fullscreenenter"",""1"",""2391""
","
","
","""event"",""trial"",""time""
""fullscreenenter"",""1"",""2391""
","
","","","","","","1824.5","images/sheep5.png","","","memory_trial","3","maybe_new",""
"html-keyboard-response","249","610100","0.0-18.0-0.102","6268","approach_avoid_sv1","""event"",""trial"",""time""
""fullscreenenter"",""1"",""2391""
","
","
","""event"",""trial"",""time""
""fullscreenenter"",""1"",""2391""
","
","","","","","","null","<div style=""font-size:60px;"">+</div>","null","","fixation","","",""
"memory-trial","250","612324","0.0-18.0-1.102","6268","approach_avoid_sv1","""event"",""trial"",""time""
""fullscreenenter"",""1"",""2391""
","
","
","""event"",""trial"",""time""
""fullscreenenter"",""1"",""2391""
","
","","","","","","1216","images/cat4.png","","","memory_trial","1","definitely_old",""
"html-keyboard-response","251","612826","0.0-18.0-0.103","6268","approach_avoid_sv1","""event"",""trial"",""time""
""fullscreenenter"",""1"",""2391""
","
","
","""event"",""trial"",""time""
""fullscreenenter"",""1"",""2391""
","
","","","","","","null","<div style=""font-size:60px;"">+</div>","null","","fixation","","",""
"memory-trial","252","615268","0.0-18.0-1.103","6268","approach_avoid_sv1","""event"",""trial"",""time""
""fullscreenenter"",""1"",""2391""
","
","
","""event"",""trial"",""time""
""fullscreenenter"",""1"",""2391""
","
","","","","","","1440.0999999940395","images/horse2.png","","","memory_trial","1","definitely_old",""
"html-keyboard-response","253","615770","0.0-18.0-0.104","6268","approach_avoid_sv1","""event"",""trial"",""time""
""fullscreenenter"",""1"",""2391""
","
","
","""event"",""trial"",""time""
""fullscreenenter"",""1"",""2391""
","
","","","","","","null","<div style=""font-size:60px;"">+</div>","null","","fixation","","",""
"memory-trial","254","618266","0.0-18.0-1.104","6268","approach_avoid_sv1","""event"",""trial"",""time""
""fullscreenenter"",""1"",""2391""
","
","
","""event"",""trial"",""time""
""fullscreenenter"",""1"",""2391""
","
","","","","","","1492","images/dog5.png","","","memory_trial","2","maybe_old",""
"html-keyboard-response","255","618767","0.0-18.0-0.105","6268","approach_avoid_sv1","""event"",""trial"",""time""
""fullscreenenter"",""1"",""2391""
","
","
","""event"",""trial"",""time""
""fullscreenenter"",""1"",""2391""
","
","","","","","","null","<div style=""font-size:60px;"">+</div>","null","","fixation","","",""
"memory-trial","256","621094","0.0-18.0-1.105","6268","approach_avoid_sv1","""event"",""trial"",""time""
""fullscreenenter"",""1"",""2391""
","
","
","""event"",""trial"",""time""
""fullscreenenter"",""1"",""2391""
","
","","","","","","1322.1000000238419","images/goat1.png","","","memory_trial","4","definitely_new",""
"html-keyboard-response","257","621599","0.0-18.0-0.106","6268","approach_avoid_sv1","""event"",""trial"",""time""
""fullscreenenter"",""1"",""2391""
","
","
","""event"",""trial"",""time""
""fullscreenenter"",""1"",""2391""
","
","","","","","","null","<div style=""font-size:60px;"">+</div>","null","","fixation","","",""
"memory-trial","258","624022","0.0-18.0-1.106","6268","approach_avoid_sv1","""event"",""trial"",""time""
""fullscreenenter"",""1"",""2391""
","
","
","""event"",""trial"",""time""
""fullscreenenter"",""1"",""2391""
","
","","","","","","1419.9000000059605","images/cow4.png","","","memory_trial","4","definitely_new",""
"html-keyboard-response","259","624527","0.0-18.0-0.107","6268","approach_avoid_sv1","""event"",""trial"",""time""
""fullscreenenter"",""1"",""2391""
","
","
","""event"",""trial"",""time""
""fullscreenenter"",""1"",""2391""
","
","","","","","","null","<div style=""font-size:60px;"">+</div>","null","","fixation","","",""
"memory-trial","260","626805","0.0-18.0-1.107","6268","approach_avoid_sv1","""event"",""trial"",""time""
""fullscreenenter"",""1"",""2391""
","
","
","""event"",""trial"",""time""
""fullscreenenter"",""1"",""2391""
","
","","","","","","1271.199999988079","images/apple5.png","","","memory_trial","4","definitely_new",""
"html-keyboard-response","261","627307","0.0-18.0-0.108","6268","approach_avoid_sv1","""event"",""trial"",""time""
""fullscreenenter"",""1"",""2391""
","
","
","""event"",""trial"",""time""
""fullscreenenter"",""1"",""2391""
","
","","","","","","null","<div style=""font-size:60px;"">+</div>","null","","fixation","","",""
"memory-trial","262","629503","0.0-18.0-1.108","6268","approach_avoid_sv1","""event"",""trial"",""time""
""fullscreenenter"",""1"",""2391""
","
","
","""event"",""trial"",""time""
""fullscreenenter"",""1"",""2391""
","
","","","","","","1191.0999999940395","images/boat2.png","","","memory_trial","4","definitely_new",""
"html-keyboard-response","263","630005","0.0-18.0-0.109","6268","approach_avoid_sv1","""event"",""trial"",""time""
""fullscreenenter"",""1"",""2391""
","
","
","""event"",""trial"",""time""
""fullscreenenter"",""1"",""2391""
","
","","","","","","null","<div style=""font-size:60px;"">+</div>","null","","fixation","","",""
"memory-trial","264","634192","0.0-18.0-1.109","6268","approach_avoid_sv1","""event"",""trial"",""time""
""fullscreenenter"",""1"",""2391""
","
","
","""event"",""trial"",""time""
""fullscreenenter"",""1"",""2391""
","
","","","","","","3181.699999988079","images/chair5.png","","","memory_trial","2","maybe_old",""
"html-keyboard-response","265","634693","0.0-18.0-0.110","6268","approach_avoid_sv1","""event"",""trial"",""time""
""fullscreenenter"",""1"",""2391""
","
","
","""event"",""trial"",""time""
""fullscreenenter"",""1"",""2391""
","
","","","","","","null","<div style=""font-size:60px;"">+</div>","null","","fixation","","",""
"memory-trial","266","637184","0.0-18.0-1.110","6268","approach_avoid_sv1","""event"",""trial"",""time""
""fullscreenenter"",""1"",""2391""
","
","
","""event"",""trial"",""time""
""fullscreenenter"",""1"",""2391""
","
","","","","","","1485","images/goat8.png","","","memory_trial","4","definitely_new",""
"html-keyboard-response","267","637685","0.0-18.0-0.111","6268","approach_avoid_sv1","""event"",""trial"",""time""
""fullscreenenter"",""1"",""2391""
","
","
","""event"",""trial"",""time""
""fullscreenenter"",""1"",""2391""
","
","","","","","","null","<div style=""font-size:60px;"">+</div>","null","","fixation","","",""
"memory-trial","268","640912","0.0-18.0-1.111","6268","approach_avoid_sv1","""event"",""trial"",""time""
""fullscreenenter"",""1"",""2391""
","
","
","""event"",""trial"",""time""
""fullscreenenter"",""1"",""2391""
","
","","","","","","2221.800000011921","images/chair2.png","","","memory_trial","4","definitely_new",""
"html-keyboard-response","269","641413","0.0-18.0-0.112","6268","approach_avoid_sv1","""event"",""trial"",""time""
""fullscreenenter"",""1"",""2391""
","
","
","""event"",""trial"",""time""
""fullscreenenter"",""1"",""2391""
","
","","","","","","null","<div style=""font-size:60px;"">+</div>","null","","fixation","","",""
"memory-trial","270","644635","0.0-18.0-1.112","6268","approach_avoid_sv1","""event"",""trial"",""time""
""fullscreenenter"",""1"",""2391""
","
","
","""event"",""trial"",""time""
""fullscreenenter"",""1"",""2391""
","
","","","","","","2217.5999999940395","images/cow1.png","","","memory_trial","4","definitely_new",""
"html-keyboard-response","271","645136","0.0-18.0-0.113","6268","approach_avoid_sv1","""event"",""trial"",""time""
""fullscreenenter"",""1"",""2391""
","
","
","""event"",""trial"",""time""
""fullscreenenter"",""1"",""2391""
","
","","","","","","null","<div style=""font-size:60px;"">+</div>","null","","fixation","","",""
"memory-trial","272","647435","0.0-18.0-1.113","6268","approach_avoid_sv1","""event"",""trial"",""time""
""fullscreenenter"",""1"",""2391""
","
","
","""event"",""trial"",""time""
""fullscreenenter"",""1"",""2391""
","
","","","","","","1292.300000011921","images/bed7.png","","","memory_trial","4","definitely_new",""
"html-keyboard-response","273","647937","0.0-18.0-0.114","6268","approach_avoid_sv1","""event"",""trial"",""time""
""fullscreenenter"",""1"",""2391""
","
","
","""event"",""trial"",""time""
""fullscreenenter"",""1"",""2391""
","
","","","","","","null","<div style=""font-size:60px;"">+</div>","null","","fixation","","",""
"memory-trial","274","650106","0.0-18.0-1.114","6268","approach_avoid_sv1","""event"",""trial"",""time""
""fullscreenenter"",""1"",""2391""
","
","
","""event"",""trial"",""time""
""fullscreenenter"",""1"",""2391""
","
","","","","","","1165","images/dog6.png","","","memory_trial","1","definitely_old",""
"html-keyboard-response","275","650608","0.0-18.0-0.115","6268","approach_avoid_sv1","""event"",""trial"",""time""
""fullscreenenter"",""1"",""2391""
","
","
","""event"",""trial"",""time""
""fullscreenenter"",""1"",""2391""
","
","","","","","","null","<div style=""font-size:60px;"">+</div>","null","","fixation","","",""
"memory-trial","276","652998","0.0-18.0-1.115","6268","approach_avoid_sv1","""event"",""trial"",""time""
""fullscreenenter"",""1"",""2391""
","
","
","""event"",""trial"",""time""
""fullscreenenter"",""1"",""2391""
","
","","","","","","1386.2999999821186","images/rabbit4.png","","","memory_trial","1","definitely_old",""
"html-keyboard-response","277","653499","0.0-18.0-0.116","6268","approach_avoid_sv1","""event"",""trial"",""time""
""fullscreenenter"",""1"",""2391""
","
","
","""event"",""trial"",""time""
""fullscreenenter"",""1"",""2391""
","
","","","","","","null","<div style=""font-size:60px;"">+</div>","null","","fixation","","",""
"memory-trial","278","657851","0.0-18.0-1.116","6268","approach_avoid_sv1","""event"",""trial"",""time""
""fullscreenenter"",""1"",""2391""
","
","
","""event"",""trial"",""time""
""fullscreenenter"",""1"",""2391""
","
","","","","","","3349.7999999821186","images/sofa2.png","","","memory_trial","3","maybe_new",""
"html-keyboard-response","279","658352","0.0-18.0-0.117","6268","approach_avoid_sv1","""event"",""trial"",""time""
""fullscreenenter"",""1"",""2391""
","
","
","""event"",""trial"",""time""
""fullscreenenter"",""1"",""2391""
","
","","","","","","null","<div style=""font-size:60px;"">+</div>","null","","fixation","","",""
"memory-trial","280","661200","0.0-18.0-1.117","6268","approach_avoid_sv1","""event"",""trial"",""time""
""fullscreenenter"",""1"",""2391""
","
","
","""event"",""trial"",""time""
""fullscreenenter"",""1"",""2391""
","
","","","","","","1839.9000000059605","images/cow2.png","","","memory_trial","4","definitely_new",""
"html-keyboard-response","281","661702","0.0-18.0-0.118","6268","approach_avoid_sv1","""event"",""trial"",""time""
""fullscreenenter"",""1"",""2391""
","
","
","""event"",""trial"",""time""
""fullscreenenter"",""1"",""2391""
","
","","","","","","null","<div style=""font-size:60px;"">+</div>","null","","fixation","","",""
"memory-trial","282","665110","0.0-18.0-1.118","6268","approach_avoid_sv1","""event"",""trial"",""time""
""fullscreenenter"",""1"",""2391""
","
","
","""event"",""trial"",""time""
""fullscreenenter"",""1"",""2391""
","
","","","","","","2402.2000000178814","images/rodent1.png","","","memory_trial","2","maybe_old",""
"html-keyboard-response","283","665611","0.0-18.0-0.119","6268","approach_avoid_sv1","""event"",""trial"",""time""
""fullscreenenter"",""1"",""2391""
","
","
","""event"",""trial"",""time""
""fullscreenenter"",""1"",""2391""
","
","","","","","","null","<div style=""font-size:60px;"">+</div>","null","","fixation","","",""
"memory-trial","284","668657","0.0-18.0-1.119","6268","approach_avoid_sv1","""event"",""trial"",""time""
""fullscreenenter"",""1"",""2391""
","
","
","""event"",""trial"",""time""
""fullscreenenter"",""1"",""2391""
","
","","","","","","2041.699999988079","images/sofa5.png","","","memory_trial","3","maybe_new",""
"html-keyboard-response","285","669158","0.0-18.0-0.120","6268","approach_avoid_sv1","""event"",""trial"",""time""
""fullscreenenter"",""1"",""2391""
","
","
","""event"",""trial"",""time""
""fullscreenenter"",""1"",""2391""
","
","","","","","","null","<div style=""font-size:60px;"">+</div>","null","","fixation","","",""
"memory-trial","286","671611","0.0-18.0-1.120","6268","approach_avoid_sv1","""event"",""trial"",""time""
""fullscreenenter"",""1"",""2391""
","
","
","""event"",""trial"",""time""
""fullscreenenter"",""1"",""2391""
","
","","","","","","1445.699999988079","images/boat8.png","","","memory_trial","4","definitely_new",""
"html-keyboard-response","287","672113","0.0-18.0-0.121","6268","approach_avoid_sv1","""event"",""trial"",""time""
""fullscreenenter"",""1"",""2391""
","
","
","""event"",""trial"",""time""
""fullscreenenter"",""1"",""2391""
","
","","","","","","null","<div style=""font-size:60px;"">+</div>","null","","fixation","","",""
"memory-trial","288","675025","0.0-18.0-1.121","6268","approach_avoid_sv1","""event"",""trial"",""time""
""fullscreenenter"",""1"",""2391""
","
","
","""event"",""trial"",""time""
""fullscreenenter"",""1"",""2391""
","
","","","","","","1909","images/bed2.png","","","memory_trial","4","definitely_new",""
"html-keyboard-response","289","675527","0.0-18.0-0.122","6268","approach_avoid_sv1","""event"",""trial"",""time""
""fullscreenenter"",""1"",""2391""
","
","
","""event"",""trial"",""time""
""fullscreenenter"",""1"",""2391""
","
","","","","","","null","<div style=""font-size:60px;"">+</div>","null","","fixation","","",""
"memory-trial","290","680806","0.0-18.0-1.122","6268","approach_avoid_sv1","""event"",""trial"",""time""
""fullscreenenter"",""1"",""2391""
","
","
","""event"",""trial"",""time""
""fullscreenenter"",""1"",""2391""
","
","","","","","","4274.699999988079","images/horse6.png","","","memory_trial","2","maybe_old",""
"html-keyboard-response","291","681307","0.0-18.0-0.123","6268","approach_avoid_sv1","""event"",""trial"",""time""
""fullscreenenter"",""1"",""2391""
","
","
","""event"",""trial"",""time""
""fullscreenenter"",""1"",""2391""
","
","","","","","","null","<div style=""font-size:60px;"">+</div>","null","","fixation","","",""
"memory-trial","292","683270","0.0-18.0-1.123","6268","approach_avoid_sv1","""event"",""trial"",""time""
""fullscreenenter"",""1"",""2391""
","
","
","""event"",""trial"",""time""
""fullscreenenter"",""1"",""2391""
","
","","","","","","959.2999999821186","images/train1.png","","","memory_trial","1","definitely_old",""
"html-keyboard-response","293","683772","0.0-18.0-0.124","6268","approach_avoid_sv1","""event"",""trial"",""time""
""fullscreenenter"",""1"",""2391""
","
","
","""event"",""trial"",""time""
""fullscreenenter"",""1"",""2391""
","
","","","","","","null","<div style=""font-size:60px;"">+</div>","null","","fixation","","",""
"memory-trial","294","685708","0.0-18.0-1.124","6268","approach_avoid_sv1","""event"",""trial"",""time""
""fullscreenenter"",""1"",""2391""
","
","
","""event"",""trial"",""time""
""fullscreenenter"",""1"",""2391""
","
","","","","","","929.9000000059605","images/bush6.png","","","memory_trial","4","definitely_new",""
"html-keyboard-response","295","686209","0.0-18.0-0.125","6268","approach_avoid_sv1","""event"",""trial"",""time""
""fullscreenenter"",""1"",""2391""
","
","
","""event"",""trial"",""time""
""fullscreenenter"",""1"",""2391""
","
","","","","","","null","<div style=""font-size:60px;"">+</div>","null","","fixation","","",""
"memory-trial","296","688599","0.0-18.0-1.125","6268","approach_avoid_sv1","""event"",""trial"",""time""
""fullscreenenter"",""1"",""2391""
","
","
","""event"",""trial"",""time""
""fullscreenenter"",""1"",""2391""
","
","","","","","","1385.800000011921","images/straw7.png","","","memory_trial","1","definitely_old",""
