"trial_type","trial_index","time_elapsed","internal_node_id","subject_id","task_version","interactions","blur_events","focus_events","fullscreenenter_events","fullscreenexit_events","success","timeout","failed_images","failed_audio","failed_video","rt","stimulus","response","button_pressed","task_part","key_press","answer","correct"
"pavlovia","0","13","0.0-0.0","6341","approach_avoid_sv1","""event"",""trial"",""time""
""fullscreenenter"",""1"",""1992""
","
","
","""event"",""trial"",""time""
""fullscreenenter"",""1"",""1992""
","
","","","","","","","","","","","","",""
"fullscreen","1","2986","0.0-1.0","6341","approach_avoid_sv1","""event"",""trial"",""time""
""fullscreenenter"",""1"",""1992""
","
","
","""event"",""trial"",""time""
""fullscreenenter"",""1"",""1992""
","
","true","","","","","","","","","","","",""
"preload","2","7277","0.0-2.0","6341","approach_avoid_sv1","""event"",""trial"",""time""
""fullscreenenter"",""1"",""1992""
","
","
","""event"",""trial"",""time""
""fullscreenenter"",""1"",""1992""
","
","true","false","[]","[]","[]","","","","","","","",""
"preload","3","11571","0.0-3.0","6341","approach_avoid_sv1","""event"",""trial"",""time""
""fullscreenenter"",""1"",""1992""
","
","
","""event"",""trial"",""time""
""fullscreenenter"",""1"",""1992""
","
","true","false","[]","[]","[]","","","","","","","",""
"preload","4","12030","0.0-4.0","6341","approach_avoid_sv1","""event"",""trial"",""time""
""fullscreenenter"",""1"",""1992""
","
","
","""event"",""trial"",""time""
""fullscreenenter"",""1"",""1992""
","
","true","false","[]","[]","[]","","","","","","","",""
"audio-keyboard-response","5","15285","0.0-5.0","6341","approach_avoid_sv1","""event"",""trial"",""time""
""fullscreenenter"",""1"",""1992""
","
","
","""event"",""trial"",""time""
""fullscreenenter"",""1"",""1992""
","
","","","","","","3250.6666666666665","audio/beep_loop.wav"," ","","","","",""
"audio-button-response","6","16607","0.0-6.0","6341","approach_avoid_sv1","""event"",""trial"",""time""
""fullscreenenter"",""1"",""1992""
","
","
","""event"",""trial"",""time""
""fullscreenenter"",""1"",""1992""
","
","","","","","","1320","audio/turtle.wav","3","","","","",""
"audio-button-response","7","18702","0.0-7.0","6341","approach_avoid_sv1","""event"",""trial"",""time""
""fullscreenenter"",""1"",""1992""
","
","
","""event"",""trial"",""time""
""fullscreenenter"",""1"",""1992""
","
","","","","","","1091","audio/shark.wav","2","","","","",""
"preload","8","25300","0.0-8.0","6341","approach_avoid_sv1","""event"",""trial"",""time""
""fullscreenenter"",""1"",""1992""
","
","
","""event"",""trial"",""time""
""fullscreenenter"",""1"",""1992""
","
","true","false","[]","[]","[]","","","","","","","",""
"learning-instructions","9","31361","0.0-9.0-0.0","6341","approach_avoid_sv1","""event"",""trial"",""time""
""fullscreenenter"",""1"",""1992""
","
","
","""event"",""trial"",""time""
""fullscreenenter"",""1"",""1992""
","
","","","","","","1581.7999999999884","<p> Welcome back! </p><p> Last week, you had to make choices about lots of different items.  </p>","","0","instructions","","",""
"learning-instructions","10","36950","0.0-9.0-0.1","6341","approach_avoid_sv1","""event"",""trial"",""time""
""fullscreenenter"",""1"",""1992""
","
","
","""event"",""trial"",""time""
""fullscreenenter"",""1"",""1992""
","
","","","","","","1476","<p> Today, we are going to ask you to try to remember all the items. </p>","","0","instructions","","",""
"learning-instructions","11","47705","0.0-9.0-0.2","6341","approach_avoid_sv1","""event"",""trial"",""time""
""fullscreenenter"",""1"",""1992""
","
","
","""event"",""trial"",""time""
""fullscreenenter"",""1"",""1992""
","
","","","","","","617.6000000000349","<p> On every trial, you will see an image. </p><p> The image may be an OLD image you saw during the games last week or it may be a NEW image that was not presented. </p>","","0","instructions","","",""
"learning-instructions","12","57912","0.0-9.0-0.3","6341","approach_avoid_sv1","""event"",""trial"",""time""
""fullscreenenter"",""1"",""1992""
","
","
","""event"",""trial"",""time""
""fullscreenenter"",""1"",""1992""
","
","","","","","","1709.399999999965","<p> You need to select whether the image is:  </p><p>  'Definitely old', 'Maybe old', 'Maybe new', or 'Definitely new.'  </p><div class=""mem-choice-instructions-grid""><div class=""choice-option"" id=""choice-option-1"" ><img src=""images/definitely_old_1.png"" id=""choice-option-img-1"" class=""choice-option-img"" stage=""1""></div><div class=""choice-option"" id=""choice-option-2"" ><img src=""images/maybe_old_1.png"" id=""choice-option-img-2"" class=""choice-option-img"" stage=""1""></div><div class=""choice-option"" id=""choice-option-3"" ><img src=""images/maybe_new_1.png"" id=""choice-option-img-3"" class=""choice-option-img"" stage=""1""></div><div class=""choice-option"" id=""choice-option-4"" > <img src=""images/definitely_new_1.png"" id=""choice-option-img-4"" class=""choice-option-img"" stage=""1""></div></div>","","0","instructions","","",""
"learning-instructions","13","65432","0.0-9.0-0.4","6341","approach_avoid_sv1","""event"",""trial"",""time""
""fullscreenenter"",""1"",""1992""
","
","
","""event"",""trial"",""time""
""fullscreenenter"",""1"",""1992""
","
","","","","","","1011","<p> You should use the 1, 2, 3, and 4 keys to make your responses.  </p><div class=""mem-choice-instructions-grid""><div class=""choice-option"" id=""choice-option-1"" ><img src=""images/definitely_old.png"" id=""choice-option-img-1"" class=""choice-option-img"" stage=""1""></div><div class=""choice-option"" id=""choice-option-2"" ><img src=""images/maybe_old.png"" id=""choice-option-img-2"" class=""choice-option-img"" stage=""1""></div><div class=""choice-option"" id=""choice-option-3"" ><img src=""images/maybe_new.png"" id=""choice-option-img-3"" class=""choice-option-img"" stage=""1""></div><div class=""choice-option"" id=""choice-option-4"" > <img src=""images/definitely_new.png"" id=""choice-option-img-4"" class=""choice-option-img"" stage=""1""></div></div>","","0","instructions","","",""
"learning-instructions","14","72766","0.0-9.0-0.5","6341","approach_avoid_sv1","""event"",""trial"",""time""
""fullscreenenter"",""1"",""1992""
","
","
","""event"",""trial"",""time""
""fullscreenenter"",""1"",""1992""
","
","","","","","","1003.5999999999767","<p> You will have 10 seconds to make each response.  </p><p>  Make sure to respond before time runs out! </p>","","0","instructions","","",""
"learning-instructions","15","80627","0.0-9.0-0.6","6341","approach_avoid_sv1","""event"",""trial"",""time""
""fullscreenenter"",""1"",""1992""
","
","
","""event"",""trial"",""time""
""fullscreenenter"",""1"",""1992""
","
","","","","","","789.8999999999651","<p> Today, you will see each image ONCE only.  </p><p>  That means none of the images will repeat. </p>","","0","instructions","","",""
"learning-instructions","16","93931","0.0-9.0-0.7","6341","approach_avoid_sv1","""event"",""trial"",""time""
""fullscreenenter"",""1"",""1992""
","
","
","""event"",""trial"",""time""
""fullscreenenter"",""1"",""1992""
","
","","","","","","638.2999999999884","<p> Before you play the real game, it is time to practice. </p><p>  Just like in the real game, some of the images in the practice will be ones you have seen before. </p><p>  Others will be entirely new. </p>","","0","instructions","","",""
"html-button-response","17","96219","0.0-10.0","6341","approach_avoid_sv1","""event"",""trial"",""time""
""fullscreenenter"",""1"",""1992""
","
","
","""event"",""trial"",""time""
""fullscreenenter"",""1"",""1992""
","
","","","","","","2184.2000000000116","<p> Ready to practice? </p><p> Remember, use the 1, 2, 3, and 4 keys to make your responses. </p>","0","","instructions","","",""
"html-keyboard-response","18","96825","0.0-11.0-0.0","6341","approach_avoid_sv1","""event"",""trial"",""time""
""fullscreenenter"",""1"",""1992""
","
","
","""event"",""trial"",""time""
""fullscreenenter"",""1"",""1992""
","
","","","","","","null","<div style=""font-size:60px;"">+</div>","null","","fixation","","",""
"memory-trial","19","99817","0.0-11.0-1.0","6341","approach_avoid_sv1","""event"",""trial"",""time""
""fullscreenenter"",""1"",""1992""
","
","
","""event"",""trial"",""time""
""fullscreenenter"",""1"",""1992""
","
","","","","","","1982.9000000000233","images/racket2.png","","","practice","2","maybe_old",""
"html-keyboard-response","20","100324","0.0-11.0-0.1","6341","approach_avoid_sv1","""event"",""trial"",""time""
""fullscreenenter"",""1"",""1992""
","
","
","""event"",""trial"",""time""
""fullscreenenter"",""1"",""1992""
","
","","","","","","null","<div style=""font-size:60px;"">+</div>","null","","fixation","","",""
"memory-trial","21","102924","0.0-11.0-1.1","6341","approach_avoid_sv1","""event"",""trial"",""time""
""fullscreenenter"",""1"",""1992""
","
","
","""event"",""trial"",""time""
""fullscreenenter"",""1"",""1992""
","
","","","","","","1587.899999999965","images/ball3.png","","","practice","1","definitely_old",""
"html-keyboard-response","22","103433","0.0-11.0-0.2","6341","approach_avoid_sv1","""event"",""trial"",""time""
""fullscreenenter"",""1"",""1992""
","
","
","""event"",""trial"",""time""
""fullscreenenter"",""1"",""1992""
","
","","","","","","null","<div style=""font-size:60px;"">+</div>","null","","fixation","","",""
"memory-trial","23","106796","0.0-11.0-1.2","6341","approach_avoid_sv1","""event"",""trial"",""time""
""fullscreenenter"",""1"",""1992""
","
","
","""event"",""trial"",""time""
""fullscreenenter"",""1"",""1992""
","
","","","","","","2352","images/racket5.png","","","practice","2","maybe_old",""
"html-keyboard-response","24","107305","0.0-11.0-0.3","6341","approach_avoid_sv1","""event"",""trial"",""time""
""fullscreenenter"",""1"",""1992""
","
","
","""event"",""trial"",""time""
""fullscreenenter"",""1"",""1992""
","
","","","","","","null","<div style=""font-size:60px;"">+</div>","null","","fixation","","",""
"memory-trial","25","109809","0.0-11.0-1.3","6341","approach_avoid_sv1","""event"",""trial"",""time""
""fullscreenenter"",""1"",""1992""
","
","
","""event"",""trial"",""time""
""fullscreenenter"",""1"",""1992""
","
","","","","","","1495.2999999999884","images/ball1.png","","","practice","3","maybe_new",""
"html-keyboard-response","26","110313","0.0-11.0-0.4","6341","approach_avoid_sv1","""event"",""trial"",""time""
""fullscreenenter"",""1"",""1992""
","
","
","""event"",""trial"",""time""
""fullscreenenter"",""1"",""1992""
","
","","","","","","null","<div style=""font-size:60px;"">+</div>","null","","fixation","","",""
"memory-trial","27","112664","0.0-11.0-1.4","6341","approach_avoid_sv1","""event"",""trial"",""time""
""fullscreenenter"",""1"",""1992""
","
","
","""event"",""trial"",""time""
""fullscreenenter"",""1"",""1992""
","
","","","","","","1345.7000000000116","images/ball2.png","","","practice","1","definitely_old",""
"html-keyboard-response","28","113169","0.0-11.0-0.5","6341","approach_avoid_sv1","""event"",""trial"",""time""
""fullscreenenter"",""1"",""1992""
","
","
","""event"",""trial"",""time""
""fullscreenenter"",""1"",""1992""
","
","","","","","","null","<div style=""font-size:60px;"">+</div>","null","","fixation","","",""
"memory-trial","29","116300","0.0-11.0-1.5","6341","approach_avoid_sv1","""event"",""trial"",""time""
""fullscreenenter"",""1"",""1992""
","
","
","""event"",""trial"",""time""
""fullscreenenter"",""1"",""1992""
","
","","","","","","2122.7000000000116","images/racket1.png","","","practice","2","maybe_old",""
"html-keyboard-response","30","116809","0.0-11.0-0.6","6341","approach_avoid_sv1","""event"",""trial"",""time""
""fullscreenenter"",""1"",""1992""
","
","
","""event"",""trial"",""time""
""fullscreenenter"",""1"",""1992""
","
","","","","","","null","<div style=""font-size:60px;"">+</div>","null","","fixation","","",""
"memory-trial","31","119145","0.0-11.0-1.6","6341","approach_avoid_sv1","""event"",""trial"",""time""
""fullscreenenter"",""1"",""1992""
","
","
","""event"",""trial"",""time""
""fullscreenenter"",""1"",""1992""
","
","","","","","","1331.5","images/ball5.png","","","practice","3","maybe_new",""
"html-keyboard-response","32","119649","0.0-11.0-0.7","6341","approach_avoid_sv1","""event"",""trial"",""time""
""fullscreenenter"",""1"",""1992""
","
","
","""event"",""trial"",""time""
""fullscreenenter"",""1"",""1992""
","
","","","","","","null","<div style=""font-size:60px;"">+</div>","null","","fixation","","",""
"memory-trial","33","121795","0.0-11.0-1.7","6341","approach_avoid_sv1","""event"",""trial"",""time""
""fullscreenenter"",""1"",""1992""
","
","
","""event"",""trial"",""time""
""fullscreenenter"",""1"",""1992""
","
","","","","","","1135.4000000000233","images/racket3.png","","","practice","2","maybe_old",""
"learning-instructions","34","129995","0.0-12.0-0.0","6341","approach_avoid_sv1","""event"",""trial"",""time""
""fullscreenenter"",""1"",""1992""
","
","
","""event"",""trial"",""time""
""fullscreenenter"",""1"",""1992""
","
","","","","","","894.8999999999651","<p> Great! You have completed the practice. </p><p> Before you start, we're going to ask you a few questions about how the game works.  </p>","","0","instructions","","",""
"preload","35","133769","0.0-13.0","6341","approach_avoid_sv1","""event"",""trial"",""time""
""fullscreenenter"",""1"",""1992""
","
","
","""event"",""trial"",""time""
""fullscreenenter"",""1"",""1992""
","
","true","false","[]","[]","[]","","","","","","","",""
"comp-q","36","140750","0.0-14.0-0.0","6341","approach_avoid_sv1","""event"",""trial"",""time""
""fullscreenenter"",""1"",""1992""
","
","
","""event"",""trial"",""time""
""fullscreenenter"",""1"",""1992""
","
","","","","","","1151.5","<p> <b> True or False? </b> </p><p> In this game, you will only see each image once. </p>","","0","comp_question","","","true"
"comp-q","37","147843","0.0-14.0-1.0","6341","approach_avoid_sv1","""event"",""trial"",""time""
""fullscreenenter"",""1"",""1992""
","
","
","""event"",""trial"",""time""
""fullscreenenter"",""1"",""1992""
","
","","","","","","758.1999999999534","<p> <b> That's right! </b> You will see many different images <i> one time each </i> in this game. </p>","","0","comp_answer","","",""
"comp-q","38","153458","0.0-15.0-0.0","6341","approach_avoid_sv1","""event"",""trial"",""time""
""fullscreenenter"",""1"",""1992""
","
","
","""event"",""trial"",""time""
""fullscreenenter"",""1"",""1992""
","
","","","","","","611.1999999999534","<p> <b> True or False? </b> </p><p> You should use the mouse and click to make your response. </p>","","1","comp_question","","","true"
"comp-q","39","160860","0.0-15.0-1.0","6341","approach_avoid_sv1","""event"",""trial"",""time""
""fullscreenenter"",""1"",""1992""
","
","
","""event"",""trial"",""time""
""fullscreenenter"",""1"",""1992""
","
","","","","","","901.6999999999534","<p><b> That's right! </b> You should use the '1', '2', '3', and '4' keys to make your response. </p>","","0","comp_answer","","",""
"comp-q","40","167078","0.0-16.0-0.0","6341","approach_avoid_sv1","""event"",""trial"",""time""
""fullscreenenter"",""1"",""1992""
","
","
","""event"",""trial"",""time""
""fullscreenenter"",""1"",""1992""
","
","","","","","","538.8000000000466","<p> <b> True or False? </b> </p><p> You will have as much time as you want to make each choice. </p>","","1","comp_question","","","true"
"comp-q","41","172648","0.0-16.0-1.0","6341","approach_avoid_sv1","""event"",""trial"",""time""
""fullscreenenter"",""1"",""1992""
","
","
","""event"",""trial"",""time""
""fullscreenenter"",""1"",""1992""
","
","","","","","","870.7999999999302","<p> <b> That's right! </b> You will only have 10 seconds to make each choice. </p>","","0","comp_answer","","",""
"learning-instructions","42","182183","0.0-17.0","6341","approach_avoid_sv1","""event"",""trial"",""time""
""fullscreenenter"",""1"",""1992""
","
","
","""event"",""trial"",""time""
""fullscreenenter"",""1"",""1992""
","
","","","","","","865.2000000000698","<p> Great! You are now ready to begin the game. </p><p> Remember, use the 1, 2, 3, and 4 keys to make your responses. </p>","","0","instructions","","",""
"html-keyboard-response","43","182792","0.0-18.0-0.0","6341","approach_avoid_sv1","""event"",""trial"",""time""
""fullscreenenter"",""1"",""1992""
","
","
","""event"",""trial"",""time""
""fullscreenenter"",""1"",""1992""
","
","","","","","","null","<div style=""font-size:60px;"">+</div>","null","","fixation","","",""
"memory-trial","44","185307","0.0-18.0-1.0","6341","approach_avoid_sv1","""event"",""trial"",""time""
""fullscreenenter"",""1"",""1992""
","
","
","""event"",""trial"",""time""
""fullscreenenter"",""1"",""1992""
","
","","","","","","1508.5","images/boat7.png","","","memory_trial","3","maybe_new",""
"html-keyboard-response","45","185816","0.0-18.0-0.1","6341","approach_avoid_sv1","""event"",""trial"",""time""
""fullscreenenter"",""1"",""1992""
","
","
","""event"",""trial"",""time""
""fullscreenenter"",""1"",""1992""
","
","","","","","","null","<div style=""font-size:60px;"">+</div>","null","","fixation","","",""
"memory-trial","46","188027","0.0-18.0-1.1","6341","approach_avoid_sv1","""event"",""trial"",""time""
""fullscreenenter"",""1"",""1992""
","
","
","""event"",""trial"",""time""
""fullscreenenter"",""1"",""1992""
","
","","","","","","1200.7999999999302","images/goat3.png","","","memory_trial","2","maybe_old",""
"html-keyboard-response","47","188536","0.0-18.0-0.2","6341","approach_avoid_sv1","""event"",""trial"",""time""
""fullscreenenter"",""1"",""1992""
","
","
","""event"",""trial"",""time""
""fullscreenenter"",""1"",""1992""
","
","","","","","","null","<div style=""font-size:60px;"">+</div>","null","","fixation","","",""
"memory-trial","48","190752","0.0-18.0-1.2","6341","approach_avoid_sv1","""event"",""trial"",""time""
""fullscreenenter"",""1"",""1992""
","
","
","""event"",""trial"",""time""
""fullscreenenter"",""1"",""1992""
","
","","","","","","1208.0999999999767","images/banana7.png","","","memory_trial","3","maybe_new",""
"html-keyboard-response","49","191259","0.0-18.0-0.3","6341","approach_avoid_sv1","""event"",""trial"",""time""
""fullscreenenter"",""1"",""1992""
","
","
","""event"",""trial"",""time""
""fullscreenenter"",""1"",""1992""
","
","","","","","","null","<div style=""font-size:60px;"">+</div>","null","","fixation","","",""
"memory-trial","50","193280","0.0-18.0-1.3","6341","approach_avoid_sv1","""event"",""trial"",""time""
""fullscreenenter"",""1"",""1992""
","
","
","""event"",""trial"",""time""
""fullscreenenter"",""1"",""1992""
","
","","","","","","1014","images/rabbit6.png","","","memory_trial","3","maybe_new",""
"html-keyboard-response","51","193784","0.0-18.0-0.4","6341","approach_avoid_sv1","""event"",""trial"",""time""
""fullscreenenter"",""1"",""1992""
","
","
","""event"",""trial"",""time""
""fullscreenenter"",""1"",""1992""
","
","","","","","","null","<div style=""font-size:60px;"">+</div>","null","","fixation","","",""
"memory-trial","52","195896","0.0-18.0-1.4","6341","approach_avoid_sv1","""event"",""trial"",""time""
""fullscreenenter"",""1"",""1992""
","
","
","""event"",""trial"",""time""
""fullscreenenter"",""1"",""1992""
","
","","","","","","1106.6999999999534","images/dog7.png","","","memory_trial","2","maybe_old",""
"html-keyboard-response","53","196400","0.0-18.0-0.5","6341","approach_avoid_sv1","""event"",""trial"",""time""
""fullscreenenter"",""1"",""1992""
","
","
","""event"",""trial"",""time""
""fullscreenenter"",""1"",""1992""
","
","","","","","","null","<div style=""font-size:60px;"">+</div>","null","","fixation","","",""
"memory-trial","54","199000","0.0-18.0-1.5","6341","approach_avoid_sv1","""event"",""trial"",""time""
""fullscreenenter"",""1"",""1992""
","
","
","""event"",""trial"",""time""
""fullscreenenter"",""1"",""1992""
","
","","","","","","1591.7999999999302","images/plane8.png","","","memory_trial","2","maybe_old",""
"html-keyboard-response","55","199504","0.0-18.0-0.6","6341","approach_avoid_sv1","""event"",""trial"",""time""
""fullscreenenter"",""1"",""1992""
","
","
","""event"",""trial"",""time""
""fullscreenenter"",""1"",""1992""
","
","","","","","","null","<div style=""font-size:60px;"">+</div>","null","","fixation","","",""
"memory-trial","56","201524","0.0-18.0-1.6","6341","approach_avoid_sv1","""event"",""trial"",""time""
""fullscreenenter"",""1"",""1992""
","
","
","""event"",""trial"",""time""
""fullscreenenter"",""1"",""1992""
","
","","","","","","1012.8000000000466","images/sheep5.png","","","memory_trial","2","maybe_old",""
"html-keyboard-response","57","202032","0.0-18.0-0.7","6341","approach_avoid_sv1","""event"",""trial"",""time""
""fullscreenenter"",""1"",""1992""
","
","
","""event"",""trial"",""time""
""fullscreenenter"",""1"",""1992""
","
","","","","","","null","<div style=""font-size:60px;"">+</div>","null","","fixation","","",""
"memory-trial","58","203931","0.0-18.0-1.7","6341","approach_avoid_sv1","""event"",""trial"",""time""
""fullscreenenter"",""1"",""1992""
","
","
","""event"",""trial"",""time""
""fullscreenenter"",""1"",""1992""
","
","","","","","","893.0999999999767","images/bed5.png","","","memory_trial","1","definitely_old",""
"html-keyboard-response","59","204440","0.0-18.0-0.8","6341","approach_avoid_sv1","""event"",""trial"",""time""
""fullscreenenter"",""1"",""1992""
","
","
","""event"",""trial"",""time""
""fullscreenenter"",""1"",""1992""
","
","","","","","","null","<div style=""font-size:60px;"">+</div>","null","","fixation","","",""
"memory-trial","60","206608","0.0-18.0-1.8","6341","approach_avoid_sv1","""event"",""trial"",""time""
""fullscreenenter"",""1"",""1992""
","
","
","""event"",""trial"",""time""
""fullscreenenter"",""1"",""1992""
","
","","","","","","1160.7000000000698","images/banana6.png","","","memory_trial","3","maybe_new",""
"html-keyboard-response","61","207114","0.0-18.0-0.9","6341","approach_avoid_sv1","""event"",""trial"",""time""
""fullscreenenter"",""1"",""1992""
","
","
","""event"",""trial"",""time""
""fullscreenenter"",""1"",""1992""
","
","","","","","","null","<div style=""font-size:60px;"">+</div>","null","","fixation","","",""
"memory-trial","62","209016","0.0-18.0-1.9","6341","approach_avoid_sv1","""event"",""trial"",""time""
""fullscreenenter"",""1"",""1992""
","
","
","""event"",""trial"",""time""
""fullscreenenter"",""1"",""1992""
","
","","","","","","892.7000000000698","images/orange1.png","","","memory_trial","2","maybe_old",""
"html-keyboard-response","63","209520","0.0-18.0-0.10","6341","approach_avoid_sv1","""event"",""trial"",""time""
""fullscreenenter"",""1"",""1992""
","
","
","""event"",""trial"",""time""
""fullscreenenter"",""1"",""1992""
","
","","","","","","null","<div style=""font-size:60px;"">+</div>","null","","fixation","","",""
"memory-trial","64","211921","0.0-18.0-1.10","6341","approach_avoid_sv1","""event"",""trial"",""time""
""fullscreenenter"",""1"",""1992""
","
","
","""event"",""trial"",""time""
""fullscreenenter"",""1"",""1992""
","
","","","","","","1392.2999999999302","images/apple7.png","","","memory_trial","2","maybe_old",""
"html-keyboard-response","65","212424","0.0-18.0-0.11","6341","approach_avoid_sv1","""event"",""trial"",""time""
""fullscreenenter"",""1"",""1992""
","
","
","""event"",""trial"",""time""
""fullscreenenter"",""1"",""1992""
","
","","","","","","null","<div style=""font-size:60px;"">+</div>","null","","fixation","","",""
"memory-trial","66","214465","0.0-18.0-1.11","6341","approach_avoid_sv1","""event"",""trial"",""time""
""fullscreenenter"",""1"",""1992""
","
","
","""event"",""trial"",""time""
""fullscreenenter"",""1"",""1992""
","
","","","","","","1028.3000000000466","images/orange3.png","","","memory_trial","3","maybe_new",""
"html-keyboard-response","67","214968","0.0-18.0-0.12","6341","approach_avoid_sv1","""event"",""trial"",""time""
""fullscreenenter"",""1"",""1992""
","
","
","""event"",""trial"",""time""
""fullscreenenter"",""1"",""1992""
","
","","","","","","null","<div style=""font-size:60px;"">+</div>","null","","fixation","","",""
"memory-trial","68","217209","0.0-18.0-1.12","6341","approach_avoid_sv1","""event"",""trial"",""time""
""fullscreenenter"",""1"",""1992""
","
","
","""event"",""trial"",""time""
""fullscreenenter"",""1"",""1992""
","
","","","","","","1229.9000000000233","images/rodent4.png","","","memory_trial","1","definitely_old",""
"html-keyboard-response","69","217712","0.0-18.0-0.13","6341","approach_avoid_sv1","""event"",""trial"",""time""
""fullscreenenter"",""1"",""1992""
","
","
","""event"",""trial"",""time""
""fullscreenenter"",""1"",""1992""
","
","","","","","","null","<div style=""font-size:60px;"">+</div>","null","","fixation","","",""
"memory-trial","70","220227","0.0-18.0-1.13","6341","approach_avoid_sv1","""event"",""trial"",""time""
""fullscreenenter"",""1"",""1992""
","
","
","""event"",""trial"",""time""
""fullscreenenter"",""1"",""1992""
","
","","","","","","1505.9000000000233","images/cow1.png","","","memory_trial","3","maybe_new",""
"html-keyboard-response","71","220736","0.0-18.0-0.14","6341","approach_avoid_sv1","""event"",""trial"",""time""
""fullscreenenter"",""1"",""1992""
","
","
","""event"",""trial"",""time""
""fullscreenenter"",""1"",""1992""
","
","","","","","","null","<div style=""font-size:60px;"">+</div>","null","","fixation","","",""
"memory-trial","72","222880","0.0-18.0-1.14","6341","approach_avoid_sv1","""event"",""trial"",""time""
""fullscreenenter"",""1"",""1992""
","
","
","""event"",""trial"",""time""
""fullscreenenter"",""1"",""1992""
","
","","","","","","1137.5","images/cactus3.png","","","memory_trial","2","maybe_old",""
"html-keyboard-response","73","223384","0.0-18.0-0.15","6341","approach_avoid_sv1","""event"",""trial"",""time""
""fullscreenenter"",""1"",""1992""
","
","
","""event"",""trial"",""time""
""fullscreenenter"",""1"",""1992""
","
","","","","","","null","<div style=""font-size:60px;"">+</div>","null","","fixation","","",""
"memory-trial","74","225913","0.0-18.0-1.15","6341","approach_avoid_sv1","""event"",""trial"",""time""
""fullscreenenter"",""1"",""1992""
","
","
","""event"",""trial"",""time""
""fullscreenenter"",""1"",""1992""
","
","","","","","","1516.6999999999534","images/table5.png","","","memory_trial","4","definitely_new",""
"html-keyboard-response","75","226416","0.0-18.0-0.16","6341","approach_avoid_sv1","""event"",""trial"",""time""
""fullscreenenter"",""1"",""1992""
","
","
","""event"",""trial"",""time""
""fullscreenenter"",""1"",""1992""
","
","","","","","","null","<div style=""font-size:60px;"">+</div>","null","","fixation","","",""
"memory-trial","76","228569","0.0-18.0-1.16","6341","approach_avoid_sv1","""event"",""trial"",""time""
""fullscreenenter"",""1"",""1992""
","
","
","""event"",""trial"",""time""
""fullscreenenter"",""1"",""1992""
","
","","","","","","1143.2000000000698","images/rabbit4.png","","","memory_trial","4","definitely_new",""
"html-keyboard-response","77","229072","0.0-18.0-0.17","6341","approach_avoid_sv1","""event"",""trial"",""time""
""fullscreenenter"",""1"",""1992""
","
","
","""event"",""trial"",""time""
""fullscreenenter"",""1"",""1992""
","
","","","","","","null","<div style=""font-size:60px;"">+</div>","null","","fixation","","",""
"memory-trial","78","231249","0.0-18.0-1.17","6341","approach_avoid_sv1","""event"",""trial"",""time""
""fullscreenenter"",""1"",""1992""
","
","
","""event"",""trial"",""time""
""fullscreenenter"",""1"",""1992""
","
","","","","","","1169.0999999999767","images/apple4.png","","","memory_trial","4","definitely_new",""
"html-keyboard-response","79","231752","0.0-18.0-0.18","6341","approach_avoid_sv1","""event"",""trial"",""time""
""fullscreenenter"",""1"",""1992""
","
","
","""event"",""trial"",""time""
""fullscreenenter"",""1"",""1992""
","
","","","","","","null","<div style=""font-size:60px;"">+</div>","null","","fixation","","",""
"memory-trial","80","234449","0.0-18.0-1.18","6341","approach_avoid_sv1","""event"",""trial"",""time""
""fullscreenenter"",""1"",""1992""
","
","
","""event"",""trial"",""time""
""fullscreenenter"",""1"",""1992""
","
","","","","","","1689.0999999999767","images/rodent2.png","","","memory_trial","2","maybe_old",""
"html-keyboard-response","81","234952","0.0-18.0-0.19","6341","approach_avoid_sv1","""event"",""trial"",""time""
""fullscreenenter"",""1"",""1992""
","
","
","""event"",""trial"",""time""
""fullscreenenter"",""1"",""1992""
","
","","","","","","null","<div style=""font-size:60px;"">+</div>","null","","fixation","","",""
"memory-trial","82","237153","0.0-18.0-1.19","6341","approach_avoid_sv1","""event"",""trial"",""time""
""fullscreenenter"",""1"",""1992""
","
","
","""event"",""trial"",""time""
""fullscreenenter"",""1"",""1992""
","
","","","","","","1192.5","images/chair1.png","","","memory_trial","2","maybe_old",""
"html-keyboard-response","83","237656","0.0-18.0-0.20","6341","approach_avoid_sv1","""event"",""trial"",""time""
""fullscreenenter"",""1"",""1992""
","
","
","""event"",""trial"",""time""
""fullscreenenter"",""1"",""1992""
","
","","","","","","null","<div style=""font-size:60px;"">+</div>","null","","fixation","","",""
"memory-trial","84","240121","0.0-18.0-1.20","6341","approach_avoid_sv1","""event"",""trial"",""time""
""fullscreenenter"",""1"",""1992""
","
","
","""event"",""trial"",""time""
""fullscreenenter"",""1"",""1992""
","
","","","","","","1453.1999999999534","images/chair3.png","","","memory_trial","2","maybe_old",""
"html-keyboard-response","85","240624","0.0-18.0-0.21","6341","approach_avoid_sv1","""event"",""trial"",""time""
""fullscreenenter"",""1"",""1992""
","
","
","""event"",""trial"",""time""
""fullscreenenter"",""1"",""1992""
","
","","","","","","null","<div style=""font-size:60px;"">+</div>","null","","fixation","","",""
"memory-trial","86","242689","0.0-18.0-1.21","6341","approach_avoid_sv1","""event"",""trial"",""time""
""fullscreenenter"",""1"",""1992""
","
","
","""event"",""trial"",""time""
""fullscreenenter"",""1"",""1992""
","
","","","","","","1057.5999999999767","images/banana3.png","","","memory_trial","3","maybe_new",""
"html-keyboard-response","87","243192","0.0-18.0-0.22","6341","approach_avoid_sv1","""event"",""trial"",""time""
""fullscreenenter"",""1"",""1992""
","
","
","""event"",""trial"",""time""
""fullscreenenter"",""1"",""1992""
","
","","","","","","null","<div style=""font-size:60px;"">+</div>","null","","fixation","","",""
"memory-trial","88","245753","0.0-18.0-1.22","6341","approach_avoid_sv1","""event"",""trial"",""time""
""fullscreenenter"",""1"",""1992""
","
","
","""event"",""trial"",""time""
""fullscreenenter"",""1"",""1992""
","
","","","","","","1553.5999999999767","images/apple5.png","","","memory_trial","4","definitely_new",""
"html-keyboard-response","89","246256","0.0-18.0-0.23","6341","approach_avoid_sv1","""event"",""trial"",""time""
""fullscreenenter"",""1"",""1992""
","
","
","""event"",""trial"",""time""
""fullscreenenter"",""1"",""1992""
","
","","","","","","null","<div style=""font-size:60px;"">+</div>","null","","fixation","","",""
"memory-trial","90","248281","0.0-18.0-1.23","6341","approach_avoid_sv1","""event"",""trial"",""time""
""fullscreenenter"",""1"",""1992""
","
","
","""event"",""trial"",""time""
""fullscreenenter"",""1"",""1992""
","
","","","","","","1019.5999999999767","images/boat3.png","","","memory_trial","3","maybe_new",""
"html-keyboard-response","91","248784","0.0-18.0-0.24","6341","approach_avoid_sv1","""event"",""trial"",""time""
""fullscreenenter"",""1"",""1992""
","
","
","""event"",""trial"",""time""
""fullscreenenter"",""1"",""1992""
","
","","","","","","null","<div style=""font-size:60px;"">+</div>","null","","fixation","","",""
"memory-trial","92","250785","0.0-18.0-1.24","6341","approach_avoid_sv1","""event"",""trial"",""time""
""fullscreenenter"",""1"",""1992""
","
","
","""event"",""trial"",""time""
""fullscreenenter"",""1"",""1992""
","
","","","","","","990.6999999999534","images/banana1.png","","","memory_trial","3","maybe_new",""
"html-keyboard-response","93","251288","0.0-18.0-0.25","6341","approach_avoid_sv1","""event"",""trial"",""time""
""fullscreenenter"",""1"",""1992""
","
","
","""event"",""trial"",""time""
""fullscreenenter"",""1"",""1992""
","
","","","","","","null","<div style=""font-size:60px;"">+</div>","null","","fixation","","",""
"memory-trial","94","253364","0.0-18.0-1.25","6341","approach_avoid_sv1","""event"",""trial"",""time""
""fullscreenenter"",""1"",""1992""
","
","
","""event"",""trial"",""time""
""fullscreenenter"",""1"",""1992""
","
","","","","","","1066.0999999999767","images/train5.png","","","memory_trial","2","maybe_old",""
"html-keyboard-response","95","253872","0.0-18.0-0.26","6341","approach_avoid_sv1","""event"",""trial"",""time""
""fullscreenenter"",""1"",""1992""
","
","
","""event"",""trial"",""time""
""fullscreenenter"",""1"",""1992""
","
","","","","","","null","<div style=""font-size:60px;"">+</div>","null","","fixation","","",""
"memory-trial","96","256336","0.0-18.0-1.26","6341","approach_avoid_sv1","""event"",""trial"",""time""
""fullscreenenter"",""1"",""1992""
","
","
","""event"",""trial"",""time""
""fullscreenenter"",""1"",""1992""
","
","","","","","","1454.5999999999767","images/dog1.png","","","memory_trial","3","maybe_new",""
"html-keyboard-response","97","256840","0.0-18.0-0.27","6341","approach_avoid_sv1","""event"",""trial"",""time""
""fullscreenenter"",""1"",""1992""
","
","
","""event"",""trial"",""time""
""fullscreenenter"",""1"",""1992""
","
","","","","","","null","<div style=""font-size:60px;"">+</div>","null","","fixation","","",""
"memory-trial","98","259128","0.0-18.0-1.27","6341","approach_avoid_sv1","""event"",""trial"",""time""
""fullscreenenter"",""1"",""1992""
","
","
","""event"",""trial"",""time""
""fullscreenenter"",""1"",""1992""
","
","","","","","","1280.6999999999534","images/sofa1.png","","","memory_trial","2","maybe_old",""
"html-keyboard-response","99","259632","0.0-18.0-0.28","6341","approach_avoid_sv1","""event"",""trial"",""time""
""fullscreenenter"",""1"",""1992""
","
","
","""event"",""trial"",""time""
""fullscreenenter"",""1"",""1992""
","
","","","","","","null","<div style=""font-size:60px;"">+</div>","null","","fixation","","",""
"memory-trial","100","262033","0.0-18.0-1.28","6341","approach_avoid_sv1","""event"",""trial"",""time""
""fullscreenenter"",""1"",""1992""
","
","
","""event"",""trial"",""time""
""fullscreenenter"",""1"",""1992""
","
","","","","","","1392.3000000000466","images/bed7.png","","","memory_trial","1","definitely_old",""
"html-keyboard-response","101","262536","0.0-18.0-0.29","6341","approach_avoid_sv1","""event"",""trial"",""time""
""fullscreenenter"",""1"",""1992""
","
","
","""event"",""trial"",""time""
""fullscreenenter"",""1"",""1992""
","
","","","","","","null","<div style=""font-size:60px;"">+</div>","null","","fixation","","",""
"memory-trial","102","264552","0.0-18.0-1.29","6341","approach_avoid_sv1","""event"",""trial"",""time""
""fullscreenenter"",""1"",""1992""
","
","
","""event"",""trial"",""time""
""fullscreenenter"",""1"",""1992""
","
","","","","","","1008.1999999999534","images/train7.png","","","memory_trial","2","maybe_old",""
"html-keyboard-response","103","265056","0.0-18.0-0.30","6341","approach_avoid_sv1","""event"",""trial"",""time""
""fullscreenenter"",""1"",""1992""
","
","
","""event"",""trial"",""time""
""fullscreenenter"",""1"",""1992""
","
","","","","","","null","<div style=""font-size:60px;"">+</div>","null","","fixation","","",""
"memory-trial","104","267864","0.0-18.0-1.30","6341","approach_avoid_sv1","""event"",""trial"",""time""
""fullscreenenter"",""1"",""1992""
","
","
","""event"",""trial"",""time""
""fullscreenenter"",""1"",""1992""
","
","","","","","","1800","images/rodent7.png","","","memory_trial","4","definitely_new",""
"html-keyboard-response","105","268368","0.0-18.0-0.31","6341","approach_avoid_sv1","""event"",""trial"",""time""
""fullscreenenter"",""1"",""1992""
","
","
","""event"",""trial"",""time""
""fullscreenenter"",""1"",""1992""
","
","","","","","","null","<div style=""font-size:60px;"">+</div>","null","","fixation","","",""
"memory-trial","106","270889","0.0-18.0-1.31","6341","approach_avoid_sv1","""event"",""trial"",""time""
""fullscreenenter"",""1"",""1992""
","
","
","""event"",""trial"",""time""
""fullscreenenter"",""1"",""1992""
","
","","","","","","1513.9000000000233","images/dog4.png","","","memory_trial","3","maybe_new",""
"html-keyboard-response","107","271392","0.0-18.0-0.32","6341","approach_avoid_sv1","""event"",""trial"",""time""
""fullscreenenter"",""1"",""1992""
","
","
","""event"",""trial"",""time""
""fullscreenenter"",""1"",""1992""
","
","","","","","","null","<div style=""font-size:60px;"">+</div>","null","","fixation","","",""
"memory-trial","108","273264","0.0-18.0-1.32","6341","approach_avoid_sv1","""event"",""trial"",""time""
""fullscreenenter"",""1"",""1992""
","
","
","""event"",""trial"",""time""
""fullscreenenter"",""1"",""1992""
","
","","","","","","864.9000000000233","images/banana2.png","","","memory_trial","3","maybe_new",""
"html-keyboard-response","109","273768","0.0-18.0-0.33","6341","approach_avoid_sv1","""event"",""trial"",""time""
""fullscreenenter"",""1"",""1992""
","
","
","""event"",""trial"",""time""
""fullscreenenter"",""1"",""1992""
","
","","","","","","null","<div style=""font-size:60px;"">+</div>","null","","fixation","","",""
"memory-trial","110","275688","0.0-18.0-1.33","6341","approach_avoid_sv1","""event"",""trial"",""time""
""fullscreenenter"",""1"",""1992""
","
","
","""event"",""trial"",""time""
""fullscreenenter"",""1"",""1992""
","
","","","","","","912","images/chair4.png","","","memory_trial","3","maybe_new",""
"html-keyboard-response","111","276197","0.0-18.0-0.34","6341","approach_avoid_sv1","""event"",""trial"",""time""
""fullscreenenter"",""1"",""1992""
","
","
","""event"",""trial"",""time""
""fullscreenenter"",""1"",""1992""
","
","","","","","","null","<div style=""font-size:60px;"">+</div>","null","","fixation","","",""
"memory-trial","112","277984","0.0-18.0-1.34","6341","approach_avoid_sv1","""event"",""trial"",""time""
""fullscreenenter"",""1"",""1992""
","
","
","""event"",""trial"",""time""
""fullscreenenter"",""1"",""1992""
","
","","","","","","782.9000000000233","images/table1.png","","","memory_trial","3","maybe_new",""
"html-keyboard-response","113","278488","0.0-18.0-0.35","6341","approach_avoid_sv1","""event"",""trial"",""time""
""fullscreenenter"",""1"",""1992""
","
","
","""event"",""trial"",""time""
""fullscreenenter"",""1"",""1992""
","
","","","","","","null","<div style=""font-size:60px;"">+</div>","null","","fixation","","",""
"memory-trial","114","280944","0.0-18.0-1.35","6341","approach_avoid_sv1","""event"",""trial"",""time""
""fullscreenenter"",""1"",""1992""
","
","
","""event"",""trial"",""time""
""fullscreenenter"",""1"",""1992""
","
","","","","","","1452.5","images/flower5.png","","","memory_trial","1","definitely_old",""
"html-keyboard-response","115","281448","0.0-18.0-0.36","6341","approach_avoid_sv1","""event"",""trial"",""time""
""fullscreenenter"",""1"",""1992""
","
","
","""event"",""trial"",""time""
""fullscreenenter"",""1"",""1992""
","
","","","","","","null","<div style=""font-size:60px;"">+</div>","null","","fixation","","",""
"memory-trial","116","283784","0.0-18.0-1.36","6341","approach_avoid_sv1","""event"",""trial"",""time""
""fullscreenenter"",""1"",""1992""
","
","
","""event"",""trial"",""time""
""fullscreenenter"",""1"",""1992""
","
","","","","","","1329.7999999999302","images/truck3.png","","","memory_trial","3","maybe_new",""
"html-keyboard-response","117","284288","0.0-18.0-0.37","6341","approach_avoid_sv1","""event"",""trial"",""time""
""fullscreenenter"",""1"",""1992""
","
","
","""event"",""trial"",""time""
""fullscreenenter"",""1"",""1992""
","
","","","","","","null","<div style=""font-size:60px;"">+</div>","null","","fixation","","",""
"memory-trial","118","286200","0.0-18.0-1.37","6341","approach_avoid_sv1","""event"",""trial"",""time""
""fullscreenenter"",""1"",""1992""
","
","
","""event"",""trial"",""time""
""fullscreenenter"",""1"",""1992""
","
","","","","","","904.5","images/rodent8.png","","","memory_trial","4","definitely_new",""
"html-keyboard-response","119","286704","0.0-18.0-0.38","6341","approach_avoid_sv1","""event"",""trial"",""time""
""fullscreenenter"",""1"",""1992""
","
","
","""event"",""trial"",""time""
""fullscreenenter"",""1"",""1992""
","
","","","","","","null","<div style=""font-size:60px;"">+</div>","null","","fixation","","",""
"memory-trial","120","289176","0.0-18.0-1.38","6341","approach_avoid_sv1","""event"",""trial"",""time""
""fullscreenenter"",""1"",""1992""
","
","
","""event"",""trial"",""time""
""fullscreenenter"",""1"",""1992""
","
","","","","","","1465","images/flower6.png","","","memory_trial","2","maybe_old",""
"html-keyboard-response","121","289680","0.0-18.0-0.39","6341","approach_avoid_sv1","""event"",""trial"",""time""
""fullscreenenter"",""1"",""1992""
","
","
","""event"",""trial"",""time""
""fullscreenenter"",""1"",""1992""
","
","","","","","","null","<div style=""font-size:60px;"">+</div>","null","","fixation","","",""
"memory-trial","122","291752","0.0-18.0-1.39","6341","approach_avoid_sv1","""event"",""trial"",""time""
""fullscreenenter"",""1"",""1992""
","
","
","""event"",""trial"",""time""
""fullscreenenter"",""1"",""1992""
","
","","","","","","1065","images/plane6.png","","","memory_trial","2","maybe_old",""
"html-keyboard-response","123","292259","0.0-18.0-0.40","6341","approach_avoid_sv1","""event"",""trial"",""time""
""fullscreenenter"",""1"",""1992""
","
","
","""event"",""trial"",""time""
""fullscreenenter"",""1"",""1992""
","
","","","","","","null","<div style=""font-size:60px;"">+</div>","null","","fixation","","",""
"memory-trial","124","294480","0.0-18.0-1.40","6341","approach_avoid_sv1","""event"",""trial"",""time""
""fullscreenenter"",""1"",""1992""
","
","
","""event"",""trial"",""time""
""fullscreenenter"",""1"",""1992""
","
","","","","","","1215.8000000000466","images/boat2.png","","","memory_trial","2","maybe_old",""
"html-keyboard-response","125","294984","0.0-18.0-0.41","6341","approach_avoid_sv1","""event"",""trial"",""time""
""fullscreenenter"",""1"",""1992""
","
","
","""event"",""trial"",""time""
""fullscreenenter"",""1"",""1992""
","
","","","","","","null","<div style=""font-size:60px;"">+</div>","null","","fixation","","",""
"memory-trial","126","297208","0.0-18.0-1.41","6341","approach_avoid_sv1","""event"",""trial"",""time""
""fullscreenenter"",""1"",""1992""
","
","
","""event"",""trial"",""time""
""fullscreenenter"",""1"",""1992""
","
","","","","","","1219","images/chair8.png","","","memory_trial","3","maybe_new",""
"html-button-response","127","345020","0.0-18.0-2.41-0.41","6341","approach_avoid_sv1","""event"",""trial"",""time""
""fullscreenenter"",""1"",""1992""
","
","
","""event"",""trial"",""time""
""fullscreenenter"",""1"",""1992""
","
","","","","","","47810.5","<p> Take a break! </p><p> Click the button to continue. </p>","0","","break","","",""
"html-keyboard-response","128","345528","0.0-18.0-0.42","6341","approach_avoid_sv1","""event"",""trial"",""time""
""fullscreenenter"",""1"",""1992""
","
","
","""event"",""trial"",""time""
""fullscreenenter"",""1"",""1992""
","
","","","","","","null","<div style=""font-size:60px;"">+</div>","null","","fixation","","",""
"memory-trial","129","347768","0.0-18.0-1.42","6341","approach_avoid_sv1","""event"",""trial"",""time""
""fullscreenenter"",""1"",""1992""
","
","
","""event"",""trial"",""time""
""fullscreenenter"",""1"",""1992""
","
","","","","","","1229.5","images/table4.png","","","memory_trial","3","maybe_new",""
"html-keyboard-response","130","348272","0.0-18.0-0.43","6341","approach_avoid_sv1","""event"",""trial"",""time""
""fullscreenenter"",""1"",""1992""
","
","
","""event"",""trial"",""time""
""fullscreenenter"",""1"",""1992""
","
","","","","","","null","<div style=""font-size:60px;"">+</div>","null","","fixation","","",""
"memory-trial","131","350592","0.0-18.0-1.43","6341","approach_avoid_sv1","""event"",""trial"",""time""
""fullscreenenter"",""1"",""1992""
","
","
","""event"",""trial"",""time""
""fullscreenenter"",""1"",""1992""
","
","","","","","","1310.6999999999534","images/tree7.png","","","memory_trial","3","maybe_new",""
"html-keyboard-response","132","351096","0.0-18.0-0.44","6341","approach_avoid_sv1","""event"",""trial"",""time""
""fullscreenenter"",""1"",""1992""
","
","
","""event"",""trial"",""time""
""fullscreenenter"",""1"",""1992""
","
","","","","","","null","<div style=""font-size:60px;"">+</div>","null","","fixation","","",""
"memory-trial","133","353608","0.0-18.0-1.44","6341","approach_avoid_sv1","""event"",""trial"",""time""
""fullscreenenter"",""1"",""1992""
","
","
","""event"",""trial"",""time""
""fullscreenenter"",""1"",""1992""
","
","","","","","","1508","images/bed6.png","","","memory_trial","3","maybe_new",""
"html-keyboard-response","134","354115","0.0-18.0-0.45","6341","approach_avoid_sv1","""event"",""trial"",""time""
""fullscreenenter"",""1"",""1992""
","
","
","""event"",""trial"",""time""
""fullscreenenter"",""1"",""1992""
","
","","","","","","null","<div style=""font-size:60px;"">+</div>","null","","fixation","","",""
"memory-trial","135","355928","0.0-18.0-1.45","6341","approach_avoid_sv1","""event"",""trial"",""time""
""fullscreenenter"",""1"",""1992""
","
","
","""event"",""trial"",""time""
""fullscreenenter"",""1"",""1992""
","
","","","","","","807.9000000000233","images/goat6.png","","","memory_trial","3","maybe_new",""
"html-keyboard-response","136","356432","0.0-18.0-0.46","6341","approach_avoid_sv1","""event"",""trial"",""time""
""fullscreenenter"",""1"",""1992""
","
","
","""event"",""trial"",""time""
""fullscreenenter"",""1"",""1992""
","
","","","","","","null","<div style=""font-size:60px;"">+</div>","null","","fixation","","",""
"memory-trial","137","358264","0.0-18.0-1.46","6341","approach_avoid_sv1","""event"",""trial"",""time""
""fullscreenenter"",""1"",""1992""
","
","
","""event"",""trial"",""time""
""fullscreenenter"",""1"",""1992""
","
","","","","","","826.6000000000931","images/bed8.png","","","memory_trial","3","maybe_new",""
"html-keyboard-response","138","358768","0.0-18.0-0.47","6341","approach_avoid_sv1","""event"",""trial"",""time""
""fullscreenenter"",""1"",""1992""
","
","
","""event"",""trial"",""time""
""fullscreenenter"",""1"",""1992""
","
","","","","","","null","<div style=""font-size:60px;"">+</div>","null","","fixation","","",""
"memory-trial","139","360536","0.0-18.0-1.47","6341","approach_avoid_sv1","""event"",""trial"",""time""
""fullscreenenter"",""1"",""1992""
","
","
","""event"",""trial"",""time""
""fullscreenenter"",""1"",""1992""
","
","","","","","","764.1000000000931","images/sofa4.png","","","memory_trial","3","maybe_new",""
"html-keyboard-response","140","361040","0.0-18.0-0.48","6341","approach_avoid_sv1","""event"",""trial"",""time""
""fullscreenenter"",""1"",""1992""
","
","
","""event"",""trial"",""time""
""fullscreenenter"",""1"",""1992""
","
","","","","","","null","<div style=""font-size:60px;"">+</div>","null","","fixation","","",""
"memory-trial","141","362992","0.0-18.0-1.48","6341","approach_avoid_sv1","""event"",""trial"",""time""
""fullscreenenter"",""1"",""1992""
","
","
","""event"",""trial"",""time""
""fullscreenenter"",""1"",""1992""
","
","","","","","","943.3000000000466","images/goat8.png","","","memory_trial","3","maybe_new",""
"html-keyboard-response","142","363496","0.0-18.0-0.49","6341","approach_avoid_sv1","""event"",""trial"",""time""
""fullscreenenter"",""1"",""1992""
","
","
","""event"",""trial"",""time""
""fullscreenenter"",""1"",""1992""
","
","","","","","","null","<div style=""font-size:60px;"">+</div>","null","","fixation","","",""
"memory-trial","143","365720","0.0-18.0-1.49","6341","approach_avoid_sv1","""event"",""trial"",""time""
""fullscreenenter"",""1"",""1992""
","
","
","""event"",""trial"",""time""
""fullscreenenter"",""1"",""1992""
","
","","","","","","1218.7000000000698","images/bush2.png","","","memory_trial","2","maybe_old",""
"html-keyboard-response","144","366224","0.0-18.0-0.50","6341","approach_avoid_sv1","""event"",""trial"",""time""
""fullscreenenter"",""1"",""1992""
","
","
","""event"",""trial"",""time""
""fullscreenenter"",""1"",""1992""
","
","","","","","","null","<div style=""font-size:60px;"">+</div>","null","","fixation","","",""
"memory-trial","145","368616","0.0-18.0-1.50","6341","approach_avoid_sv1","""event"",""trial"",""time""
""fullscreenenter"",""1"",""1992""
","
","
","""event"",""trial"",""time""
""fullscreenenter"",""1"",""1992""
","
","","","","","","1382.1999999999534","images/tree4.png","","","memory_trial","4","definitely_new",""
"html-keyboard-response","146","369120","0.0-18.0-0.51","6341","approach_avoid_sv1","""event"",""trial"",""time""
""fullscreenenter"",""1"",""1992""
","
","
","""event"",""trial"",""time""
""fullscreenenter"",""1"",""1992""
","
","","","","","","null","<div style=""font-size:60px;"">+</div>","null","","fixation","","",""
"memory-trial","147","371696","0.0-18.0-1.51","6341","approach_avoid_sv1","""event"",""trial"",""time""
""fullscreenenter"",""1"",""1992""
","
","
","""event"",""trial"",""time""
""fullscreenenter"",""1"",""1992""
","
","","","","","","1571.4000000000233","images/rabbit8.png","","","memory_trial","4","definitely_new",""
"html-keyboard-response","148","372200","0.0-18.0-0.52","6341","approach_avoid_sv1","""event"",""trial"",""time""
""fullscreenenter"",""1"",""1992""
","
","
","""event"",""trial"",""time""
""fullscreenenter"",""1"",""1992""
","
","","","","","","null","<div style=""font-size:60px;"">+</div>","null","","fixation","","",""
"memory-trial","149","374416","0.0-18.0-1.52","6341","approach_avoid_sv1","""event"",""trial"",""time""
""fullscreenenter"",""1"",""1992""
","
","
","""event"",""trial"",""time""
""fullscreenenter"",""1"",""1992""
","
","","","","","","1204.1999999999534","images/cat6.png","","","memory_trial","1","definitely_old",""
"html-keyboard-response","150","374920","0.0-18.0-0.53","6341","approach_avoid_sv1","""event"",""trial"",""time""
""fullscreenenter"",""1"",""1992""
","
","
","""event"",""trial"",""time""
""fullscreenenter"",""1"",""1992""
","
","","","","","","null","<div style=""font-size:60px;"">+</div>","null","","fixation","","",""
"memory-trial","151","377207","0.0-18.0-1.53","6341","approach_avoid_sv1","""event"",""trial"",""time""
""fullscreenenter"",""1"",""1992""
","
","
","""event"",""trial"",""time""
""fullscreenenter"",""1"",""1992""
","
","","","","","","1276.5999999999767","images/cat2.png","","","memory_trial","2","maybe_old",""
"html-keyboard-response","152","377712","0.0-18.0-0.54","6341","approach_avoid_sv1","""event"",""trial"",""time""
""fullscreenenter"",""1"",""1992""
","
","
","""event"",""trial"",""time""
""fullscreenenter"",""1"",""1992""
","
","","","","","","null","<div style=""font-size:60px;"">+</div>","null","","fixation","","",""
"memory-trial","153","380808","0.0-18.0-1.54","6341","approach_avoid_sv1","""event"",""trial"",""time""
""fullscreenenter"",""1"",""1992""
","
","
","""event"",""trial"",""time""
""fullscreenenter"",""1"",""1992""
","
","","","","","","2089","images/rodent3.png","","","memory_trial","4","definitely_new",""
"html-keyboard-response","154","381312","0.0-18.0-0.55","6341","approach_avoid_sv1","""event"",""trial"",""time""
""fullscreenenter"",""1"",""1992""
","
","
","""event"",""trial"",""time""
""fullscreenenter"",""1"",""1992""
","
","","","","","","null","<div style=""font-size:60px;"">+</div>","null","","fixation","","",""
"memory-trial","155","383552","0.0-18.0-1.55","6341","approach_avoid_sv1","""event"",""trial"",""time""
""fullscreenenter"",""1"",""1992""
","
","
","""event"",""trial"",""time""
""fullscreenenter"",""1"",""1992""
","
","","","","","","1233.7000000000698","images/sheep1.png","","","memory_trial","2","maybe_old",""
"html-keyboard-response","156","384056","0.0-18.0-0.56","6341","approach_avoid_sv1","""event"",""trial"",""time""
""fullscreenenter"",""1"",""1992""
","
","
","""event"",""trial"",""time""
""fullscreenenter"",""1"",""1992""
","
","","","","","","null","<div style=""font-size:60px;"">+</div>","null","","fixation","","",""
"memory-trial","157","386688","0.0-18.0-1.56","6341","approach_avoid_sv1","""event"",""trial"",""time""
""fullscreenenter"",""1"",""1992""
","
","
","""event"",""trial"",""time""
""fullscreenenter"",""1"",""1992""
","
","","","","","","1627.0999999999767","images/bed4.png","","","memory_trial","2","maybe_old",""
"html-keyboard-response","158","387192","0.0-18.0-0.57","6341","approach_avoid_sv1","""event"",""trial"",""time""
""fullscreenenter"",""1"",""1992""
","
","
","""event"",""trial"",""time""
""fullscreenenter"",""1"",""1992""
","
","","","","","","null","<div style=""font-size:60px;"">+</div>","null","","fixation","","",""
"memory-trial","159","389464","0.0-18.0-1.57","6341","approach_avoid_sv1","""event"",""trial"",""time""
""fullscreenenter"",""1"",""1992""
","
","
","""event"",""trial"",""time""
""fullscreenenter"",""1"",""1992""
","
","","","","","","1266.2999999999302","images/goat1.png","","","memory_trial","2","maybe_old",""
"html-keyboard-response","160","389968","0.0-18.0-0.58","6341","approach_avoid_sv1","""event"",""trial"",""time""
""fullscreenenter"",""1"",""1992""
","
","
","""event"",""trial"",""time""
""fullscreenenter"",""1"",""1992""
","
","","","","","","null","<div style=""font-size:60px;"">+</div>","null","","fixation","","",""
"memory-trial","161","392288","0.0-18.0-1.58","6341","approach_avoid_sv1","""event"",""trial"",""time""
""fullscreenenter"",""1"",""1992""
","
","
","""event"",""trial"",""time""
""fullscreenenter"",""1"",""1992""
","
","","","","","","1308","images/chair2.png","","","memory_trial","1","definitely_old",""
"html-keyboard-response","162","392792","0.0-18.0-0.59","6341","approach_avoid_sv1","""event"",""trial"",""time""
""fullscreenenter"",""1"",""1992""
","
","
","""event"",""trial"",""time""
""fullscreenenter"",""1"",""1992""
","
","","","","","","null","<div style=""font-size:60px;"">+</div>","null","","fixation","","",""
"memory-trial","163","394792","0.0-18.0-1.59","6341","approach_avoid_sv1","""event"",""trial"",""time""
""fullscreenenter"",""1"",""1992""
","
","
","""event"",""trial"",""time""
""fullscreenenter"",""1"",""1992""
","
","","","","","","988.8999999999069","images/cow3.png","","","memory_trial","2","maybe_old",""
"html-keyboard-response","164","395296","0.0-18.0-0.60","6341","approach_avoid_sv1","""event"",""trial"",""time""
""fullscreenenter"",""1"",""1992""
","
","
","""event"",""trial"",""time""
""fullscreenenter"",""1"",""1992""
","
","","","","","","null","<div style=""font-size:60px;"">+</div>","null","","fixation","","",""
"memory-trial","165","397480","0.0-18.0-1.60","6341","approach_avoid_sv1","""event"",""trial"",""time""
""fullscreenenter"",""1"",""1992""
","
","
","""event"",""trial"",""time""
""fullscreenenter"",""1"",""1992""
","
","","","","","","1178.5","images/goat2.png","","","memory_trial","3","maybe_new",""
"html-keyboard-response","166","397984","0.0-18.0-0.61","6341","approach_avoid_sv1","""event"",""trial"",""time""
""fullscreenenter"",""1"",""1992""
","
","
","""event"",""trial"",""time""
""fullscreenenter"",""1"",""1992""
","
","","","","","","null","<div style=""font-size:60px;"">+</div>","null","","fixation","","",""
"memory-trial","167","400378","0.0-18.0-1.61","6341","approach_avoid_sv1","""event"",""trial"",""time""
""fullscreenenter"",""1"",""1992""
","
","
","""event"",""trial"",""time""
""fullscreenenter"",""1"",""1992""
","
","","","","","","1381.6000000000931","images/bush8.png","","","memory_trial","1","definitely_old",""
"html-keyboard-response","168","400888","0.0-18.0-0.62","6341","approach_avoid_sv1","""event"",""trial"",""time""
""fullscreenenter"",""1"",""1992""
","
","
","""event"",""trial"",""time""
""fullscreenenter"",""1"",""1992""
","
","","","","","","null","<div style=""font-size:60px;"">+</div>","null","","fixation","","",""
"memory-trial","169","403208","0.0-18.0-1.62","6341","approach_avoid_sv1","""event"",""trial"",""time""
""fullscreenenter"",""1"",""1992""
","
","
","""event"",""trial"",""time""
""fullscreenenter"",""1"",""1992""
","
","","","","","","1313.6999999999534","images/table3.png","","","memory_trial","4","definitely_new",""
"html-keyboard-response","170","403712","0.0-18.0-0.63","6341","approach_avoid_sv1","""event"",""trial"",""time""
""fullscreenenter"",""1"",""1992""
","
","
","""event"",""trial"",""time""
""fullscreenenter"",""1"",""1992""
","
","","","","","","null","<div style=""font-size:60px;"">+</div>","null","","fixation","","",""
"memory-trial","171","406815","0.0-18.0-1.63","6341","approach_avoid_sv1","""event"",""trial"",""time""
""fullscreenenter"",""1"",""1992""
","
","
","""event"",""trial"",""time""
""fullscreenenter"",""1"",""1992""
","
","","","","","","2100","images/cow4.png","","","memory_trial","2","maybe_old",""
"html-keyboard-response","172","407320","0.0-18.0-0.64","6341","approach_avoid_sv1","""event"",""trial"",""time""
""fullscreenenter"",""1"",""1992""
","
","
","""event"",""trial"",""time""
""fullscreenenter"",""1"",""1992""
","
","","","","","","null","<div style=""font-size:60px;"">+</div>","null","","fixation","","",""
"memory-trial","173","410128","0.0-18.0-1.64","6341","approach_avoid_sv1","""event"",""trial"",""time""
""fullscreenenter"",""1"",""1992""
","
","
","""event"",""trial"",""time""
""fullscreenenter"",""1"",""1992""
","
","","","","","","1795.7999999999302","images/flower3.png","","","memory_trial","3","maybe_new",""
"html-keyboard-response","174","410632","0.0-18.0-0.65","6341","approach_avoid_sv1","""event"",""trial"",""time""
""fullscreenenter"",""1"",""1992""
","
","
","""event"",""trial"",""time""
""fullscreenenter"",""1"",""1992""
","
","","","","","","null","<div style=""font-size:60px;"">+</div>","null","","fixation","","",""
"memory-trial","175","412743","0.0-18.0-1.65","6341","approach_avoid_sv1","""event"",""trial"",""time""
""fullscreenenter"",""1"",""1992""
","
","
","""event"",""trial"",""time""
""fullscreenenter"",""1"",""1992""
","
","","","","","","1104","images/rabbit1.png","","","memory_trial","3","maybe_new",""
"html-keyboard-response","176","413248","0.0-18.0-0.66","6341","approach_avoid_sv1","""event"",""trial"",""time""
""fullscreenenter"",""1"",""1992""
","
","
","""event"",""trial"",""time""
""fullscreenenter"",""1"",""1992""
","
","","","","","","null","<div style=""font-size:60px;"">+</div>","null","","fixation","","",""
"memory-trial","177","416304","0.0-18.0-1.66","6341","approach_avoid_sv1","""event"",""trial"",""time""
""fullscreenenter"",""1"",""1992""
","
","
","""event"",""trial"",""time""
""fullscreenenter"",""1"",""1992""
","
","","","","","","2045.1999999999534","images/rodent1.png","","","memory_trial","2","maybe_old",""
"html-keyboard-response","178","416807","0.0-18.0-0.67","6341","approach_avoid_sv1","""event"",""trial"",""time""
""fullscreenenter"",""1"",""1992""
","
","
","""event"",""trial"",""time""
""fullscreenenter"",""1"",""1992""
","
","","","","","","null","<div style=""font-size:60px;"">+</div>","null","","fixation","","",""
"memory-trial","179","420256","0.0-18.0-1.67","6341","approach_avoid_sv1","""event"",""trial"",""time""
""fullscreenenter"",""1"",""1992""
","
","
","""event"",""trial"",""time""
""fullscreenenter"",""1"",""1992""
","
","","","","","","2442.6999999999534","images/cactus5.png","","","memory_trial","3","maybe_new",""
"html-keyboard-response","180","420759","0.0-18.0-0.68","6341","approach_avoid_sv1","""event"",""trial"",""time""
""fullscreenenter"",""1"",""1992""
","
","
","""event"",""trial"",""time""
""fullscreenenter"",""1"",""1992""
","
","","","","","","null","<div style=""font-size:60px;"">+</div>","null","","fixation","","",""
"memory-trial","181","422928","0.0-18.0-1.68","6341","approach_avoid_sv1","""event"",""trial"",""time""
""fullscreenenter"",""1"",""1992""
","
","
","""event"",""trial"",""time""
""fullscreenenter"",""1"",""1992""
","
","","","","","","1161.1999999999534","images/chair7.png","","","memory_trial","4","definitely_new",""
"html-keyboard-response","182","423431","0.0-18.0-0.69","6341","approach_avoid_sv1","""event"",""trial"",""time""
""fullscreenenter"",""1"",""1992""
","
","
","""event"",""trial"",""time""
""fullscreenenter"",""1"",""1992""
","
","","","","","","null","<div style=""font-size:60px;"">+</div>","null","","fixation","","",""
"memory-trial","183","425752","0.0-18.0-1.69","6341","approach_avoid_sv1","""event"",""trial"",""time""
""fullscreenenter"",""1"",""1992""
","
","
","""event"",""trial"",""time""
""fullscreenenter"",""1"",""1992""
","
","","","","","","1314.9000000000233","images/truck1.png","","","memory_trial","4","definitely_new",""
"html-keyboard-response","184","426255","0.0-18.0-0.70","6341","approach_avoid_sv1","""event"",""trial"",""time""
""fullscreenenter"",""1"",""1992""
","
","
","""event"",""trial"",""time""
""fullscreenenter"",""1"",""1992""
","
","","","","","","null","<div style=""font-size:60px;"">+</div>","null","","fixation","","",""
"memory-trial","185","428352","0.0-18.0-1.70","6341","approach_avoid_sv1","""event"",""trial"",""time""
""fullscreenenter"",""1"",""1992""
","
","
","""event"",""trial"",""time""
""fullscreenenter"",""1"",""1992""
","
","","","","","","1084.3000000000466","images/goat7.png","","","memory_trial","3","maybe_new",""
"html-keyboard-response","186","428855","0.0-18.0-0.71","6341","approach_avoid_sv1","""event"",""trial"",""time""
""fullscreenenter"",""1"",""1992""
","
","
","""event"",""trial"",""time""
""fullscreenenter"",""1"",""1992""
","
","","","","","","null","<div style=""font-size:60px;"">+</div>","null","","fixation","","",""
"memory-trial","187","431288","0.0-18.0-1.71","6341","approach_avoid_sv1","""event"",""trial"",""time""
""fullscreenenter"",""1"",""1992""
","
","
","""event"",""trial"",""time""
""fullscreenenter"",""1"",""1992""
","
","","","","","","1421.2000000000698","images/dog8.png","","","memory_trial","2","maybe_old",""
"html-keyboard-response","188","431794","0.0-18.0-0.72","6341","approach_avoid_sv1","""event"",""trial"",""time""
""fullscreenenter"",""1"",""1992""
","
","
","""event"",""trial"",""time""
""fullscreenenter"",""1"",""1992""
","
","","","","","","null","<div style=""font-size:60px;"">+</div>","null","","fixation","","",""
"memory-trial","189","434688","0.0-18.0-1.72","6341","approach_avoid_sv1","""event"",""trial"",""time""
""fullscreenenter"",""1"",""1992""
","
","
","""event"",""trial"",""time""
""fullscreenenter"",""1"",""1992""
","
","","","","","","1886.5999999999767","images/cat7.png","","","memory_trial","2","maybe_old",""
"html-keyboard-response","190","435191","0.0-18.0-0.73","6341","approach_avoid_sv1","""event"",""trial"",""time""
""fullscreenenter"",""1"",""1992""
","
","
","""event"",""trial"",""time""
""fullscreenenter"",""1"",""1992""
","
","","","","","","null","<div style=""font-size:60px;"">+</div>","null","","fixation","","",""
"memory-trial","191","437616","0.0-18.0-1.73","6341","approach_avoid_sv1","""event"",""trial"",""time""
""fullscreenenter"",""1"",""1992""
","
","
","""event"",""trial"",""time""
""fullscreenenter"",""1"",""1992""
","
","","","","","","1412.5","images/cactus7.png","","","memory_trial","3","maybe_new",""
"html-keyboard-response","192","438119","0.0-18.0-0.74","6341","approach_avoid_sv1","""event"",""trial"",""time""
""fullscreenenter"",""1"",""1992""
","
","
","""event"",""trial"",""time""
""fullscreenenter"",""1"",""1992""
","
","","","","","","null","<div style=""font-size:60px;"">+</div>","null","","fixation","","",""
"memory-trial","193","440136","0.0-18.0-1.74","6341","approach_avoid_sv1","""event"",""trial"",""time""
""fullscreenenter"",""1"",""1992""
","
","
","""event"",""trial"",""time""
""fullscreenenter"",""1"",""1992""
","
","","","","","","1009.5","images/cow2.png","","","memory_trial","2","maybe_old",""
"html-keyboard-response","194","440640","0.0-18.0-0.75","6341","approach_avoid_sv1","""event"",""trial"",""time""
""fullscreenenter"",""1"",""1992""
","
","
","""event"",""trial"",""time""
""fullscreenenter"",""1"",""1992""
","
","","","","","","null","<div style=""font-size:60px;"">+</div>","null","","fixation","","",""
"memory-trial","195","444191","0.0-18.0-1.75","6341","approach_avoid_sv1","""event"",""trial"",""time""
""fullscreenenter"",""1"",""1992""
","
","
","""event"",""trial"",""time""
""fullscreenenter"",""1"",""1992""
","
","","","","","","2547.8000000000466","images/tree2.png","","","memory_trial","4","definitely_new",""
"html-keyboard-response","196","444695","0.0-18.0-0.76","6341","approach_avoid_sv1","""event"",""trial"",""time""
""fullscreenenter"",""1"",""1992""
","
","
","""event"",""trial"",""time""
""fullscreenenter"",""1"",""1992""
","
","","","","","","null","<div style=""font-size:60px;"">+</div>","null","","fixation","","",""
"memory-trial","197","446512","0.0-18.0-1.76","6341","approach_avoid_sv1","""event"",""trial"",""time""
""fullscreenenter"",""1"",""1992""
","
","
","""event"",""trial"",""time""
""fullscreenenter"",""1"",""1992""
","
","","","","","","805.4000000000233","images/cat5.png","","","memory_trial","3","maybe_new",""
"html-keyboard-response","198","447015","0.0-18.0-0.77","6341","approach_avoid_sv1","""event"",""trial"",""time""
""fullscreenenter"",""1"",""1992""
","
","
","""event"",""trial"",""time""
""fullscreenenter"",""1"",""1992""
","
","","","","","","null","<div style=""font-size:60px;"">+</div>","null","","fixation","","",""
"memory-trial","199","449087","0.0-18.0-1.77","6341","approach_avoid_sv1","""event"",""trial"",""time""
""fullscreenenter"",""1"",""1992""
","
","
","""event"",""trial"",""time""
""fullscreenenter"",""1"",""1992""
","
","","","","","","1061.6000000000931","images/dog5.png","","","memory_trial","3","maybe_new",""
"html-keyboard-response","200","449591","0.0-18.0-0.78","6341","approach_avoid_sv1","""event"",""trial"",""time""
""fullscreenenter"",""1"",""1992""
","
","
","""event"",""trial"",""time""
""fullscreenenter"",""1"",""1992""
","
","","","","","","null","<div style=""font-size:60px;"">+</div>","null","","fixation","","",""
"memory-trial","201","451415","0.0-18.0-1.78","6341","approach_avoid_sv1","""event"",""trial"",""time""
""fullscreenenter"",""1"",""1992""
","
","
","""event"",""trial"",""time""
""fullscreenenter"",""1"",""1992""
","
","","","","","","815.6999999999534","images/orange5.png","","","memory_trial","3","maybe_new",""
"html-keyboard-response","202","451919","0.0-18.0-0.79","6341","approach_avoid_sv1","""event"",""trial"",""time""
""fullscreenenter"",""1"",""1992""
","
","
","""event"",""trial"",""time""
""fullscreenenter"",""1"",""1992""
","
","","","","","","null","<div style=""font-size:60px;"">+</div>","null","","fixation","","",""
"memory-trial","203","454360","0.0-18.0-1.79","6341","approach_avoid_sv1","""event"",""trial"",""time""
""fullscreenenter"",""1"",""1992""
","
","
","""event"",""trial"",""time""
""fullscreenenter"",""1"",""1992""
","
","","","","","","1436.2999999999302","images/plane5.png","","","memory_trial","3","maybe_new",""
"html-keyboard-response","204","454863","0.0-18.0-0.80","6341","approach_avoid_sv1","""event"",""trial"",""time""
""fullscreenenter"",""1"",""1992""
","
","
","""event"",""trial"",""time""
""fullscreenenter"",""1"",""1992""
","
","","","","","","null","<div style=""font-size:60px;"">+</div>","null","","fixation","","",""
"memory-trial","205","456647","0.0-18.0-1.80","6341","approach_avoid_sv1","""event"",""trial"",""time""
""fullscreenenter"",""1"",""1992""
","
","
","""event"",""trial"",""time""
""fullscreenenter"",""1"",""1992""
","
","","","","","","772.4000000000233","images/chair6.png","","","memory_trial","3","maybe_new",""
"html-keyboard-response","206","457151","0.0-18.0-0.81","6341","approach_avoid_sv1","""event"",""trial"",""time""
""fullscreenenter"",""1"",""1992""
","
","
","""event"",""trial"",""time""
""fullscreenenter"",""1"",""1992""
","
","","","","","","null","<div style=""font-size:60px;"">+</div>","null","","fixation","","",""
"memory-trial","207","459311","0.0-18.0-1.81","6341","approach_avoid_sv1","""event"",""trial"",""time""
""fullscreenenter"",""1"",""1992""
","
","
","""event"",""trial"",""time""
""fullscreenenter"",""1"",""1992""
","
","","","","","","1149.1000000000931","images/cactus2.png","","","memory_trial","4","definitely_new",""
"html-keyboard-response","208","459815","0.0-18.0-0.82","6341","approach_avoid_sv1","""event"",""trial"",""time""
""fullscreenenter"",""1"",""1992""
","
","
","""event"",""trial"",""time""
""fullscreenenter"",""1"",""1992""
","
","","","","","","null","<div style=""font-size:60px;"">+</div>","null","","fixation","","",""
"memory-trial","209","461503","0.0-18.0-1.82","6341","approach_avoid_sv1","""event"",""trial"",""time""
""fullscreenenter"",""1"",""1992""
","
","
","""event"",""trial"",""time""
""fullscreenenter"",""1"",""1992""
","
","","","","","","681.2999999999302","images/orange4.png","","","memory_trial","3","maybe_new",""
"html-keyboard-response","210","462007","0.0-18.0-0.83","6341","approach_avoid_sv1","""event"",""trial"",""time""
""fullscreenenter"",""1"",""1992""
","
","
","""event"",""trial"",""time""
""fullscreenenter"",""1"",""1992""
","
","","","","","","null","<div style=""font-size:60px;"">+</div>","null","","fixation","","",""
"memory-trial","211","463927","0.0-18.0-1.83","6341","approach_avoid_sv1","""event"",""trial"",""time""
""fullscreenenter"",""1"",""1992""
","
","
","""event"",""trial"",""time""
""fullscreenenter"",""1"",""1992""
","
","","","","","","914.7999999999302","images/straw6.png","","","memory_trial","4","definitely_new",""
"html-keyboard-response","212","464431","0.0-18.0-0.84","6341","approach_avoid_sv1","""event"",""trial"",""time""
""fullscreenenter"",""1"",""1992""
","
","
","""event"",""trial"",""time""
""fullscreenenter"",""1"",""1992""
","
","","","","","","null","<div style=""font-size:60px;"">+</div>","null","","fixation","","",""
"memory-trial","213","467079","0.0-18.0-1.84","6341","approach_avoid_sv1","""event"",""trial"",""time""
""fullscreenenter"",""1"",""1992""
","
","
","""event"",""trial"",""time""
""fullscreenenter"",""1"",""1992""
","
","","","","","","1639.2000000000698","images/sheep8.png","","","memory_trial","2","maybe_old",""
"html-keyboard-response","214","467583","0.0-18.0-0.85","6341","approach_avoid_sv1","""event"",""trial"",""time""
""fullscreenenter"",""1"",""1992""
","
","
","""event"",""trial"",""time""
""fullscreenenter"",""1"",""1992""
","
","","","","","","null","<div style=""font-size:60px;"">+</div>","null","","fixation","","",""
"memory-trial","215","469648","0.0-18.0-1.85","6341","approach_avoid_sv1","""event"",""trial"",""time""
""fullscreenenter"",""1"",""1992""
","
","
","""event"",""trial"",""time""
""fullscreenenter"",""1"",""1992""
","
","","","","","","1057.9000000000233","images/flower8.png","","","memory_trial","3","maybe_new",""
"html-keyboard-response","216","470152","0.0-18.0-0.86","6341","approach_avoid_sv1","""event"",""trial"",""time""
""fullscreenenter"",""1"",""1992""
","
","
","""event"",""trial"",""time""
""fullscreenenter"",""1"",""1992""
","
","","","","","","null","<div style=""font-size:60px;"">+</div>","null","","fixation","","",""
"memory-trial","217","472495","0.0-18.0-1.86","6341","approach_avoid_sv1","""event"",""trial"",""time""
""fullscreenenter"",""1"",""1992""
","
","
","""event"",""trial"",""time""
""fullscreenenter"",""1"",""1992""
","
","","","","","","1333.2000000000698","images/bush1.png","","","memory_trial","2","maybe_old",""
"html-keyboard-response","218","472999","0.0-18.0-0.87","6341","approach_avoid_sv1","""event"",""trial"",""time""
""fullscreenenter"",""1"",""1992""
","
","
","""event"",""trial"",""time""
""fullscreenenter"",""1"",""1992""
","
","","","","","","null","<div style=""font-size:60px;"">+</div>","null","","fixation","","",""
"memory-trial","219","474903","0.0-18.0-1.87","6341","approach_avoid_sv1","""event"",""trial"",""time""
""fullscreenenter"",""1"",""1992""
","
","
","""event"",""trial"",""time""
""fullscreenenter"",""1"",""1992""
","
","","","","","","894.3999999999069","images/cow7.png","","","memory_trial","2","maybe_old",""
"html-keyboard-response","220","475407","0.0-18.0-0.88","6341","approach_avoid_sv1","""event"",""trial"",""time""
""fullscreenenter"",""1"",""1992""
","
","
","""event"",""trial"",""time""
""fullscreenenter"",""1"",""1992""
","
","","","","","","null","<div style=""font-size:60px;"">+</div>","null","","fixation","","",""
"memory-trial","221","477287","0.0-18.0-1.88","6341","approach_avoid_sv1","""event"",""trial"",""time""
""fullscreenenter"",""1"",""1992""
","
","
","""event"",""trial"",""time""
""fullscreenenter"",""1"",""1992""
","
","","","","","","873.2999999999302","images/apple1.png","","","memory_trial","3","maybe_new",""
"html-keyboard-response","222","477794","0.0-18.0-0.89","6341","approach_avoid_sv1","""event"",""trial"",""time""
""fullscreenenter"",""1"",""1992""
","
","
","""event"",""trial"",""time""
""fullscreenenter"",""1"",""1992""
","
","","","","","","null","<div style=""font-size:60px;"">+</div>","null","","fixation","","",""
"memory-trial","223","480599","0.0-18.0-1.89","6341","approach_avoid_sv1","""event"",""trial"",""time""
""fullscreenenter"",""1"",""1992""
","
","
","""event"",""trial"",""time""
""fullscreenenter"",""1"",""1992""
","
","","","","","","1798.3000000000466","images/banana4.png","","","memory_trial","2","maybe_old",""
"html-keyboard-response","224","481103","0.0-18.0-0.90","6341","approach_avoid_sv1","""event"",""trial"",""time""
""fullscreenenter"",""1"",""1992""
","
","
","""event"",""trial"",""time""
""fullscreenenter"",""1"",""1992""
","
","","","","","","null","<div style=""font-size:60px;"">+</div>","null","","fixation","","",""
"memory-trial","225","483359","0.0-18.0-1.90","6341","approach_avoid_sv1","""event"",""trial"",""time""
""fullscreenenter"",""1"",""1992""
","
","
","""event"",""trial"",""time""
""fullscreenenter"",""1"",""1992""
","
","","","","","","1243.7999999999302","images/train8.png","","","memory_trial","2","maybe_old",""
"html-keyboard-response","226","483863","0.0-18.0-0.91","6341","approach_avoid_sv1","""event"",""trial"",""time""
""fullscreenenter"",""1"",""1992""
","
","
","""event"",""trial"",""time""
""fullscreenenter"",""1"",""1992""
","
","","","","","","null","<div style=""font-size:60px;"">+</div>","null","","fixation","","",""
"memory-trial","227","486039","0.0-18.0-1.91","6341","approach_avoid_sv1","""event"",""trial"",""time""
""fullscreenenter"",""1"",""1992""
","
","
","""event"",""trial"",""time""
""fullscreenenter"",""1"",""1992""
","
","","","","","","1166.2999999999302","images/plane3.png","","","memory_trial","2","maybe_old",""
"html-button-response","228","487710","0.0-18.0-2.91-0.91","6341","approach_avoid_sv1","""event"",""trial"",""time""
""fullscreenenter"",""1"",""1992""
","
","
","""event"",""trial"",""time""
""fullscreenenter"",""1"",""1992""
","
","","","","","","1669.2000000000698","<p> Take a break! </p><p> Click the button to continue. </p>","0","","break","","",""
"html-keyboard-response","229","488215","0.0-18.0-0.92","6341","approach_avoid_sv1","""event"",""trial"",""time""
""fullscreenenter"",""1"",""1992""
","
","
","""event"",""trial"",""time""
""fullscreenenter"",""1"",""1992""
","
","","","","","","null","<div style=""font-size:60px;"">+</div>","null","","fixation","","",""
"memory-trial","230","490839","0.0-18.0-1.92","6341","approach_avoid_sv1","""event"",""trial"",""time""
""fullscreenenter"",""1"",""1992""
","
","
","""event"",""trial"",""time""
""fullscreenenter"",""1"",""1992""
","
","","","","","","1614.2999999999302","images/rabbit7.png","","","memory_trial","2","maybe_old",""
"html-keyboard-response","231","491343","0.0-18.0-0.93","6341","approach_avoid_sv1","""event"",""trial"",""time""
""fullscreenenter"",""1"",""1992""
","
","
","""event"",""trial"",""time""
""fullscreenenter"",""1"",""1992""
","
","","","","","","null","<div style=""font-size:60px;"">+</div>","null","","fixation","","",""
"memory-trial","232","493591","0.0-18.0-1.93","6341","approach_avoid_sv1","""event"",""trial"",""time""
""fullscreenenter"",""1"",""1992""
","
","
","""event"",""trial"",""time""
""fullscreenenter"",""1"",""1992""
","
","","","","","","1238.5999999999767","images/train2.png","","","memory_trial","2","maybe_old",""
"html-keyboard-response","233","494095","0.0-18.0-0.94","6341","approach_avoid_sv1","""event"",""trial"",""time""
""fullscreenenter"",""1"",""1992""
","
","
","""event"",""trial"",""time""
""fullscreenenter"",""1"",""1992""
","
","","","","","","null","<div style=""font-size:60px;"">+</div>","null","","fixation","","",""
"memory-trial","234","496727","0.0-18.0-1.94","6341","approach_avoid_sv1","""event"",""trial"",""time""
""fullscreenenter"",""1"",""1992""
","
","
","""event"",""trial"",""time""
""fullscreenenter"",""1"",""1992""
","
","","","","","","1624.2999999999302","images/cactus4.png","","","memory_trial","1","definitely_old",""
"html-keyboard-response","235","497231","0.0-18.0-0.95","6341","approach_avoid_sv1","""event"",""trial"",""time""
""fullscreenenter"",""1"",""1992""
","
","
","""event"",""trial"",""time""
""fullscreenenter"",""1"",""1992""
","
","","","","","","null","<div style=""font-size:60px;"">+</div>","null","","fixation","","",""
"memory-trial","236","500967","0.0-18.0-1.95","6341","approach_avoid_sv1","""event"",""trial"",""time""
""fullscreenenter"",""1"",""1992""
","
","
","""event"",""trial"",""time""
""fullscreenenter"",""1"",""1992""
","
","","","","","","2726","images/sofa7.png","","","memory_trial","2","maybe_old",""
"html-keyboard-response","237","501471","0.0-18.0-0.96","6341","approach_avoid_sv1","""event"",""trial"",""time""
""fullscreenenter"",""1"",""1992""
","
","
","""event"",""trial"",""time""
""fullscreenenter"",""1"",""1992""
","
","","","","","","null","<div style=""font-size:60px;"">+</div>","null","","fixation","","",""
"memory-trial","238","503623","0.0-18.0-1.96","6341","approach_avoid_sv1","""event"",""trial"",""time""
""fullscreenenter"",""1"",""1992""
","
","
","""event"",""trial"",""time""
""fullscreenenter"",""1"",""1992""
","
","","","","","","1144.7999999999302","images/tree5.png","","","memory_trial","3","maybe_new",""
"html-keyboard-response","239","504127","0.0-18.0-0.97","6341","approach_avoid_sv1","""event"",""trial"",""time""
""fullscreenenter"",""1"",""1992""
","
","
","""event"",""trial"",""time""
""fullscreenenter"",""1"",""1992""
","
","","","","","","null","<div style=""font-size:60px;"">+</div>","null","","fixation","","",""
"memory-trial","240","506215","0.0-18.0-1.97","6341","approach_avoid_sv1","""event"",""trial"",""time""
""fullscreenenter"",""1"",""1992""
","
","
","""event"",""trial"",""time""
""fullscreenenter"",""1"",""1992""
","
","","","","","","1078.4000000000233","images/bush7.png","","","memory_trial","4","definitely_new",""
"html-keyboard-response","241","506719","0.0-18.0-0.98","6341","approach_avoid_sv1","""event"",""trial"",""time""
""fullscreenenter"",""1"",""1992""
","
","
","""event"",""trial"",""time""
""fullscreenenter"",""1"",""1992""
","
","","","","","","null","<div style=""font-size:60px;"">+</div>","null","","fixation","","",""
"memory-trial","242","508655","0.0-18.0-1.98","6341","approach_avoid_sv1","""event"",""trial"",""time""
""fullscreenenter"",""1"",""1992""
","
","
","""event"",""trial"",""time""
""fullscreenenter"",""1"",""1992""
","
","","","","","","925.9000000000233","images/cactus1.png","","","memory_trial","3","maybe_new",""
"html-keyboard-response","243","509159","0.0-18.0-0.99","6341","approach_avoid_sv1","""event"",""trial"",""time""
""fullscreenenter"",""1"",""1992""
","
","
","""event"",""trial"",""time""
""fullscreenenter"",""1"",""1992""
","
","","","","","","null","<div style=""font-size:60px;"">+</div>","null","","fixation","","",""
"memory-trial","244","511295","0.0-18.0-1.99","6341","approach_avoid_sv1","""event"",""trial"",""time""
""fullscreenenter"",""1"",""1992""
","
","
","""event"",""trial"",""time""
""fullscreenenter"",""1"",""1992""
","
","","","","","","1131.8999999999069","images/flower1.png","","","memory_trial","3","maybe_new",""
"html-keyboard-response","245","511799","0.0-18.0-0.100","6341","approach_avoid_sv1","""event"",""trial"",""time""
""fullscreenenter"",""1"",""1992""
","
","
","""event"",""trial"",""time""
""fullscreenenter"",""1"",""1992""
","
","","","","","","null","<div style=""font-size:60px;"">+</div>","null","","fixation","","",""
"memory-trial","246","513687","0.0-18.0-1.100","6341","approach_avoid_sv1","""event"",""trial"",""time""
""fullscreenenter"",""1"",""1992""
","
","
","""event"",""trial"",""time""
""fullscreenenter"",""1"",""1992""
","
","","","","","","879.1000000000931","images/orange7.png","","","memory_trial","3","maybe_new",""
"html-keyboard-response","247","514191","0.0-18.0-0.101","6341","approach_avoid_sv1","""event"",""trial"",""time""
""fullscreenenter"",""1"",""1992""
","
","
","""event"",""trial"",""time""
""fullscreenenter"",""1"",""1992""
","
","","","","","","null","<div style=""font-size:60px;"">+</div>","null","","fixation","","",""
"memory-trial","248","516335","0.0-18.0-1.101","6341","approach_avoid_sv1","""event"",""trial"",""time""
""fullscreenenter"",""1"",""1992""
","
","
","""event"",""trial"",""time""
""fullscreenenter"",""1"",""1992""
","
","","","","","","1135.2999999999302","images/horse2.png","","","memory_trial","4","definitely_new",""
"html-keyboard-response","249","516839","0.0-18.0-0.102","6341","approach_avoid_sv1","""event"",""trial"",""time""
""fullscreenenter"",""1"",""1992""
","
","
","""event"",""trial"",""time""
""fullscreenenter"",""1"",""1992""
","
","","","","","","null","<div style=""font-size:60px;"">+</div>","null","","fixation","","",""
"memory-trial","250","518831","0.0-18.0-1.102","6341","approach_avoid_sv1","""event"",""trial"",""time""
""fullscreenenter"",""1"",""1992""
","
","
","""event"",""trial"",""time""
""fullscreenenter"",""1"",""1992""
","
","","","","","","985.3999999999069","images/straw2.png","","","memory_trial","4","definitely_new",""
"html-keyboard-response","251","519335","0.0-18.0-0.103","6341","approach_avoid_sv1","""event"",""trial"",""time""
""fullscreenenter"",""1"",""1992""
","
","
","""event"",""trial"",""time""
""fullscreenenter"",""1"",""1992""
","
","","","","","","null","<div style=""font-size:60px;"">+</div>","null","","fixation","","",""
"memory-trial","252","521271","0.0-18.0-1.103","6341","approach_avoid_sv1","""event"",""trial"",""time""
""fullscreenenter"",""1"",""1992""
","
","
","""event"",""trial"",""time""
""fullscreenenter"",""1"",""1992""
","
","","","","","","932.0999999999767","images/table7.png","","","memory_trial","3","maybe_new",""
"html-keyboard-response","253","521775","0.0-18.0-0.104","6341","approach_avoid_sv1","""event"",""trial"",""time""
""fullscreenenter"",""1"",""1992""
","
","
","""event"",""trial"",""time""
""fullscreenenter"",""1"",""1992""
","
","","","","","","null","<div style=""font-size:60px;"">+</div>","null","","fixation","","",""
"memory-trial","254","524203","0.0-18.0-1.104","6341","approach_avoid_sv1","""event"",""trial"",""time""
""fullscreenenter"",""1"",""1992""
","
","
","""event"",""trial"",""time""
""fullscreenenter"",""1"",""1992""
","
","","","","","","1418.5000000000582","images/train1.png","","","memory_trial","2","maybe_old",""
"html-keyboard-response","255","524711","0.0-18.0-0.105","6341","approach_avoid_sv1","""event"",""trial"",""time""
""fullscreenenter"",""1"",""1992""
","
","
","""event"",""trial"",""time""
""fullscreenenter"",""1"",""1992""
","
","","","","","","null","<div style=""font-size:60px;"">+</div>","null","","fixation","","",""
"memory-trial","256","526695","0.0-18.0-1.105","6341","approach_avoid_sv1","""event"",""trial"",""time""
""fullscreenenter"",""1"",""1992""
","
","
","""event"",""trial"",""time""
""fullscreenenter"",""1"",""1992""
","
","","","","","","971.6999999999534","images/boat6.png","","","memory_trial","1","definitely_old",""
"html-keyboard-response","257","527199","0.0-18.0-0.106","6341","approach_avoid_sv1","""event"",""trial"",""time""
""fullscreenenter"",""1"",""1992""
","
","
","""event"",""trial"",""time""
""fullscreenenter"",""1"",""1992""
","
","","","","","","null","<div style=""font-size:60px;"">+</div>","null","","fixation","","",""
"memory-trial","258","529799","0.0-18.0-1.106","6341","approach_avoid_sv1","""event"",""trial"",""time""
""fullscreenenter"",""1"",""1992""
","
","
","""event"",""trial"",""time""
""fullscreenenter"",""1"",""1992""
","
","","","","","","1595.5","images/dog3.png","","","memory_trial","3","maybe_new",""
"html-keyboard-response","259","530303","0.0-18.0-0.107","6341","approach_avoid_sv1","""event"",""trial"",""time""
""fullscreenenter"",""1"",""1992""
","
","
","""event"",""trial"",""time""
""fullscreenenter"",""1"",""1992""
","
","","","","","","null","<div style=""font-size:60px;"">+</div>","null","","fixation","","",""
"memory-trial","260","533119","0.0-18.0-1.107","6341","approach_avoid_sv1","""event"",""trial"",""time""
""fullscreenenter"",""1"",""1992""
","
","
","""event"",""trial"",""time""
""fullscreenenter"",""1"",""1992""
","
","","","","","","1811.1999999999534","images/boat8.png","","","memory_trial","3","maybe_new",""
"html-keyboard-response","261","533623","0.0-18.0-0.108","6341","approach_avoid_sv1","""event"",""trial"",""time""
""fullscreenenter"",""1"",""1992""
","
","
","""event"",""trial"",""time""
""fullscreenenter"",""1"",""1992""
","
","","","","","","null","<div style=""font-size:60px;"">+</div>","null","","fixation","","",""
"memory-trial","262","535535","0.0-18.0-1.108","6341","approach_avoid_sv1","""event"",""trial"",""time""
""fullscreenenter"",""1"",""1992""
","
","
","""event"",""trial"",""time""
""fullscreenenter"",""1"",""1992""
","
","","","","","","901","images/bed2.png","","","memory_trial","3","maybe_new",""
"html-keyboard-response","263","536039","0.0-18.0-0.109","6341","approach_avoid_sv1","""event"",""trial"",""time""
""fullscreenenter"",""1"",""1992""
","
","
","""event"",""trial"",""time""
""fullscreenenter"",""1"",""1992""
","
","","","","","","null","<div style=""font-size:60px;"">+</div>","null","","fixation","","",""
"memory-trial","264","537983","0.0-18.0-1.109","6341","approach_avoid_sv1","""event"",""trial"",""time""
""fullscreenenter"",""1"",""1992""
","
","
","""event"",""trial"",""time""
""fullscreenenter"",""1"",""1992""
","
","","","","","","939.5","images/boat4.png","","","memory_trial","2","maybe_old",""
"html-keyboard-response","265","538490","0.0-18.0-0.110","6341","approach_avoid_sv1","""event"",""trial"",""time""
""fullscreenenter"",""1"",""1992""
","
","
","""event"",""trial"",""time""
""fullscreenenter"",""1"",""1992""
","
","","","","","","null","<div style=""font-size:60px;"">+</div>","null","","fixation","","",""
"memory-trial","266","540447","0.0-18.0-1.110","6341","approach_avoid_sv1","""event"",""trial"",""time""
""fullscreenenter"",""1"",""1992""
","
","
","""event"",""trial"",""time""
""fullscreenenter"",""1"",""1992""
","
","","","","","","946.5","images/straw7.png","","","memory_trial","3","maybe_new",""
"html-keyboard-response","267","540951","0.0-18.0-0.111","6341","approach_avoid_sv1","""event"",""trial"",""time""
""fullscreenenter"",""1"",""1992""
","
","
","""event"",""trial"",""time""
""fullscreenenter"",""1"",""1992""
","
","","","","","","null","<div style=""font-size:60px;"">+</div>","null","","fixation","","",""
"memory-trial","268","542959","0.0-18.0-1.111","6341","approach_avoid_sv1","""event"",""trial"",""time""
""fullscreenenter"",""1"",""1992""
","
","
","""event"",""trial"",""time""
""fullscreenenter"",""1"",""1992""
","
","","","","","","1004.5","images/tree3.png","","","memory_trial","3","maybe_new",""
"html-keyboard-response","269","543463","0.0-18.0-0.112","6341","approach_avoid_sv1","""event"",""trial"",""time""
""fullscreenenter"",""1"",""1992""
","
","
","""event"",""trial"",""time""
""fullscreenenter"",""1"",""1992""
","
","","","","","","null","<div style=""font-size:60px;"">+</div>","null","","fixation","","",""
"memory-trial","270","545335","0.0-18.0-1.112","6341","approach_avoid_sv1","""event"",""trial"",""time""
""fullscreenenter"",""1"",""1992""
","
","
","""event"",""trial"",""time""
""fullscreenenter"",""1"",""1992""
","
","","","","","","863.6999999999534","images/rabbit3.png","","","memory_trial","3","maybe_new",""
"html-keyboard-response","271","545839","0.0-18.0-0.113","6341","approach_avoid_sv1","""event"",""trial"",""time""
""fullscreenenter"",""1"",""1992""
","
","
","""event"",""trial"",""time""
""fullscreenenter"",""1"",""1992""
","
","","","","","","null","<div style=""font-size:60px;"">+</div>","null","","fixation","","",""
"memory-trial","272","547522","0.0-18.0-1.113","6341","approach_avoid_sv1","""event"",""trial"",""time""
""fullscreenenter"",""1"",""1992""
","
","
","""event"",""trial"",""time""
""fullscreenenter"",""1"",""1992""
","
","","","","","","669.1999999999534","images/table2.png","","","memory_trial","3","maybe_new",""
"html-keyboard-response","273","548031","0.0-18.0-0.114","6341","approach_avoid_sv1","""event"",""trial"",""time""
""fullscreenenter"",""1"",""1992""
","
","
","""event"",""trial"",""time""
""fullscreenenter"",""1"",""1992""
","
","","","","","","null","<div style=""font-size:60px;"">+</div>","null","","fixation","","",""
"memory-trial","274","550535","0.0-18.0-1.114","6341","approach_avoid_sv1","""event"",""trial"",""time""
""fullscreenenter"",""1"",""1992""
","
","
","""event"",""trial"",""time""
""fullscreenenter"",""1"",""1992""
","
","","","","","","1493.5","images/flower2.png","","","memory_trial","1","definitely_old",""
"html-keyboard-response","275","551039","0.0-18.0-0.115","6341","approach_avoid_sv1","""event"",""trial"",""time""
""fullscreenenter"",""1"",""1992""
","
","
","""event"",""trial"",""time""
""fullscreenenter"",""1"",""1992""
","
","","","","","","null","<div style=""font-size:60px;"">+</div>","null","","fixation","","",""
"memory-trial","276","553271","0.0-18.0-1.115","6341","approach_avoid_sv1","""event"",""trial"",""time""
""fullscreenenter"",""1"",""1992""
","
","
","""event"",""trial"",""time""
""fullscreenenter"",""1"",""1992""
","
","","","","","","1220.1999999999534","images/horse8.png","","","memory_trial","4","definitely_new",""
"html-keyboard-response","277","553775","0.0-18.0-0.116","6341","approach_avoid_sv1","""event"",""trial"",""time""
""fullscreenenter"",""1"",""1992""
","
","
","""event"",""trial"",""time""
""fullscreenenter"",""1"",""1992""
","
","","","","","","null","<div style=""font-size:60px;"">+</div>","null","","fixation","","",""
"memory-trial","278","555727","0.0-18.0-1.116","6341","approach_avoid_sv1","""event"",""trial"",""time""
""fullscreenenter"",""1"",""1992""
","
","
","""event"",""trial"",""time""
""fullscreenenter"",""1"",""1992""
","
","","","","","","948.3999999999069","images/apple2.png","","","memory_trial","3","maybe_new",""
"html-keyboard-response","279","556231","0.0-18.0-0.117","6341","approach_avoid_sv1","""event"",""trial"",""time""
""fullscreenenter"",""1"",""1992""
","
","
","""event"",""trial"",""time""
""fullscreenenter"",""1"",""1992""
","
","","","","","","null","<div style=""font-size:60px;"">+</div>","null","","fixation","","",""
"memory-trial","280","560263","0.0-18.0-1.117","6341","approach_avoid_sv1","""event"",""trial"",""time""
""fullscreenenter"",""1"",""1992""
","
","
","""event"",""trial"",""time""
""fullscreenenter"",""1"",""1992""
","
","","","","","","3024.8000000000466","images/truck7.png","","","memory_trial","1","definitely_old",""
"html-keyboard-response","281","560767","0.0-18.0-0.118","6341","approach_avoid_sv1","""event"",""trial"",""time""
""fullscreenenter"",""1"",""1992""
","
","
","""event"",""trial"",""time""
""fullscreenenter"",""1"",""1992""
","
","","","","","","null","<div style=""font-size:60px;"">+</div>","null","","fixation","","",""
"memory-trial","282","563623","0.0-18.0-1.118","6341","approach_avoid_sv1","""event"",""trial"",""time""
""fullscreenenter"",""1"",""1992""
","
","
","""event"",""trial"",""time""
""fullscreenenter"",""1"",""1992""
","
","","","","","","1848.0999999998603","images/cactus6.png","","","memory_trial","3","maybe_new",""
"html-keyboard-response","283","564127","0.0-18.0-0.119","6341","approach_avoid_sv1","""event"",""trial"",""time""
""fullscreenenter"",""1"",""1992""
","
","
","""event"",""trial"",""time""
""fullscreenenter"",""1"",""1992""
","
","","","","","","null","<div style=""font-size:60px;"">+</div>","null","","fixation","","",""
"memory-trial","284","566335","0.0-18.0-1.119","6341","approach_avoid_sv1","""event"",""trial"",""time""
""fullscreenenter"",""1"",""1992""
","
","
","""event"",""trial"",""time""
""fullscreenenter"",""1"",""1992""
","
","","","","","","1202.3000000000466","images/flower7.png","","","memory_trial","1","definitely_old",""
"html-keyboard-response","285","566839","0.0-18.0-0.120","6341","approach_avoid_sv1","""event"",""trial"",""time""
""fullscreenenter"",""1"",""1992""
","
","
","""event"",""trial"",""time""
""fullscreenenter"",""1"",""1992""
","
","","","","","","null","<div style=""font-size:60px;"">+</div>","null","","fixation","","",""
"memory-trial","286","568799","0.0-18.0-1.120","6341","approach_avoid_sv1","""event"",""trial"",""time""
""fullscreenenter"",""1"",""1992""
","
","
","""event"",""trial"",""time""
""fullscreenenter"",""1"",""1992""
","
","","","","","","952.1999999999534","images/boat1.png","","","memory_trial","2","maybe_old",""
"html-keyboard-response","287","569303","0.0-18.0-0.121","6341","approach_avoid_sv1","""event"",""trial"",""time""
""fullscreenenter"",""1"",""1992""
","
","
","""event"",""trial"",""time""
""fullscreenenter"",""1"",""1992""
","
","","","","","","null","<div style=""font-size:60px;"">+</div>","null","","fixation","","",""
"memory-trial","288","571535","0.0-18.0-1.121","6341","approach_avoid_sv1","""event"",""trial"",""time""
""fullscreenenter"",""1"",""1992""
","
","
","""event"",""trial"",""time""
""fullscreenenter"",""1"",""1992""
","
","","","","","","1223.8999999999069","images/sheep4.png","","","memory_trial","2","maybe_old",""
"html-keyboard-response","289","572039","0.0-18.0-0.122","6341","approach_avoid_sv1","""event"",""trial"",""time""
""fullscreenenter"",""1"",""1992""
","
","
","""event"",""trial"",""time""
""fullscreenenter"",""1"",""1992""
","
","","","","","","null","<div style=""font-size:60px;"">+</div>","null","","fixation","","",""
"memory-trial","290","574151","0.0-18.0-1.122","6341","approach_avoid_sv1","""event"",""trial"",""time""
""fullscreenenter"",""1"",""1992""
","
","
","""event"",""trial"",""time""
""fullscreenenter"",""1"",""1992""
","
","","","","","","1104.3999999999069","images/truck2.png","","","memory_trial","1","definitely_old",""
"html-keyboard-response","291","574655","0.0-18.0-0.123","6341","approach_avoid_sv1","""event"",""trial"",""time""
""fullscreenenter"",""1"",""1992""
","
","
","""event"",""trial"",""time""
""fullscreenenter"",""1"",""1992""
","
","","","","","","null","<div style=""font-size:60px;"">+</div>","null","","fixation","","",""
"memory-trial","292","577967","0.0-18.0-1.123","6341","approach_avoid_sv1","""event"",""trial"",""time""
""fullscreenenter"",""1"",""1992""
","
","
","""event"",""trial"",""time""
""fullscreenenter"",""1"",""1992""
","
","","","","","","2302.8000000000466","images/sofa8.png","","","memory_trial","3","maybe_new",""
"html-keyboard-response","293","578471","0.0-18.0-0.124","6341","approach_avoid_sv1","""event"",""trial"",""time""
""fullscreenenter"",""1"",""1992""
","
","
","""event"",""trial"",""time""
""fullscreenenter"",""1"",""1992""
","
","","","","","","null","<div style=""font-size:60px;"">+</div>","null","","fixation","","",""
"memory-trial","294","580911","0.0-18.0-1.124","6341","approach_avoid_sv1","""event"",""trial"",""time""
""fullscreenenter"",""1"",""1992""
","
","
","""event"",""trial"",""time""
""fullscreenenter"",""1"",""1992""
","
","","","","","","1429.2999999998137","images/goat5.png","","","memory_trial","1","definitely_old",""
"html-keyboard-response","295","581415","0.0-18.0-0.125","6341","approach_avoid_sv1","""event"",""trial"",""time""
""fullscreenenter"",""1"",""1992""
","
","
","""event"",""trial"",""time""
""fullscreenenter"",""1"",""1992""
","
","","","","","","null","<div style=""font-size:60px;"">+</div>","null","","fixation","","",""
"memory-trial","296","583703","0.0-18.0-1.125","6341","approach_avoid_sv1","""event"",""trial"",""time""
""fullscreenenter"",""1"",""1992""
","
","
","""event"",""trial"",""time""
""fullscreenenter"",""1"",""1992""
","
","","","","","","1280.8999999999069","images/sheep3.png","","","memory_trial","2","maybe_old",""
"html-keyboard-response","297","584207","0.0-18.0-0.126","6341","approach_avoid_sv1","""event"",""trial"",""time""
""fullscreenenter"",""1"",""1992""
","
","
","""event"",""trial"",""time""
""fullscreenenter"",""1"",""1992""
","
","","","","","","null","<div style=""font-size:60px;"">+</div>","null","","fixation","","",""
"memory-trial","298","586631","0.0-18.0-1.126","6341","approach_avoid_sv1","""event"",""trial"",""time""
""fullscreenenter"",""1"",""1992""