"trial_type","trial_index","time_elapsed","internal_node_id","subject_id","task_version","interactions","blur_events","focus_events","fullscreenenter_events","fullscreenexit_events","success","timeout","failed_images","failed_audio","failed_video","rt","stimulus","response","button_pressed","task_part","key_press","answer","correct"
"pavlovia","0","5","0.0-0.0","4261","approach_avoid_sv1","""event"",""trial"",""time""
""fullscreenenter"",""1"",""23285""
","
","
","""event"",""trial"",""time""
""fullscreenenter"",""1"",""23285""
","
","","","","","","","","","","","","",""
"fullscreen","1","24274","0.0-1.0","4261","approach_avoid_sv1","""event"",""trial"",""time""
""fullscreenenter"",""1"",""23285""
","
","
","""event"",""trial"",""time""
""fullscreenenter"",""1"",""23285""
","
","true","","","","","","","","","","","",""
"preload","2","34984","0.0-2.0","4261","approach_avoid_sv1","""event"",""trial"",""time""
""fullscreenenter"",""1"",""23285""
","
","
","""event"",""trial"",""time""
""fullscreenenter"",""1"",""23285""
","
","true","false","[]","[]","[]","","","","","","","",""
"preload","3","48094","0.0-3.0","4261","approach_avoid_sv1","""event"",""trial"",""time""
""fullscreenenter"",""1"",""23285""
","
","
","""event"",""trial"",""time""
""fullscreenenter"",""1"",""23285""
","
","true","false","[]","[]","[]","","","","","","","",""
"preload","4","48854","0.0-4.0","4261","approach_avoid_sv1","""event"",""trial"",""time""
""fullscreenenter"",""1"",""23285""
","
","
","""event"",""trial"",""time""
""fullscreenenter"",""1"",""23285""
","
","true","false","[]","[]","[]","","","","","","","",""
"audio-keyboard-response","5","56611","0.0-5.0","4261","approach_avoid_sv1","""event"",""trial"",""time""
""fullscreenenter"",""1"",""23285""
","
","
","""event"",""trial"",""time""
""fullscreenenter"",""1"",""23285""
","
","","","","","","7752.000000000001","audio/beep_loop.wav"," ","","","","",""
"audio-button-response","6","58243","0.0-6.0","4261","approach_avoid_sv1","""event"",""trial"",""time""
""fullscreenenter"",""1"",""23285""
","
","
","""event"",""trial"",""time""
""fullscreenenter"",""1"",""23285""
","
","","","","","","1632","audio/turtle.wav","3","","","","",""
"audio-button-response","7","60843","0.0-7.0","4261","approach_avoid_sv1","""event"",""trial"",""time""
""fullscreenenter"",""1"",""23285""
","
","
","""event"",""trial"",""time""
""fullscreenenter"",""1"",""23285""
","
","","","","","","1592","audio/shark.wav","2","","","","",""
"preload","8","75786","0.0-8.0","4261","approach_avoid_sv1","""event"",""trial"",""time""
""fullscreenenter"",""1"",""23285""
","
","
","""event"",""trial"",""time""
""fullscreenenter"",""1"",""23285""
","
","true","false","[]","[]","[]","","","","","","","",""
"learning-instructions","9","86382","0.0-9.0-0.0","4261","approach_avoid_sv1","""event"",""trial"",""time""
""fullscreenenter"",""1"",""23285""
","
","
","""event"",""trial"",""time""
""fullscreenenter"",""1"",""23285""
","
","","","","","","6119.899999976158","<p> Welcome back! </p><p> Last week, you had to make choices about lots of different items.  </p>","","0","instructions","","",""
"learning-instructions","10","93372","0.0-9.0-0.1","4261","approach_avoid_sv1","""event"",""trial"",""time""
""fullscreenenter"",""1"",""23285""
","
","
","""event"",""trial"",""time""
""fullscreenenter"",""1"",""23285""
","
","","","","","","2869.899999976158","<p> Today, we are going to ask you to try to remember all the items. </p>","","0","instructions","","",""
"learning-instructions","11","105281","0.0-9.0-0.2","4261","approach_avoid_sv1","""event"",""trial"",""time""
""fullscreenenter"",""1"",""23285""
","
","
","""event"",""trial"",""time""
""fullscreenenter"",""1"",""23285""
","
","","","","","","1768.7999999523163","<p> On every trial, you will see an image. </p><p> The image may be an OLD image you saw during the games last week or it may be a NEW image that was not presented. </p>","","0","instructions","","",""
"learning-instructions","12","116627","0.0-9.0-0.3","4261","approach_avoid_sv1","""event"",""trial"",""time""
""fullscreenenter"",""1"",""23285""
","
","
","""event"",""trial"",""time""
""fullscreenenter"",""1"",""23285""
","
","","","","","","2843.7000000476837","<p> You need to select whether the image is:  </p><p>  'Definitely old', 'Maybe old', 'Maybe new', or 'Definitely new.'  </p><div class=""mem-choice-instructions-grid""><div class=""choice-option"" id=""choice-option-1"" ><img src=""images/definitely_old_1.png"" id=""choice-option-img-1"" class=""choice-option-img"" stage=""1""></div><div class=""choice-option"" id=""choice-option-2"" ><img src=""images/maybe_old_1.png"" id=""choice-option-img-2"" class=""choice-option-img"" stage=""1""></div><div class=""choice-option"" id=""choice-option-3"" ><img src=""images/maybe_new_1.png"" id=""choice-option-img-3"" class=""choice-option-img"" stage=""1""></div><div class=""choice-option"" id=""choice-option-4"" > <img src=""images/definitely_new_1.png"" id=""choice-option-img-4"" class=""choice-option-img"" stage=""1""></div></div>","","0","instructions","","",""
"learning-instructions","13","129983","0.0-9.0-0.4","4261","approach_avoid_sv1","""event"",""trial"",""time""
""fullscreenenter"",""1"",""23285""
","
","
","""event"",""trial"",""time""
""fullscreenenter"",""1"",""23285""
","
","","","","","","6820.099999904633","<p> You should use the 1, 2, 3, and 4 keys to make your responses.  </p><div class=""mem-choice-instructions-grid""><div class=""choice-option"" id=""choice-option-1"" ><img src=""images/definitely_old.png"" id=""choice-option-img-1"" class=""choice-option-img"" stage=""1""></div><div class=""choice-option"" id=""choice-option-2"" ><img src=""images/maybe_old.png"" id=""choice-option-img-2"" class=""choice-option-img"" stage=""1""></div><div class=""choice-option"" id=""choice-option-3"" ><img src=""images/maybe_new.png"" id=""choice-option-img-3"" class=""choice-option-img"" stage=""1""></div><div class=""choice-option"" id=""choice-option-4"" > <img src=""images/definitely_new.png"" id=""choice-option-img-4"" class=""choice-option-img"" stage=""1""></div></div>","","0","instructions","","",""
"learning-instructions","14","138143","0.0-9.0-0.5","4261","approach_avoid_sv1","""event"",""trial"",""time""
""fullscreenenter"",""1"",""23285""
","
","
","""event"",""trial"",""time""
""fullscreenenter"",""1"",""23285""
","
","","","","","","1810.5","<p> You will have 10 seconds to make each response.  </p><p>  Make sure to respond before time runs out! </p>","","0","instructions","","",""
"learning-instructions","15","146384","0.0-9.0-0.6","4261","approach_avoid_sv1","""event"",""trial"",""time""
""fullscreenenter"",""1"",""23285""
","
","
","""event"",""trial"",""time""
""fullscreenenter"",""1"",""23285""
","
","","","","","","1161.2000000476837","<p> Today, you will see each image ONCE only.  </p><p>  That means none of the images will repeat. </p>","","0","instructions","","",""
"learning-instructions","16","160673","0.0-9.0-0.7","4261","approach_avoid_sv1","""event"",""trial"",""time""
""fullscreenenter"",""1"",""23285""
","
","
","""event"",""trial"",""time""
""fullscreenenter"",""1"",""23285""
","
","","","","","","1600.1999999284744","<p> Before you play the real game, it is time to practice. </p><p>  Just like in the real game, some of the images in the practice will be ones you have seen before. </p><p>  Others will be entirely new. </p>","","0","instructions","","",""
"html-button-response","17","163367","0.0-10.0","4261","approach_avoid_sv1","""event"",""trial"",""time""
""fullscreenenter"",""1"",""23285""
","
","
","""event"",""trial"",""time""
""fullscreenenter"",""1"",""23285""
","
","","","","","","2584.7999999523163","<p> Ready to practice? </p><p> Remember, use the 1, 2, 3, and 4 keys to make your responses. </p>","0","","instructions","","",""
"html-keyboard-response","18","163980","0.0-11.0-0.0","4261","approach_avoid_sv1","""event"",""trial"",""time""
""fullscreenenter"",""1"",""23285""
","
","
","""event"",""trial"",""time""
""fullscreenenter"",""1"",""23285""
","
","","","","","","null","<div style=""font-size:60px;"">+</div>","null","","fixation","","",""
"memory-trial","19","170340","0.0-11.0-1.0","4261","approach_avoid_sv1","""event"",""trial"",""time""
""fullscreenenter"",""1"",""23285""
","
","
","""event"",""trial"",""time""
""fullscreenenter"",""1"",""23285""
","
","","","","","","5339.199999928474","images/ball2.png","","","practice","3","maybe_new",""
"html-keyboard-response","20","170860","0.0-11.0-0.1","4261","approach_avoid_sv1","""event"",""trial"",""time""
""fullscreenenter"",""1"",""23285""
","
","
","""event"",""trial"",""time""
""fullscreenenter"",""1"",""23285""
","
","","","","","","null","<div style=""font-size:60px;"">+</div>","null","","fixation","","",""
"memory-trial","21","173491","0.0-11.0-1.1","4261","approach_avoid_sv1","""event"",""trial"",""time""
""fullscreenenter"",""1"",""23285""
","
","
","""event"",""trial"",""time""
""fullscreenenter"",""1"",""23285""
","
","","","","","","1608.4000000953674","images/racket3.png","","","practice","1","definitely_old",""
"html-keyboard-response","22","174011","0.0-11.0-0.2","4261","approach_avoid_sv1","""event"",""trial"",""time""
""fullscreenenter"",""1"",""23285""
","
","
","""event"",""trial"",""time""
""fullscreenenter"",""1"",""23285""
","
","","","","","","null","<div style=""font-size:60px;"">+</div>","null","","fixation","","",""
"memory-trial","23","177141","0.0-11.0-1.2","4261","approach_avoid_sv1","""event"",""trial"",""time""
""fullscreenenter"",""1"",""23285""
","
","
","""event"",""trial"",""time""
""fullscreenenter"",""1"",""23285""
","
","","","","","","2111.8000000715256","images/ball5.png","","","practice","2","maybe_old",""
"html-keyboard-response","24","177660","0.0-11.0-0.3","4261","approach_avoid_sv1","""event"",""trial"",""time""
""fullscreenenter"",""1"",""23285""
","
","
","""event"",""trial"",""time""
""fullscreenenter"",""1"",""23285""
","
","","","","","","null","<div style=""font-size:60px;"">+</div>","null","","fixation","","",""
"memory-trial","25","180751","0.0-11.0-1.3","4261","approach_avoid_sv1","""event"",""trial"",""time""
""fullscreenenter"",""1"",""23285""
","
","
","""event"",""trial"",""time""
""fullscreenenter"",""1"",""23285""
","
","","","","","","2077.7999999523163","images/racket1.png","","","practice","3","maybe_new",""
"html-keyboard-response","26","181270","0.0-11.0-0.4","4261","approach_avoid_sv1","""event"",""trial"",""time""
""fullscreenenter"",""1"",""23285""
","
","
","""event"",""trial"",""time""
""fullscreenenter"",""1"",""23285""
","
","","","","","","null","<div style=""font-size:60px;"">+</div>","null","","fixation","","",""
"memory-trial","27","183651","0.0-11.0-1.4","4261","approach_avoid_sv1","""event"",""trial"",""time""
""fullscreenenter"",""1"",""23285""
","
","
","""event"",""trial"",""time""
""fullscreenenter"",""1"",""23285""
","
","","","","","","1363.0999999046326","images/racket2.png","","","practice","4","definitely_new",""
"html-keyboard-response","28","184171","0.0-11.0-0.5","4261","approach_avoid_sv1","""event"",""trial"",""time""
""fullscreenenter"",""1"",""23285""
","
","
","""event"",""trial"",""time""
""fullscreenenter"",""1"",""23285""
","
","","","","","","null","<div style=""font-size:60px;"">+</div>","null","","fixation","","",""
"memory-trial","29","188301","0.0-11.0-1.5","4261","approach_avoid_sv1","""event"",""trial"",""time""
""fullscreenenter"",""1"",""23285""
","
","
","""event"",""trial"",""time""
""fullscreenenter"",""1"",""23285""
","
","","","","","","3111.2999999523163","images/ball1.png","","","practice","2","maybe_old",""
"html-keyboard-response","30","188820","0.0-11.0-0.6","4261","approach_avoid_sv1","""event"",""trial"",""time""
""fullscreenenter"",""1"",""23285""
","
","
","""event"",""trial"",""time""
""fullscreenenter"",""1"",""23285""
","
","","","","","","null","<div style=""font-size:60px;"">+</div>","null","","fixation","","",""
"memory-trial","31","191375","0.0-11.0-1.6","4261","approach_avoid_sv1","""event"",""trial"",""time""
""fullscreenenter"",""1"",""23285""
","
","
","""event"",""trial"",""time""
""fullscreenenter"",""1"",""23285""
","
","","","","","","1541.6000000238419","images/racket5.png","","","practice","2","maybe_old",""
"html-keyboard-response","32","191877","0.0-11.0-0.7","4261","approach_avoid_sv1","""event"",""trial"",""time""
""fullscreenenter"",""1"",""23285""
","
","
","""event"",""trial"",""time""
""fullscreenenter"",""1"",""23285""
","
","","","","","","null","<div style=""font-size:60px;"">+</div>","null","","fixation","","",""
"memory-trial","33","194438","0.0-11.0-1.7","4261","approach_avoid_sv1","""event"",""trial"",""time""
""fullscreenenter"",""1"",""23285""
","
","
","""event"",""trial"",""time""
""fullscreenenter"",""1"",""23285""
","
","","","","","","1555.5999999046326","images/ball3.png","","","practice","2","maybe_old",""
"learning-instructions","34","203523","0.0-12.0-0.0","4261","approach_avoid_sv1","""event"",""trial"",""time""
""fullscreenenter"",""1"",""23285""
","
","
","""event"",""trial"",""time""
""fullscreenenter"",""1"",""23285""
","
","","","","","","1447.6000000238419","<p> Great! You have completed the practice. </p><p> Before you start, we're going to ask you a few questions about how the game works.  </p>","","0","instructions","","",""
"preload","35","212120","0.0-13.0","4261","approach_avoid_sv1","""event"",""trial"",""time""
""fullscreenenter"",""1"",""23285""
","
","
","""event"",""trial"",""time""
""fullscreenenter"",""1"",""23285""
","
","true","false","[]","[]","[]","","","","","","","",""
"comp-q","36","220116","0.0-14.0-0.0","4261","approach_avoid_sv1","""event"",""trial"",""time""
""fullscreenenter"",""1"",""23285""
","
","
","""event"",""trial"",""time""
""fullscreenenter"",""1"",""23285""
","
","","","","","","2170.5","<p> <b> True or False? </b> </p><p> In this game, you will only see each image once. </p>","","0","comp_question","","","true"
"comp-q","37","228458","0.0-14.0-1.0","4261","approach_avoid_sv1","""event"",""trial"",""time""
""fullscreenenter"",""1"",""23285""
","
","
","""event"",""trial"",""time""
""fullscreenenter"",""1"",""23285""
","
","","","","","","2002","<p> <b> That's right! </b> You will see many different images <i> one time each </i> in this game. </p>","","0","comp_answer","","",""
"comp-q","38","234466","0.0-15.0-0.0","4261","approach_avoid_sv1","""event"",""trial"",""time""
""fullscreenenter"",""1"",""23285""
","
","
","""event"",""trial"",""time""
""fullscreenenter"",""1"",""23285""
","
","","","","","","990.6999999284744","<p> <b> True or False? </b> </p><p> You should use the mouse and click to make your response. </p>","","1","comp_question","","","true"
"comp-q","39","244296","0.0-15.0-1.0","4261","approach_avoid_sv1","""event"",""trial"",""time""
""fullscreenenter"",""1"",""23285""
","
","
","""event"",""trial"",""time""
""fullscreenenter"",""1"",""23285""
","
","","","","","","3300.600000023842","<p><b> That's right! </b> You should use the '1', '2', '3', and '4' keys to make your response. </p>","","0","comp_answer","","",""
"comp-q","40","251147","0.0-16.0-0.0","4261","approach_avoid_sv1","""event"",""trial"",""time""
""fullscreenenter"",""1"",""23285""
","
","
","""event"",""trial"",""time""
""fullscreenenter"",""1"",""23285""
","
","","","","","","1171.2000000476837","<p> <b> True or False? </b> </p><p> You will have as much time as you want to make each choice. </p>","","1","comp_question","","","true"
"comp-q","41","256816","0.0-16.0-1.0","4261","approach_avoid_sv1","""event"",""trial"",""time""
""fullscreenenter"",""1"",""23285""
","
","
","""event"",""trial"",""time""
""fullscreenenter"",""1"",""23285""
","
","","","","","","940","<p> <b> That's right! </b> You will only have 10 seconds to make each choice. </p>","","0","comp_answer","","",""
"learning-instructions","42","271031","0.0-17.0","4261","approach_avoid_sv1","""event"",""trial"",""time""
""fullscreenenter"",""1"",""23285""
","
","
","""event"",""trial"",""time""
""fullscreenenter"",""1"",""23285""
","
","","","","","","5537.5","<p> Great! You are now ready to begin the game. </p><p> Remember, use the 1, 2, 3, and 4 keys to make your responses. </p>","","0","instructions","","",""
"html-keyboard-response","43","271671","0.0-18.0-0.0","4261","approach_avoid_sv1","""event"",""trial"",""time""
""fullscreenenter"",""1"",""23285""
","
","
","""event"",""trial"",""time""
""fullscreenenter"",""1"",""23285""
","
","","","","","","null","<div style=""font-size:60px;"">+</div>","null","","fixation","","",""
"memory-trial","44","274501","0.0-18.0-1.0","4261","approach_avoid_sv1","""event"",""trial"",""time""
""fullscreenenter"",""1"",""23285""
","
","
","""event"",""trial"",""time""
""fullscreenenter"",""1"",""23285""
","
","","","","","","1814.6000000238419","images/sheep1.png","","","memory_trial","3","maybe_new",""
"html-keyboard-response","45","275021","0.0-18.0-0.1","4261","approach_avoid_sv1","""event"",""trial"",""time""
""fullscreenenter"",""1"",""23285""
","
","
","""event"",""trial"",""time""
""fullscreenenter"",""1"",""23285""
","
","","","","","","null","<div style=""font-size:60px;"">+</div>","null","","fixation","","",""
"memory-trial","46","278112","0.0-18.0-1.1","4261","approach_avoid_sv1","""event"",""trial"",""time""
""fullscreenenter"",""1"",""23285""
","
","
","""event"",""trial"",""time""
""fullscreenenter"",""1"",""23285""
","
","","","","","","2078.9000000953674","images/cactus7.png","","","memory_trial","2","maybe_old",""
"html-keyboard-response","47","278621","0.0-18.0-0.2","4261","approach_avoid_sv1","""event"",""trial"",""time""
""fullscreenenter"",""1"",""23285""
","
","
","""event"",""trial"",""time""
""fullscreenenter"",""1"",""23285""
","
","","","","","","null","<div style=""font-size:60px;"">+</div>","null","","fixation","","",""
"memory-trial","48","281112","0.0-18.0-1.2","4261","approach_avoid_sv1","""event"",""trial"",""time""
""fullscreenenter"",""1"",""23285""
","
","
","""event"",""trial"",""time""
""fullscreenenter"",""1"",""23285""
","
","","","","","","1468.1999999284744","images/truck4.png","","","memory_trial","4","definitely_new",""
"html-keyboard-response","49","281632","0.0-18.0-0.3","4261","approach_avoid_sv1","""event"",""trial"",""time""
""fullscreenenter"",""1"",""23285""
","
","
","""event"",""trial"",""time""
""fullscreenenter"",""1"",""23285""
","
","","","","","","null","<div style=""font-size:60px;"">+</div>","null","","fixation","","",""
"memory-trial","50","284232","0.0-18.0-1.3","4261","approach_avoid_sv1","""event"",""trial"",""time""
""fullscreenenter"",""1"",""23285""
","
","
","""event"",""trial"",""time""
""fullscreenenter"",""1"",""23285""
","
","","","","","","1573.1000000238419","images/cow7.png","","","memory_trial","2","maybe_old",""
"html-keyboard-response","51","284742","0.0-18.0-0.4","4261","approach_avoid_sv1","""event"",""trial"",""time""
""fullscreenenter"",""1"",""23285""
","
","
","""event"",""trial"",""time""
""fullscreenenter"",""1"",""23285""
","
","","","","","","null","<div style=""font-size:60px;"">+</div>","null","","fixation","","",""
"memory-trial","52","287501","0.0-18.0-1.4","4261","approach_avoid_sv1","""event"",""trial"",""time""
""fullscreenenter"",""1"",""23285""
","
","
","""event"",""trial"",""time""
""fullscreenenter"",""1"",""23285""
","
","","","","","","1739.4000000953674","images/straw1.png","","","memory_trial","3","maybe_new",""
"html-keyboard-response","53","288005","0.0-18.0-0.5","4261","approach_avoid_sv1","""event"",""trial"",""time""
""fullscreenenter"",""1"",""23285""
","
","
","""event"",""trial"",""time""
""fullscreenenter"",""1"",""23285""
","
","","","","","","null","<div style=""font-size:60px;"">+</div>","null","","fixation","","",""
"memory-trial","54","290492","0.0-18.0-1.5","4261","approach_avoid_sv1","""event"",""trial"",""time""
""fullscreenenter"",""1"",""23285""
","
","
","""event"",""trial"",""time""
""fullscreenenter"",""1"",""23285""
","
","","","","","","1460.6999999284744","images/apple1.png","","","memory_trial","1","definitely_old",""
"html-keyboard-response","55","290997","0.0-18.0-0.6","4261","approach_avoid_sv1","""event"",""trial"",""time""
""fullscreenenter"",""1"",""23285""
","
","
","""event"",""trial"",""time""
""fullscreenenter"",""1"",""23285""
","
","","","","","","null","<div style=""font-size:60px;"">+</div>","null","","fixation","","",""
"memory-trial","56","293451","0.0-18.0-1.6","4261","approach_avoid_sv1","""event"",""trial"",""time""
""fullscreenenter"",""1"",""23285""
","
","
","""event"",""trial"",""time""
""fullscreenenter"",""1"",""23285""
","
","","","","","","1429.6000000238419","images/plane3.png","","","memory_trial","4","definitely_new",""
"html-keyboard-response","57","293961","0.0-18.0-0.7","4261","approach_avoid_sv1","""event"",""trial"",""time""
""fullscreenenter"",""1"",""23285""
","
","
","""event"",""trial"",""time""
""fullscreenenter"",""1"",""23285""
","
","","","","","","null","<div style=""font-size:60px;"">+</div>","null","","fixation","","",""
"memory-trial","58","296471","0.0-18.0-1.7","4261","approach_avoid_sv1","""event"",""trial"",""time""
""fullscreenenter"",""1"",""23285""
","
","
","""event"",""trial"",""time""
""fullscreenenter"",""1"",""23285""
","
","","","","","","1498.0999999046326","images/goat4.png","","","memory_trial","4","definitely_new",""
"html-keyboard-response","59","296980","0.0-18.0-0.8","4261","approach_avoid_sv1","""event"",""trial"",""time""
""fullscreenenter"",""1"",""23285""
","
","
","""event"",""trial"",""time""
""fullscreenenter"",""1"",""23285""
","
","","","","","","null","<div style=""font-size:60px;"">+</div>","null","","fixation","","",""
"memory-trial","60","299205","0.0-18.0-1.8","4261","approach_avoid_sv1","""event"",""trial"",""time""
""fullscreenenter"",""1"",""23285""
","
","
","""event"",""trial"",""time""
""fullscreenenter"",""1"",""23285""
","
","","","","","","1209.4000000953674","images/chair4.png","","","memory_trial","4","definitely_new",""
"html-keyboard-response","61","299709","0.0-18.0-0.9","4261","approach_avoid_sv1","""event"",""trial"",""time""
""fullscreenenter"",""1"",""23285""
","
","
","""event"",""trial"",""time""
""fullscreenenter"",""1"",""23285""
","
","","","","","","null","<div style=""font-size:60px;"">+</div>","null","","fixation","","",""
"memory-trial","62","302374","0.0-18.0-1.9","4261","approach_avoid_sv1","""event"",""trial"",""time""
""fullscreenenter"",""1"",""23285""
","
","
","""event"",""trial"",""time""
""fullscreenenter"",""1"",""23285""
","
","","","","","","1653.8999999761581","images/sheep3.png","","","memory_trial","3","maybe_new",""
"html-keyboard-response","63","302887","0.0-18.0-0.10","4261","approach_avoid_sv1","""event"",""trial"",""time""
""fullscreenenter"",""1"",""23285""
","
","
","""event"",""trial"",""time""
""fullscreenenter"",""1"",""23285""
","
","","","","","","null","<div style=""font-size:60px;"">+</div>","null","","fixation","","",""
"memory-trial","64","305348","0.0-18.0-1.10","4261","approach_avoid_sv1","""event"",""trial"",""time""
""fullscreenenter"",""1"",""23285""
","
","
","""event"",""trial"",""time""
""fullscreenenter"",""1"",""23285""
","
","","","","","","1456.7999999523163","images/horse6.png","","","memory_trial","3","maybe_new",""
"html-keyboard-response","65","305852","0.0-18.0-0.11","4261","approach_avoid_sv1","""event"",""trial"",""time""
""fullscreenenter"",""1"",""23285""
","
","
","""event"",""trial"",""time""
""fullscreenenter"",""1"",""23285""
","
","","","","","","null","<div style=""font-size:60px;"">+</div>","null","","fixation","","",""
"memory-trial","66","308016","0.0-18.0-1.11","4261","approach_avoid_sv1","""event"",""trial"",""time""
""fullscreenenter"",""1"",""23285""
","
","
","""event"",""trial"",""time""
""fullscreenenter"",""1"",""23285""
","
","","","","","","1155.6999999284744","images/chair3.png","","","memory_trial","4","definitely_new",""
"html-keyboard-response","67","308526","0.0-18.0-0.12","4261","approach_avoid_sv1","""event"",""trial"",""time""
""fullscreenenter"",""1"",""23285""
","
","
","""event"",""trial"",""time""
""fullscreenenter"",""1"",""23285""
","
","","","","","","null","<div style=""font-size:60px;"">+</div>","null","","fixation","","",""
"memory-trial","68","310928","0.0-18.0-1.12","4261","approach_avoid_sv1","""event"",""trial"",""time""
""fullscreenenter"",""1"",""23285""
","
","
","""event"",""trial"",""time""
""fullscreenenter"",""1"",""23285""
","
","","","","","","1388.8999999761581","images/plane7.png","","","memory_trial","2","maybe_old",""
"html-keyboard-response","69","311439","0.0-18.0-0.13","4261","approach_avoid_sv1","""event"",""trial"",""time""
""fullscreenenter"",""1"",""23285""
","
","
","""event"",""trial"",""time""
""fullscreenenter"",""1"",""23285""
","
","","","","","","null","<div style=""font-size:60px;"">+</div>","null","","fixation","","",""
"memory-trial","70","313559","0.0-18.0-1.13","4261","approach_avoid_sv1","""event"",""trial"",""time""
""fullscreenenter"",""1"",""23285""
","
","
","""event"",""trial"",""time""
""fullscreenenter"",""1"",""23285""
","
","","","","","","1106.9000000953674","images/rabbit5.png","","","memory_trial","1","definitely_old",""
"html-keyboard-response","71","314068","0.0-18.0-0.14","4261","approach_avoid_sv1","""event"",""trial"",""time""
""fullscreenenter"",""1"",""23285""
","
","
","""event"",""trial"",""time""
""fullscreenenter"",""1"",""23285""
","
","","","","","","null","<div style=""font-size:60px;"">+</div>","null","","fixation","","",""
"memory-trial","72","316699","0.0-18.0-1.14","4261","approach_avoid_sv1","""event"",""trial"",""time""
""fullscreenenter"",""1"",""23285""
","
","
","""event"",""trial"",""time""
""fullscreenenter"",""1"",""23285""
","
","","","","","","1614.2999999523163","images/truck2.png","","","memory_trial","4","definitely_new",""
"html-keyboard-response","73","317210","0.0-18.0-0.15","4261","approach_avoid_sv1","""event"",""trial"",""time""
""fullscreenenter"",""1"",""23285""
","
","
","""event"",""trial"",""time""
""fullscreenenter"",""1"",""23285""
","
","","","","","","null","<div style=""font-size:60px;"">+</div>","null","","fixation","","",""
"memory-trial","74","319933","0.0-18.0-1.15","4261","approach_avoid_sv1","""event"",""trial"",""time""
""fullscreenenter"",""1"",""23285""
","
","
","""event"",""trial"",""time""
""fullscreenenter"",""1"",""23285""
","
","","","","","","1712.7000000476837","images/train7.png","","","memory_trial","1","definitely_old",""
"html-keyboard-response","75","320450","0.0-18.0-0.16","4261","approach_avoid_sv1","""event"",""trial"",""time""
""fullscreenenter"",""1"",""23285""
","
","
","""event"",""trial"",""time""
""fullscreenenter"",""1"",""23285""
","
","","","","","","null","<div style=""font-size:60px;"">+</div>","null","","fixation","","",""
"memory-trial","76","322494","0.0-18.0-1.16","4261","approach_avoid_sv1","""event"",""trial"",""time""
""fullscreenenter"",""1"",""23285""
","
","
","""event"",""trial"",""time""
""fullscreenenter"",""1"",""23285""
","
","","","","","","1031.6000000238419","images/sofa3.png","","","memory_trial","1","definitely_old",""
"html-keyboard-response","77","323006","0.0-18.0-0.17","4261","approach_avoid_sv1","""event"",""trial"",""time""
""fullscreenenter"",""1"",""23285""
","
","
","""event"",""trial"",""time""
""fullscreenenter"",""1"",""23285""
","
","","","","","","null","<div style=""font-size:60px;"">+</div>","null","","fixation","","",""
"memory-trial","78","325045","0.0-18.0-1.17","4261","approach_avoid_sv1","""event"",""trial"",""time""
""fullscreenenter"",""1"",""23285""
","
","
","""event"",""trial"",""time""
""fullscreenenter"",""1"",""23285""
","
","","","","","","1029.5","images/boat3.png","","","memory_trial","1","definitely_old",""
"html-keyboard-response","79","325559","0.0-18.0-0.18","4261","approach_avoid_sv1","""event"",""trial"",""time""
""fullscreenenter"",""1"",""23285""
","
","
","""event"",""trial"",""time""
""fullscreenenter"",""1"",""23285""
","
","","","","","","null","<div style=""font-size:60px;"">+</div>","null","","fixation","","",""
"memory-trial","80","327944","0.0-18.0-1.18","4261","approach_avoid_sv1","""event"",""trial"",""time""
""fullscreenenter"",""1"",""23285""
","
","
","""event"",""trial"",""time""
""fullscreenenter"",""1"",""23285""
","
","","","","","","1371.9000000953674","images/tree3.png","","","memory_trial","1","definitely_old",""
"html-keyboard-response","81","328459","0.0-18.0-0.19","4261","approach_avoid_sv1","""event"",""trial"",""time""
""fullscreenenter"",""1"",""23285""
","
","
","""event"",""trial"",""time""
""fullscreenenter"",""1"",""23285""
","
","","","","","","null","<div style=""font-size:60px;"">+</div>","null","","fixation","","",""
"memory-trial","82","330751","0.0-18.0-1.19","4261","approach_avoid_sv1","""event"",""trial"",""time""
""fullscreenenter"",""1"",""23285""
","
","
","""event"",""trial"",""time""
""fullscreenenter"",""1"",""23285""
","
","","","","","","1281.5","images/banana1.png","","","memory_trial","1","definitely_old",""
"html-keyboard-response","83","331256","0.0-18.0-0.20","4261","approach_avoid_sv1","""event"",""trial"",""time""
""fullscreenenter"",""1"",""23285""
","
","
","""event"",""trial"",""time""
""fullscreenenter"",""1"",""23285""
","
","","","","","","null","<div style=""font-size:60px;"">+</div>","null","","fixation","","",""
"memory-trial","84","333778","0.0-18.0-1.20","4261","approach_avoid_sv1","""event"",""trial"",""time""
""fullscreenenter"",""1"",""23285""
","
","
","""event"",""trial"",""time""
""fullscreenenter"",""1"",""23285""
","
","","","","","","1508.5999999046326","images/tree4.png","","","memory_trial","1","definitely_old",""
"html-keyboard-response","85","334289","0.0-18.0-0.21","4261","approach_avoid_sv1","""event"",""trial"",""time""
""fullscreenenter"",""1"",""23285""
","
","
","""event"",""trial"",""time""
""fullscreenenter"",""1"",""23285""
","
","","","","","","null","<div style=""font-size:60px;"">+</div>","null","","fixation","","",""
"memory-trial","86","336230","0.0-18.0-1.21","4261","approach_avoid_sv1","""event"",""trial"",""time""
""fullscreenenter"",""1"",""23285""
","
","
","""event"",""trial"",""time""
""fullscreenenter"",""1"",""23285""
","
","","","","","","932.3000000715256","images/cat7.png","","","memory_trial","1","definitely_old",""
"html-keyboard-response","87","336736","0.0-18.0-0.22","4261","approach_avoid_sv1","""event"",""trial"",""time""
""fullscreenenter"",""1"",""23285""
","
","
","""event"",""trial"",""time""
""fullscreenenter"",""1"",""23285""
","
","","","","","","null","<div style=""font-size:60px;"">+</div>","null","","fixation","","",""
"memory-trial","88","339838","0.0-18.0-1.22","4261","approach_avoid_sv1","""event"",""trial"",""time""
""fullscreenenter"",""1"",""23285""
","
","
","""event"",""trial"",""time""
""fullscreenenter"",""1"",""23285""
","
","","","","","","2097.899999976158","images/banana7.png","","","memory_trial","4","definitely_new",""
"html-keyboard-response","89","340342","0.0-18.0-0.23","4261","approach_avoid_sv1","""event"",""trial"",""time""
""fullscreenenter"",""1"",""23285""
","
","
","""event"",""trial"",""time""
""fullscreenenter"",""1"",""23285""
","
","","","","","","null","<div style=""font-size:60px;"">+</div>","null","","fixation","","",""
"memory-trial","90","342454","0.0-18.0-1.23","4261","approach_avoid_sv1","""event"",""trial"",""time""
""fullscreenenter"",""1"",""23285""
","
","
","""event"",""trial"",""time""
""fullscreenenter"",""1"",""23285""
","
","","","","","","1103.7999999523163","images/banana4.png","","","memory_trial","1","definitely_old",""
"html-keyboard-response","91","342967","0.0-18.0-0.24","4261","approach_avoid_sv1","""event"",""trial"",""time""
""fullscreenenter"",""1"",""23285""
","
","
","""event"",""trial"",""time""
""fullscreenenter"",""1"",""23285""
","
","","","","","","null","<div style=""font-size:60px;"">+</div>","null","","fixation","","",""
"memory-trial","92","345408","0.0-18.0-1.24","4261","approach_avoid_sv1","""event"",""trial"",""time""
""fullscreenenter"",""1"",""23285""
","
","
","""event"",""trial"",""time""
""fullscreenenter"",""1"",""23285""
","
","","","","","","1428.7000000476837","images/banana2.png","","","memory_trial","1","definitely_old",""
"html-keyboard-response","93","345927","0.0-18.0-0.25","4261","approach_avoid_sv1","""event"",""trial"",""time""
""fullscreenenter"",""1"",""23285""
","
","
","""event"",""trial"",""time""
""fullscreenenter"",""1"",""23285""
","
","","","","","","null","<div style=""font-size:60px;"">+</div>","null","","fixation","","",""
"memory-trial","94","348030","0.0-18.0-1.25","4261","approach_avoid_sv1","""event"",""trial"",""time""
""fullscreenenter"",""1"",""23285""
","
","
","""event"",""trial"",""time""
""fullscreenenter"",""1"",""23285""
","
","","","","","","1087.3999999761581","images/plane2.png","","","memory_trial","4","definitely_new",""
"html-keyboard-response","95","348538","0.0-18.0-0.26","4261","approach_avoid_sv1","""event"",""trial"",""time""
""fullscreenenter"",""1"",""23285""
","
","
","""event"",""trial"",""time""
""fullscreenenter"",""1"",""23285""
","
","","","","","","null","<div style=""font-size:60px;"">+</div>","null","","fixation","","",""
"memory-trial","96","350509","0.0-18.0-1.26","4261","approach_avoid_sv1","""event"",""trial"",""time""
""fullscreenenter"",""1"",""23285""
","
","
","""event"",""trial"",""time""
""fullscreenenter"",""1"",""23285""
","
","","","","","","953.8999999761581","images/flower6.png","","","memory_trial","1","definitely_old",""
"html-keyboard-response","97","351015","0.0-18.0-0.27","4261","approach_avoid_sv1","""event"",""trial"",""time""
""fullscreenenter"",""1"",""23285""
","
","
","""event"",""trial"",""time""
""fullscreenenter"",""1"",""23285""
","
","","","","","","null","<div style=""font-size:60px;"">+</div>","null","","fixation","","",""
"memory-trial","98","354230","0.0-18.0-1.27","4261","approach_avoid_sv1","""event"",""trial"",""time""
""fullscreenenter"",""1"",""23285""
","
","
","""event"",""trial"",""time""
""fullscreenenter"",""1"",""23285""
","
","","","","","","2195.7999999523163","images/apple2.png","","","memory_trial","4","definitely_new",""
"html-keyboard-response","99","354735","0.0-18.0-0.28","4261","approach_avoid_sv1","""event"",""trial"",""time""
""fullscreenenter"",""1"",""23285""
","
","
","""event"",""trial"",""time""
""fullscreenenter"",""1"",""23285""
","
","","","","","","null","<div style=""font-size:60px;"">+</div>","null","","fixation","","",""
"memory-trial","100","356856","0.0-18.0-1.28","4261","approach_avoid_sv1","""event"",""trial"",""time""
""fullscreenenter"",""1"",""23285""
","
","
","""event"",""trial"",""time""
""fullscreenenter"",""1"",""23285""
","
","","","","","","1114.5","images/apple7.png","","","memory_trial","1","definitely_old",""
"html-keyboard-response","101","357373","0.0-18.0-0.29","4261","approach_avoid_sv1","""event"",""trial"",""time""
""fullscreenenter"",""1"",""23285""
","
","
","""event"",""trial"",""time""
""fullscreenenter"",""1"",""23285""
","
","","","","","","null","<div style=""font-size:60px;"">+</div>","null","","fixation","","",""
"memory-trial","102","359382","0.0-18.0-1.29","4261","approach_avoid_sv1","""event"",""trial"",""time""
""fullscreenenter"",""1"",""23285""
","
","
","""event"",""trial"",""time""
""fullscreenenter"",""1"",""23285""
","
","","","","","","1005.0999999046326","images/cactus5.png","","","memory_trial","4","definitely_new",""
"html-keyboard-response","103","359898","0.0-18.0-0.30","4261","approach_avoid_sv1","""event"",""trial"",""time""
""fullscreenenter"",""1"",""23285""
","
","
","""event"",""trial"",""time""
""fullscreenenter"",""1"",""23285""
","
","","","","","","null","<div style=""font-size:60px;"">+</div>","null","","fixation","","",""
"memory-trial","104","361639","0.0-18.0-1.30","4261","approach_avoid_sv1","""event"",""trial"",""time""
""fullscreenenter"",""1"",""23285""
","
","
","""event"",""trial"",""time""
""fullscreenenter"",""1"",""23285""
","
","","","","","","722","images/flower8.png","","","memory_trial","1","definitely_old",""
"html-keyboard-response","105","362147","0.0-18.0-0.31","4261","approach_avoid_sv1","""event"",""trial"",""time""
""fullscreenenter"",""1"",""23285""
","
","
","""event"",""trial"",""time""
""fullscreenenter"",""1"",""23285""
","
","","","","","","null","<div style=""font-size:60px;"">+</div>","null","","fixation","","",""
"memory-trial","106","364390","0.0-18.0-1.31","4261","approach_avoid_sv1","""event"",""trial"",""time""
""fullscreenenter"",""1"",""23285""
","
","
","""event"",""trial"",""time""
""fullscreenenter"",""1"",""23285""
","
","","","","","","1234.6000000238419","images/flower2.png","","","memory_trial","1","definitely_old",""
"html-keyboard-response","107","364901","0.0-18.0-0.32","4261","approach_avoid_sv1","""event"",""trial"",""time""
""fullscreenenter"",""1"",""23285""
","
","
","""event"",""trial"",""time""
""fullscreenenter"",""1"",""23285""
","
","","","","","","null","<div style=""font-size:60px;"">+</div>","null","","fixation","","",""
"memory-trial","108","366897","0.0-18.0-1.32","4261","approach_avoid_sv1","""event"",""trial"",""time""
""fullscreenenter"",""1"",""23285""
","
","
","""event"",""trial"",""time""
""fullscreenenter"",""1"",""23285""
","
","","","","","","987.5","images/goat1.png","","","memory_trial","4","definitely_new",""
"html-keyboard-response","109","367411","0.0-18.0-0.33","4261","approach_avoid_sv1","""event"",""trial"",""time""
""fullscreenenter"",""1"",""23285""
","
","
","""event"",""trial"",""time""
""fullscreenenter"",""1"",""23285""
","
","","","","","","null","<div style=""font-size:60px;"">+</div>","null","","fixation","","",""
"memory-trial","110","369439","0.0-18.0-1.33","4261","approach_avoid_sv1","""event"",""trial"",""time""
""fullscreenenter"",""1"",""23285""
","
","
","""event"",""trial"",""time""
""fullscreenenter"",""1"",""23285""
","
","","","","","","1018.6000000238419","images/cow3.png","","","memory_trial","2","maybe_old",""
"html-keyboard-response","111","369950","0.0-18.0-0.34","4261","approach_avoid_sv1","""event"",""trial"",""time""
""fullscreenenter"",""1"",""23285""
","
","
","""event"",""trial"",""time""
""fullscreenenter"",""1"",""23285""
","
","","","","","","null","<div style=""font-size:60px;"">+</div>","null","","fixation","","",""
"memory-trial","112","371951","0.0-18.0-1.34","4261","approach_avoid_sv1","""event"",""trial"",""time""
""fullscreenenter"",""1"",""23285""
","
","
","""event"",""trial"",""time""
""fullscreenenter"",""1"",""23285""
","
","","","","","","983.3999999761581","images/tree8.png","","","memory_trial","1","definitely_old",""
"html-keyboard-response","113","372457","0.0-18.0-0.35","4261","approach_avoid_sv1","""event"",""trial"",""time""
""fullscreenenter"",""1"",""23285""
","
","
","""event"",""trial"",""time""
""fullscreenenter"",""1"",""23285""
","
","","","","","","null","<div style=""font-size:60px;"">+</div>","null","","fixation","","",""
"memory-trial","114","374904","0.0-18.0-1.35","4261","approach_avoid_sv1","""event"",""trial"",""time""
""fullscreenenter"",""1"",""23285""
","
","
","""event"",""trial"",""time""
""fullscreenenter"",""1"",""23285""
","
","","","","","","1434.8000000715256","images/straw5.png","","","memory_trial","4","definitely_new",""
"html-keyboard-response","115","375410","0.0-18.0-0.36","4261","approach_avoid_sv1","""event"",""trial"",""time""
""fullscreenenter"",""1"",""23285""
","
","
","""event"",""trial"",""time""
""fullscreenenter"",""1"",""23285""
","
","","","","","","null","<div style=""font-size:60px;"">+</div>","null","","fixation","","",""
"memory-trial","116","379272","0.0-18.0-1.36","4261","approach_avoid_sv1","""event"",""trial"",""time""
""fullscreenenter"",""1"",""23285""
","
","
","""event"",""trial"",""time""
""fullscreenenter"",""1"",""23285""
","
","","","","","","2842.899999976158","images/chair5.png","","","memory_trial","2","maybe_old",""
"html-keyboard-response","117","379793","0.0-18.0-0.37","4261","approach_avoid_sv1","""event"",""trial"",""time""
""fullscreenenter"",""1"",""23285""
","
","
","""event"",""trial"",""time""
""fullscreenenter"",""1"",""23285""
","
","","","","","","null","<div style=""font-size:60px;"">+</div>","null","","fixation","","",""
"memory-trial","118","382182","0.0-18.0-1.37","4261","approach_avoid_sv1","""event"",""trial"",""time""
""fullscreenenter"",""1"",""23285""
","
","
","""event"",""trial"",""time""
""fullscreenenter"",""1"",""23285""
","
","","","","","","1376","images/train3.png","","","memory_trial","3","maybe_new",""
"html-keyboard-response","119","382688","0.0-18.0-0.38","4261","approach_avoid_sv1","""event"",""trial"",""time""
""fullscreenenter"",""1"",""23285""
","
","
","""event"",""trial"",""time""
""fullscreenenter"",""1"",""23285""
","
","","","","","","null","<div style=""font-size:60px;"">+</div>","null","","fixation","","",""
"memory-trial","120","385038","0.0-18.0-1.38","4261","approach_avoid_sv1","""event"",""trial"",""time""
""fullscreenenter"",""1"",""23285""
","
","
","""event"",""trial"",""time""
""fullscreenenter"",""1"",""23285""
","
","","","","","","1338.2999999523163","images/straw7.png","","","memory_trial","3","maybe_new",""
"html-keyboard-response","121","385542","0.0-18.0-0.39","4261","approach_avoid_sv1","""event"",""trial"",""time""
""fullscreenenter"",""1"",""23285""
","
","
","""event"",""trial"",""time""
""fullscreenenter"",""1"",""23285""
","
","","","","","","null","<div style=""font-size:60px;"">+</div>","null","","fixation","","",""
"memory-trial","122","388016","0.0-18.0-1.39","4261","approach_avoid_sv1","""event"",""trial"",""time""
""fullscreenenter"",""1"",""23285""
","
","
","""event"",""trial"",""time""
""fullscreenenter"",""1"",""23285""
","
","","","","","","1463.3999999761581","images/boat5.png","","","memory_trial","4","definitely_new",""
"html-keyboard-response","123","388529","0.0-18.0-0.40","4261","approach_avoid_sv1","""event"",""trial"",""time""
""fullscreenenter"",""1"",""23285""
","
","
","""event"",""trial"",""time""
""fullscreenenter"",""1"",""23285""
","
","","","","","","null","<div style=""font-size:60px;"">+</div>","null","","fixation","","",""
"memory-trial","124","390753","0.0-18.0-1.40","4261","approach_avoid_sv1","""event"",""trial"",""time""
""fullscreenenter"",""1"",""23285""
","
","
","""event"",""trial"",""time""
""fullscreenenter"",""1"",""23285""
","
","","","","","","1200.2000000476837","images/cactus3.png","","","memory_trial","2","maybe_old",""
"html-keyboard-response","125","391269","0.0-18.0-0.41","4261","approach_avoid_sv1","""event"",""trial"",""time""
""fullscreenenter"",""1"",""23285""
","
","
","""event"",""trial"",""time""
""fullscreenenter"",""1"",""23285""
","
","","","","","","null","<div style=""font-size:60px;"">+</div>","null","","fixation","","",""
"memory-trial","126","393495","0.0-18.0-1.41","4261","approach_avoid_sv1","""event"",""trial"",""time""
""fullscreenenter"",""1"",""23285""
","
","
","""event"",""trial"",""time""
""fullscreenenter"",""1"",""23285""
","
","","","","","","1216","images/bed1.png","","","memory_trial","2","maybe_old",""
"html-button-response","127","396296","0.0-18.0-2.41-0.41","4261","approach_avoid_sv1","""event"",""trial"",""time""
""fullscreenenter"",""1"",""23285""
","
","
","""event"",""trial"",""time""
""fullscreenenter"",""1"",""23285""
","
","","","","","","2799.4000000953674","<p> Take a break! </p><p> Click the button to continue. </p>","0","","break","","",""
"html-keyboard-response","128","396799","0.0-18.0-0.42","4261","approach_avoid_sv1","""event"",""trial"",""time""
""fullscreenenter"",""1"",""23285""
","
","
","""event"",""trial"",""time""
""fullscreenenter"",""1"",""23285""
","
","","","","","","null","<div style=""font-size:60px;"">+</div>","null","","fixation","","",""
"memory-trial","129","399487","0.0-18.0-1.42","4261","approach_avoid_sv1","""event"",""trial"",""time""
""fullscreenenter"",""1"",""23285""
","
","
","""event"",""trial"",""time""
""fullscreenenter"",""1"",""23285""
","
","","","","","","1679.8999999761581","images/tree7.png","","","memory_trial","3","maybe_new",""
"html-keyboard-response","130","399998","0.0-18.0-0.43","4261","approach_avoid_sv1","""event"",""trial"",""time""
""fullscreenenter"",""1"",""23285""
","
","
","""event"",""trial"",""time""
""fullscreenenter"",""1"",""23285""
","
","","","","","","null","<div style=""font-size:60px;"">+</div>","null","","fixation","","",""
"memory-trial","131","402606","0.0-18.0-1.43","4261","approach_avoid_sv1","""event"",""trial"",""time""
""fullscreenenter"",""1"",""23285""
","
","
","""event"",""trial"",""time""
""fullscreenenter"",""1"",""23285""
","
","","","","","","1598.8999999761581","images/banana6.png","","","memory_trial","3","maybe_new",""
"html-keyboard-response","132","403117","0.0-18.0-0.44","4261","approach_avoid_sv1","""event"",""trial"",""time""
""fullscreenenter"",""1"",""23285""
","
","
","""event"",""trial"",""time""
""fullscreenenter"",""1"",""23285""
","
","","","","","","null","<div style=""font-size:60px;"">+</div>","null","","fixation","","",""
"memory-trial","133","405270","0.0-18.0-1.44","4261","approach_avoid_sv1","""event"",""trial"",""time""
""fullscreenenter"",""1"",""23285""
","
","
","""event"",""trial"",""time""
""fullscreenenter"",""1"",""23285""
","
","","","","","","1143.6000000238419","images/bed5.png","","","memory_trial","1","definitely_old",""
"html-keyboard-response","134","405774","0.0-18.0-0.45","4261","approach_avoid_sv1","""event"",""trial"",""time""
""fullscreenenter"",""1"",""23285""
","
","
","""event"",""trial"",""time""
""fullscreenenter"",""1"",""23285""
","
","","","","","","null","<div style=""font-size:60px;"">+</div>","null","","fixation","","",""
"memory-trial","135","407880","0.0-18.0-1.45","4261","approach_avoid_sv1","""event"",""trial"",""time""
""fullscreenenter"",""1"",""23285""
","
","
","""event"",""trial"",""time""
""fullscreenenter"",""1"",""23285""
","
","","","","","","1094.1000000238419","images/bush6.png","","","memory_trial","4","definitely_new",""
"html-keyboard-response","136","408398","0.0-18.0-0.46","4261","approach_avoid_sv1","""event"",""trial"",""time""
""fullscreenenter"",""1"",""23285""
","
","
","""event"",""trial"",""time""
""fullscreenenter"",""1"",""23285""
","
","","","","","","null","<div style=""font-size:60px;"">+</div>","null","","fixation","","",""
"memory-trial","137","410151","0.0-18.0-1.46","4261","approach_avoid_sv1","""event"",""trial"",""time""
""fullscreenenter"",""1"",""23285""
","
","
","""event"",""trial"",""time""
""fullscreenenter"",""1"",""23285""
","
","","","","","","741.6000000238419","images/rabbit2.png","","","memory_trial","1","definitely_old",""
"html-keyboard-response","138","410655","0.0-18.0-0.47","4261","approach_avoid_sv1","""event"",""trial"",""time""
""fullscreenenter"",""1"",""23285""
","
","
","""event"",""trial"",""time""
""fullscreenenter"",""1"",""23285""
","
","","","","","","null","<div style=""font-size:60px;"">+</div>","null","","fixation","","",""
"memory-trial","139","413269","0.0-18.0-1.47","4261","approach_avoid_sv1","""event"",""trial"",""time""
""fullscreenenter"",""1"",""23285""
","
","
","""event"",""trial"",""time""
""fullscreenenter"",""1"",""23285""
","
","","","","","","1609.5","images/cow4.png","","","memory_trial","3","maybe_new",""
"html-keyboard-response","140","413776","0.0-18.0-0.48","4261","approach_avoid_sv1","""event"",""trial"",""time""
""fullscreenenter"",""1"",""23285""
","
","
","""event"",""trial"",""time""
""fullscreenenter"",""1"",""23285""
","
","","","","","","null","<div style=""font-size:60px;"">+</div>","null","","fixation","","",""
"memory-trial","141","415879","0.0-18.0-1.48","4261","approach_avoid_sv1","""event"",""trial"",""time""
""fullscreenenter"",""1"",""23285""
","
","
","""event"",""trial"",""time""
""fullscreenenter"",""1"",""23285""
","
","","","","","","1092.6000000238419","images/rabbit6.png","","","memory_trial","4","definitely_new",""
"html-keyboard-response","142","416388","0.0-18.0-0.49","4261","approach_avoid_sv1","""event"",""trial"",""time""
""fullscreenenter"",""1"",""23285""
","
","
","""event"",""trial"",""time""
""fullscreenenter"",""1"",""23285""
","
","","","","","","null","<div style=""font-size:60px;"">+</div>","null","","fixation","","",""
"memory-trial","143","418855","0.0-18.0-1.49","4261","approach_avoid_sv1","""event"",""trial"",""time""
""fullscreenenter"",""1"",""23285""
","
","
","""event"",""trial"",""time""
""fullscreenenter"",""1"",""23285""
","
","","","","","","1451","images/apple8.png","","","memory_trial","3","maybe_new",""
"html-keyboard-response","144","419365","0.0-18.0-0.50","4261","approach_avoid_sv1","""event"",""trial"",""time""
""fullscreenenter"",""1"",""23285""
","
","
","""event"",""trial"",""time""
""fullscreenenter"",""1"",""23285""
","
","","","","","","null","<div style=""font-size:60px;"">+</div>","null","","fixation","","",""
"memory-trial","145","421929","0.0-18.0-1.50","4261","approach_avoid_sv1","""event"",""trial"",""time""
""fullscreenenter"",""1"",""23285""
","
","
","""event"",""trial"",""time""
""fullscreenenter"",""1"",""23285""
","
","","","","","","1553.8000000715256","images/sheep7.png","","","memory_trial","4","definitely_new",""
"html-keyboard-response","146","422447","0.0-18.0-0.51","4261","approach_avoid_sv1","""event"",""trial"",""time""
""fullscreenenter"",""1"",""23285""
","
","
","""event"",""trial"",""time""
""fullscreenenter"",""1"",""23285""
","
","","","","","","null","<div style=""font-size:60px;"">+</div>","null","","fixation","","",""
"memory-trial","147","424503","0.0-18.0-1.51","4261","approach_avoid_sv1","""event"",""trial"",""time""
""fullscreenenter"",""1"",""23285""
","
","
","""event"",""trial"",""time""
""fullscreenenter"",""1"",""23285""
","
","","","","","","1043.5999999046326","images/banana5.png","","","memory_trial","4","definitely_new",""
"html-keyboard-response","148","425014","0.0-18.0-0.52","4261","approach_avoid_sv1","""event"",""trial"",""time""
""fullscreenenter"",""1"",""23285""
","
","
","""event"",""trial"",""time""
""fullscreenenter"",""1"",""23285""
","
","","","","","","null","<div style=""font-size:60px;"">+</div>","null","","fixation","","",""
"memory-trial","149","426990","0.0-18.0-1.52","4261","approach_avoid_sv1","""event"",""trial"",""time""
""fullscreenenter"",""1"",""23285""
","
","
","""event"",""trial"",""time""
""fullscreenenter"",""1"",""23285""
","
","","","","","","963.6000000238419","images/dog2.png","","","memory_trial","4","definitely_new",""
"html-keyboard-response","150","427508","0.0-18.0-0.53","4261","approach_avoid_sv1","""event"",""trial"",""time""
""fullscreenenter"",""1"",""23285""
","
","
","""event"",""trial"",""time""
""fullscreenenter"",""1"",""23285""
","
","","","","","","null","<div style=""font-size:60px;"">+</div>","null","","fixation","","",""
"memory-trial","151","429476","0.0-18.0-1.53","4261","approach_avoid_sv1","""event"",""trial"",""time""
""fullscreenenter"",""1"",""23285""
","
","
","""event"",""trial"",""time""
""fullscreenenter"",""1"",""23285""
","
","","","","","","946","images/banana3.png","","","memory_trial","4","definitely_new",""
"html-keyboard-response","152","429983","0.0-18.0-0.54","4261","approach_avoid_sv1","""event"",""trial"",""time""
""fullscreenenter"",""1"",""23285""
","
","
","""event"",""trial"",""time""
""fullscreenenter"",""1"",""23285""
","
","","","","","","null","<div style=""font-size:60px;"">+</div>","null","","fixation","","",""
"memory-trial","153","432149","0.0-18.0-1.54","4261","approach_avoid_sv1","""event"",""trial"",""time""
""fullscreenenter"",""1"",""23285""
","
","
","""event"",""trial"",""time""
""fullscreenenter"",""1"",""23285""
","
","","","","","","1161.7999999523163","images/rodent3.png","","","memory_trial","4","definitely_new",""
"html-keyboard-response","154","432655","0.0-18.0-0.55","4261","approach_avoid_sv1","""event"",""trial"",""time""
""fullscreenenter"",""1"",""23285""
","
","
","""event"",""trial"",""time""
""fullscreenenter"",""1"",""23285""
","
","","","","","","null","<div style=""font-size:60px;"">+</div>","null","","fixation","","",""
"memory-trial","155","434392","0.0-18.0-1.55","4261","approach_avoid_sv1","""event"",""trial"",""time""
""fullscreenenter"",""1"",""23285""
","
","
","""event"",""trial"",""time""
""fullscreenenter"",""1"",""23285""
","
","","","","","","725.5","images/truck1.png","","","memory_trial","4","definitely_new",""
"html-keyboard-response","156","434912","0.0-18.0-0.56","4261","approach_avoid_sv1","""event"",""trial"",""time""
""fullscreenenter"",""1"",""23285""
","
","
","""event"",""trial"",""time""
""fullscreenenter"",""1"",""23285""
","
","","","","","","null","<div style=""font-size:60px;"">+</div>","null","","fixation","","",""
"memory-trial","157","437494","0.0-18.0-1.56","4261","approach_avoid_sv1","""event"",""trial"",""time""
""fullscreenenter"",""1"",""23285""
","
","
","""event"",""trial"",""time""
""fullscreenenter"",""1"",""23285""
","
","","","","","","1562.6999999284744","images/flower7.png","","","memory_trial","3","maybe_new",""
"html-keyboard-response","158","437999","0.0-18.0-0.57","4261","approach_avoid_sv1","""event"",""trial"",""time""
""fullscreenenter"",""1"",""23285""
","
","
","""event"",""trial"",""time""
""fullscreenenter"",""1"",""23285""
","
","","","","","","null","<div style=""font-size:60px;"">+</div>","null","","fixation","","",""
"memory-trial","159","440149","0.0-18.0-1.57","4261","approach_avoid_sv1","""event"",""trial"",""time""
""fullscreenenter"",""1"",""23285""
","
","
","""event"",""trial"",""time""
""fullscreenenter"",""1"",""23285""
","
","","","","","","1144.7999999523163","images/cactus1.png","","","memory_trial","1","definitely_old",""
"html-keyboard-response","160","440654","0.0-18.0-0.58","4261","approach_avoid_sv1","""event"",""trial"",""time""
""fullscreenenter"",""1"",""23285""
","
","
","""event"",""trial"",""time""
""fullscreenenter"",""1"",""23285""
","
","","","","","","null","<div style=""font-size:60px;"">+</div>","null","","fixation","","",""
"memory-trial","161","442585","0.0-18.0-1.58","4261","approach_avoid_sv1","""event"",""trial"",""time""
""fullscreenenter"",""1"",""23285""
","
","
","""event"",""trial"",""time""
""fullscreenenter"",""1"",""23285""
","
","","","","","","915","images/cat2.png","","","memory_trial","4","definitely_new",""
"html-keyboard-response","162","443094","0.0-18.0-0.59","4261","approach_avoid_sv1","""event"",""trial"",""time""
""fullscreenenter"",""1"",""23285""
","
","
","""event"",""trial"",""time""
""fullscreenenter"",""1"",""23285""
","
","","","","","","null","<div style=""font-size:60px;"">+</div>","null","","fixation","","",""
"memory-trial","163","445239","0.0-18.0-1.59","4261","approach_avoid_sv1","""event"",""trial"",""time""
""fullscreenenter"",""1"",""23285""
","
","
","""event"",""trial"",""time""
""fullscreenenter"",""1"",""23285""
","
","","","","","","1135.8999999761581","images/cat6.png","","","memory_trial","1","definitely_old",""
"html-keyboard-response","164","445755","0.0-18.0-0.60","4261","approach_avoid_sv1","""event"",""trial"",""time""
""fullscreenenter"",""1"",""23285""
","
","
","""event"",""trial"",""time""
""fullscreenenter"",""1"",""23285""
","
","","","","","","null","<div style=""font-size:60px;"">+</div>","null","","fixation","","",""
"memory-trial","165","447589","0.0-18.0-1.60","4261","approach_avoid_sv1","""event"",""trial"",""time""
""fullscreenenter"",""1"",""23285""
","
","
","""event"",""trial"",""time""
""fullscreenenter"",""1"",""23285""
","
","","","","","","814.8999999761581","images/orange4.png","","","memory_trial","4","definitely_new",""
"html-keyboard-response","166","448103","0.0-18.0-0.61","4261","approach_avoid_sv1","""event"",""trial"",""time""
""fullscreenenter"",""1"",""23285""
","
","
","""event"",""trial"",""time""
""fullscreenenter"",""1"",""23285""
","
","","","","","","null","<div style=""font-size:60px;"">+</div>","null","","fixation","","",""
"memory-trial","167","449774","0.0-18.0-1.61","4261","approach_avoid_sv1","""event"",""trial"",""time""
""fullscreenenter"",""1"",""23285""
","
","
","""event"",""trial"",""time""
""fullscreenenter"",""1"",""23285""
","
","","","","","","662.2999999523163","images/truck7.png","","","memory_trial","4","definitely_new",""
"html-keyboard-response","168","450280","0.0-18.0-0.62","4261","approach_avoid_sv1","""event"",""trial"",""time""
""fullscreenenter"",""1"",""23285""
","
","
","""event"",""trial"",""time""
""fullscreenenter"",""1"",""23285""
","
","","","","","","null","<div style=""font-size:60px;"">+</div>","null","","fixation","","",""
"memory-trial","169","452062","0.0-18.0-1.62","4261","approach_avoid_sv1","""event"",""trial"",""time""
""fullscreenenter"",""1"",""23285""
","
","
","""event"",""trial"",""time""
""fullscreenenter"",""1"",""23285""
","
","","","","","","765.5","images/bush2.png","","","memory_trial","4","definitely_new",""
"html-keyboard-response","170","452569","0.0-18.0-0.63","4261","approach_avoid_sv1","""event"",""trial"",""time""
""fullscreenenter"",""1"",""23285""
","
","
","""event"",""trial"",""time""
""fullscreenenter"",""1"",""23285""
","
","","","","","","null","<div style=""font-size:60px;"">+</div>","null","","fixation","","",""
"memory-trial","171","454175","0.0-18.0-1.63","4261","approach_avoid_sv1","""event"",""trial"",""time""
""fullscreenenter"",""1"",""23285""
","
","
","""event"",""trial"",""time""
""fullscreenenter"",""1"",""23285""
","
","","","","","","588.7000000476837","images/table3.png","","","memory_trial","4","definitely_new",""
"html-keyboard-response","172","454683","0.0-18.0-0.64","4261","approach_avoid_sv1","""event"",""trial"",""time""
""fullscreenenter"",""1"",""23285""
","
","
","""event"",""trial"",""time""
""fullscreenenter"",""1"",""23285""
","
","","","","","","null","<div style=""font-size:60px;"">+</div>","null","","fixation","","",""
"memory-trial","173","456743","0.0-18.0-1.64","4261","approach_avoid_sv1","""event"",""trial"",""time""
""fullscreenenter"",""1"",""23285""
","
","
","""event"",""trial"",""time""
""fullscreenenter"",""1"",""23285""
","
","","","","","","1051.1000000238419","images/boat1.png","","","memory_trial","1","definitely_old",""
"html-keyboard-response","174","457249","0.0-18.0-0.65","4261","approach_avoid_sv1","""event"",""trial"",""time""
""fullscreenenter"",""1"",""23285""
","
","
","""event"",""trial"",""time""
""fullscreenenter"",""1"",""23285""
","
","","","","","","null","<div style=""font-size:60px;"">+</div>","null","","fixation","","",""
"memory-trial","175","458991","0.0-18.0-1.65","4261","approach_avoid_sv1","""event"",""trial"",""time""
""fullscreenenter"",""1"",""23285""
","
","
","""event"",""trial"",""time""
""fullscreenenter"",""1"",""23285""
","
","","","","","","733.3999999761581","images/cactus4.png","","","memory_trial","4","definitely_new",""
"html-keyboard-response","176","459498","0.0-18.0-0.66","4261","approach_avoid_sv1","""event"",""trial"",""time""
""fullscreenenter"",""1"",""23285""
","
","
","""event"",""trial"",""time""
""fullscreenenter"",""1"",""23285""
","
","","","","","","null","<div style=""font-size:60px;"">+</div>","null","","fixation","","",""
"memory-trial","177","461318","0.0-18.0-1.66","4261","approach_avoid_sv1","""event"",""trial"",""time""
""fullscreenenter"",""1"",""23285""
","
","
","""event"",""trial"",""time""
""fullscreenenter"",""1"",""23285""
","
","","","","","","808","images/chair8.png","","","memory_trial","4","definitely_new",""
"html-keyboard-response","178","461827","0.0-18.0-0.67","4261","approach_avoid_sv1","""event"",""trial"",""time""
""fullscreenenter"",""1"",""23285""
","
","
","""event"",""trial"",""time""
""fullscreenenter"",""1"",""23285""
","
","","","","","","null","<div style=""font-size:60px;"">+</div>","null","","fixation","","",""
"memory-trial","179","464016","0.0-18.0-1.67","4261","approach_avoid_sv1","""event"",""trial"",""time""
""fullscreenenter"",""1"",""23285""
","
","
","""event"",""trial"",""time""
""fullscreenenter"",""1"",""23285""
","
","","","","","","1180.2999999523163","images/cat8.png","","","memory_trial","1","definitely_old",""
"html-keyboard-response","180","464521","0.0-18.0-0.68","4261","approach_avoid_sv1","""event"",""trial"",""time""
""fullscreenenter"",""1"",""23285""
","
","
","""event"",""trial"",""time""
""fullscreenenter"",""1"",""23285""
","
","","","","","","null","<div style=""font-size:60px;"">+</div>","null","","fixation","","",""
"memory-trial","181","467151","0.0-18.0-1.68","4261","approach_avoid_sv1","""event"",""trial"",""time""
""fullscreenenter"",""1"",""23285""
","
","
","""event"",""trial"",""time""
""fullscreenenter"",""1"",""23285""
","
","","","","","","1625.7999999523163","images/horse3.png","","","memory_trial","2","maybe_old",""
"html-keyboard-response","182","467656","0.0-18.0-0.69","4261","approach_avoid_sv1","""event"",""trial"",""time""
""fullscreenenter"",""1"",""23285""
","
","
","""event"",""trial"",""time""
""fullscreenenter"",""1"",""23285""
","
","","","","","","null","<div style=""font-size:60px;"">+</div>","null","","fixation","","",""
"memory-trial","183","470280","0.0-18.0-1.69","4261","approach_avoid_sv1","""event"",""trial"",""time""
""fullscreenenter"",""1"",""23285""
","
","
","""event"",""trial"",""time""
""fullscreenenter"",""1"",""23285""
","
","","","","","","1612.6000000238419","images/sofa7.png","","","memory_trial","2","maybe_old",""
"html-keyboard-response","184","470792","0.0-18.0-0.70","4261","approach_avoid_sv1","""event"",""trial"",""time""
""fullscreenenter"",""1"",""23285""
","
","
","""event"",""trial"",""time""
""fullscreenenter"",""1"",""23285""
","
","","","","","","null","<div style=""font-size:60px;"">+</div>","null","","fixation","","",""
"memory-trial","185","472568","0.0-18.0-1.70","4261","approach_avoid_sv1","""event"",""trial"",""time""
""fullscreenenter"",""1"",""23285""
","
","
","""event"",""trial"",""time""
""fullscreenenter"",""1"",""23285""
","
","","","","","","761.7999999523163","images/bush7.png","","","memory_trial","4","definitely_new",""
"html-keyboard-response","186","473079","0.0-18.0-0.71","4261","approach_avoid_sv1","""event"",""trial"",""time""
""fullscreenenter"",""1"",""23285""
","
","
","""event"",""trial"",""time""
""fullscreenenter"",""1"",""23285""
","
","","","","","","null","<div style=""font-size:60px;"">+</div>","null","","fixation","","",""
"memory-trial","187","474847","0.0-18.0-1.71","4261","approach_avoid_sv1","""event"",""trial"",""time""
""fullscreenenter"",""1"",""23285""
","
","
","""event"",""trial"",""time""
""fullscreenenter"",""1"",""23285""
","
","","","","","","749.8000000715256","images/truck3.png","","","memory_trial","4","definitely_new",""
"html-keyboard-response","188","475352","0.0-18.0-0.72","4261","approach_avoid_sv1","""event"",""trial"",""time""
""fullscreenenter"",""1"",""23285""
","
","
","""event"",""trial"",""time""
""fullscreenenter"",""1"",""23285""
","
","","","","","","null","<div style=""font-size:60px;"">+</div>","null","","fixation","","",""
"memory-trial","189","478246","0.0-18.0-1.72","4261","approach_avoid_sv1","""event"",""trial"",""time""
""fullscreenenter"",""1"",""23285""
","
","
","""event"",""trial"",""time""
""fullscreenenter"",""1"",""23285""
","
","","","","","","1883.3999999761581","images/straw2.png","","","memory_trial","3","maybe_new",""
"html-keyboard-response","190","478750","0.0-18.0-0.73","4261","approach_avoid_sv1","""event"",""trial"",""time""
""fullscreenenter"",""1"",""23285""
","
","
","""event"",""trial"",""time""
""fullscreenenter"",""1"",""23285""
","
","","","","","","null","<div style=""font-size:60px;"">+</div>","null","","fixation","","",""
"memory-trial","191","480678","0.0-18.0-1.73","4261","approach_avoid_sv1","""event"",""trial"",""time""
""fullscreenenter"",""1"",""23285""
","
","
","""event"",""trial"",""time""
""fullscreenenter"",""1"",""23285""
","
","","","","","","919.1000000238419","images/dog3.png","","","memory_trial","4","definitely_new",""
"html-keyboard-response","192","481192","0.0-18.0-0.74","4261","approach_avoid_sv1","""event"",""trial"",""time""
""fullscreenenter"",""1"",""23285""
","
","
","""event"",""trial"",""time""
""fullscreenenter"",""1"",""23285""
","
","","","","","","null","<div style=""font-size:60px;"">+</div>","null","","fixation","","",""
"memory-trial","193","483858","0.0-18.0-1.74","4261","approach_avoid_sv1","""event"",""trial"",""time""
""fullscreenenter"",""1"",""23285""
","
","
","""event"",""trial"",""time""
""fullscreenenter"",""1"",""23285""
","
","","","","","","1649.8999999761581","images/cactus6.png","","","memory_trial","4","definitely_new",""
"html-keyboard-response","194","484368","0.0-18.0-0.75","4261","approach_avoid_sv1","""event"",""trial"",""time""
""fullscreenenter"",""1"",""23285""
","
","
","""event"",""trial"",""time""
""fullscreenenter"",""1"",""23285""
","
","","","","","","null","<div style=""font-size:60px;"">+</div>","null","","fixation","","",""
"memory-trial","195","490055","0.0-18.0-1.75","4261","approach_avoid_sv1","""event"",""trial"",""time""
""fullscreenenter"",""1"",""23285""
","
","
","""event"",""trial"",""time""
""fullscreenenter"",""1"",""23285""
","
","","","","","","4676.600000023842","images/tree5.png","","","memory_trial","3","maybe_new",""
"html-keyboard-response","196","490568","0.0-18.0-0.76","4261","approach_avoid_sv1","""event"",""trial"",""time""
""fullscreenenter"",""1"",""23285""
","
","
","""event"",""trial"",""time""
""fullscreenenter"",""1"",""23285""
","
","","","","","","null","<div style=""font-size:60px;"">+</div>","null","","fixation","","",""
"memory-trial","197","494785","0.0-18.0-1.76","4261","approach_avoid_sv1","""event"",""trial"",""time""
""fullscreenenter"",""1"",""23285""
","
","
","""event"",""trial"",""time""
""fullscreenenter"",""1"",""23285""
","
","","","","","","3199.100000023842","images/bed3.png","","","memory_trial","1","definitely_old",""
"html-keyboard-response","198","495299","0.0-18.0-0.77","4261","approach_avoid_sv1","""event"",""trial"",""time""
""fullscreenenter"",""1"",""23285""
","
","
","""event"",""trial"",""time""
""fullscreenenter"",""1"",""23285""
","
","","","","","","null","<div style=""font-size:60px;"">+</div>","null","","fixation","","",""
"memory-trial","199","500129","0.0-18.0-1.77","4261","approach_avoid_sv1","""event"",""trial"",""time""
""fullscreenenter"",""1"",""23285""
","
","
","""event"",""trial"",""time""
""fullscreenenter"",""1"",""23285""
","
","","","","","","3815.2999999523163","images/sofa1.png","","","memory_trial","2","maybe_old",""
"html-keyboard-response","200","500639","0.0-18.0-0.78","4261","approach_avoid_sv1","""event"",""trial"",""time""
""fullscreenenter"",""1"",""23285""
","
","
","""event"",""trial"",""time""
""fullscreenenter"",""1"",""23285""
","
","","","","","","null","<div style=""font-size:60px;"">+</div>","null","","fixation","","",""
"memory-trial","201","503022","0.0-18.0-1.78","4261","approach_avoid_sv1","""event"",""trial"",""time""
""fullscreenenter"",""1"",""23285""
","
","
","""event"",""trial"",""time""
""fullscreenenter"",""1"",""23285""
","
","","","","","","1374.8999999761581","images/boat6.png","","","memory_trial","3","maybe_new",""
"html-keyboard-response","202","503527","0.0-18.0-0.79","4261","approach_avoid_sv1","""event"",""trial"",""time""
""fullscreenenter"",""1"",""23285""
","
","
","""event"",""trial"",""time""
""fullscreenenter"",""1"",""23285""
","
","","","","","","null","<div style=""font-size:60px;"">+</div>","null","","fixation","","",""
"memory-trial","203","506697","0.0-18.0-1.79","4261","approach_avoid_sv1","""event"",""trial"",""time""
""fullscreenenter"",""1"",""23285""
","
","
","""event"",""trial"",""time""
""fullscreenenter"",""1"",""23285""
","
","","","","","","2157.2999999523163","images/boat8.png","","","memory_trial","3","maybe_new",""
"html-keyboard-response","204","507206","0.0-18.0-0.80","4261","approach_avoid_sv1","""event"",""trial"",""time""
""fullscreenenter"",""1"",""23285""
","
","
","""event"",""trial"",""time""
""fullscreenenter"",""1"",""23285""
","
","","","","","","null","<div style=""font-size:60px;"">+</div>","null","","fixation","","",""
"memory-trial","205","511221","0.0-18.0-1.80","4261","approach_avoid_sv1","""event"",""trial"",""time""
""fullscreenenter"",""1"",""23285""
","
","
","""event"",""trial"",""time""
""fullscreenenter"",""1"",""23285""
","
","","","","","","3012.2999999523163","images/cactus2.png","","","memory_trial","4","definitely_new",""
"html-keyboard-response","206","511728","0.0-18.0-0.81","4261","approach_avoid_sv1","""event"",""trial"",""time""
""fullscreenenter"",""1"",""23285""
","
","
","""event"",""trial"",""time""
""fullscreenenter"",""1"",""23285""
","
","","","","","","null","<div style=""font-size:60px;"">+</div>","null","","fixation","","",""
"memory-trial","207","514265","0.0-18.0-1.81","4261","approach_avoid_sv1","""event"",""trial"",""time""
""fullscreenenter"",""1"",""23285""
","
","
","""event"",""trial"",""time""
""fullscreenenter"",""1"",""23285""
","
","","","","","","1524","images/bed8.png","","","memory_trial","1","definitely_old",""
"html-keyboard-response","208","514790","0.0-18.0-0.82","4261","approach_avoid_sv1","""event"",""trial"",""time""
""fullscreenenter"",""1"",""23285""
","
","
","""event"",""trial"",""time""
""fullscreenenter"",""1"",""23285""
","
","","","","","","null","<div style=""font-size:60px;"">+</div>","null","","fixation","","",""
"memory-trial","209","517514","0.0-18.0-1.82","4261","approach_avoid_sv1","""event"",""trial"",""time""
""fullscreenenter"",""1"",""23285""
","
","
","""event"",""trial"",""time""
""fullscreenenter"",""1"",""23285""
","
","","","","","","1711.8000000715256","images/flower4.png","","","memory_trial","2","maybe_old",""
"html-keyboard-response","210","518022","0.0-18.0-0.83","4261","approach_avoid_sv1","""event"",""trial"",""time""
""fullscreenenter"",""1"",""23285""
","
","
","""event"",""trial"",""time""
""fullscreenenter"",""1"",""23285""
","
","","","","","","null","<div style=""font-size:60px;"">+</div>","null","","fixation","","",""
"memory-trial","211","520639","0.0-18.0-1.83","4261","approach_avoid_sv1","""event"",""trial"",""time""
""fullscreenenter"",""1"",""23285""
","
","
","""event"",""trial"",""time""
""fullscreenenter"",""1"",""23285""
","
","","","","","","1604.7999999523163","images/chair7.png","","","memory_trial","4","definitely_new",""
"html-keyboard-response","212","521153","0.0-18.0-0.84","4261","approach_avoid_sv1","""event"",""trial"",""time""
""fullscreenenter"",""1"",""23285""
","
","
","""event"",""trial"",""time""
""fullscreenenter"",""1"",""23285""
","
","","","","","","null","<div style=""font-size:60px;"">+</div>","null","","fixation","","",""
"memory-trial","213","524150","0.0-18.0-1.84","4261","approach_avoid_sv1","""event"",""trial"",""time""
""fullscreenenter"",""1"",""23285""
","
","
","""event"",""trial"",""time""
""fullscreenenter"",""1"",""23285""
","
","","","","","","1989.3999999761581","images/truck8.png","","","memory_trial","4","definitely_new",""
"html-keyboard-response","214","524656","0.0-18.0-0.85","4261","approach_avoid_sv1","""event"",""trial"",""time""
""fullscreenenter"",""1"",""23285""
","
","
","""event"",""trial"",""time""
""fullscreenenter"",""1"",""23285""
","
","","","","","","null","<div style=""font-size:60px;"">+</div>","null","","fixation","","",""
"memory-trial","215","526656","0.0-18.0-1.85","4261","approach_avoid_sv1","""event"",""trial"",""time""
""fullscreenenter"",""1"",""23285""
","
","
","""event"",""trial"",""time""
""fullscreenenter"",""1"",""23285""
","
","","","","","","990.8999999761581","images/train2.png","","","memory_trial","4","definitely_new",""
"html-keyboard-response","216","527171","0.0-18.0-0.86","4261","approach_avoid_sv1","""event"",""trial"",""time""
""fullscreenenter"",""1"",""23285""
","
","
","""event"",""trial"",""time""
""fullscreenenter"",""1"",""23285""
","
","","","","","","null","<div style=""font-size:60px;"">+</div>","null","","fixation","","",""
"memory-trial","217","529231","0.0-18.0-1.86","4261","approach_avoid_sv1","""event"",""trial"",""time""
""fullscreenenter"",""1"",""23285""
","
","
","""event"",""trial"",""time""
""fullscreenenter"",""1"",""23285""
","
","","","","","","1053.6000000238419","images/rodent6.png","","","memory_trial","1","definitely_old",""
"html-keyboard-response","218","529738","0.0-18.0-0.87","4261","approach_avoid_sv1","""event"",""trial"",""time""
""fullscreenenter"",""1"",""23285""
","
","
","""event"",""trial"",""time""
""fullscreenenter"",""1"",""23285""
","
","","","","","","null","<div style=""font-size:60px;"">+</div>","null","","fixation","","",""
"memory-trial","219","531425","0.0-18.0-1.87","4261","approach_avoid_sv1","""event"",""trial"",""time""
""fullscreenenter"",""1"",""23285""
","
","
","""event"",""trial"",""time""
""fullscreenenter"",""1"",""23285""
","
","","","","","","669.1999999284744","images/orange3.png","","","memory_trial","4","definitely_new",""
"html-keyboard-response","220","531936","0.0-18.0-0.88","4261","approach_avoid_sv1","""event"",""trial"",""time""
""fullscreenenter"",""1"",""23285""
","
","
","""event"",""trial"",""time""
""fullscreenenter"",""1"",""23285""
","
","","","","","","null","<div style=""font-size:60px;"">+</div>","null","","fixation","","",""
"memory-trial","221","534390","0.0-18.0-1.88","4261","approach_avoid_sv1","""event"",""trial"",""time""
""fullscreenenter"",""1"",""23285""
","
","
","""event"",""trial"",""time""
""fullscreenenter"",""1"",""23285""
","
","","","","","","1437.3999999761581","images/rabbit8.png","","","memory_trial","3","maybe_new",""
"html-keyboard-response","222","534900","0.0-18.0-0.89","4261","approach_avoid_sv1","""event"",""trial"",""time""
""fullscreenenter"",""1"",""23285""
","
","
","""event"",""trial"",""time""
""fullscreenenter"",""1"",""23285""
","
","","","","","","null","<div style=""font-size:60px;"">+</div>","null","","fixation","","",""
"memory-trial","223","536719","0.0-18.0-1.89","4261","approach_avoid_sv1","""event"",""trial"",""time""
""fullscreenenter"",""1"",""23285""
","
","
","""event"",""trial"",""time""
""fullscreenenter"",""1"",""23285""
","
","","","","","","810.2999999523163","images/dog4.png","","","memory_trial","4","definitely_new",""
"html-keyboard-response","224","537237","0.0-18.0-0.90","4261","approach_avoid_sv1","""event"",""trial"",""time""
""fullscreenenter"",""1"",""23285""
","
","
","""event"",""trial"",""time""
""fullscreenenter"",""1"",""23285""
","
","","","","","","null","<div style=""font-size:60px;"">+</div>","null","","fixation","","",""
"memory-trial","225","538951","0.0-18.0-1.90","4261","approach_avoid_sv1","""event"",""trial"",""time""
""fullscreenenter"",""1"",""23285""
","
","
","""event"",""trial"",""time""
""fullscreenenter"",""1"",""23285""
","
","","","","","","705.3999999761581","images/apple3.png","","","memory_trial","4","definitely_new",""
"html-keyboard-response","226","539454","0.0-18.0-0.91","4261","approach_avoid_sv1","""event"",""trial"",""time""
""fullscreenenter"",""1"",""23285""
","
","
","""event"",""trial"",""time""
""fullscreenenter"",""1"",""23285""
","
","","","","","","null","<div style=""font-size:60px;"">+</div>","null","","fixation","","",""
"memory-trial","227","541499","0.0-18.0-1.91","4261","approach_avoid_sv1","""event"",""trial"",""time""
""fullscreenenter"",""1"",""23285""
","
","
","""event"",""trial"",""time""
""fullscreenenter"",""1"",""23285""
","
","","","","","","1030.8999999761581","images/rodent8.png","","","memory_trial","1","definitely_old",""
"html-button-response","228","543903","0.0-18.0-2.91-0.91","4261","approach_avoid_sv1","""event"",""trial"",""time""
""fullscreenenter"",""1"",""23285""
","
","
","""event"",""trial"",""time""
""fullscreenenter"",""1"",""23285""
","
","","","","","","2402","<p> Take a break! </p><p> Click the button to continue. </p>","0","","break","","",""
"html-keyboard-response","229","544415","0.0-18.0-0.92","4261","approach_avoid_sv1","""event"",""trial"",""time""
""fullscreenenter"",""1"",""23285""
","
","
","""event"",""trial"",""time""
""fullscreenenter"",""1"",""23285""
","
","","","","","","null","<div style=""font-size:60px;"">+</div>","null","","fixation","","",""
"memory-trial","230","546350","0.0-18.0-1.92","4261","approach_avoid_sv1","""event"",""trial"",""time""
""fullscreenenter"",""1"",""23285""
","
","
","""event"",""trial"",""time""
""fullscreenenter"",""1"",""23285""
","
","","","","","","924.0999999046326","images/cat1.png","","","memory_trial","4","definitely_new",""
"html-keyboard-response","231","546855","0.0-18.0-0.93","4261","approach_avoid_sv1","""event"",""trial"",""time""
""fullscreenenter"",""1"",""23285""
","
","
","""event"",""trial"",""time""
""fullscreenenter"",""1"",""23285""
","
","","","","","","null","<div style=""font-size:60px;"">+</div>","null","","fixation","","",""
"memory-trial","232","548958","0.0-18.0-1.93","4261","approach_avoid_sv1","""event"",""trial"",""time""
""fullscreenenter"",""1"",""23285""
","
","
","""event"",""trial"",""time""
""fullscreenenter"",""1"",""23285""
","
","","","","","","1093.6999999284744","images/table5.png","","","memory_trial","4","definitely_new",""
"html-keyboard-response","233","549477","0.0-18.0-0.94","4261","approach_avoid_sv1","""event"",""trial"",""time""
""fullscreenenter"",""1"",""23285""
","
","
","""event"",""trial"",""time""
""fullscreenenter"",""1"",""23285""
","
","","","","","","null","<div style=""font-size:60px;"">+</div>","null","","fixation","","",""
"memory-trial","234","551768","0.0-18.0-1.94","4261","approach_avoid_sv1","""event"",""trial"",""time""
""fullscreenenter"",""1"",""23285""
","
","
","""event"",""trial"",""time""
""fullscreenenter"",""1"",""23285""
","
","","","","","","1278","images/straw8.png","","","memory_trial","3","maybe_new",""
"html-keyboard-response","235","552288","0.0-18.0-0.95","4261","approach_avoid_sv1","""event"",""trial"",""time""
""fullscreenenter"",""1"",""23285""
","
","
","""event"",""trial"",""time""
""fullscreenenter"",""1"",""23285""
","
","","","","","","null","<div style=""font-size:60px;"">+</div>","null","","fixation","","",""
"memory-trial","236","553928","0.0-18.0-1.95","4261","approach_avoid_sv1","""event"",""trial"",""time""
""fullscreenenter"",""1"",""23285""
","
","
","""event"",""trial"",""time""
""fullscreenenter"",""1"",""23285""
","
","","","","","","620.5","images/orange2.png","","","memory_trial","4","definitely_new",""
"html-keyboard-response","237","554447","0.0-18.0-0.96","4261","approach_avoid_sv1","""event"",""trial"",""time""
""fullscreenenter"",""1"",""23285""
","
","
","""event"",""trial"",""time""
""fullscreenenter"",""1"",""23285""
","
","","","","","","null","<div style=""font-size:60px;"">+</div>","null","","fixation","","",""
"memory-trial","238","557282","0.0-18.0-1.96","4261","approach_avoid_sv1","""event"",""trial"",""time""
""fullscreenenter"",""1"",""23285""
","
","
","""event"",""trial"",""time""
""fullscreenenter"",""1"",""23285""
","
","","","","","","1823.6000000238419","images/horse1.png","","","memory_trial","2","maybe_old",""
"html-keyboard-response","239","557798","0.0-18.0-0.97","4261","approach_avoid_sv1","""event"",""trial"",""time""
""fullscreenenter"",""1"",""23285""
","
","
","""event"",""trial"",""time""
""fullscreenenter"",""1"",""23285""
","
","","","","","","null","<div style=""font-size:60px;"">+</div>","null","","fixation","","",""
"memory-trial","240","559768","0.0-18.0-1.97","4261","approach_avoid_sv1","""event"",""trial"",""time""
""fullscreenenter"",""1"",""23285""
","
","
","""event"",""trial"",""time""
""fullscreenenter"",""1"",""23285""
","
","","","","","","956.3000000715256","images/horse7.png","","","memory_trial","2","maybe_old",""
"html-keyboard-response","241","560289","0.0-18.0-0.98","4261","approach_avoid_sv1","""event"",""trial"",""time""
""fullscreenenter"",""1"",""23285""
","
","
","""event"",""trial"",""time""
""fullscreenenter"",""1"",""23285""
","
","","","","","","null","<div style=""font-size:60px;"">+</div>","null","","fixation","","",""
"memory-trial","242","562139","0.0-18.0-1.98","4261","approach_avoid_sv1","""event"",""trial"",""time""
""fullscreenenter"",""1"",""23285""
","
","
","""event"",""trial"",""time""
""fullscreenenter"",""1"",""23285""
","
","","","","","","828.7000000476837","images/horse5.png","","","memory_trial","4","definitely_new",""
"html-keyboard-response","243","562648","0.0-18.0-0.99","4261","approach_avoid_sv1","""event"",""trial"",""time""
""fullscreenenter"",""1"",""23285""
","
","
","""event"",""trial"",""time""
""fullscreenenter"",""1"",""23285""
","
","","","","","","null","<div style=""font-size:60px;"">+</div>","null","","fixation","","",""
"memory-trial","244","565206","0.0-18.0-1.99","4261","approach_avoid_sv1","""event"",""trial"",""time""
""fullscreenenter"",""1"",""23285""
","
","
","""event"",""trial"",""time""
""fullscreenenter"",""1"",""23285""
","
","","","","","","1542.3999999761581","images/rodent2.png","","","memory_trial","2","maybe_old",""
"html-keyboard-response","245","565710","0.0-18.0-0.100","4261","approach_avoid_sv1","""event"",""trial"",""time""
""fullscreenenter"",""1"",""23285""
","
","
","""event"",""trial"",""time""
""fullscreenenter"",""1"",""23285""
","
","","","","","","null","<div style=""font-size:60px;"">+</div>","null","","fixation","","",""
"memory-trial","246","567951","0.0-18.0-1.100","4261","approach_avoid_sv1","""event"",""trial"",""time""
""fullscreenenter"",""1"",""23285""
","
","
","""event"",""trial"",""time""
""fullscreenenter"",""1"",""23285""
","
","","","","","","1233","images/rabbit4.png","","","memory_trial","3","maybe_new",""
"html-keyboard-response","247","568460","0.0-18.0-0.101","4261","approach_avoid_sv1","""event"",""trial"",""time""
""fullscreenenter"",""1"",""23285""
","
","
","""event"",""trial"",""time""
""fullscreenenter"",""1"",""23285""
","
","","","","","","null","<div style=""font-size:60px;"">+</div>","null","","fixation","","",""
"memory-trial","248","570700","0.0-18.0-1.101","4261","approach_avoid_sv1","""event"",""trial"",""time""
""fullscreenenter"",""1"",""23285""
","
","
","""event"",""trial"",""time""
""fullscreenenter"",""1"",""23285""
","
","","","","","","1228.5999999046326","images/goat6.png","","","memory_trial","4","definitely_new",""
"html-keyboard-response","249","571209","0.0-18.0-0.102","4261","approach_avoid_sv1","""event"",""trial"",""time""
""fullscreenenter"",""1"",""23285""
","
","
","""event"",""trial"",""time""
""fullscreenenter"",""1"",""23285""
","
","","","","","","null","<div style=""font-size:60px;"">+</div>","null","","fixation","","",""
"memory-trial","250","572950","0.0-18.0-1.102","4261","approach_avoid_sv1","""event"",""trial"",""time""
""fullscreenenter"",""1"",""23285""
","
","
","""event"",""trial"",""time""
""fullscreenenter"",""1"",""23285""
","
","","","","","","733.9000000953674","images/truck6.png","","","memory_trial","4","definitely_new",""
"html-keyboard-response","251","573468","0.0-18.0-0.103","4261","approach_avoid_sv1","""event"",""trial"",""time""
""fullscreenenter"",""1"",""23285""
","
","
","""event"",""trial"",""time""
""fullscreenenter"",""1"",""23285""
","
","","","","","","null","<div style=""font-size:60px;"">+</div>","null","","fixation","","",""
"memory-trial","252","576182","0.0-18.0-1.103","4261","approach_avoid_sv1","""event"",""trial"",""time""
""fullscreenenter"",""1"",""23285""
","
","
","""event"",""trial"",""time""
""fullscreenenter"",""1"",""23285""
","
","","","","","","1701.3000000715256","images/rabbit3.png","","","memory_trial","2","maybe_old",""
"html-keyboard-response","253","576692","0.0-18.0-0.104","4261","approach_avoid_sv1","""event"",""trial"",""time""
""fullscreenenter"",""1"",""23285""
","
","
","""event"",""trial"",""time""
""fullscreenenter"",""1"",""23285""
","
","","","","","","null","<div style=""font-size:60px;"">+</div>","null","","fixation","","",""
"memory-trial","254","579262","0.0-18.0-1.104","4261","approach_avoid_sv1","""event"",""trial"",""time""
""fullscreenenter"",""1"",""23285""
","
","
","""event"",""trial"",""time""
""fullscreenenter"",""1"",""23285""
","
","","","","","","1563.5","images/apple4.png","","","memory_trial","4","definitely_new",""
"html-keyboard-response","255","579769","0.0-18.0-0.105","4261","approach_avoid_sv1","""event"",""trial"",""time""
""fullscreenenter"",""1"",""23285""
","
","
","""event"",""trial"",""time""
""fullscreenenter"",""1"",""23285""
","
","","","","","","null","<div style=""font-size:60px;"">+</div>","null","","fixation","","",""
"memory-trial","256","582083","0.0-18.0-1.105","4261","approach_avoid_sv1","""event"",""trial"",""time""
""fullscreenenter"",""1"",""23285""
","
","
","""event"",""trial"",""time""
""fullscreenenter"",""1"",""23285""
","
","","","","","","1297.6999999284744","images/cow6.png","","","memory_trial","3","maybe_new",""
"html-keyboard-response","257","582598","0.0-18.0-0.106","4261","approach_avoid_sv1","""event"",""trial"",""time""
""fullscreenenter"",""1"",""23285""
","
","
","""event"",""trial"",""time""
""fullscreenenter"",""1"",""23285""
","
","","","","","","null","<div style=""font-size:60px;"">+</div>","null","","fixation","","",""
"memory-trial","258","585750","0.0-18.0-1.106","4261","approach_avoid_sv1","""event"",""trial"",""time""
""fullscreenenter"",""1"",""23285""
","
","
","""event"",""trial"",""time""
""fullscreenenter"",""1"",""23285""
","
","","","","","","2139.3000000715256","images/sheep2.png","","","memory_trial","3","maybe_new",""
"html-keyboard-response","259","586256","0.0-18.0-0.107","4261","approach_avoid_sv1","""event"",""trial"",""time""
""fullscreenenter"",""1"",""23285""
","
","
","""event"",""trial"",""time""
""fullscreenenter"",""1"",""23285""
","
","","","","","","null","<div style=""font-size:60px;"">+</div>","null","","fixation","","",""
"memory-trial","260","588591","0.0-18.0-1.107","4261","approach_avoid_sv1","""event"",""trial"",""time""
""fullscreenenter"",""1"",""23285""
","
","
","""event"",""trial"",""time""
""fullscreenenter"",""1"",""23285""
","
","","","","","","1322.8000000715256","images/bush5.png","","","memory_trial","4","definitely_new",""
"html-keyboard-response","261","589098","0.0-18.0-0.108","4261","approach_avoid_sv1","""event"",""trial"",""time""
""fullscreenenter"",""1"",""23285""
","
","
","""event"",""trial"",""time""
""fullscreenenter"",""1"",""23285""
","
","","","","","","null","<div style=""font-size:60px;"">+</div>","null","","fixation","","",""
"memory-trial","262","590848","0.0-18.0-1.108","4261","approach_avoid_sv1","""event"",""trial"",""time""
""fullscreenenter"",""1"",""23285""
","
","
","""event"",""trial"",""time""
""fullscreenenter"",""1"",""23285""
","
","","","","","","741.2999999523163","images/train8.png","","","memory_trial","4","definitely_new",""
"html-keyboard-response","263","591372","0.0-18.0-0.109","4261","approach_avoid_sv1","""event"",""trial"",""time""
""fullscreenenter"",""1"",""23285""
","
","
","""event"",""trial"",""time""
""fullscreenenter"",""1"",""23285""
","
","","","","","","null","<div style=""font-size:60px;"">+</div>","null","","fixation","","",""
"memory-trial","264","593431","0.0-18.0-1.109","4261","approach_avoid_sv1","""event"",""trial"",""time""
""fullscreenenter"",""1"",""23285""
","
","
","""event"",""trial"",""time""
""fullscreenenter"",""1"",""23285""
","
","","","","","","1053.2000000476837","images/bush8.png","","","memory_trial","4","definitely_new",""
"html-keyboard-response","265","593936","0.0-18.0-0.110","4261","approach_avoid_sv1","""event"",""trial"",""time""
""fullscreenenter"",""1"",""23285""
","
","
","""event"",""trial"",""time""
""fullscreenenter"",""1"",""23285""
","
","","","","","","null","<div style=""font-size:60px;"">+</div>","null","","fixation","","",""
"memory-trial","266","595715","0.0-18.0-1.110","4261","approach_avoid_sv1","""event"",""trial"",""time""
""fullscreenenter"",""1"",""23285""
","
","
","""event"",""trial"",""time""
""fullscreenenter"",""1"",""23285""
","
","","","","","","756.5","images/bush1.png","","","memory_trial","4","definitely_new",""
"html-keyboard-response","267","596230","0.0-18.0-0.111","4261","approach_avoid_sv1","""event"",""trial"",""time""
""fullscreenenter"",""1"",""23285""
","
","
","""event"",""trial"",""time""
""fullscreenenter"",""1"",""23285""
","
","","","","","","null","<div style=""font-size:60px;"">+</div>","null","","fixation","","",""
"memory-trial","268","597967","0.0-18.0-1.111","4261","approach_avoid_sv1","""event"",""trial"",""time""
""fullscreenenter"",""1"",""23285""
","
","
","""event"",""trial"",""time""
""fullscreenenter"",""1"",""23285""
","
","","","","","","728","images/table4.png","","","memory_trial","4","definitely_new",""
"html-keyboard-response","269","598479","0.0-18.0-0.112","4261","approach_avoid_sv1","""event"",""trial"",""time""
""fullscreenenter"",""1"",""23285""
","
","
","""event"",""trial"",""time""
""fullscreenenter"",""1"",""23285""
","
","","","","","","null","<div style=""font-size:60px;"">+</div>","null","","fixation","","",""
"memory-trial","270","600623","0.0-18.0-1.112","4261","approach_avoid_sv1","""event"",""trial"",""time""
""fullscreenenter"",""1"",""23285""
","
","
","""event"",""trial"",""time""
""fullscreenenter"",""1"",""23285""
","
","","","","","","1129","images/goat7.png","","","memory_trial","4","definitely_new",""
"html-keyboard-response","271","601127","0.0-18.0-0.113","4261","approach_avoid_sv1","""event"",""trial"",""time""
""fullscreenenter"",""1"",""23285""
","
","
","""event"",""trial"",""time""
""fullscreenenter"",""1"",""23285""
","
","","","","","","null","<div style=""font-size:60px;"">+</div>","null","","fixation","","",""
"memory-trial","272","603088","0.0-18.0-1.113","4261","approach_avoid_sv1","""event"",""trial"",""time""
""fullscreenenter"",""1"",""23285""
","
","
","""event"",""trial"",""time""
""fullscreenenter"",""1"",""23285""
","
","","","","","","954.7999999523163","images/sofa8.png","","","memory_trial","4","definitely_new",""
"html-keyboard-response","273","603608","0.0-18.0-0.114","4261","approach_avoid_sv1","""event"",""trial"",""time""
""fullscreenenter"",""1"",""23285""
","
","
","""event"",""trial"",""time""
""fullscreenenter"",""1"",""23285""
","
","","","","","","null","<div style=""font-size:60px;"">+</div>","null","","fixation","","",""
"memory-trial","274","605847","0.0-18.0-1.114","4261","approach_avoid_sv1","""event"",""trial"",""time""
""fullscreenenter"",""1"",""23285""
","
","
","""event"",""trial"",""time""
""fullscreenenter"",""1"",""23285""
","
","","","","","","1229.2000000476837","images/chair6.png","","","memory_trial","3","maybe_new",""
"html-keyboard-response","275","606350","0.0-18.0-0.115","4261","approach_avoid_sv1","""event"",""trial"",""time""
""fullscreenenter"",""1"",""23285""
","
","
","""event"",""trial"",""time""
""fullscreenenter"",""1"",""23285""
","
","","","","","","null","<div style=""font-size:60px;"">+</div>","null","","fixation","","",""
"memory-trial","276","608318","0.0-18.0-1.115","4261","approach_avoid_sv1","""event"",""trial"",""time""
""fullscreenenter"",""1"",""23285""
","
","
","""event"",""trial"",""time""
""fullscreenenter"",""1"",""23285""
","
","","","","","","962.1000000238419","images/orange1.png","","","memory_trial","4","definitely_new",""
"html-keyboard-response","277","608831","0.0-18.0-0.116","4261","approach_avoid_sv1","""event"",""trial"",""time""
""fullscreenenter"",""1"",""23285""
","
","
","""event"",""trial"",""time""
""fullscreenenter"",""1"",""23285""
","
","","","","","","null","<div style=""font-size:60px;"">+</div>","null","","fixation","","",""
"memory-trial","278","611278","0.0-18.0-1.116","4261","approach_avoid_sv1","""event"",""trial"",""time""
""fullscreenenter"",""1"",""23285""
","
","
","""event"",""trial"",""time""
""fullscreenenter"",""1"",""23285""
","
","","","","","","1441","images/goat3.png","","","memory_trial","3","maybe_new",""
"html-keyboard-response","279","611787","0.0-18.0-0.117","4261","approach_avoid_sv1","""event"",""trial"",""time""
""fullscreenenter"",""1"",""23285""
","
","
","""event"",""trial"",""time""
""fullscreenenter"",""1"",""23285""
","
","","","","","","null","<div style=""font-size:60px;"">+</div>","null","","fixation","","",""
"memory-trial","280","614507","0.0-18.0-1.117","4261","approach_avoid_sv1","""event"",""trial"",""time""
""fullscreenenter"",""1"",""23285""
","
","
","""event"",""trial"",""time""
""fullscreenenter"",""1"",""23285""
","
","","","","","","1696.7000000476837","images/cow8.png","","","memory_trial","3","maybe_new",""
"html-keyboard-response","281","615021","0.0-18.0-0.118","4261","approach_avoid_sv1","""event"",""trial"",""time""
""fullscreenenter"",""1"",""23285""
","
","
","""event"",""trial"",""time""
""fullscreenenter"",""1"",""23285""
","
","","","","","","null","<div style=""font-size:60px;"">+</div>","null","","fixation","","",""
"memory-trial","282","617302","0.0-18.0-1.118","4261","approach_avoid_sv1","""event"",""trial"",""time""
""fullscreenenter"",""1"",""23285""
","
","
","""event"",""trial"",""time""
""fullscreenenter"",""1"",""23285""
","
","","","","","","1270","images/bed4.png","","","memory_trial","1","definitely_old",""
"html-keyboard-response","283","617807","0.0-18.0-0.119","4261","approach_avoid_sv1","""event"",""trial"",""time""
""fullscreenenter"",""1"",""23285""
","
","
","""event"",""trial"",""time""
""fullscreenenter"",""1"",""23285""
","
","","","","","","null","<div style=""font-size:60px;"">+</div>","null","","fixation","","",""
"memory-trial","284","620823","0.0-18.0-1.119","4261","approach_avoid_sv1","""event"",""trial"",""time""
""fullscreenenter"",""1"",""23285""
","
","
","""event"",""trial"",""time""
""fullscreenenter"",""1"",""23285""
","
","","","","","","1998.2000000476837","images/cactus8.png","","","memory_trial","3","maybe_new",""
"html-keyboard-response","285","621327","0.0-18.0-0.120","4261","approach_avoid_sv1","""event"",""trial"",""time""
""fullscreenenter"",""1"",""23285""
","
","
","""event"",""trial"",""time""
""fullscreenenter"",""1"",""23285""
","
","","","","","","null","<div style=""font-size:60px;"">+</div>","null","","fixation","","",""
"memory-trial","286","623578","0.0-18.0-1.120","4261","approach_avoid_sv1","""event"",""trial"",""time""
""fullscreenenter"",""1"",""23285""
","
","
","""event"",""trial"",""time""
""fullscreenenter"",""1"",""23285""
","
","","","","","","1242.7999999523163","images/plane4.png","","","memory_trial","3","maybe_new",""
"html-keyboard-response","287","624088","0.0-18.0-0.121","4261","approach_avoid_sv1","""event"",""trial"",""time""
""fullscreenenter"",""1"",""23285""
","
","
","""event"",""trial"",""time""
""fullscreenenter"",""1"",""23285""
","
","","","","","","null","<div style=""font-size:60px;"">+</div>","null","","fixation","","",""
"memory-trial","288","626830","0.0-18.0-1.121","4261","approach_avoid_sv1","""event"",""trial"",""time""
""fullscreenenter"",""1"",""23285""
","
","
","""event"",""trial"",""time""
""fullscreenenter"",""1"",""23285""
","
","","","","","","1734","images/horse4.png","","","memory_trial","3","maybe_new",""
"html-keyboard-response","289","627333","0.0-18.0-0.122","4261","approach_avoid_sv1","""event"",""trial"",""time""
""fullscreenenter"",""1"",""23285""
","
","
","""event"",""trial"",""time""
""fullscreenenter"",""1"",""23285""
","
","","","","","","null","<div style=""font-size:60px;"">+</div>","null","","fixation","","",""
"memory-trial","290","630033","0.0-18.0-1.122","4261","approach_avoid_sv1","""event"",""trial"",""time""
""fullscreenenter"",""1"",""23285""
","
","
","""event"",""trial"",""time""
""fullscreenenter"",""1"",""23285""
","
","","","","","","1687.6999999284744","images/tree6.png","","","memory_trial","2","maybe_old",""
"html-keyboard-response","291","630546","0.0-18.0-0.123","4261","approach_avoid_sv1","""event"",""trial"",""time""
""fullscreenenter"",""1"",""23285""
","
","
","""event"",""trial"",""time""
""fullscreenenter"",""1"",""23285""
","
","","","","","","null","<div style=""font-size:60px;"">+</div>","null","","fixation","","",""
"memory-trial","292","632546","0.0-18.0-1.123","4261","approach_avoid_sv1","""event"",""trial"",""time""
""fullscreenenter"",""1"",""23285""
","
","
","""event"",""trial"",""time""
""fullscreenenter"",""1"",""23285""
","
","","","","","","984.8000000715256","images/dog5.png","","","memory_trial","4","definitely_new",""
"html-keyboard-response","293","633057","0.0-18.0-0.124","4261","approach_avoid_sv1","""event"",""trial"",""time""
""fullscreenenter"",""1"",""23285""
","
","
","""event"",""trial"",""time""
""fullscreenenter"",""1"",""23285""
","
","","","","","","null","<div style=""font-size:60px;"">+</div>","null","","fixation","","",""
"memory-trial","294","637536","0.0-18.0-1.124","4261","approach_avoid_sv1","""event"",""trial"",""time""
""fullscreenenter"",""1"",""23285""
","
","
","""event"",""trial"",""time""
""fullscreenenter"",""1"",""23285""
","
","","","","","","3473.5","images/horse8.png","","","memory_trial","3","maybe_new",""
"html-keyboard-response","295","638054","0.0-18.0-0.125","4261","approach_avoid_sv1","""event"",""trial"",""time""
""fullscreenenter"",""1"",""23285""
","
","
","""event"",""trial"",""time""
""fullscreenenter"",""1"",""23285""
","
