"trial_type","trial_index","time_elapsed","internal_node_id","subject_id","task_version","interactions","blur_events","focus_events","fullscreenenter_events","fullscreenexit_events","success","timeout","failed_images","failed_audio","failed_video","rt","stimulus","response","button_pressed","task_part","key_press","answer","correct"
"pavlovia","0","3","0.0-0.0","6254","approach_avoid_sv1","""event"",""trial"",""time""
""fullscreenenter"",""1"",""1440""
","
","
","""event"",""trial"",""time""
""fullscreenenter"",""1"",""1440""
","
","","","","","","","","","","","","",""
"fullscreen","1","2438","0.0-1.0","6254","approach_avoid_sv1","""event"",""trial"",""time""
""fullscreenenter"",""1"",""1440""
","
","
","""event"",""trial"",""time""
""fullscreenenter"",""1"",""1440""
","
","true","","","","","","","","","","","",""
"preload","2","8442","0.0-2.0","6254","approach_avoid_sv1","""event"",""trial"",""time""
""fullscreenenter"",""1"",""1440""
","
","
","""event"",""trial"",""time""
""fullscreenenter"",""1"",""1440""
","
","true","false","[]","[]","[]","","","","","","","",""
"preload","3","14218","0.0-3.0","6254","approach_avoid_sv1","""event"",""trial"",""time""
""fullscreenenter"",""1"",""1440""
","
","
","""event"",""trial"",""time""
""fullscreenenter"",""1"",""1440""
","
","true","false","[]","[]","[]","","","","","","","",""
"preload","4","14659","0.0-4.0","6254","approach_avoid_sv1","""event"",""trial"",""time""
""fullscreenenter"",""1"",""1440""
","
","
","""event"",""trial"",""time""
""fullscreenenter"",""1"",""1440""
","
","true","false","[]","[]","[]","","","","","","","",""
"audio-keyboard-response","5","17594","0.0-5.0","6254","approach_avoid_sv1","""event"",""trial"",""time""
""fullscreenenter"",""1"",""1440""
","
","
","""event"",""trial"",""time""
""fullscreenenter"",""1"",""1440""
","
","","","","","","2931.5192743764173","audio/beep_loop.wav"," ","","","","",""
"audio-button-response","6","18942","0.0-6.0","6254","approach_avoid_sv1","""event"",""trial"",""time""
""fullscreenenter"",""1"",""1440""
","
","
","""event"",""trial"",""time""
""fullscreenenter"",""1"",""1440""
","
","","","","","","1347","audio/turtle.wav","3","","","","",""
"audio-button-response","7","20722","0.0-7.0","6254","approach_avoid_sv1","""event"",""trial"",""time""
""fullscreenenter"",""1"",""1440""
","
","
","""event"",""trial"",""time""
""fullscreenenter"",""1"",""1440""
","
","","","","","","772","audio/shark.wav","2","","","","",""
"preload","8","29026","0.0-8.0","6254","approach_avoid_sv1","""event"",""trial"",""time""
""fullscreenenter"",""1"",""1440""
","
","
","""event"",""trial"",""time""
""fullscreenenter"",""1"",""1440""
","
","true","false","[]","[]","[]","","","","","","","",""
"learning-instructions","9","35297","0.0-9.0-0.0","6254","approach_avoid_sv1","""event"",""trial"",""time""
""fullscreenenter"",""1"",""1440""
","
","
","""event"",""trial"",""time""
""fullscreenenter"",""1"",""1440""
","
","","","","","","1793.9000000357628","<p> Welcome back! </p><p> Last week, you had to make choices about lots of different items.  </p>","","0","instructions","","",""
"learning-instructions","10","39945","0.0-9.0-0.1","6254","approach_avoid_sv1","""event"",""trial"",""time""
""fullscreenenter"",""1"",""1440""
","
","
","""event"",""trial"",""time""
""fullscreenenter"",""1"",""1440""
","
","","","","","","527.6000000238419","<p> Today, we are going to ask you to try to remember all the items. </p>","","0","instructions","","",""
"learning-instructions","11","50519","0.0-9.0-0.2","6254","approach_avoid_sv1","""event"",""trial"",""time""
""fullscreenenter"",""1"",""1440""
","
","
","""event"",""trial"",""time""
""fullscreenenter"",""1"",""1440""
","
","","","","","","438.5999999642372","<p> On every trial, you will see an image. </p><p> The image may be an OLD image you saw during the games last week or it may be a NEW image that was not presented. </p>","","0","instructions","","",""
"learning-instructions","12","59431","0.0-9.0-0.3","6254","approach_avoid_sv1","""event"",""trial"",""time""
""fullscreenenter"",""1"",""1440""
","
","
","""event"",""trial"",""time""
""fullscreenenter"",""1"",""1440""
","
","","","","","","409.9000000357628","<p> You need to select whether the image is:  </p><p>  'Definitely old', 'Maybe old', 'Maybe new', or 'Definitely new.'  </p><div class=""mem-choice-instructions-grid""><div class=""choice-option"" id=""choice-option-1"" ><img src=""images/definitely_old_1.png"" id=""choice-option-img-1"" class=""choice-option-img"" stage=""1""></div><div class=""choice-option"" id=""choice-option-2"" ><img src=""images/maybe_old_1.png"" id=""choice-option-img-2"" class=""choice-option-img"" stage=""1""></div><div class=""choice-option"" id=""choice-option-3"" ><img src=""images/maybe_new_1.png"" id=""choice-option-img-3"" class=""choice-option-img"" stage=""1""></div><div class=""choice-option"" id=""choice-option-4"" > <img src=""images/definitely_new_1.png"" id=""choice-option-img-4"" class=""choice-option-img"" stage=""1""></div></div>","","0","instructions","","",""
"learning-instructions","13","66315","0.0-9.0-0.4","6254","approach_avoid_sv1","""event"",""trial"",""time""
""fullscreenenter"",""1"",""1440""
","
","
","""event"",""trial"",""time""
""fullscreenenter"",""1"",""1440""
","
","","","","","","369.7999999523163","<p> You should use the 1, 2, 3, and 4 keys to make your responses.  </p><div class=""mem-choice-instructions-grid""><div class=""choice-option"" id=""choice-option-1"" ><img src=""images/definitely_old.png"" id=""choice-option-img-1"" class=""choice-option-img"" stage=""1""></div><div class=""choice-option"" id=""choice-option-2"" ><img src=""images/maybe_old.png"" id=""choice-option-img-2"" class=""choice-option-img"" stage=""1""></div><div class=""choice-option"" id=""choice-option-3"" ><img src=""images/maybe_new.png"" id=""choice-option-img-3"" class=""choice-option-img"" stage=""1""></div><div class=""choice-option"" id=""choice-option-4"" > <img src=""images/definitely_new.png"" id=""choice-option-img-4"" class=""choice-option-img"" stage=""1""></div></div>","","0","instructions","","",""
"learning-instructions","14","73053","0.0-9.0-0.5","6254","approach_avoid_sv1","""event"",""trial"",""time""
""fullscreenenter"",""1"",""1440""
","
","
","""event"",""trial"",""time""
""fullscreenenter"",""1"",""1440""
","
","","","","","","408.60000002384186","<p> You will have 10 seconds to make each response.  </p><p>  Make sure to respond before time runs out! </p>","","0","instructions","","",""
"learning-instructions","15","80501","0.0-9.0-0.6","6254","approach_avoid_sv1","""event"",""trial"",""time""
""fullscreenenter"",""1"",""1440""
","
","
","""event"",""trial"",""time""
""fullscreenenter"",""1"",""1440""
","
","","","","","","374.80000001192093","<p> Today, you will see each image ONCE only.  </p><p>  That means none of the images will repeat. </p>","","0","instructions","","",""
"learning-instructions","16","93591","0.0-9.0-0.7","6254","approach_avoid_sv1","""event"",""trial"",""time""
""fullscreenenter"",""1"",""1440""
","
","
","""event"",""trial"",""time""
""fullscreenenter"",""1"",""1440""
","
","","","","","","420.5","<p> Before you play the real game, it is time to practice. </p><p>  Just like in the real game, some of the images in the practice will be ones you have seen before. </p><p>  Others will be entirely new. </p>","","0","instructions","","",""
"html-button-response","17","96054","0.0-10.0","6254","approach_avoid_sv1","""event"",""trial"",""time""
""fullscreenenter"",""1"",""1440""
","
","
","""event"",""trial"",""time""
""fullscreenenter"",""1"",""1440""
","
","","","","","","2354.099999964237","<p> Ready to practice? </p><p> Remember, use the 1, 2, 3, and 4 keys to make your responses. </p>","0","","instructions","","",""
"html-keyboard-response","18","96662","0.0-11.0-0.0","6254","approach_avoid_sv1","""event"",""trial"",""time""
""fullscreenenter"",""1"",""1440""
","
","
","""event"",""trial"",""time""
""fullscreenenter"",""1"",""1440""
","
","","","","","","null","<div style=""font-size:60px;"">+</div>","null","","fixation","","",""
"memory-trial","19","100727","0.0-11.0-1.0","6254","approach_avoid_sv1","""event"",""trial"",""time""
""fullscreenenter"",""1"",""1440""
","
","
","""event"",""trial"",""time""
""fullscreenenter"",""1"",""1440""
","
","","","","","","3054.099999964237","images/racket2.png","","","practice","4","definitely_new",""
"html-keyboard-response","20","101234","0.0-11.0-0.1","6254","approach_avoid_sv1","""event"",""trial"",""time""
""fullscreenenter"",""1"",""1440""
","
","
","""event"",""trial"",""time""
""fullscreenenter"",""1"",""1440""
","
","","","","","","null","<div style=""font-size:60px;"">+</div>","null","","fixation","","",""
"memory-trial","21","103350","0.0-11.0-1.1","6254","approach_avoid_sv1","""event"",""trial"",""time""
""fullscreenenter"",""1"",""1440""
","
","
","""event"",""trial"",""time""
""fullscreenenter"",""1"",""1440""
","
","","","","","","1108.5999999642372","images/racket1.png","","","practice","4","definitely_new",""
"html-keyboard-response","22","103861","0.0-11.0-0.2","6254","approach_avoid_sv1","""event"",""trial"",""time""
""fullscreenenter"",""1"",""1440""
","
","
","""event"",""trial"",""time""
""fullscreenenter"",""1"",""1440""
","
","","","","","","null","<div style=""font-size:60px;"">+</div>","null","","fixation","","",""
"memory-trial","23","106133","0.0-11.0-1.2","6254","approach_avoid_sv1","""event"",""trial"",""time""
""fullscreenenter"",""1"",""1440""
","
","
","""event"",""trial"",""time""
""fullscreenenter"",""1"",""1440""
","
","","","","","","1266","images/ball2.png","","","practice","1","definitely_old",""
"html-keyboard-response","24","106646","0.0-11.0-0.3","6254","approach_avoid_sv1","""event"",""trial"",""time""
""fullscreenenter"",""1"",""1440""
","
","
","""event"",""trial"",""time""
""fullscreenenter"",""1"",""1440""
","
","","","","","","null","<div style=""font-size:60px;"">+</div>","null","","fixation","","",""
"memory-trial","25","108980","0.0-11.0-1.3","6254","approach_avoid_sv1","""event"",""trial"",""time""
""fullscreenenter"",""1"",""1440""
","
","
","""event"",""trial"",""time""
""fullscreenenter"",""1"",""1440""
","
","","","","","","1325.8999999761581","images/ball1.png","","","practice","1","definitely_old",""
"html-keyboard-response","26","109487","0.0-11.0-0.4","6254","approach_avoid_sv1","""event"",""trial"",""time""
""fullscreenenter"",""1"",""1440""
","
","
","""event"",""trial"",""time""
""fullscreenenter"",""1"",""1440""
","
","","","","","","null","<div style=""font-size:60px;"">+</div>","null","","fixation","","",""
"memory-trial","27","111547","0.0-11.0-1.4","6254","approach_avoid_sv1","""event"",""trial"",""time""
""fullscreenenter"",""1"",""1440""
","
","
","""event"",""trial"",""time""
""fullscreenenter"",""1"",""1440""
","
","","","","","","1054.2000000476837","images/ball3.png","","","practice","1","definitely_old",""
"html-keyboard-response","28","112053","0.0-11.0-0.5","6254","approach_avoid_sv1","""event"",""trial"",""time""
""fullscreenenter"",""1"",""1440""
","
","
","""event"",""trial"",""time""
""fullscreenenter"",""1"",""1440""
","
","","","","","","null","<div style=""font-size:60px;"">+</div>","null","","fixation","","",""
"memory-trial","29","114085","0.0-11.0-1.5","6254","approach_avoid_sv1","""event"",""trial"",""time""
""fullscreenenter"",""1"",""1440""
","
","
","""event"",""trial"",""time""
""fullscreenenter"",""1"",""1440""
","
","","","","","","1025","images/ball5.png","","","practice","1","definitely_old",""
"html-keyboard-response","30","114596","0.0-11.0-0.6","6254","approach_avoid_sv1","""event"",""trial"",""time""
""fullscreenenter"",""1"",""1440""
","
","
","""event"",""trial"",""time""
""fullscreenenter"",""1"",""1440""
","
","","","","","","null","<div style=""font-size:60px;"">+</div>","null","","fixation","","",""
"memory-trial","31","117695","0.0-11.0-1.6","6254","approach_avoid_sv1","""event"",""trial"",""time""
""fullscreenenter"",""1"",""1440""
","
","
","""event"",""trial"",""time""
""fullscreenenter"",""1"",""1440""
","
","","","","","","2090.800000011921","images/racket5.png","","","practice","3","maybe_new",""
"html-keyboard-response","32","118203","0.0-11.0-0.7","6254","approach_avoid_sv1","""event"",""trial"",""time""
""fullscreenenter"",""1"",""1440""
","
","
","""event"",""trial"",""time""
""fullscreenenter"",""1"",""1440""
","
","","","","","","null","<div style=""font-size:60px;"">+</div>","null","","fixation","","",""
"memory-trial","33","120563","0.0-11.0-1.7","6254","approach_avoid_sv1","""event"",""trial"",""time""
""fullscreenenter"",""1"",""1440""
","
","
","""event"",""trial"",""time""
""fullscreenenter"",""1"",""1440""
","
","","","","","","1353.8999999761581","images/racket3.png","","","practice","1","definitely_old",""
"learning-instructions","34","128298","0.0-12.0-0.0","6254","approach_avoid_sv1","""event"",""trial"",""time""
""fullscreenenter"",""1"",""1440""
","
","
","""event"",""trial"",""time""
""fullscreenenter"",""1"",""1440""
","
","","","","","","427.39999997615814","<p> Great! You have completed the practice. </p><p> Before you start, we're going to ask you a few questions about how the game works.  </p>","","0","instructions","","",""
"preload","35","133753","0.0-13.0","6254","approach_avoid_sv1","""event"",""trial"",""time""
""fullscreenenter"",""1"",""1440""
","
","
","""event"",""trial"",""time""
""fullscreenenter"",""1"",""1440""
","
","true","false","[]","[]","[]","","","","","","","",""
"comp-q","36","140248","0.0-14.0-0.0","6254","approach_avoid_sv1","""event"",""trial"",""time""
""fullscreenenter"",""1"",""1440""
","
","
","""event"",""trial"",""time""
""fullscreenenter"",""1"",""1440""
","
","","","","","","669.0999999642372","<p> <b> True or False? </b> </p><p> In this game, you will only see each image once. </p>","","0","comp_question","","","true"
"comp-q","37","148119","0.0-14.0-1.0","6254","approach_avoid_sv1","""event"",""trial"",""time""
""fullscreenenter"",""1"",""1440""
","
","
","""event"",""trial"",""time""
""fullscreenenter"",""1"",""1440""
","
","","","","","","1532.800000011921","<p> <b> That's right! </b> You will see many different images <i> one time each </i> in this game. </p>","","0","comp_answer","","",""
"comp-q","38","154488","0.0-15.0-0.0","6254","approach_avoid_sv1","""event"",""trial"",""time""
""fullscreenenter"",""1"",""1440""
","
","
","""event"",""trial"",""time""
""fullscreenenter"",""1"",""1440""
","
","","","","","","1354.8999999761581","<p> <b> True or False? </b> </p><p> You should use the mouse and click to make your response. </p>","","1","comp_question","","","true"
"comp-q","39","163496","0.0-15.0-1.0","6254","approach_avoid_sv1","""event"",""trial"",""time""
""fullscreenenter"",""1"",""1440""
","
","
","""event"",""trial"",""time""
""fullscreenenter"",""1"",""1440""
","
","","","","","","2509.100000023842","<p><b> That's right! </b> You should use the '1', '2', '3', and '4' keys to make your response. </p>","","0","comp_answer","","",""
"comp-q","40","169632","0.0-16.0-0.0","6254","approach_avoid_sv1","""event"",""trial"",""time""
""fullscreenenter"",""1"",""1440""
","
","
","""event"",""trial"",""time""
""fullscreenenter"",""1"",""1440""
","
","","","","","","454.60000002384186","<p> <b> True or False? </b> </p><p> You will have as much time as you want to make each choice. </p>","","1","comp_question","","","true"
"comp-q","41","174949","0.0-16.0-1.0","6254","approach_avoid_sv1","""event"",""trial"",""time""
""fullscreenenter"",""1"",""1440""
","
","
","""event"",""trial"",""time""
""fullscreenenter"",""1"",""1440""
","
","","","","","","618.1999999880791","<p> <b> That's right! </b> You will only have 10 seconds to make each choice. </p>","","0","comp_answer","","",""
"learning-instructions","42","184345","0.0-17.0","6254","approach_avoid_sv1","""event"",""trial"",""time""
""fullscreenenter"",""1"",""1440""
","
","
","""event"",""trial"",""time""
""fullscreenenter"",""1"",""1440""
","
","","","","","","720.4000000357628","<p> Great! You are now ready to begin the game. </p><p> Remember, use the 1, 2, 3, and 4 keys to make your responses. </p>","","0","instructions","","",""
"html-keyboard-response","43","184955","0.0-18.0-0.0","6254","approach_avoid_sv1","""event"",""trial"",""time""
""fullscreenenter"",""1"",""1440""
","
","
","""event"",""trial"",""time""
""fullscreenenter"",""1"",""1440""
","
","","","","","","null","<div style=""font-size:60px;"">+</div>","null","","fixation","","",""
"memory-trial","44","187289","0.0-18.0-1.0","6254","approach_avoid_sv1","""event"",""trial"",""time""
""fullscreenenter"",""1"",""1440""
","
","
","""event"",""trial"",""time""
""fullscreenenter"",""1"",""1440""
","
","","","","","","1329.5","images/banana6.png","","","memory_trial","4","definitely_new",""
"html-keyboard-response","45","187796","0.0-18.0-0.1","6254","approach_avoid_sv1","""event"",""trial"",""time""
""fullscreenenter"",""1"",""1440""
","
","
","""event"",""trial"",""time""
""fullscreenenter"",""1"",""1440""
","
","","","","","","null","<div style=""font-size:60px;"">+</div>","null","","fixation","","",""
"memory-trial","46","189835","0.0-18.0-1.1","6254","approach_avoid_sv1","""event"",""trial"",""time""
""fullscreenenter"",""1"",""1440""
","
","
","""event"",""trial"",""time""
""fullscreenenter"",""1"",""1440""
","
","","","","","","1033","images/horse5.png","","","memory_trial","1","definitely_old",""
"html-keyboard-response","47","190337","0.0-18.0-0.2","6254","approach_avoid_sv1","""event"",""trial"",""time""
""fullscreenenter"",""1"",""1440""
","
","
","""event"",""trial"",""time""
""fullscreenenter"",""1"",""1440""
","
","","","","","","null","<div style=""font-size:60px;"">+</div>","null","","fixation","","",""
"memory-trial","48","192691","0.0-18.0-1.2","6254","approach_avoid_sv1","""event"",""trial"",""time""
""fullscreenenter"",""1"",""1440""
","
","
","""event"",""trial"",""time""
""fullscreenenter"",""1"",""1440""
","
","","","","","","1347.8999999761581","images/apple6.png","","","memory_trial","2","maybe_old",""
"html-keyboard-response","49","193197","0.0-18.0-0.3","6254","approach_avoid_sv1","""event"",""trial"",""time""
""fullscreenenter"",""1"",""1440""
","
","
","""event"",""trial"",""time""
""fullscreenenter"",""1"",""1440""
","
","","","","","","null","<div style=""font-size:60px;"">+</div>","null","","fixation","","",""
"memory-trial","50","195045","0.0-18.0-1.3","6254","approach_avoid_sv1","""event"",""trial"",""time""
""fullscreenenter"",""1"",""1440""
","
","
","""event"",""trial"",""time""
""fullscreenenter"",""1"",""1440""
","
","","","","","","839.0999999642372","images/apple8.png","","","memory_trial","1","definitely_old",""
"html-keyboard-response","51","195553","0.0-18.0-0.4","6254","approach_avoid_sv1","""event"",""trial"",""time""
""fullscreenenter"",""1"",""1440""
","
","
","""event"",""trial"",""time""
""fullscreenenter"",""1"",""1440""
","
","","","","","","null","<div style=""font-size:60px;"">+</div>","null","","fixation","","",""
"memory-trial","52","197756","0.0-18.0-1.4","6254","approach_avoid_sv1","""event"",""trial"",""time""
""fullscreenenter"",""1"",""1440""
","
","
","""event"",""trial"",""time""
""fullscreenenter"",""1"",""1440""
","
","","","","","","1196.300000011921","images/sofa1.png","","","memory_trial","3","maybe_new",""
"html-keyboard-response","53","198265","0.0-18.0-0.5","6254","approach_avoid_sv1","""event"",""trial"",""time""
""fullscreenenter"",""1"",""1440""
","
","
","""event"",""trial"",""time""
""fullscreenenter"",""1"",""1440""
","
","","","","","","null","<div style=""font-size:60px;"">+</div>","null","","fixation","","",""
"memory-trial","54","200097","0.0-18.0-1.5","6254","approach_avoid_sv1","""event"",""trial"",""time""
""fullscreenenter"",""1"",""1440""
","
","
","""event"",""trial"",""time""
""fullscreenenter"",""1"",""1440""
","
","","","","","","827.5","images/bush3.png","","","memory_trial","1","definitely_old",""
"html-keyboard-response","55","200601","0.0-18.0-0.6","6254","approach_avoid_sv1","""event"",""trial"",""time""
""fullscreenenter"",""1"",""1440""
","
","
","""event"",""trial"",""time""
""fullscreenenter"",""1"",""1440""
","
","","","","","","null","<div style=""font-size:60px;"">+</div>","null","","fixation","","",""
"memory-trial","56","202812","0.0-18.0-1.6","6254","approach_avoid_sv1","""event"",""trial"",""time""
""fullscreenenter"",""1"",""1440""
","
","
","""event"",""trial"",""time""
""fullscreenenter"",""1"",""1440""
","
","","","","","","1197.1000000238419","images/rabbit5.png","","","memory_trial","2","maybe_old",""
"html-keyboard-response","57","203320","0.0-18.0-0.7","6254","approach_avoid_sv1","""event"",""trial"",""time""
""fullscreenenter"",""1"",""1440""
","
","
","""event"",""trial"",""time""
""fullscreenenter"",""1"",""1440""
","
","","","","","","null","<div style=""font-size:60px;"">+</div>","null","","fixation","","",""
"memory-trial","58","205753","0.0-18.0-1.7","6254","approach_avoid_sv1","""event"",""trial"",""time""
""fullscreenenter"",""1"",""1440""
","
","
","""event"",""trial"",""time""
""fullscreenenter"",""1"",""1440""
","
","","","","","","1426.1000000238419","images/goat7.png","","","memory_trial","2","maybe_old",""
"html-keyboard-response","59","206257","0.0-18.0-0.8","6254","approach_avoid_sv1","""event"",""trial"",""time""
""fullscreenenter"",""1"",""1440""
","
","
","""event"",""trial"",""time""
""fullscreenenter"",""1"",""1440""
","
","","","","","","null","<div style=""font-size:60px;"">+</div>","null","","fixation","","",""
"memory-trial","60","208189","0.0-18.0-1.8","6254","approach_avoid_sv1","""event"",""trial"",""time""
""fullscreenenter"",""1"",""1440""
","
","
","""event"",""trial"",""time""
""fullscreenenter"",""1"",""1440""
","
","","","","","","917.5","images/orange1.png","","","memory_trial","1","definitely_old",""
"html-keyboard-response","61","208699","0.0-18.0-0.9","6254","approach_avoid_sv1","""event"",""trial"",""time""
""fullscreenenter"",""1"",""1440""
","
","
","""event"",""trial"",""time""
""fullscreenenter"",""1"",""1440""
","
","","","","","","null","<div style=""font-size:60px;"">+</div>","null","","fixation","","",""
"memory-trial","62","210802","0.0-18.0-1.9","6254","approach_avoid_sv1","""event"",""trial"",""time""
""fullscreenenter"",""1"",""1440""
","
","
","""event"",""trial"",""time""
""fullscreenenter"",""1"",""1440""
","
","","","","","","1091.3999999761581","images/bed8.png","","","memory_trial","2","maybe_old",""
"html-keyboard-response","63","211306","0.0-18.0-0.10","6254","approach_avoid_sv1","""event"",""trial"",""time""
""fullscreenenter"",""1"",""1440""
","
","
","""event"",""trial"",""time""
""fullscreenenter"",""1"",""1440""
","
","","","","","","null","<div style=""font-size:60px;"">+</div>","null","","fixation","","",""
"memory-trial","64","213187","0.0-18.0-1.10","6254","approach_avoid_sv1","""event"",""trial"",""time""
""fullscreenenter"",""1"",""1440""
","
","
","""event"",""trial"",""time""
""fullscreenenter"",""1"",""1440""
","
","","","","","","873.6999999880791","images/orange6.png","","","memory_trial","1","definitely_old",""
"html-keyboard-response","65","213708","0.0-18.0-0.11","6254","approach_avoid_sv1","""event"",""trial"",""time""
""fullscreenenter"",""1"",""1440""
","
","
","""event"",""trial"",""time""
""fullscreenenter"",""1"",""1440""
","
","","","","","","null","<div style=""font-size:60px;"">+</div>","null","","fixation","","",""
"memory-trial","66","215721","0.0-18.0-1.11","6254","approach_avoid_sv1","""event"",""trial"",""time""
""fullscreenenter"",""1"",""1440""
","
","
","""event"",""trial"",""time""
""fullscreenenter"",""1"",""1440""
","
","","","","","","1008.8000000119209","images/straw8.png","","","memory_trial","3","maybe_new",""
"html-keyboard-response","67","216224","0.0-18.0-0.12","6254","approach_avoid_sv1","""event"",""trial"",""time""
""fullscreenenter"",""1"",""1440""
","
","
","""event"",""trial"",""time""
""fullscreenenter"",""1"",""1440""
","
","","","","","","null","<div style=""font-size:60px;"">+</div>","null","","fixation","","",""
"memory-trial","68","218320","0.0-18.0-1.12","6254","approach_avoid_sv1","""event"",""trial"",""time""
""fullscreenenter"",""1"",""1440""
","
","
","""event"",""trial"",""time""
""fullscreenenter"",""1"",""1440""
","
","","","","","","1092.300000011921","images/sofa2.png","","","memory_trial","3","maybe_new",""
"html-keyboard-response","69","218825","0.0-18.0-0.13","6254","approach_avoid_sv1","""event"",""trial"",""time""
""fullscreenenter"",""1"",""1440""
","
","
","""event"",""trial"",""time""
""fullscreenenter"",""1"",""1440""
","
","","","","","","null","<div style=""font-size:60px;"">+</div>","null","","fixation","","",""
"memory-trial","70","220884","0.0-18.0-1.13","6254","approach_avoid_sv1","""event"",""trial"",""time""
""fullscreenenter"",""1"",""1440""
","
","
","""event"",""trial"",""time""
""fullscreenenter"",""1"",""1440""
","
","","","","","","1045.3999999761581","images/cow5.png","","","memory_trial","2","maybe_old",""
"html-keyboard-response","71","221396","0.0-18.0-0.14","6254","approach_avoid_sv1","""event"",""trial"",""time""
""fullscreenenter"",""1"",""1440""
","
","
","""event"",""trial"",""time""
""fullscreenenter"",""1"",""1440""
","
","","","","","","null","<div style=""font-size:60px;"">+</div>","null","","fixation","","",""
"memory-trial","72","223649","0.0-18.0-1.14","6254","approach_avoid_sv1","""event"",""trial"",""time""
""fullscreenenter"",""1"",""1440""
","
","
","""event"",""trial"",""time""
""fullscreenenter"",""1"",""1440""
","
","","","","","","1246.8999999761581","images/flower5.png","","","memory_trial","3","maybe_new",""
"html-keyboard-response","73","224154","0.0-18.0-0.15","6254","approach_avoid_sv1","""event"",""trial"",""time""
""fullscreenenter"",""1"",""1440""
","
","
","""event"",""trial"",""time""
""fullscreenenter"",""1"",""1440""
","
","","","","","","null","<div style=""font-size:60px;"">+</div>","null","","fixation","","",""
"memory-trial","74","226458","0.0-18.0-1.15","6254","approach_avoid_sv1","""event"",""trial"",""time""
""fullscreenenter"",""1"",""1440""
","
","
","""event"",""trial"",""time""
""fullscreenenter"",""1"",""1440""
","
","","","","","","1299.300000011921","images/goat8.png","","","memory_trial","2","maybe_old",""
"html-keyboard-response","75","226963","0.0-18.0-0.16","6254","approach_avoid_sv1","""event"",""trial"",""time""
""fullscreenenter"",""1"",""1440""
","
","
","""event"",""trial"",""time""
""fullscreenenter"",""1"",""1440""
","
","","","","","","null","<div style=""font-size:60px;"">+</div>","null","","fixation","","",""
"memory-trial","76","229100","0.0-18.0-1.16","6254","approach_avoid_sv1","""event"",""trial"",""time""
""fullscreenenter"",""1"",""1440""
","
","
","""event"",""trial"",""time""
""fullscreenenter"",""1"",""1440""
","
","","","","","","1128.9000000357628","images/banana8.png","","","memory_trial","3","maybe_new",""
"html-keyboard-response","77","229610","0.0-18.0-0.17","6254","approach_avoid_sv1","""event"",""trial"",""time""
""fullscreenenter"",""1"",""1440""
","
","
","""event"",""trial"",""time""
""fullscreenenter"",""1"",""1440""
","
","","","","","","null","<div style=""font-size:60px;"">+</div>","null","","fixation","","",""
"memory-trial","78","231642","0.0-18.0-1.17","6254","approach_avoid_sv1","""event"",""trial"",""time""
""fullscreenenter"",""1"",""1440""
","
","
","""event"",""trial"",""time""
""fullscreenenter"",""1"",""1440""
","
","","","","","","1022.6999999880791","images/boat4.png","","","memory_trial","3","maybe_new",""
"html-keyboard-response","79","232147","0.0-18.0-0.18","6254","approach_avoid_sv1","""event"",""trial"",""time""
""fullscreenenter"",""1"",""1440""
","
","
","""event"",""trial"",""time""
""fullscreenenter"",""1"",""1440""
","
","","","","","","null","<div style=""font-size:60px;"">+</div>","null","","fixation","","",""
"memory-trial","80","234058","0.0-18.0-1.18","6254","approach_avoid_sv1","""event"",""trial"",""time""
""fullscreenenter"",""1"",""1440""
","
","
","""event"",""trial"",""time""
""fullscreenenter"",""1"",""1440""
","
","","","","","","899.3000000119209","images/sofa5.png","","","memory_trial","3","maybe_new",""
"html-keyboard-response","81","234562","0.0-18.0-0.19","6254","approach_avoid_sv1","""event"",""trial"",""time""
""fullscreenenter"",""1"",""1440""
","
","
","""event"",""trial"",""time""
""fullscreenenter"",""1"",""1440""
","
","","","","","","null","<div style=""font-size:60px;"">+</div>","null","","fixation","","",""
"memory-trial","82","236321","0.0-18.0-1.19","6254","approach_avoid_sv1","""event"",""trial"",""time""
""fullscreenenter"",""1"",""1440""
","
","
","""event"",""trial"",""time""
""fullscreenenter"",""1"",""1440""
","
","","","","","","755.1999999880791","images/bush4.png","","","memory_trial","3","maybe_new",""
"html-keyboard-response","83","236826","0.0-18.0-0.20","6254","approach_avoid_sv1","""event"",""trial"",""time""
""fullscreenenter"",""1"",""1440""
","
","
","""event"",""trial"",""time""
""fullscreenenter"",""1"",""1440""
","
","","","","","","null","<div style=""font-size:60px;"">+</div>","null","","fixation","","",""
"memory-trial","84","238747","0.0-18.0-1.20","6254","approach_avoid_sv1","""event"",""trial"",""time""
""fullscreenenter"",""1"",""1440""
","
","
","""event"",""trial"",""time""
""fullscreenenter"",""1"",""1440""
","
","","","","","","914.3000000119209","images/plane3.png","","","memory_trial","3","maybe_new",""
"html-keyboard-response","85","239258","0.0-18.0-0.21","6254","approach_avoid_sv1","""event"",""trial"",""time""
""fullscreenenter"",""1"",""1440""
","
","
","""event"",""trial"",""time""
""fullscreenenter"",""1"",""1440""
","
","","","","","","null","<div style=""font-size:60px;"">+</div>","null","","fixation","","",""
"memory-trial","86","241371","0.0-18.0-1.21","6254","approach_avoid_sv1","""event"",""trial"",""time""
""fullscreenenter"",""1"",""1440""
","
","
","""event"",""trial"",""time""
""fullscreenenter"",""1"",""1440""
","
","","","","","","1102","images/plane2.png","","","memory_trial","1","definitely_old",""
"html-keyboard-response","87","241882","0.0-18.0-0.22","6254","approach_avoid_sv1","""event"",""trial"",""time""
""fullscreenenter"",""1"",""1440""
","
","
","""event"",""trial"",""time""
""fullscreenenter"",""1"",""1440""
","
","","","","","","null","<div style=""font-size:60px;"">+</div>","null","","fixation","","",""
"memory-trial","88","243804","0.0-18.0-1.22","6254","approach_avoid_sv1","""event"",""trial"",""time""
""fullscreenenter"",""1"",""1440""
","
","
","""event"",""trial"",""time""
""fullscreenenter"",""1"",""1440""
","
","","","","","","908.3000000119209","images/tree3.png","","","memory_trial","3","maybe_new",""
"html-keyboard-response","89","244314","0.0-18.0-0.23","6254","approach_avoid_sv1","""event"",""trial"",""time""
""fullscreenenter"",""1"",""1440""
","
","
","""event"",""trial"",""time""
""fullscreenenter"",""1"",""1440""
","
","","","","","","null","<div style=""font-size:60px;"">+</div>","null","","fixation","","",""
"memory-trial","90","246584","0.0-18.0-1.23","6254","approach_avoid_sv1","""event"",""trial"",""time""
""fullscreenenter"",""1"",""1440""
","
","
","""event"",""trial"",""time""
""fullscreenenter"",""1"",""1440""
","
","","","","","","1259.800000011921","images/banana4.png","","","memory_trial","3","maybe_new",""
"html-keyboard-response","91","247088","0.0-18.0-0.24","6254","approach_avoid_sv1","""event"",""trial"",""time""
""fullscreenenter"",""1"",""1440""
","
","
","""event"",""trial"",""time""
""fullscreenenter"",""1"",""1440""
","
","","","","","","null","<div style=""font-size:60px;"">+</div>","null","","fixation","","",""
"memory-trial","92","249161","0.0-18.0-1.24","6254","approach_avoid_sv1","""event"",""trial"",""time""
""fullscreenenter"",""1"",""1440""
","
","
","""event"",""trial"",""time""
""fullscreenenter"",""1"",""1440""
","
","","","","","","1067.2000000476837","images/truck4.png","","","memory_trial","3","maybe_new",""
"html-keyboard-response","93","249666","0.0-18.0-0.25","6254","approach_avoid_sv1","""event"",""trial"",""time""
""fullscreenenter"",""1"",""1440""
","
","
","""event"",""trial"",""time""
""fullscreenenter"",""1"",""1440""
","
","","","","","","null","<div style=""font-size:60px;"">+</div>","null","","fixation","","",""
"memory-trial","94","251779","0.0-18.0-1.25","6254","approach_avoid_sv1","""event"",""trial"",""time""
""fullscreenenter"",""1"",""1440""
","
","
","""event"",""trial"",""time""
""fullscreenenter"",""1"",""1440""
","
","","","","","","1105.699999988079","images/sheep8.png","","","memory_trial","3","maybe_new",""
"html-keyboard-response","95","252290","0.0-18.0-0.26","6254","approach_avoid_sv1","""event"",""trial"",""time""
""fullscreenenter"",""1"",""1440""
","
","
","""event"",""trial"",""time""
""fullscreenenter"",""1"",""1440""
","
","","","","","","null","<div style=""font-size:60px;"">+</div>","null","","fixation","","",""
"memory-trial","96","254313","0.0-18.0-1.26","6254","approach_avoid_sv1","""event"",""trial"",""time""
""fullscreenenter"",""1"",""1440""
","
","
","""event"",""trial"",""time""
""fullscreenenter"",""1"",""1440""
","
","","","","","","1017.5","images/table6.png","","","memory_trial","2","maybe_old",""
"html-keyboard-response","97","254819","0.0-18.0-0.27","6254","approach_avoid_sv1","""event"",""trial"",""time""
""fullscreenenter"",""1"",""1440""
","
","
","""event"",""trial"",""time""
""fullscreenenter"",""1"",""1440""
","
","","","","","","null","<div style=""font-size:60px;"">+</div>","null","","fixation","","",""
"memory-trial","98","256754","0.0-18.0-1.27","6254","approach_avoid_sv1","""event"",""trial"",""time""
""fullscreenenter"",""1"",""1440""
","
","
","""event"",""trial"",""time""
""fullscreenenter"",""1"",""1440""
","
","","","","","","927.8999999761581","images/truck5.png","","","memory_trial","3","maybe_new",""
"html-keyboard-response","99","257259","0.0-18.0-0.28","6254","approach_avoid_sv1","""event"",""trial"",""time""
""fullscreenenter"",""1"",""1440""
","
","
","""event"",""trial"",""time""
""fullscreenenter"",""1"",""1440""
","
","","","","","","null","<div style=""font-size:60px;"">+</div>","null","","fixation","","",""
"memory-trial","100","259280","0.0-18.0-1.28","6254","approach_avoid_sv1","""event"",""trial"",""time""
""fullscreenenter"",""1"",""1440""
","
","
","""event"",""trial"",""time""
""fullscreenenter"",""1"",""1440""
","
","","","","","","1015.6999999880791","images/cow6.png","","","memory_trial","1","definitely_old",""
"html-keyboard-response","101","259784","0.0-18.0-0.29","6254","approach_avoid_sv1","""event"",""trial"",""time""
""fullscreenenter"",""1"",""1440""
","
","
","""event"",""trial"",""time""
""fullscreenenter"",""1"",""1440""
","
","","","","","","null","<div style=""font-size:60px;"">+</div>","null","","fixation","","",""
"memory-trial","102","261595","0.0-18.0-1.29","6254","approach_avoid_sv1","""event"",""trial"",""time""
""fullscreenenter"",""1"",""1440""
","
","
","""event"",""trial"",""time""
""fullscreenenter"",""1"",""1440""
","
","","","","","","803.3000000119209","images/sofa8.png","","","memory_trial","3","maybe_new",""
"html-keyboard-response","103","262100","0.0-18.0-0.30","6254","approach_avoid_sv1","""event"",""trial"",""time""
""fullscreenenter"",""1"",""1440""
","
","
","""event"",""trial"",""time""
""fullscreenenter"",""1"",""1440""
","
","","","","","","null","<div style=""font-size:60px;"">+</div>","null","","fixation","","",""
"memory-trial","104","264248","0.0-18.0-1.30","6254","approach_avoid_sv1","""event"",""trial"",""time""
""fullscreenenter"",""1"",""1440""
","
","
","""event"",""trial"",""time""
""fullscreenenter"",""1"",""1440""
","
","","","","","","1143.5","images/bush2.png","","","memory_trial","2","maybe_old",""
"html-keyboard-response","105","264755","0.0-18.0-0.31","6254","approach_avoid_sv1","""event"",""trial"",""time""
""fullscreenenter"",""1"",""1440""
","
","
","""event"",""trial"",""time""
""fullscreenenter"",""1"",""1440""
","
","","","","","","null","<div style=""font-size:60px;"">+</div>","null","","fixation","","",""
"memory-trial","106","266779","0.0-18.0-1.31","6254","approach_avoid_sv1","""event"",""trial"",""time""
""fullscreenenter"",""1"",""1440""
","
","
","""event"",""trial"",""time""
""fullscreenenter"",""1"",""1440""
","
","","","","","","1016.8000000119209","images/dog8.png","","","memory_trial","3","maybe_new",""
"html-keyboard-response","107","267290","0.0-18.0-0.32","6254","approach_avoid_sv1","""event"",""trial"",""time""
""fullscreenenter"",""1"",""1440""
","
","
","""event"",""trial"",""time""
""fullscreenenter"",""1"",""1440""
","
","","","","","","null","<div style=""font-size:60px;"">+</div>","null","","fixation","","",""
"memory-trial","108","269196","0.0-18.0-1.32","6254","approach_avoid_sv1","""event"",""trial"",""time""
""fullscreenenter"",""1"",""1440""
","
","
","""event"",""trial"",""time""
""fullscreenenter"",""1"",""1440""
","
","","","","","","890.7000000476837","images/truck1.png","","","memory_trial","3","maybe_new",""
"html-keyboard-response","109","269704","0.0-18.0-0.33","6254","approach_avoid_sv1","""event"",""trial"",""time""
""fullscreenenter"",""1"",""1440""
","
","
","""event"",""trial"",""time""
""fullscreenenter"",""1"",""1440""
","
","","","","","","null","<div style=""font-size:60px;"">+</div>","null","","fixation","","",""
"memory-trial","110","271696","0.0-18.0-1.33","6254","approach_avoid_sv1","""event"",""trial"",""time""
""fullscreenenter"",""1"",""1440""
","
","
","""event"",""trial"",""time""
""fullscreenenter"",""1"",""1440""
","
","","","","","","987.2000000476837","images/cat2.png","","","memory_trial","1","definitely_old",""
"html-keyboard-response","111","272201","0.0-18.0-0.34","6254","approach_avoid_sv1","""event"",""trial"",""time""
""fullscreenenter"",""1"",""1440""
","
","
","""event"",""trial"",""time""
""fullscreenenter"",""1"",""1440""
","
","","","","","","null","<div style=""font-size:60px;"">+</div>","null","","fixation","","",""
"memory-trial","112","274580","0.0-18.0-1.34","6254","approach_avoid_sv1","""event"",""trial"",""time""
""fullscreenenter"",""1"",""1440""
","
","
","""event"",""trial"",""time""
""fullscreenenter"",""1"",""1440""
","
","","","","","","1368.699999988079","images/bed1.png","","","memory_trial","2","maybe_old",""
"html-keyboard-response","113","275092","0.0-18.0-0.35","6254","approach_avoid_sv1","""event"",""trial"",""time""
""fullscreenenter"",""1"",""1440""
","
","
","""event"",""trial"",""time""
""fullscreenenter"",""1"",""1440""
","
","","","","","","null","<div style=""font-size:60px;"">+</div>","null","","fixation","","",""
"memory-trial","114","277176","0.0-18.0-1.35","6254","approach_avoid_sv1","""event"",""trial"",""time""
""fullscreenenter"",""1"",""1440""
","
","
","""event"",""trial"",""time""
""fullscreenenter"",""1"",""1440""
","
","","","","","","1081","images/bush6.png","","","memory_trial","4","definitely_new",""
"html-keyboard-response","115","277681","0.0-18.0-0.36","6254","approach_avoid_sv1","""event"",""trial"",""time""
""fullscreenenter"",""1"",""1440""
","
","
","""event"",""trial"",""time""
""fullscreenenter"",""1"",""1440""
","
","","","","","","null","<div style=""font-size:60px;"">+</div>","null","","fixation","","",""
"memory-trial","116","279643","0.0-18.0-1.36","6254","approach_avoid_sv1","""event"",""trial"",""time""
""fullscreenenter"",""1"",""1440""
","
","
","""event"",""trial"",""time""
""fullscreenenter"",""1"",""1440""
","
","","","","","","953.4000000357628","images/chair5.png","","","memory_trial","2","maybe_old",""
"html-keyboard-response","117","280154","0.0-18.0-0.37","6254","approach_avoid_sv1","""event"",""trial"",""time""
""fullscreenenter"",""1"",""1440""
","
","
","""event"",""trial"",""time""
""fullscreenenter"",""1"",""1440""
","
","","","","","","null","<div style=""font-size:60px;"">+</div>","null","","fixation","","",""
"memory-trial","118","282139","0.0-18.0-1.37","6254","approach_avoid_sv1","""event"",""trial"",""time""
""fullscreenenter"",""1"",""1440""
","
","
","""event"",""trial"",""time""
""fullscreenenter"",""1"",""1440""
","
","","","","","","977.6000000238419","images/horse8.png","","","memory_trial","4","definitely_new",""
"html-keyboard-response","119","282641","0.0-18.0-0.38","6254","approach_avoid_sv1","""event"",""trial"",""time""
""fullscreenenter"",""1"",""1440""
","
","
","""event"",""trial"",""time""
""fullscreenenter"",""1"",""1440""
","
","","","","","","null","<div style=""font-size:60px;"">+</div>","null","","fixation","","",""
"memory-trial","120","284513","0.0-18.0-1.38","6254","approach_avoid_sv1","""event"",""trial"",""time""
""fullscreenenter"",""1"",""1440""
","
","
","""event"",""trial"",""time""
""fullscreenenter"",""1"",""1440""
","
","","","","","","866.2000000476837","images/dog5.png","","","memory_trial","3","maybe_new",""
"html-keyboard-response","121","285018","0.0-18.0-0.39","6254","approach_avoid_sv1","""event"",""trial"",""time""
""fullscreenenter"",""1"",""1440""
","
","
","""event"",""trial"",""time""
""fullscreenenter"",""1"",""1440""
","
","","","","","","null","<div style=""font-size:60px;"">+</div>","null","","fixation","","",""
"memory-trial","122","287131","0.0-18.0-1.39","6254","approach_avoid_sv1","""event"",""trial"",""time""
""fullscreenenter"",""1"",""1440""
","
","
","""event"",""trial"",""time""
""fullscreenenter"",""1"",""1440""
","
","","","","","","1105.199999988079","images/sheep3.png","","","memory_trial","3","maybe_new",""
"html-keyboard-response","123","287642","0.0-18.0-0.40","6254","approach_avoid_sv1","""event"",""trial"",""time""
""fullscreenenter"",""1"",""1440""
","
","
","""event"",""trial"",""time""
""fullscreenenter"",""1"",""1440""
","
","","","","","","null","<div style=""font-size:60px;"">+</div>","null","","fixation","","",""
"memory-trial","124","289458","0.0-18.0-1.40","6254","approach_avoid_sv1","""event"",""trial"",""time""
""fullscreenenter"",""1"",""1440""
","
","
","""event"",""trial"",""time""
""fullscreenenter"",""1"",""1440""
","
","","","","","","808.3000000119209","images/bed6.png","","","memory_trial","3","maybe_new",""
"html-keyboard-response","125","289969","0.0-18.0-0.41","6254","approach_avoid_sv1","""event"",""trial"",""time""
""fullscreenenter"",""1"",""1440""
","
","
","""event"",""trial"",""time""
""fullscreenenter"",""1"",""1440""
","
","","","","","","null","<div style=""font-size:60px;"">+</div>","null","","fixation","","",""
"memory-trial","126","291752","0.0-18.0-1.41","6254","approach_avoid_sv1","""event"",""trial"",""time""
""fullscreenenter"",""1"",""1440""
","
","
","""event"",""trial"",""time""
""fullscreenenter"",""1"",""1440""
","
","","","","","","772.6999999880791","images/bed2.png","","","memory_trial","3","maybe_new",""
"html-button-response","127","414712","0.0-18.0-2.41-0.41","6254","approach_avoid_sv1","""event"",""trial"",""time""
""fullscreenenter"",""1"",""1440""
","
","
","""event"",""trial"",""time""
""fullscreenenter"",""1"",""1440""
","
","","","","","","122960.80000001192","<p> Take a break! </p><p> Click the button to continue. </p>","0","","break","","",""
"html-keyboard-response","128","415216","0.0-18.0-0.42","6254","approach_avoid_sv1","""event"",""trial"",""time""
""fullscreenenter"",""1"",""1440""
","
","
","""event"",""trial"",""time""
""fullscreenenter"",""1"",""1440""
","
","","","","","","null","<div style=""font-size:60px;"">+</div>","null","","fixation","","",""
"memory-trial","129","417498","0.0-18.0-1.42","6254","approach_avoid_sv1","""event"",""trial"",""time""
""fullscreenenter"",""1"",""1440""
","
","
","""event"",""trial"",""time""
""fullscreenenter"",""1"",""1440""
","
","","","","","","1271.800000011921","images/plane6.png","","","memory_trial","3","maybe_new",""
"html-keyboard-response","130","418006","0.0-18.0-0.43","6254","approach_avoid_sv1","""event"",""trial"",""time""
""fullscreenenter"",""1"",""1440""
","
","
","""event"",""trial"",""time""
""fullscreenenter"",""1"",""1440""
","
","","","","","","null","<div style=""font-size:60px;"">+</div>","null","","fixation","","",""
"memory-trial","131","420022","0.0-18.0-1.43","6254","approach_avoid_sv1","""event"",""trial"",""time""
""fullscreenenter"",""1"",""1440""
","
","
","""event"",""trial"",""time""
""fullscreenenter"",""1"",""1440""
","
","","","","","","1012","images/rodent6.png","","","memory_trial","3","maybe_new",""
"html-keyboard-response","132","420528","0.0-18.0-0.44","6254","approach_avoid_sv1","""event"",""trial"",""time""
""fullscreenenter"",""1"",""1440""
","
","
","""event"",""trial"",""time""
""fullscreenenter"",""1"",""1440""
","
","","","","","","null","<div style=""font-size:60px;"">+</div>","null","","fixation","","",""
"memory-trial","133","422345","0.0-18.0-1.44","6254","approach_avoid_sv1","""event"",""trial"",""time""
""fullscreenenter"",""1"",""1440""
","
","
","""event"",""trial"",""time""
""fullscreenenter"",""1"",""1440""
","
","","","","","","809.3000000119209","images/goat6.png","","","memory_trial","3","maybe_new",""
"html-keyboard-response","134","422855","0.0-18.0-0.45","6254","approach_avoid_sv1","""event"",""trial"",""time""
""fullscreenenter"",""1"",""1440""
","
","
","""event"",""trial"",""time""
""fullscreenenter"",""1"",""1440""
","
","","","","","","null","<div style=""font-size:60px;"">+</div>","null","","fixation","","",""
"memory-trial","135","424568","0.0-18.0-1.45","6254","approach_avoid_sv1","""event"",""trial"",""time""
""fullscreenenter"",""1"",""1440""
","
","
","""event"",""trial"",""time""
""fullscreenenter"",""1"",""1440""
","
","","","","","","705.0999999642372","images/straw4.png","","","memory_trial","3","maybe_new",""
"html-keyboard-response","136","425078","0.0-18.0-0.46","6254","approach_avoid_sv1","""event"",""trial"",""time""
""fullscreenenter"",""1"",""1440""
","
","
","""event"",""trial"",""time""
""fullscreenenter"",""1"",""1440""
","
","","","","","","null","<div style=""font-size:60px;"">+</div>","null","","fixation","","",""
"memory-trial","137","427101","0.0-18.0-1.46","6254","approach_avoid_sv1","""event"",""trial"",""time""
""fullscreenenter"",""1"",""1440""
","
","
","""event"",""trial"",""time""
""fullscreenenter"",""1"",""1440""
","
","","","","","","1018.8000000119209","images/cactus1.png","","","memory_trial","2","maybe_old",""
"html-keyboard-response","138","427605","0.0-18.0-0.47","6254","approach_avoid_sv1","""event"",""trial"",""time""
""fullscreenenter"",""1"",""1440""
","
","
","""event"",""trial"",""time""
""fullscreenenter"",""1"",""1440""
","
","","","","","","null","<div style=""font-size:60px;"">+</div>","null","","fixation","","",""
"memory-trial","139","429357","0.0-18.0-1.47","6254","approach_avoid_sv1","""event"",""trial"",""time""
""fullscreenenter"",""1"",""1440""
","
","
","""event"",""trial"",""time""
""fullscreenenter"",""1"",""1440""
","
","","","","","","750","images/orange4.png","","","memory_trial","2","maybe_old",""
"html-keyboard-response","140","429862","0.0-18.0-0.48","6254","approach_avoid_sv1","""event"",""trial"",""time""
""fullscreenenter"",""1"",""1440""
","
","
","""event"",""trial"",""time""
""fullscreenenter"",""1"",""1440""
","
","","","","","","null","<div style=""font-size:60px;"">+</div>","null","","fixation","","",""
"memory-trial","141","431669","0.0-18.0-1.48","6254","approach_avoid_sv1","""event"",""trial"",""time""
""fullscreenenter"",""1"",""1440""
","
","
","""event"",""trial"",""time""
""fullscreenenter"",""1"",""1440""
","
","","","","","","797.6999999880791","images/cow1.png","","","memory_trial","3","maybe_new",""
"html-keyboard-response","142","432173","0.0-18.0-0.49","6254","approach_avoid_sv1","""event"",""trial"",""time""
""fullscreenenter"",""1"",""1440""
","
","
","""event"",""trial"",""time""
""fullscreenenter"",""1"",""1440""
","
","","","","","","null","<div style=""font-size:60px;"">+</div>","null","","fixation","","",""
"memory-trial","143","434024","0.0-18.0-1.49","6254","approach_avoid_sv1","""event"",""trial"",""time""
""fullscreenenter"",""1"",""1440""
","
","
","""event"",""trial"",""time""
""fullscreenenter"",""1"",""1440""
","
","","","","","","837.2000000476837","images/truck7.png","","","memory_trial","3","maybe_new",""
"html-keyboard-response","144","434534","0.0-18.0-0.50","6254","approach_avoid_sv1","""event"",""trial"",""time""
""fullscreenenter"",""1"",""1440""
","
","
","""event"",""trial"",""time""
""fullscreenenter"",""1"",""1440""
","
","","","","","","null","<div style=""font-size:60px;"">+</div>","null","","fixation","","",""
"memory-trial","145","436526","0.0-18.0-1.50","6254","approach_avoid_sv1","""event"",""trial"",""time""
""fullscreenenter"",""1"",""1440""
","
","
","""event"",""trial"",""time""
""fullscreenenter"",""1"",""1440""
","
","","","","","","986.2999999523163","images/plane4.png","","","memory_trial","3","maybe_new",""
"html-keyboard-response","146","437031","0.0-18.0-0.51","6254","approach_avoid_sv1","""event"",""trial"",""time""
""fullscreenenter"",""1"",""1440""
","
","
","""event"",""trial"",""time""
""fullscreenenter"",""1"",""1440""
","
","","","","","","null","<div style=""font-size:60px;"">+</div>","null","","fixation","","",""
"memory-trial","147","438912","0.0-18.0-1.51","6254","approach_avoid_sv1","""event"",""trial"",""time""
""fullscreenenter"",""1"",""1440""
","
","
","""event"",""trial"",""time""
""fullscreenenter"",""1"",""1440""
","
","","","","","","873.3999999761581","images/horse7.png","","","memory_trial","3","maybe_new",""
"html-keyboard-response","148","439422","0.0-18.0-0.52","6254","approach_avoid_sv1","""event"",""trial"",""time""
""fullscreenenter"",""1"",""1440""
","
","
","""event"",""trial"",""time""
""fullscreenenter"",""1"",""1440""
","
","","","","","","null","<div style=""font-size:60px;"">+</div>","null","","fixation","","",""
"memory-trial","149","441222","0.0-18.0-1.52","6254","approach_avoid_sv1","""event"",""trial"",""time""
""fullscreenenter"",""1"",""1440""
","
","
","""event"",""trial"",""time""
""fullscreenenter"",""1"",""1440""
","
","","","","","","793.8000000119209","images/cactus8.png","","","memory_trial","3","maybe_new",""
"html-keyboard-response","150","441727","0.0-18.0-0.53","6254","approach_avoid_sv1","""event"",""trial"",""time""
""fullscreenenter"",""1"",""1440""
","
","
","""event"",""trial"",""time""
""fullscreenenter"",""1"",""1440""
","
","","","","","","null","<div style=""font-size:60px;"">+</div>","null","","fixation","","",""
"memory-trial","151","443817","0.0-18.0-1.53","6254","approach_avoid_sv1","""event"",""trial"",""time""
""fullscreenenter"",""1"",""1440""
","
","
","""event"",""trial"",""time""
""fullscreenenter"",""1"",""1440""
","
","","","","","","1075.699999988079","images/cactus3.png","","","memory_trial","3","maybe_new",""
"html-keyboard-response","152","444328","0.0-18.0-0.54","6254","approach_avoid_sv1","""event"",""trial"",""time""
""fullscreenenter"",""1"",""1440""
","
","
","""event"",""trial"",""time""
""fullscreenenter"",""1"",""1440""
","
","","","","","","null","<div style=""font-size:60px;"">+</div>","null","","fixation","","",""
"memory-trial","153","446005","0.0-18.0-1.54","6254","approach_avoid_sv1","""event"",""trial"",""time""
""fullscreenenter"",""1"",""1440""
","
","
","""event"",""trial"",""time""
""fullscreenenter"",""1"",""1440""
","
","","","","","","673.5","images/tree4.png","","","memory_trial","3","maybe_new",""
"html-keyboard-response","154","446510","0.0-18.0-0.55","6254","approach_avoid_sv1","""event"",""trial"",""time""
""fullscreenenter"",""1"",""1440""
","
","
","""event"",""trial"",""time""
""fullscreenenter"",""1"",""1440""
","
","","","","","","null","<div style=""font-size:60px;"">+</div>","null","","fixation","","",""
"memory-trial","155","448600","0.0-18.0-1.55","6254","approach_avoid_sv1","""event"",""trial"",""time""
""fullscreenenter"",""1"",""1440""
","
","
","""event"",""trial"",""time""
""fullscreenenter"",""1"",""1440""
","
","","","","","","1082.3999999761581","images/banana2.png","","","memory_trial","2","maybe_old",""
"html-keyboard-response","156","449111","0.0-18.0-0.56","6254","approach_avoid_sv1","""event"",""trial"",""time""
""fullscreenenter"",""1"",""1440""
","
","
","""event"",""trial"",""time""
""fullscreenenter"",""1"",""1440""
","
","","","","","","null","<div style=""font-size:60px;"">+</div>","null","","fixation","","",""
"memory-trial","157","451216","0.0-18.0-1.56","6254","approach_avoid_sv1","""event"",""trial"",""time""
""fullscreenenter"",""1"",""1440""
","
","
","""event"",""trial"",""time""
""fullscreenenter"",""1"",""1440""
","
","","","","","","1095.0999999642372","images/rodent1.png","","","memory_trial","1","definitely_old",""
"html-keyboard-response","158","451728","0.0-18.0-0.57","6254","approach_avoid_sv1","""event"",""trial"",""time""
""fullscreenenter"",""1"",""1440""
","
","
","""event"",""trial"",""time""
""fullscreenenter"",""1"",""1440""
","
","","","","","","null","<div style=""font-size:60px;"">+</div>","null","","fixation","","",""
"memory-trial","159","453685","0.0-18.0-1.57","6254","approach_avoid_sv1","""event"",""trial"",""time""
""fullscreenenter"",""1"",""1440""
","
","
","""event"",""trial"",""time""
""fullscreenenter"",""1"",""1440""
","
","","","","","","951.1000000238419","images/goat2.png","","","memory_trial","3","maybe_new",""
"html-keyboard-response","160","454190","0.0-18.0-0.58","6254","approach_avoid_sv1","""event"",""trial"",""time""
""fullscreenenter"",""1"",""1440""
","
","
","""event"",""trial"",""time""
""fullscreenenter"",""1"",""1440""
","
","","","","","","null","<div style=""font-size:60px;"">+</div>","null","","fixation","","",""
"memory-trial","161","455885","0.0-18.0-1.58","6254","approach_avoid_sv1","""event"",""trial"",""time""
""fullscreenenter"",""1"",""1440""
","
","
","""event"",""trial"",""time""
""fullscreenenter"",""1"",""1440""
","
","","","","","","689.5","images/truck3.png","","","memory_trial","3","maybe_new",""
"html-keyboard-response","162","456390","0.0-18.0-0.59","6254","approach_avoid_sv1","""event"",""trial"",""time""
""fullscreenenter"",""1"",""1440""
","
","
","""event"",""trial"",""time""
""fullscreenenter"",""1"",""1440""
","
","","","","","","null","<div style=""font-size:60px;"">+</div>","null","","fixation","","",""
"memory-trial","163","458277","0.0-18.0-1.59","6254","approach_avoid_sv1","""event"",""trial"",""time""
""fullscreenenter"",""1"",""1440""
","
","
","""event"",""trial"",""time""
""fullscreenenter"",""1"",""1440""
","
","","","","","","882.5999999642372","images/truck2.png","","","memory_trial","3","maybe_new",""
"html-keyboard-response","164","458782","0.0-18.0-0.60","6254","approach_avoid_sv1","""event"",""trial"",""time""
""fullscreenenter"",""1"",""1440""
","
","
","""event"",""trial"",""time""
""fullscreenenter"",""1"",""1440""
","
","","","","","","null","<div style=""font-size:60px;"">+</div>","null","","fixation","","",""
"memory-trial","165","460813","0.0-18.0-1.60","6254","approach_avoid_sv1","""event"",""trial"",""time""
""fullscreenenter"",""1"",""1440""
","
","
","""event"",""trial"",""time""
""fullscreenenter"",""1"",""1440""
","
","","","","","","1025.3999999761581","images/flower3.png","","","memory_trial","3","maybe_new",""
"html-keyboard-response","166","461318","0.0-18.0-0.61","6254","approach_avoid_sv1","""event"",""trial"",""time""
""fullscreenenter"",""1"",""1440""
","
","
","""event"",""trial"",""time""
""fullscreenenter"",""1"",""1440""
","
","","","","","","null","<div style=""font-size:60px;"">+</div>","null","","fixation","","",""
"memory-trial","167","463405","0.0-18.0-1.61","6254","approach_avoid_sv1","""event"",""trial"",""time""
""fullscreenenter"",""1"",""1440""
","
","
","""event"",""trial"",""time""
""fullscreenenter"",""1"",""1440""
","
","","","","","","1082.0999999642372","images/apple3.png","","","memory_trial","4","definitely_new",""
"html-keyboard-response","168","463910","0.0-18.0-0.62","6254","approach_avoid_sv1","""event"",""trial"",""time""
""fullscreenenter"",""1"",""1440""
","
","
","""event"",""trial"",""time""
""fullscreenenter"",""1"",""1440""
","
","","","","","","null","<div style=""font-size:60px;"">+</div>","null","","fixation","","",""
"memory-trial","169","465957","0.0-18.0-1.62","6254","approach_avoid_sv1","""event"",""trial"",""time""
""fullscreenenter"",""1"",""1440""
","
","
","""event"",""trial"",""time""
""fullscreenenter"",""1"",""1440""
","
","","","","","","1039.5","images/rabbit4.png","","","memory_trial","1","definitely_old",""
"html-keyboard-response","170","466462","0.0-18.0-0.63","6254","approach_avoid_sv1","""event"",""trial"",""time""
""fullscreenenter"",""1"",""1440""
","
","
","""event"",""trial"",""time""
""fullscreenenter"",""1"",""1440""
","
","","","","","","null","<div style=""font-size:60px;"">+</div>","null","","fixation","","",""
"memory-trial","171","468400","0.0-18.0-1.63","6254","approach_avoid_sv1","""event"",""trial"",""time""
""fullscreenenter"",""1"",""1440""
","
","
","""event"",""trial"",""time""
""fullscreenenter"",""1"",""1440""
","
","","","","","","930.6999999880791","images/flower8.png","","","memory_trial","2","maybe_old",""
"html-keyboard-response","172","468911","0.0-18.0-0.64","6254","approach_avoid_sv1","""event"",""trial"",""time""
""fullscreenenter"",""1"",""1440""
","
","
","""event"",""trial"",""time""
""fullscreenenter"",""1"",""1440""
","
","","","","","","null","<div style=""font-size:60px;"">+</div>","null","","fixation","","",""
"memory-trial","173","470740","0.0-18.0-1.64","6254","approach_avoid_sv1","""event"",""trial"",""time""
""fullscreenenter"",""1"",""1440""
","
","
","""event"",""trial"",""time""
""fullscreenenter"",""1"",""1440""
","
","","","","","","818.6999999880791","images/cat1.png","","","memory_trial","1","definitely_old",""
"html-keyboard-response","174","471247","0.0-18.0-0.65","6254","approach_avoid_sv1","""event"",""trial"",""time""
""fullscreenenter"",""1"",""1440""
","
","
","""event"",""trial"",""time""
""fullscreenenter"",""1"",""1440""
","
","","","","","","null","<div style=""font-size:60px;"">+</div>","null","","fixation","","",""
"memory-trial","175","473108","0.0-18.0-1.65","6254","approach_avoid_sv1","""event"",""trial"",""time""
""fullscreenenter"",""1"",""1440""
","
","
","""event"",""trial"",""time""
""fullscreenenter"",""1"",""1440""
","
","","","","","","856.7000000476837","images/apple4.png","","","memory_trial","2","maybe_old",""
"html-keyboard-response","176","473613","0.0-18.0-0.66","6254","approach_avoid_sv1","""event"",""trial"",""time""
""fullscreenenter"",""1"",""1440""
","
","
","""event"",""trial"",""time""
""fullscreenenter"",""1"",""1440""
","
","","","","","","null","<div style=""font-size:60px;"">+</div>","null","","fixation","","",""
"memory-trial","177","475424","0.0-18.0-1.66","6254","approach_avoid_sv1","""event"",""trial"",""time""
""fullscreenenter"",""1"",""1440""
","
","
","""event"",""trial"",""time""
""fullscreenenter"",""1"",""1440""
","
","","","","","","806.1000000238419","images/straw2.png","","","memory_trial","3","maybe_new",""
"html-keyboard-response","178","475935","0.0-18.0-0.67","6254","approach_avoid_sv1","""event"",""trial"",""time""
""fullscreenenter"",""1"",""1440""
","
","
","""event"",""trial"",""time""
""fullscreenenter"",""1"",""1440""
","
","","","","","","null","<div style=""font-size:60px;"">+</div>","null","","fixation","","",""
"memory-trial","179","477758","0.0-18.0-1.67","6254","approach_avoid_sv1","""event"",""trial"",""time""
""fullscreenenter"",""1"",""1440""
","
","
","""event"",""trial"",""time""
""fullscreenenter"",""1"",""1440""
","
","","","","","","818.5","images/rodent8.png","","","memory_trial","2","maybe_old",""
"html-keyboard-response","180","478263","0.0-18.0-0.68","6254","approach_avoid_sv1","""event"",""trial"",""time""
""fullscreenenter"",""1"",""1440""
","
","
","""event"",""trial"",""time""
""fullscreenenter"",""1"",""1440""
","
","","","","","","null","<div style=""font-size:60px;"">+</div>","null","","fixation","","",""
"memory-trial","181","480723","0.0-18.0-1.68","6254","approach_avoid_sv1","""event"",""trial"",""time""
""fullscreenenter"",""1"",""1440""
","
","
","""event"",""trial"",""time""
""fullscreenenter"",""1"",""1440""
","
","","","","","","1456.199999988079","images/straw5.png","","","memory_trial","3","maybe_new",""
"html-keyboard-response","182","481229","0.0-18.0-0.69","6254","approach_avoid_sv1","""event"",""trial"",""time""
""fullscreenenter"",""1"",""1440""
","
","
","""event"",""trial"",""time""
""fullscreenenter"",""1"",""1440""
","
","","","","","","null","<div style=""font-size:60px;"">+</div>","null","","fixation","","",""
"memory-trial","183","483220","0.0-18.0-1.69","6254","approach_avoid_sv1","""event"",""trial"",""time""
""fullscreenenter"",""1"",""1440""
","
","
","""event"",""trial"",""time""
""fullscreenenter"",""1"",""1440""
","
","","","","","","981","images/rodent7.png","","","memory_trial","4","definitely_new",""
"html-keyboard-response","184","483725","0.0-18.0-0.70","6254","approach_avoid_sv1","""event"",""trial"",""time""
""fullscreenenter"",""1"",""1440""
","
","
","""event"",""trial"",""time""
""fullscreenenter"",""1"",""1440""
","
","","","","","","null","<div style=""font-size:60px;"">+</div>","null","","fixation","","",""
"memory-trial","185","485623","0.0-18.0-1.70","6254","approach_avoid_sv1","""event"",""trial"",""time""
""fullscreenenter"",""1"",""1440""
","
","
","""event"",""trial"",""time""
""fullscreenenter"",""1"",""1440""
","
","","","","","","890.5","images/horse1.png","","","memory_trial","3","maybe_new",""
"html-keyboard-response","186","486134","0.0-18.0-0.71","6254","approach_avoid_sv1","""event"",""trial"",""time""
""fullscreenenter"",""1"",""1440""
","
","
","""event"",""trial"",""time""
""fullscreenenter"",""1"",""1440""
","
","","","","","","null","<div style=""font-size:60px;"">+</div>","null","","fixation","","",""
"memory-trial","187","487991","0.0-18.0-1.71","6254","approach_avoid_sv1","""event"",""trial"",""time""
""fullscreenenter"",""1"",""1440""
","
","
","""event"",""trial"",""time""
""fullscreenenter"",""1"",""1440""
","
","","","","","","851.0999999642372","images/horse2.png","","","memory_trial","4","definitely_new",""
"html-keyboard-response","188","488503","0.0-18.0-0.72","6254","approach_avoid_sv1","""event"",""trial"",""time""
""fullscreenenter"",""1"",""1440""
","
","
","""event"",""trial"",""time""
""fullscreenenter"",""1"",""1440""
","
","","","","","","null","<div style=""font-size:60px;"">+</div>","null","","fixation","","",""
"memory-trial","189","490384","0.0-18.0-1.72","6254","approach_avoid_sv1","""event"",""trial"",""time""
""fullscreenenter"",""1"",""1440""
","
","
","""event"",""trial"",""time""
""fullscreenenter"",""1"",""1440""
","
","","","","","","873","images/train6.png","","","memory_trial","3","maybe_new",""
"html-keyboard-response","190","490894","0.0-18.0-0.73","6254","approach_avoid_sv1","""event"",""trial"",""time""
""fullscreenenter"",""1"",""1440""
","
","
","""event"",""trial"",""time""
""fullscreenenter"",""1"",""1440""
","
","","","","","","null","<div style=""font-size:60px;"">+</div>","null","","fixation","","",""
"memory-trial","191","492566","0.0-18.0-1.73","6254","approach_avoid_sv1","""event"",""trial"",""time""
""fullscreenenter"",""1"",""1440""
","
","
","""event"",""trial"",""time""
""fullscreenenter"",""1"",""1440""
","
","","","","","","663.8999999761581","images/train1.png","","","memory_trial","3","maybe_new",""
"html-keyboard-response","192","493071","0.0-18.0-0.74","6254","approach_avoid_sv1","""event"",""trial"",""time""
""fullscreenenter"",""1"",""1440""
","
","
","""event"",""trial"",""time""
""fullscreenenter"",""1"",""1440""
","
","","","","","","null","<div style=""font-size:60px;"">+</div>","null","","fixation","","",""
"memory-trial","193","495422","0.0-18.0-1.74","6254","approach_avoid_sv1","""event"",""trial"",""time""
""fullscreenenter"",""1"",""1440""
","
","
","""event"",""trial"",""time""
""fullscreenenter"",""1"",""1440""
","
","","","","","","1344.5","images/flower4.png","","","memory_trial","3","maybe_new",""
"html-keyboard-response","194","495927","0.0-18.0-0.75","6254","approach_avoid_sv1","""event"",""trial"",""time""
""fullscreenenter"",""1"",""1440""
","
","
","""event"",""trial"",""time""
""fullscreenenter"",""1"",""1440""
","
","","","","","","null","<div style=""font-size:60px;"">+</div>","null","","fixation","","",""
"memory-trial","195","497843","0.0-18.0-1.75","6254","approach_avoid_sv1","""event"",""trial"",""time""
""fullscreenenter"",""1"",""1440""
","
","
","""event"",""trial"",""time""
""fullscreenenter"",""1"",""1440""
","
","","","","","","912.3000000119209","images/cow4.png","","","memory_trial","2","maybe_old",""
"html-keyboard-response","196","498347","0.0-18.0-0.76","6254","approach_avoid_sv1","""event"",""trial"",""time""
""fullscreenenter"",""1"",""1440""
","
","
","""event"",""trial"",""time""
""fullscreenenter"",""1"",""1440""
","
","","","","","","null","<div style=""font-size:60px;"">+</div>","null","","fixation","","",""
"memory-trial","197","500048","0.0-18.0-1.76","6254","approach_avoid_sv1","""event"",""trial"",""time""
""fullscreenenter"",""1"",""1440""
","
","
","""event"",""trial"",""time""
""fullscreenenter"",""1"",""1440""
","
","","","","","","686.1999999880791","images/train3.png","","","memory_trial","3","maybe_new",""
"html-keyboard-response","198","500560","0.0-18.0-0.77","6254","approach_avoid_sv1","""event"",""trial"",""time""
""fullscreenenter"",""1"",""1440""
","
","
","""event"",""trial"",""time""
""fullscreenenter"",""1"",""1440""
","
","","","","","","null","<div style=""font-size:60px;"">+</div>","null","","fixation","","",""
"memory-trial","199","502190","0.0-18.0-1.77","6254","approach_avoid_sv1","""event"",""trial"",""time""
""fullscreenenter"",""1"",""1440""
","
","
","""event"",""trial"",""time""
""fullscreenenter"",""1"",""1440""
","
","","","","","","624.1000000238419","images/flower2.png","","","memory_trial","3","maybe_new",""
"html-keyboard-response","200","502702","0.0-18.0-0.78","6254","approach_avoid_sv1","""event"",""trial"",""time""
""fullscreenenter"",""1"",""1440""
","
","
","""event"",""trial"",""time""
""fullscreenenter"",""1"",""1440""
","
","","","","","","null","<div style=""font-size:60px;"">+</div>","null","","fixation","","",""
"memory-trial","201","504559","0.0-18.0-1.78","6254","approach_avoid_sv1","""event"",""trial"",""time""
""fullscreenenter"",""1"",""1440""
","
","
","""event"",""trial"",""time""
""fullscreenenter"",""1"",""1440""
","
","","","","","","843.8000000119209","images/rodent3.png","","","memory_trial","3","maybe_new",""
"html-keyboard-response","202","505069","0.0-18.0-0.79","6254","approach_avoid_sv1","""event"",""trial"",""time""
""fullscreenenter"",""1"",""1440""
","
","
","""event"",""trial"",""time""
""fullscreenenter"",""1"",""1440""
","
","","","","","","null","<div style=""font-size:60px;"">+</div>","null","","fixation","","",""
"memory-trial","203","506823","0.0-18.0-1.79","6254","approach_avoid_sv1","""event"",""trial"",""time""
""fullscreenenter"",""1"",""1440""
","
","
","""event"",""trial"",""time""
""fullscreenenter"",""1"",""1440""
","
","","","","","","747.1000000238419","images/table5.png","","","memory_trial","2","maybe_old",""
"html-keyboard-response","204","507334","0.0-18.0-0.80","6254","approach_avoid_sv1","""event"",""trial"",""time""
""fullscreenenter"",""1"",""1440""
","
","
","""event"",""trial"",""time""
""fullscreenenter"",""1"",""1440""
","
","","","","","","null","<div style=""font-size:60px;"">+</div>","null","","fixation","","",""
"memory-trial","205","509128","0.0-18.0-1.80","6254","approach_avoid_sv1","""event"",""trial"",""time""
""fullscreenenter"",""1"",""1440""
","
","
","""event"",""trial"",""time""
""fullscreenenter"",""1"",""1440""
","
","","","","","","783.8000000119209","images/sofa6.png","","","memory_trial","3","maybe_new",""
"html-keyboard-response","206","509638","0.0-18.0-0.81","6254","approach_avoid_sv1","""event"",""trial"",""time""
""fullscreenenter"",""1"",""1440""
","
","
","""event"",""trial"",""time""
""fullscreenenter"",""1"",""1440""
","
","","","","","","null","<div style=""font-size:60px;"">+</div>","null","","fixation","","",""
"memory-trial","207","511299","0.0-18.0-1.81","6254","approach_avoid_sv1","""event"",""trial"",""time""
""fullscreenenter"",""1"",""1440""
","
","
","""event"",""trial"",""time""
""fullscreenenter"",""1"",""1440""
","
","","","","","","650.5","images/apple5.png","","","memory_trial","3","maybe_new",""
"html-keyboard-response","208","511804","0.0-18.0-0.82","6254","approach_avoid_sv1","""event"",""trial"",""time""
""fullscreenenter"",""1"",""1440""
","
","
","""event"",""trial"",""time""
""fullscreenenter"",""1"",""1440""
","
","","","","","","null","<div style=""font-size:60px;"">+</div>","null","","fixation","","",""
"memory-trial","209","514328","0.0-18.0-1.82","6254","approach_avoid_sv1","""event"",""trial"",""time""
""fullscreenenter"",""1"",""1440""
","
","
","""event"",""trial"",""time""
""fullscreenenter"",""1"",""1440""
","
","","","","","","1509.5999999642372","images/sheep6.png","","","memory_trial","3","maybe_new",""
"html-keyboard-response","210","514839","0.0-18.0-0.83","6254","approach_avoid_sv1","""event"",""trial"",""time""
""fullscreenenter"",""1"",""1440""
","
","
","""event"",""trial"",""time""
""fullscreenenter"",""1"",""1440""
","
","","","","","","null","<div style=""font-size:60px;"">+</div>","null","","fixation","","",""
"memory-trial","211","516950","0.0-18.0-1.83","6254","approach_avoid_sv1","""event"",""trial"",""time""
""fullscreenenter"",""1"",""1440""
","
","
","""event"",""trial"",""time""
""fullscreenenter"",""1"",""1440""
","
","","","","","","1104.1000000238419","images/table8.png","","","memory_trial","3","maybe_new",""
"html-keyboard-response","212","517452","0.0-18.0-0.84","6254","approach_avoid_sv1","""event"",""trial"",""time""
""fullscreenenter"",""1"",""1440""
","
","
","""event"",""trial"",""time""
""fullscreenenter"",""1"",""1440""
","
","","","","","","null","<div style=""font-size:60px;"">+</div>","null","","fixation","","",""
"memory-trial","213","519077","0.0-18.0-1.84","6254","approach_avoid_sv1","""event"",""trial"",""time""
""fullscreenenter"",""1"",""1440""
","
","
","""event"",""trial"",""time""
""fullscreenenter"",""1"",""1440""
","
","","","","","","613.7999999523163","images/straw6.png","","","memory_trial","3","maybe_new",""
"html-keyboard-response","214","519582","0.0-18.0-0.85","6254","approach_avoid_sv1","""event"",""trial"",""time""
""fullscreenenter"",""1"",""1440""
","
","
","""event"",""trial"",""time""
""fullscreenenter"",""1"",""1440""
","
","","","","","","null","<div style=""font-size:60px;"">+</div>","null","","fixation","","",""
"memory-trial","215","521167","0.0-18.0-1.85","6254","approach_avoid_sv1","""event"",""trial"",""time""
""fullscreenenter"",""1"",""1440""
","
","
","""event"",""trial"",""time""
""fullscreenenter"",""1"",""1440""
","
","","","","","","576.1999999880791","images/train8.png","","","memory_trial","3","maybe_new",""
"html-keyboard-response","216","521677","0.0-18.0-0.86","6254","approach_avoid_sv1","""event"",""trial"",""time""
""fullscreenenter"",""1"",""1440""
","
","
","""event"",""trial"",""time""
""fullscreenenter"",""1"",""1440""
","
","","","","","","null","<div style=""font-size:60px;"">+</div>","null","","fixation","","",""
"memory-trial","217","523573","0.0-18.0-1.86","6254","approach_avoid_sv1","""event"",""trial"",""time""
""fullscreenenter"",""1"",""1440""
","
","
","""event"",""trial"",""time""
""fullscreenenter"",""1"",""1440""
","
","","","","","","889.1999999880791","images/cat6.png","","","memory_trial","3","maybe_new",""
"html-keyboard-response","218","524075","0.0-18.0-0.87","6254","approach_avoid_sv1","""event"",""trial"",""time""
""fullscreenenter"",""1"",""1440""
","
","
","""event"",""trial"",""time""
""fullscreenenter"",""1"",""1440""
","
","","","","","","null","<div style=""font-size:60px;"">+</div>","null","","fixation","","",""
"memory-trial","219","525773","0.0-18.0-1.87","6254","approach_avoid_sv1","""event"",""trial"",""time""
""fullscreenenter"",""1"",""1440""
","
","
","""event"",""trial"",""time""
""fullscreenenter"",""1"",""1440""
","
","","","","","","686.1999999880791","images/sheep7.png","","","memory_trial","3","maybe_new",""
"html-keyboard-response","220","526275","0.0-18.0-0.88","6254","approach_avoid_sv1","""event"",""trial"",""time""
""fullscreenenter"",""1"",""1440""
","
","
","""event"",""trial"",""time""
""fullscreenenter"",""1"",""1440""
","
","","","","","","null","<div style=""font-size:60px;"">+</div>","null","","fixation","","",""
"memory-trial","221","528158","0.0-18.0-1.88","6254","approach_avoid_sv1","""event"",""trial"",""time""
""fullscreenenter"",""1"",""1440""
","
","
","""event"",""trial"",""time""
""fullscreenenter"",""1"",""1440""
","
","","","","","","875.8000000119209","images/cat5.png","","","memory_trial","1","definitely_old",""
"html-keyboard-response","222","528667","0.0-18.0-0.89","6254","approach_avoid_sv1","""event"",""trial"",""time""
""fullscreenenter"",""1"",""1440""
","
","
","""event"",""trial"",""time""
""fullscreenenter"",""1"",""1440""
","
","","","","","","null","<div style=""font-size:60px;"">+</div>","null","","fixation","","",""
"memory-trial","223","530600","0.0-18.0-1.89","6254","approach_avoid_sv1","""event"",""trial"",""time""
""fullscreenenter"",""1"",""1440""
","
","
","""event"",""trial"",""time""
""fullscreenenter"",""1"",""1440""
","
","","","","","","918.3000000119209","images/orange3.png","","","memory_trial","2","maybe_old",""
"html-keyboard-response","224","531111","0.0-18.0-0.90","6254","approach_avoid_sv1","""event"",""trial"",""time""
""fullscreenenter"",""1"",""1440""
","
","
","""event"",""trial"",""time""
""fullscreenenter"",""1"",""1440""
","
","","","","","","null","<div style=""font-size:60px;"">+</div>","null","","fixation","","",""
"memory-trial","225","532951","0.0-18.0-1.90","6254","approach_avoid_sv1","""event"",""trial"",""time""
""fullscreenenter"",""1"",""1440""
","
","
","""event"",""trial"",""time""
""fullscreenenter"",""1"",""1440""
","
","","","","","","826.8000000119209","images/orange8.png","","","memory_trial","1","definitely_old",""
"html-keyboard-response","226","533461","0.0-18.0-0.91","6254","approach_avoid_sv1","""event"",""trial"",""time""
""fullscreenenter"",""1"",""1440""
","
","
","""event"",""trial"",""time""
""fullscreenenter"",""1"",""1440""
","
","","","","","","null","<div style=""font-size:60px;"">+</div>","null","","fixation","","",""
"memory-trial","227","535267","0.0-18.0-1.91","6254","approach_avoid_sv1","""event"",""trial"",""time""
""fullscreenenter"",""1"",""1440""
","
","
","""event"",""trial"",""time""
""fullscreenenter"",""1"",""1440""
","
","","","","","","799.3000000119209","images/table7.png","","","memory_trial","2","maybe_old",""
"html-button-response","228","625932","0.0-18.0-2.91-0.91","6254","approach_avoid_sv1","""event"",""trial"",""time""
""fullscreenenter"",""1"",""1440""
","
","
","""event"",""trial"",""time""
""fullscreenenter"",""1"",""1440""
","
","","","","","","90665.09999996424","<p> Take a break! </p><p> Click the button to continue. </p>","0","","break","","",""
"html-keyboard-response","229","626434","0.0-18.0-0.92","6254","approach_avoid_sv1","""event"",""trial"",""time""
""fullscreenenter"",""1"",""1440""
","
","
","""event"",""trial"",""time""
""fullscreenenter"",""1"",""1440""
","
","","","","","","null","<div style=""font-size:60px;"">+</div>","null","","fixation","","",""
"memory-trial","230","628877","0.0-18.0-1.92","6254","approach_avoid_sv1","""event"",""trial"",""time""
""fullscreenenter"",""1"",""1440""
","
","
","""event"",""trial"",""time""
""fullscreenenter"",""1"",""1440""
","
","","","","","","1428.3999999761581","images/rabbit2.png","","","memory_trial","3","maybe_new",""
"html-keyboard-response","231","629390","0.0-18.0-0.93","6254","approach_avoid_sv1","""event"",""trial"",""time""
""fullscreenenter"",""1"",""1440""
","
","
","""event"",""trial"",""time""
""fullscreenenter"",""1"",""1440""
","
","","","","","","null","<div style=""font-size:60px;"">+</div>","null","","fixation","","",""
"memory-trial","232","631756","0.0-18.0-1.93","6254","approach_avoid_sv1","""event"",""trial"",""time""
""fullscreenenter"",""1"",""1440""
","
","
","""event"",""trial"",""time""
""fullscreenenter"",""1"",""1440""
","
","","","","","","1358.199999988079","images/chair1.png","","","memory_trial","2","maybe_old",""
"html-keyboard-response","233","632261","0.0-18.0-0.94","6254","approach_avoid_sv1","""event"",""trial"",""time""
""fullscreenenter"",""1"",""1440""
","
","
","""event"",""trial"",""time""
""fullscreenenter"",""1"",""1440""
","
","","","","","","null","<div style=""font-size:60px;"">+</div>","null","","fixation","","",""
"memory-trial","234","634012","0.0-18.0-1.94","6254","approach_avoid_sv1","""event"",""trial"",""time""
""fullscreenenter"",""1"",""1440""
","
","
","""event"",""trial"",""time""
""fullscreenenter"",""1"",""1440""
","
","","","","","","738.4000000357628","images/boat6.png","","","memory_trial","3","maybe_new",""
"html-keyboard-response","235","634525","0.0-18.0-0.95","6254","approach_avoid_sv1","""event"",""trial"",""time""
""fullscreenenter"",""1"",""1440""
","
","
","""event"",""trial"",""time""
""fullscreenenter"",""1"",""1440""
","
","","","","","","null","<div style=""font-size:60px;"">+</div>","null","","fixation","","",""
"memory-trial","236","636342","0.0-18.0-1.95","6254","approach_avoid_sv1","""event"",""trial"",""time""
""fullscreenenter"",""1"",""1440""
","
","
","""event"",""trial"",""time""
""fullscreenenter"",""1"",""1440""
","
","","","","","","801.6000000238419","images/rabbit8.png","","","memory_trial","2","maybe_old",""
"html-keyboard-response","237","636853","0.0-18.0-0.96","6254","approach_avoid_sv1","""event"",""trial"",""time""
""fullscreenenter"",""1"",""1440""
","
","
","""event"",""trial"",""time""
""fullscreenenter"",""1"",""1440""
","
","","","","","","null","<div style=""font-size:60px;"">+</div>","null","","fixation","","",""
"memory-trial","238","638716","0.0-18.0-1.96","6254","approach_avoid_sv1","""event"",""trial"",""time""
""fullscreenenter"",""1"",""1440""
","
","
","""event"",""trial"",""time""
""fullscreenenter"",""1"",""1440""
","
","","","","","","855.6000000238419","images/chair7.png","","","memory_trial","3","maybe_new",""
"html-keyboard-response","239","639227","0.0-18.0-0.97","6254","approach_avoid_sv1","""event"",""trial"",""time""
""fullscreenenter"",""1"",""1440""
","
","
","""event"",""trial"",""time""
""fullscreenenter"",""1"",""1440""
","
","","","","","","null","<div style=""font-size:60px;"">+</div>","null","","fixation","","",""
"memory-trial","240","641020","0.0-18.0-1.97","6254","approach_avoid_sv1","""event"",""trial"",""time""
""fullscreenenter"",""1"",""1440""
","
","
","""event"",""trial"",""time""
""fullscreenenter"",""1"",""1440""
","
","","","","","","780.4000000357628","images/flower1.png","","","memory_trial","2","maybe_old",""
"html-keyboard-response","241","641526","0.0-18.0-0.98","6254","approach_avoid_sv1","""event"",""trial"",""time""
""fullscreenenter"",""1"",""1440""
","
","
","""event"",""trial"",""time""
""fullscreenenter"",""1"",""1440""
","
","","","","","","null","<div style=""font-size:60px;"">+</div>","null","","fixation","","",""
"memory-trial","242","643348","0.0-18.0-1.98","6254","approach_avoid_sv1","""event"",""trial"",""time""
""fullscreenenter"",""1"",""1440""
","
","
","""event"",""trial"",""time""
""fullscreenenter"",""1"",""1440""
","
","","","","","","815.5","images/cactus5.png","","","memory_trial","2","maybe_old",""
"html-keyboard-response","243","643852","0.0-18.0-0.99","6254","approach_avoid_sv1","""event"",""trial"",""time""
""fullscreenenter"",""1"",""1440""
","
","
","""event"",""trial"",""time""
""fullscreenenter"",""1"",""1440""
","
","","","","","","null","<div style=""font-size:60px;"">+</div>","null","","fixation","","",""
"memory-trial","244","645635","0.0-18.0-1.99","6254","approach_avoid_sv1","""event"",""trial"",""time""
""fullscreenenter"",""1"",""1440""
","
","
","""event"",""trial"",""time""
""fullscreenenter"",""1"",""1440""
","
","","","","","","776.8999999761581","images/straw3.png","","","memory_trial","3","maybe_new",""
"html-keyboard-response","245","646140","0.0-18.0-0.100","6254","approach_avoid_sv1","""event"",""trial"",""time""
""fullscreenenter"",""1"",""1440""
","
","
","""event"",""trial"",""time""
""fullscreenenter"",""1"",""1440""
","
","","","","","","null","<div style=""font-size:60px;"">+</div>","null","","fixation","","",""
"memory-trial","246","647932","0.0-18.0-1.100","6254","approach_avoid_sv1","""event"",""trial"",""time""
""fullscreenenter"",""1"",""1440""
","
","
","""event"",""trial"",""time""
""fullscreenenter"",""1"",""1440""
","
","","","","","","784.6000000238419","images/dog3.png","","","memory_trial","3","maybe_new",""
"html-keyboard-response","247","648445","0.0-18.0-0.101","6254","approach_avoid_sv1","""event"",""trial"",""time""
""fullscreenenter"",""1"",""1440""
","
","
","""event"",""trial"",""time""
""fullscreenenter"",""1"",""1440""
","
","","","","","","null","<div style=""font-size:60px;"">+</div>","null","","fixation","","",""
"memory-trial","248","650482","0.0-18.0-1.101","6254","approach_avoid_sv1","""event"",""trial"",""time""
""fullscreenenter"",""1"",""1440""
","
","
","""event"",""trial"",""time""
""fullscreenenter"",""1"",""1440""
","
","","","","","","1031","images/goat5.png","","","memory_trial","2","maybe_old",""
"html-keyboard-response","249","650987","0.0-18.0-0.102","6254","approach_avoid_sv1","""event"",""trial"",""time""
""fullscreenenter"",""1"",""1440""
","
","
","""event"",""trial"",""time""
""fullscreenenter"",""1"",""1440""
","
","","","","","","null","<div style=""font-size:60px;"">+</div>","null","","fixation","","",""
"memory-trial","250","652973","0.0-18.0-1.102","6254","approach_avoid_sv1","""event"",""trial"",""time""
""fullscreenenter"",""1"",""1440""
","
","
","""event"",""trial"",""time""
""fullscreenenter"",""1"",""1440""
","
","","","","","","972.5","images/boat5.png","","","memory_trial","3","maybe_new",""
"html-keyboard-response","251","653484","0.0-18.0-0.103","6254","approach_avoid_sv1","""event"",""trial"",""time""
""fullscreenenter"",""1"",""1440""
","
","
","""event"",""trial"",""time""
""fullscreenenter"",""1"",""1440""
","
","","","","","","null","<div style=""font-size:60px;"">+</div>","null","","fixation","","",""
"memory-trial","252","655364","0.0-18.0-1.103","6254","approach_avoid_sv1","""event"",""trial"",""time""
""fullscreenenter"",""1"",""1440""
","
","
","""event"",""trial"",""time""
""fullscreenenter"",""1"",""1440""
","
","","","","","","871.1999999880791","images/cat3.png","","","memory_trial","2","maybe_old",""
"html-keyboard-response","253","655874","0.0-18.0-0.104","6254","approach_avoid_sv1","""event"",""trial"",""time""
""fullscreenenter"",""1"",""1440""
","
","
","""event"",""trial"",""time""
""fullscreenenter"",""1"",""1440""
","
","","","","","","null","<div style=""font-size:60px;"">+</div>","null","","fixation","","",""
"memory-trial","254","657588","0.0-18.0-1.104","6254","approach_avoid_sv1","""event"",""trial"",""time""
""fullscreenenter"",""1"",""1440""
","
","
","""event"",""trial"",""time""
""fullscreenenter"",""1"",""1440""
","
","","","","","","707.3999999761581","images/dog1.png","","","memory_trial","3","maybe_new",""
"html-keyboard-response","255","658099","0.0-18.0-0.105","6254","approach_avoid_sv1","""event"",""trial"",""time""
""fullscreenenter"",""1"",""1440""
","
","
","""event"",""trial"",""time""
""fullscreenenter"",""1"",""1440""
","
","","","","","","null","<div style=""font-size:60px;"">+</div>","null","","fixation","","",""
"memory-trial","256","659701","0.0-18.0-1.105","6254","approach_avoid_sv1","""event"",""trial"",""time""
""fullscreenenter"",""1"",""1440""
","
","
","""event"",""trial"",""time""
""fullscreenenter"",""1"",""1440""
","
","","","","","","594.3999999761581","images/boat8.png","","","memory_trial","3","maybe_new",""
"html-keyboard-response","257","660211","0.0-18.0-0.106","6254","approach_avoid_sv1","""event"",""trial"",""time""
""fullscreenenter"",""1"",""1440""
","
","
","""event"",""trial"",""time""
""fullscreenenter"",""1"",""1440""
","
","","","","","","null","<div style=""font-size:60px;"">+</div>","null","","fixation","","",""
"memory-trial","258","661811","0.0-18.0-1.106","6254","approach_avoid_sv1","""event"",""trial"",""time""
""fullscreenenter"",""1"",""1440""
","
","
","""event"",""trial"",""time""
""fullscreenenter"",""1"",""1440""
","
","","","","","","594.1999999880791","images/sofa4.png","","","memory_trial","3","maybe_new",""
"html-keyboard-response","259","662324","0.0-18.0-0.107","6254","approach_avoid_sv1","""event"",""trial"",""time""
""fullscreenenter"",""1"",""1440""
","
","
","""event"",""trial"",""time""
""fullscreenenter"",""1"",""1440""
","
","","","","","","null","<div style=""font-size:60px;"">+</div>","null","","fixation","","",""
"memory-trial","260","664321","0.0-18.0-1.107","6254","approach_avoid_sv1","""event"",""trial"",""time""
""fullscreenenter"",""1"",""1440""
","
","
","""event"",""trial"",""time""
""fullscreenenter"",""1"",""1440""
","
","","","","","","986.3999999761581","images/table1.png","","","memory_trial","3","maybe_new",""
"html-keyboard-response","261","664826","0.0-18.0-0.108","6254","approach_avoid_sv1","""event"",""trial"",""time""
""fullscreenenter"",""1"",""1440""
","
","
","""event"",""trial"",""time""
""fullscreenenter"",""1"",""1440""
","
","","","","","","null","<div style=""font-size:60px;"">+</div>","null","","fixation","","",""
"memory-trial","262","666701","0.0-18.0-1.108","6254","approach_avoid_sv1","""event"",""trial"",""time""
""fullscreenenter"",""1"",""1440""
","
","
","""event"",""trial"",""time""
""fullscreenenter"",""1"",""1440""
","
","","","","","","865.6999999880791","images/banana1.png","","","memory_trial","2","maybe_old",""
"html-keyboard-response","263","667212","0.0-18.0-0.109","6254","approach_avoid_sv1","""event"",""trial"",""time""
""fullscreenenter"",""1"",""1440""
","
","
","""event"",""trial"",""time""
""fullscreenenter"",""1"",""1440""
","
","","","","","","null","<div style=""font-size:60px;"">+</div>","null","","fixation","","",""
"memory-trial","264","669132","0.0-18.0-1.109","6254","approach_avoid_sv1","""event"",""trial"",""time""
""fullscreenenter"",""1"",""1440""
","
","
","""event"",""trial"",""time""
""fullscreenenter"",""1"",""1440""
","
","","","","","","908.3999999761581","images/apple7.png","","","memory_trial","2","maybe_old",""
"html-keyboard-response","265","669644","0.0-18.0-0.110","6254","approach_avoid_sv1","""event"",""trial"",""time""
""fullscreenenter"",""1"",""1440""
","
","
","""event"",""trial"",""time""
""fullscreenenter"",""1"",""1440""
","
","","","","","","null","<div style=""font-size:60px;"">+</div>","null","","fixation","","",""
"memory-trial","266","671370","0.0-18.0-1.110","6254","approach_avoid_sv1","""event"",""trial"",""time""
""fullscreenenter"",""1"",""1440""
","
","
","""event"",""trial"",""time""
""fullscreenenter"",""1"",""1440""
","
","","","","","","719.3999999761581","images/cat7.png","","","memory_trial","2","maybe_old",""
"html-keyboard-response","267","671873","0.0-18.0-0.111","6254","approach_avoid_sv1","""event"",""trial"",""time""
""fullscreenenter"",""1"",""1440""
","
","
","""event"",""trial"",""time""
""fullscreenenter"",""1"",""1440""
","
","","","","","","null","<div style=""font-size:60px;"">+</div>","null","","fixation","","",""
"memory-trial","268","673394","0.0-18.0-1.111","6254","approach_avoid_sv1","""event"",""trial"",""time""
""fullscreenenter"",""1"",""1440""
","
","
","""event"",""trial"",""time""
""fullscreenenter"",""1"",""1440""
","
","","","","","","509.5","images/boat2.png","","","memory_trial","3","maybe_new",""
"html-keyboard-response","269","673897","0.0-18.0-0.112","6254","approach_avoid_sv1","""event"",""trial"",""time""
""fullscreenenter"",""1"",""1440""
","
","
","""event"",""trial"",""time""
""fullscreenenter"",""1"",""1440""
","
","","","","","","null","<div style=""font-size:60px;"">+</div>","null","","fixation","","",""
"memory-trial","270","675513","0.0-18.0-1.112","6254","approach_avoid_sv1","""event"",""trial"",""time""
""fullscreenenter"",""1"",""1440""
","
","
","""event"",""trial"",""time""
""fullscreenenter"",""1"",""1440""
","
","","","","","","612.1000000238419","images/truck6.png","","","memory_trial","3","maybe_new",""
"html-keyboard-response","271","676018","0.0-18.0-0.113","6254","approach_avoid_sv1","""event"",""trial"",""time""
""fullscreenenter"",""1"",""1440""
","
","
","""event"",""trial"",""time""
""fullscreenenter"",""1"",""1440""
","
","","","","","","null","<div style=""font-size:60px;"">+</div>","null","","fixation","","",""
"memory-trial","272","677794","0.0-18.0-1.113","6254","approach_avoid_sv1","""event"",""trial"",""time""
""fullscreenenter"",""1"",""1440""
","
","
","""event"",""trial"",""time""
""fullscreenenter"",""1"",""1440""
","
","","","","","","770.3000000119209","images/rabbit7.png","","","memory_trial","2","maybe_old",""
"html-keyboard-response","273","678300","0.0-18.0-0.114","6254","approach_avoid_sv1","""event"",""trial"",""time""
""fullscreenenter"",""1"",""1440""
","
","
","""event"",""trial"",""time""
""fullscreenenter"",""1"",""1440""
","
","","","","","","null","<div style=""font-size:60px;"">+</div>","null","","fixation","","",""
"memory-trial","274","680041","0.0-18.0-1.114","6254","approach_avoid_sv1","""event"",""trial"",""time""
""fullscreenenter"",""1"",""1440""
","
","
","""event"",""trial"",""time""
""fullscreenenter"",""1"",""1440""
","
","","","","","","737","images/cactus7.png","","","memory_trial","2","maybe_old",""
"html-keyboard-response","275","680546","0.0-18.0-0.115","6254","approach_avoid_sv1","""event"",""trial"",""time""
""fullscreenenter"",""1"",""1440""
","
","
","""event"",""trial"",""time""
""fullscreenenter"",""1"",""1440""
","
","","","","","","null","<div style=""font-size:60px;"">+</div>","null","","fixation","","",""
"memory-trial","276","682427","0.0-18.0-1.115","6254","approach_avoid_sv1","""event"",""trial"",""time""
""fullscreenenter"",""1"",""1440""
","
","
","""event"",""trial"",""time""
""fullscreenenter"",""1"",""1440""
","
","","","","","","875.1000000238419","images/goat4.png","","","memory_trial","3","maybe_new",""
"html-keyboard-response","277","682932","0.0-18.0-0.116","6254","approach_avoid_sv1","""event"",""trial"",""time""
""fullscreenenter"",""1"",""1440""
","
","
","""event"",""trial"",""time""
""fullscreenenter"",""1"",""1440""
","
","","","","","","null","<div style=""font-size:60px;"">+</div>","null","","fixation","","",""
"memory-trial","278","684532","0.0-18.0-1.116","6254","approach_avoid_sv1","""event"",""trial"",""time""
""fullscreenenter"",""1"",""1440""
","
","
","""event"",""trial"",""time""
""fullscreenenter"",""1"",""1440""
","
","","","","","","586.1000000238419","images/sofa3.png","","","memory_trial","3","maybe_new",""
"html-keyboard-response","279","685044","0.0-18.0-0.117","6254","approach_avoid_sv1","""event"",""trial"",""time""
""fullscreenenter"",""1"",""1440""
","
","
","""event"",""trial"",""time""
""fullscreenenter"",""1"",""1440""
","
","","","","","","null","<div style=""font-size:60px;"">+</div>","null","","fixation","","",""
"memory-trial","280","687193","0.0-18.0-1.117","6254","approach_avoid_sv1","""event"",""trial"",""time""
""fullscreenenter"",""1"",""1440""
","
","
","""event"",""trial"",""time""
""fullscreenenter"",""1"",""1440""
","
","","","","","","1139.0999999642372","images/banana7.png","","","memory_trial","4","definitely_new",""
"html-keyboard-response","281","687698","0.0-18.0-0.118","6254","approach_avoid_sv1","""event"",""trial"",""time""
""fullscreenenter"",""1"",""1440""
","
","
","""event"",""trial"",""time""
""fullscreenenter"",""1"",""1440""
","
","","","","","","null","<div style=""font-size:60px;"">+</div>","null","","fixation","","",""
"memory-trial","282","689341","0.0-18.0-1.118","6254","approach_avoid_sv1","""event"",""trial"",""time""
""fullscreenenter"",""1"",""1440""
","
","
","""event"",""trial"",""time""
""fullscreenenter"",""1"",""1440""
","
","","","","","","634.8999999761581","images/tree7.png","","","memory_trial","3","maybe_new",""
"html-keyboard-response","283","689851","0.0-18.0-0.119","6254","approach_avoid_sv1","""event"",""trial"",""time""
""fullscreenenter"",""1"",""1440""
","
","
","""event"",""trial"",""time""
""fullscreenenter"",""1"",""1440""
","
","","","","","","null","<div style=""font-size:60px;"">+</div>","null","","fixation","","",""
"memory-trial","284","691900","0.0-18.0-1.119","6254","approach_avoid_sv1","""event"",""trial"",""time""
""fullscreenenter"",""1"",""1440""
","
","
","""event"",""trial"",""time""
""fullscreenenter"",""1"",""1440""
","
","","","","","","1041","images/bush8.png","","","memory_trial","1","definitely_old",""
"html-keyboard-response","285","692411","0.0-18.0-0.120","6254","approach_avoid_sv1","""event"",""trial"",""time""
""fullscreenenter"",""1"",""1440""
","
","
","""event"",""trial"",""time""
""fullscreenenter"",""1"",""1440""
","
","","","","","","null","<div style=""font-size:60px;"">+</div>","null","","fixation","","",""
"memory-trial","286","694228","0.0-18.0-1.120","6254","approach_avoid_sv1","""event"",""trial"",""time""
""fullscreenenter"",""1"",""1440""
","
","
","""event"",""trial"",""time""
""fullscreenenter"",""1"",""1440""
","
","","","","","","803.7000000476837","images/rabbit6.png","","","memory_trial","3","maybe_new",""
"html-keyboard-response","287","694739","0.0-18.0-0.121","6254","approach_avoid_sv1","""event"",""trial"",""time""
""fullscreenenter"",""1"",""1440""
","
","
","""event"",""trial"",""time""
""fullscreenenter"",""1"",""1440""
","
","","","","","","null","<div style=""font-size:60px;"">+</div>","null","","fixation","","",""
"memory-trial","288","696562","0.0-18.0-1.121","6254","approach_avoid_sv1","""event"",""trial"",""time""
""fullscreenenter"",""1"",""1440""
","
","
","""event"",""trial"",""time""
""fullscreenenter"",""1"",""1440""
","
","","","","","","814.6999999880791","images/orange7.png","","","memory_trial","2","maybe_old",""
"html-keyboard-response","289","697066","0.0-18.0-0.122","6254","approach_avoid_sv1","""event"",""trial"",""time""
""fullscreenenter"",""1"",""1440""
","
","
","""event"",""trial"",""time""
""fullscreenenter"",""1"",""1440""
","
","","","","","","null","<div style=""font-size:60px;"">+</div>","null","","fixation","","",""
"memory-trial","290","698802","0.0-18.0-1.122","6254","approach_avoid_sv1","""event"",""trial"",""time""
""fullscreenenter"",""1"",""1440""
","
","
","""event"",""trial"",""time""
""fullscreenenter"",""1"",""1440""
","
","","","","","","729","images/horse3.png","","","memory_trial","3","maybe_new",""
"html-keyboard-response","291","699307","0.0-18.0-0.123","6254","approach_avoid_sv1","""event"",""trial"",""time""
""fullscreenenter"",""1"",""1440""
","
","
","""event"",""trial"",""time""
""fullscreenenter"",""1"",""1440""
","
","","","","","","null","<div style=""font-size:60px;"">+</div>","null","","fixation","","",""
"memory-trial","292","700865","0.0-18.0-1.123","6254","approach_avoid_sv1","""event"",""trial"",""time""
""fullscreenenter"",""1"",""1440""
","
","
","""event"",""trial"",""time""
""fullscreenenter"",""1"",""1440""
","
","","","","","","552.5","images/train2.png","","","memory_trial","3","maybe_new",""
"html-keyboard-response","293","701369","0.0-18.0-0.124","6254","approach_avoid_sv1","""event"",""trial"",""time""
""fullscreenenter"",""1"",""1440""
","
","
","""event"",""trial"",""time""
""fullscreenenter"",""1"",""1440""
","
","","","","","","null","<div style=""font-size:60px;"">+</div>","null","","fixation","","",""
"memory-trial","294","703116","0.0-18.0-1.124","6254","approach_avoid_sv1","""event"",""trial"",""time""
""fullscreenenter"",""1"",""1440""
","
","
","""event"",""trial"",""time""
""fullscreenenter"",""1"",""1440""
","
","","","","","","738.9000000357628","images/bed5.png","","","memory_trial","3","maybe_new",""
"html-keyboard-response","295","703626","0.0-18.0-0.125","6254","approach_avoid_sv1","""event"",""trial"",""time""
""fullscreenenter"",""1"",""1440""
","
","
","""event"",""trial"",""time""
""fullscreenenter"",""1"",""1440""
","
","","","","","","null","<div style=""font-size:60px;"">+</div>","null","","fixation","","",""
"memory-trial","296","705275","0.0-18.0-1.125","6254","approach_avoid_sv1","""event"",""trial"",""time""
""fullscreenenter"",""1"",""1440""
","
","
","""event"",""trial"",""time""
""fullscreenenter"",""1"",""1440""
","
","","","","","","638.5999999642372","images/truck8.png","","","memory_trial","3","maybe_new",""
"html-keyboard-response","297","705787","0.0-18.0-0.126","6254","approach_avoid_sv1","""event"",""trial"",""time""
""fullscreenenter"",""1"",""1440""
","
","
","""event"",""trial"",""time""
""fullscreenenter"",""1"",""1440""
","
","","","","","","null","<div style=""font-size:60px;"">+</div>","null","","fixation","","",""
"memory-trial","298","707347","0.0-18.0-1.126","6254","approach_avoid_sv1","""event"",""trial"",""time""
""fullscreenenter"",""1"",""1440""
","
","
","""event"",""trial"",""time""
