"trial_type","trial_index","time_elapsed","internal_node_id","subject_id","task_version","interactions","blur_events","focus_events","fullscreenenter_events","fullscreenexit_events","success","timeout","failed_images","failed_audio","failed_video","rt","stimulus","response","button_pressed","task_part","key_press","answer","correct"
"pavlovia","0","6","0.0-0.0","7818","approach_avoid_sv1","""event"",""trial"",""time""
""fullscreenenter"",""1"",""1211""
","
","
","""event"",""trial"",""time""
""fullscreenenter"",""1"",""1211""
","
","","","","","","","","","","","","",""
"fullscreen","1","2206","0.0-1.0","7818","approach_avoid_sv1","""event"",""trial"",""time""
""fullscreenenter"",""1"",""1211""
","
","
","""event"",""trial"",""time""
""fullscreenenter"",""1"",""1211""
","
","true","","","","","","","","","","","",""
"preload","2","7916","0.0-2.0","7818","approach_avoid_sv1","""event"",""trial"",""time""
""fullscreenenter"",""1"",""1211""
","
","
","""event"",""trial"",""time""
""fullscreenenter"",""1"",""1211""
","
","true","false","[]","[]","[]","","","","","","","",""
"preload","3","9850","0.0-3.0","7818","approach_avoid_sv1","""event"",""trial"",""time""
""fullscreenenter"",""1"",""1211""
","
","
","""event"",""trial"",""time""
""fullscreenenter"",""1"",""1211""
","
","true","false","[]","[]","[]","","","","","","","",""
"preload","4","10122","0.0-4.0","7818","approach_avoid_sv1","""event"",""trial"",""time""
""fullscreenenter"",""1"",""1211""
","
","
","""event"",""trial"",""time""
""fullscreenenter"",""1"",""1211""
","
","true","false","[]","[]","[]","","","","","","","",""
"audio-keyboard-response","5","14416","0.0-5.0","7818","approach_avoid_sv1","""event"",""trial"",""time""
""fullscreenenter"",""1"",""1211""
","
","
","""event"",""trial"",""time""
""fullscreenenter"",""1"",""1211""
","
","","","","","","3709.3333333333335","audio/beep_loop.wav"," ","","","","",""
"audio-button-response","6","18865","0.0-6.0","7818","approach_avoid_sv1","""event"",""trial"",""time""
""fullscreenenter"",""1"",""1211""
","
","
","""event"",""trial"",""time""
""fullscreenenter"",""1"",""1211""
","
","","","","","","4440","audio/turtle.wav","3","","","","",""
"audio-button-response","7","21159","0.0-7.0","7818","approach_avoid_sv1","""event"",""trial"",""time""
""fullscreenenter"",""1"",""1211""
","
","
","""event"",""trial"",""time""
""fullscreenenter"",""1"",""1211""
","
","","","","","","1280","audio/shark.wav","2","","","","",""
"preload","8","25218","0.0-8.0","7818","approach_avoid_sv1","""event"",""trial"",""time""
""fullscreenenter"",""1"",""1211""
","
","
","""event"",""trial"",""time""
""fullscreenenter"",""1"",""1211""
","
","true","false","[]","[]","[]","","","","","","","",""
"learning-instructions","9","32677","0.0-9.0-0.0","7818","approach_avoid_sv1","""event"",""trial"",""time""
""fullscreenenter"",""1"",""1211""
","
","
","""event"",""trial"",""time""
""fullscreenenter"",""1"",""1211""
","
","","","","","","2976.5","<p> Welcome back! </p><p> Last week, you had to make choices about lots of different items.  </p>","","0","instructions","","",""
"learning-instructions","10","37548","0.0-9.0-0.1","7818","approach_avoid_sv1","""event"",""trial"",""time""
""fullscreenenter"",""1"",""1211""
","
","
","""event"",""trial"",""time""
""fullscreenenter"",""1"",""1211""
","
","","","","","","757.3000000119209","<p> Today, we are going to ask you to try to remember all the items. </p>","","0","instructions","","",""
"learning-instructions","11","48703","0.0-9.0-0.2","7818","approach_avoid_sv1","""event"",""trial"",""time""
""fullscreenenter"",""1"",""1211""
","
","
","""event"",""trial"",""time""
""fullscreenenter"",""1"",""1211""
","
","","","","","","1012.6000000238419","<p> On every trial, you will see an image. </p><p> The image may be an OLD image you saw during the games last week or it may be a NEW image that was not presented. </p>","","0","instructions","","",""
"learning-instructions","12","59504","0.0-9.0-0.3","7818","approach_avoid_sv1","""event"",""trial"",""time""
""fullscreenenter"",""1"",""1211""
","
","
","""event"",""trial"",""time""
""fullscreenenter"",""1"",""1211""
","
","","","","","","2302","<p> You need to select whether the image is:  </p><p>  'Definitely old', 'Maybe old', 'Maybe new', or 'Definitely new.'  </p><div class=""mem-choice-instructions-grid""><div class=""choice-option"" id=""choice-option-1"" ><img src=""images/definitely_old_1.png"" id=""choice-option-img-1"" class=""choice-option-img"" stage=""1""></div><div class=""choice-option"" id=""choice-option-2"" ><img src=""images/maybe_old_1.png"" id=""choice-option-img-2"" class=""choice-option-img"" stage=""1""></div><div class=""choice-option"" id=""choice-option-3"" ><img src=""images/maybe_new_1.png"" id=""choice-option-img-3"" class=""choice-option-img"" stage=""1""></div><div class=""choice-option"" id=""choice-option-4"" > <img src=""images/definitely_new_1.png"" id=""choice-option-img-4"" class=""choice-option-img"" stage=""1""></div></div>","","0","instructions","","",""
"learning-instructions","13","67636","0.0-9.0-0.4","7818","approach_avoid_sv1","""event"",""trial"",""time""
""fullscreenenter"",""1"",""1211""
","
","
","""event"",""trial"",""time""
""fullscreenenter"",""1"",""1211""
","
","","","","","","1613.5","<p> You should use the 1, 2, 3, and 4 keys to make your responses.  </p><div class=""mem-choice-instructions-grid""><div class=""choice-option"" id=""choice-option-1"" ><img src=""images/definitely_old.png"" id=""choice-option-img-1"" class=""choice-option-img"" stage=""1""></div><div class=""choice-option"" id=""choice-option-2"" ><img src=""images/maybe_old.png"" id=""choice-option-img-2"" class=""choice-option-img"" stage=""1""></div><div class=""choice-option"" id=""choice-option-3"" ><img src=""images/maybe_new.png"" id=""choice-option-img-3"" class=""choice-option-img"" stage=""1""></div><div class=""choice-option"" id=""choice-option-4"" > <img src=""images/definitely_new.png"" id=""choice-option-img-4"" class=""choice-option-img"" stage=""1""></div></div>","","0","instructions","","",""
"learning-instructions","14","75281","0.0-9.0-0.5","7818","approach_avoid_sv1","""event"",""trial"",""time""
""fullscreenenter"",""1"",""1211""
","
","
","""event"",""trial"",""time""
""fullscreenenter"",""1"",""1211""
","
","","","","","","1301","<p> You will have 10 seconds to make each response.  </p><p>  Make sure to respond before time runs out! </p>","","0","instructions","","",""
"learning-instructions","15","83181","0.0-9.0-0.6","7818","approach_avoid_sv1","""event"",""trial"",""time""
""fullscreenenter"",""1"",""1211""
","
","
","""event"",""trial"",""time""
""fullscreenenter"",""1"",""1211""
","
","","","","","","821.2999999523163","<p> Today, you will see each image ONCE only.  </p><p>  That means none of the images will repeat. </p>","","0","instructions","","",""
"learning-instructions","16","96359","0.0-9.0-0.7","7818","approach_avoid_sv1","""event"",""trial"",""time""
""fullscreenenter"",""1"",""1211""
","
","
","""event"",""trial"",""time""
""fullscreenenter"",""1"",""1211""
","
","","","","","","488.39999997615814","<p> Before you play the real game, it is time to practice. </p><p>  Just like in the real game, some of the images in the practice will be ones you have seen before. </p><p>  Others will be entirely new. </p>","","0","instructions","","",""
"html-button-response","17","98063","0.0-10.0","7818","approach_avoid_sv1","""event"",""trial"",""time""
""fullscreenenter"",""1"",""1211""
","
","
","""event"",""trial"",""time""
""fullscreenenter"",""1"",""1211""
","
","","","","","","1591.4000000357628","<p> Ready to practice? </p><p> Remember, use the 1, 2, 3, and 4 keys to make your responses. </p>","0","","instructions","","",""
"html-keyboard-response","18","98677","0.0-11.0-0.0","7818","approach_avoid_sv1","""event"",""trial"",""time""
""fullscreenenter"",""1"",""1211""
","
","
","""event"",""trial"",""time""
""fullscreenenter"",""1"",""1211""
","
","","","","","","null","<div style=""font-size:60px;"">+</div>","null","","fixation","","",""
"memory-trial","19","103103","0.0-11.0-1.0","7818","approach_avoid_sv1","""event"",""trial"",""time""
""fullscreenenter"",""1"",""1211""
","
","
","""event"",""trial"",""time""
""fullscreenenter"",""1"",""1211""
","
","","","","","","3416.600000023842","images/ball2.png","","","practice","1","definitely_old",""
"html-keyboard-response","20","103607","0.0-11.0-0.1","7818","approach_avoid_sv1","""event"",""trial"",""time""
""fullscreenenter"",""1"",""1211""
","
","
","""event"",""trial"",""time""
""fullscreenenter"",""1"",""1211""
","
","","","","","","null","<div style=""font-size:60px;"">+</div>","null","","fixation","","",""
"memory-trial","21","106058","0.0-11.0-1.1","7818","approach_avoid_sv1","""event"",""trial"",""time""
""fullscreenenter"",""1"",""1211""
","
","
","""event"",""trial"",""time""
""fullscreenenter"",""1"",""1211""
","
","","","","","","1431.3999999761581","images/ball3.png","","","practice","1","definitely_old",""
"html-keyboard-response","22","106577","0.0-11.0-0.2","7818","approach_avoid_sv1","""event"",""trial"",""time""
""fullscreenenter"",""1"",""1211""
","
","
","""event"",""trial"",""time""
""fullscreenenter"",""1"",""1211""
","
","","","","","","null","<div style=""font-size:60px;"">+</div>","null","","fixation","","",""
"memory-trial","23","114688","0.0-11.0-1.2","7818","approach_avoid_sv1","""event"",""trial"",""time""
""fullscreenenter"",""1"",""1211""
","
","
","""event"",""trial"",""time""
""fullscreenenter"",""1"",""1211""
","
","","","","","","7101.399999976158","images/racket2.png","","","practice","4","definitely_new",""
"html-keyboard-response","24","115207","0.0-11.0-0.3","7818","approach_avoid_sv1","""event"",""trial"",""time""
""fullscreenenter"",""1"",""1211""
","
","
","""event"",""trial"",""time""
""fullscreenenter"",""1"",""1211""
","
","","","","","","null","<div style=""font-size:60px;"">+</div>","null","","fixation","","",""
"memory-trial","25","118958","0.0-11.0-1.3","7818","approach_avoid_sv1","""event"",""trial"",""time""
""fullscreenenter"",""1"",""1211""
","
","
","""event"",""trial"",""time""
""fullscreenenter"",""1"",""1211""
","
","","","","","","2737.199999988079","images/racket1.png","","","practice","3","maybe_new",""
"html-keyboard-response","26","119467","0.0-11.0-0.4","7818","approach_avoid_sv1","""event"",""trial"",""time""
""fullscreenenter"",""1"",""1211""
","
","
","""event"",""trial"",""time""
""fullscreenenter"",""1"",""1211""
","
","","","","","","null","<div style=""font-size:60px;"">+</div>","null","","fixation","","",""
"memory-trial","27","121743","0.0-11.0-1.4","7818","approach_avoid_sv1","""event"",""trial"",""time""
""fullscreenenter"",""1"",""1211""
","
","
","""event"",""trial"",""time""
""fullscreenenter"",""1"",""1211""
","
","","","","","","1258.9000000357628","images/racket5.png","","","practice","1","definitely_old",""
"html-keyboard-response","28","122247","0.0-11.0-0.5","7818","approach_avoid_sv1","""event"",""trial"",""time""
""fullscreenenter"",""1"",""1211""
","
","
","""event"",""trial"",""time""
""fullscreenenter"",""1"",""1211""
","
","","","","","","null","<div style=""font-size:60px;"">+</div>","null","","fixation","","",""
"memory-trial","29","125697","0.0-11.0-1.5","7818","approach_avoid_sv1","""event"",""trial"",""time""
""fullscreenenter"",""1"",""1211""
","
","
","""event"",""trial"",""time""
""fullscreenenter"",""1"",""1211""
","
","","","","","","2436.800000011921","images/ball1.png","","","practice","2","maybe_old",""
"html-keyboard-response","30","126207","0.0-11.0-0.6","7818","approach_avoid_sv1","""event"",""trial"",""time""
""fullscreenenter"",""1"",""1211""
","
","
","""event"",""trial"",""time""
""fullscreenenter"",""1"",""1211""
","
","","","","","","null","<div style=""font-size:60px;"">+</div>","null","","fixation","","",""
"memory-trial","31","128419","0.0-11.0-1.6","7818","approach_avoid_sv1","""event"",""trial"",""time""
""fullscreenenter"",""1"",""1211""
","
","
","""event"",""trial"",""time""
""fullscreenenter"",""1"",""1211""
","
","","","","","","1201.699999988079","images/ball5.png","","","practice","1","definitely_old",""
"html-keyboard-response","32","128929","0.0-11.0-0.7","7818","approach_avoid_sv1","""event"",""trial"",""time""
""fullscreenenter"",""1"",""1211""
","
","
","""event"",""trial"",""time""
""fullscreenenter"",""1"",""1211""
","
","","","","","","null","<div style=""font-size:60px;"">+</div>","null","","fixation","","",""
"memory-trial","33","130910","0.0-11.0-1.7","7818","approach_avoid_sv1","""event"",""trial"",""time""
""fullscreenenter"",""1"",""1211""
","
","
","""event"",""trial"",""time""
""fullscreenenter"",""1"",""1211""
","
","","","","","","972.6000000238419","images/racket3.png","","","practice","1","definitely_old",""
"learning-instructions","34","140020","0.0-12.0-0.0","7818","approach_avoid_sv1","""event"",""trial"",""time""
""fullscreenenter"",""1"",""1211""
","
","
","""event"",""trial"",""time""
""fullscreenenter"",""1"",""1211""
","
","","","","","","1126.300000011921","<p> Great! You have completed the practice. </p><p> Before you start, we're going to ask you a few questions about how the game works.  </p>","","0","instructions","","",""
"preload","35","141953","0.0-13.0","7818","approach_avoid_sv1","""event"",""trial"",""time""
""fullscreenenter"",""1"",""1211""
","
","
","""event"",""trial"",""time""
""fullscreenenter"",""1"",""1211""
","
","true","false","[]","[]","[]","","","","","","","",""
"comp-q","36","149024","0.0-14.0-0.0","7818","approach_avoid_sv1","""event"",""trial"",""time""
""fullscreenenter"",""1"",""1211""
","
","
","""event"",""trial"",""time""
""fullscreenenter"",""1"",""1211""
","
","","","","","","1239.7000000476837","<p> <b> True or False? </b> </p><p> In this game, you will only see each image once. </p>","","0","comp_question","","","true"
"comp-q","37","156112","0.0-14.0-1.0","7818","approach_avoid_sv1","""event"",""trial"",""time""
""fullscreenenter"",""1"",""1211""
","
","
","""event"",""trial"",""time""
""fullscreenenter"",""1"",""1211""
","
","","","","","","727.6999999880791","<p> <b> That's right! </b> You will see many different images <i> one time each </i> in this game. </p>","","0","comp_answer","","",""
"comp-q","38","162122","0.0-15.0-0.0","7818","approach_avoid_sv1","""event"",""trial"",""time""
""fullscreenenter"",""1"",""1211""
","
","
","""event"",""trial"",""time""
""fullscreenenter"",""1"",""1211""
","
","","","","","","989","<p> <b> True or False? </b> </p><p> You should use the mouse and click to make your response. </p>","","1","comp_question","","","true"
"comp-q","39","169784","0.0-15.0-1.0","7818","approach_avoid_sv1","""event"",""trial"",""time""
""fullscreenenter"",""1"",""1211""
","
","
","""event"",""trial"",""time""
""fullscreenenter"",""1"",""1211""
","
","","","","","","1150.2000000476837","<p><b> That's right! </b> You should use the '1', '2', '3', and '4' keys to make your response. </p>","","0","comp_answer","","",""
"comp-q","40","176052","0.0-16.0-0.0","7818","approach_avoid_sv1","""event"",""trial"",""time""
""fullscreenenter"",""1"",""1211""
","
","
","""event"",""trial"",""time""
""fullscreenenter"",""1"",""1211""
","
","","","","","","578.3999999761581","<p> <b> True or False? </b> </p><p> You will have as much time as you want to make each choice. </p>","","1","comp_question","","","true"
"comp-q","41","182033","0.0-16.0-1.0","7818","approach_avoid_sv1","""event"",""trial"",""time""
""fullscreenenter"",""1"",""1211""
","
","
","""event"",""trial"",""time""
""fullscreenenter"",""1"",""1211""
","
","","","","","","1279.7000000476837","<p> <b> That's right! </b> You will only have 10 seconds to make each choice. </p>","","0","comp_answer","","",""
"learning-instructions","42","192253","0.0-17.0","7818","approach_avoid_sv1","""event"",""trial"",""time""
""fullscreenenter"",""1"",""1211""
","
","
","""event"",""trial"",""time""
""fullscreenenter"",""1"",""1211""
","
","","","","","","1539.4000000357628","<p> Great! You are now ready to begin the game. </p><p> Remember, use the 1, 2, 3, and 4 keys to make your responses. </p>","","0","instructions","","",""
"html-keyboard-response","43","192860","0.0-18.0-0.0","7818","approach_avoid_sv1","""event"",""trial"",""time""
""fullscreenenter"",""1"",""1211""
","
","
","""event"",""trial"",""time""
""fullscreenenter"",""1"",""1211""
","
","","","","","","null","<div style=""font-size:60px;"">+</div>","null","","fixation","","",""
"memory-trial","44","195231","0.0-18.0-1.0","7818","approach_avoid_sv1","""event"",""trial"",""time""
""fullscreenenter"",""1"",""1211""
","
","
","""event"",""trial"",""time""
""fullscreenenter"",""1"",""1211""
","
","","","","","","1345.300000011921","images/chair8.png","","","memory_trial","1","definitely_old",""
"html-keyboard-response","45","195740","0.0-18.0-0.1","7818","approach_avoid_sv1","""event"",""trial"",""time""
""fullscreenenter"",""1"",""1211""
","
","
","""event"",""trial"",""time""
""fullscreenenter"",""1"",""1211""
","
","","","","","","null","<div style=""font-size:60px;"">+</div>","null","","fixation","","",""
"memory-trial","46","197640","0.0-18.0-1.1","7818","approach_avoid_sv1","""event"",""trial"",""time""
""fullscreenenter"",""1"",""1211""
","
","
","""event"",""trial"",""time""
""fullscreenenter"",""1"",""1211""
","
","","","","","","888.5","images/train2.png","","","memory_trial","1","definitely_old",""
"html-keyboard-response","47","198150","0.0-18.0-0.2","7818","approach_avoid_sv1","""event"",""trial"",""time""
""fullscreenenter"",""1"",""1211""
","
","
","""event"",""trial"",""time""
""fullscreenenter"",""1"",""1211""
","
","","","","","","null","<div style=""font-size:60px;"">+</div>","null","","fixation","","",""
"memory-trial","48","203370","0.0-18.0-1.2","7818","approach_avoid_sv1","""event"",""trial"",""time""
""fullscreenenter"",""1"",""1211""
","
","
","""event"",""trial"",""time""
""fullscreenenter"",""1"",""1211""
","
","","","","","","4203","images/dog6.png","","","memory_trial","3","maybe_new",""
"html-keyboard-response","49","203880","0.0-18.0-0.3","7818","approach_avoid_sv1","""event"",""trial"",""time""
""fullscreenenter"",""1"",""1211""
","
","
","""event"",""trial"",""time""
""fullscreenenter"",""1"",""1211""
","
","","","","","","null","<div style=""font-size:60px;"">+</div>","null","","fixation","","",""
"memory-trial","50","206880","0.0-18.0-1.3","7818","approach_avoid_sv1","""event"",""trial"",""time""
""fullscreenenter"",""1"",""1211""
","
","
","""event"",""trial"",""time""
""fullscreenenter"",""1"",""1211""
","
","","","","","","1980.800000011921","images/boat5.png","","","memory_trial","4","definitely_new",""
"html-keyboard-response","51","207390","0.0-18.0-0.4","7818","approach_avoid_sv1","""event"",""trial"",""time""
""fullscreenenter"",""1"",""1211""
","
","
","""event"",""trial"",""time""
""fullscreenenter"",""1"",""1211""
","
","","","","","","null","<div style=""font-size:60px;"">+</div>","null","","fixation","","",""
"memory-trial","52","213331","0.0-18.0-1.4","7818","approach_avoid_sv1","""event"",""trial"",""time""
""fullscreenenter"",""1"",""1211""
","
","
","""event"",""trial"",""time""
""fullscreenenter"",""1"",""1211""
","
","","","","","","4928.800000011921","images/tree6.png","","","memory_trial","3","maybe_new",""
"html-keyboard-response","53","213850","0.0-18.0-0.5","7818","approach_avoid_sv1","""event"",""trial"",""time""
""fullscreenenter"",""1"",""1211""
","
","
","""event"",""trial"",""time""
""fullscreenenter"",""1"",""1211""
","
","","","","","","null","<div style=""font-size:60px;"">+</div>","null","","fixation","","",""
"memory-trial","54","216830","0.0-18.0-1.5","7818","approach_avoid_sv1","""event"",""trial"",""time""
""fullscreenenter"",""1"",""1211""
","
","
","""event"",""trial"",""time""
""fullscreenenter"",""1"",""1211""
","
","","","","","","1971.1000000238419","images/sofa6.png","","","memory_trial","1","definitely_old",""
"html-keyboard-response","55","217350","0.0-18.0-0.6","7818","approach_avoid_sv1","""event"",""trial"",""time""
""fullscreenenter"",""1"",""1211""
","
","
","""event"",""trial"",""time""
""fullscreenenter"",""1"",""1211""
","
","","","","","","null","<div style=""font-size:60px;"">+</div>","null","","fixation","","",""
"memory-trial","56","219300","0.0-18.0-1.6","7818","approach_avoid_sv1","""event"",""trial"",""time""
""fullscreenenter"",""1"",""1211""
","
","
","""event"",""trial"",""time""
""fullscreenenter"",""1"",""1211""
","
","","","","","","935.6999999880791","images/truck6.png","","","memory_trial","1","definitely_old",""
"html-keyboard-response","57","219816","0.0-18.0-0.7","7818","approach_avoid_sv1","""event"",""trial"",""time""
""fullscreenenter"",""1"",""1211""
","
","
","""event"",""trial"",""time""
""fullscreenenter"",""1"",""1211""
","
","","","","","","null","<div style=""font-size:60px;"">+</div>","null","","fixation","","",""
"memory-trial","58","221587","0.0-18.0-1.7","7818","approach_avoid_sv1","""event"",""trial"",""time""
""fullscreenenter"",""1"",""1211""
","
","
","""event"",""trial"",""time""
""fullscreenenter"",""1"",""1211""
","
","","","","","","754.1999999880791","images/straw1.png","","","memory_trial","1","definitely_old",""
"html-keyboard-response","59","222098","0.0-18.0-0.8","7818","approach_avoid_sv1","""event"",""trial"",""time""
""fullscreenenter"",""1"",""1211""
","
","
","""event"",""trial"",""time""
""fullscreenenter"",""1"",""1211""
","
","","","","","","null","<div style=""font-size:60px;"">+</div>","null","","fixation","","",""
"memory-trial","60","223962","0.0-18.0-1.8","7818","approach_avoid_sv1","""event"",""trial"",""time""
""fullscreenenter"",""1"",""1211""
","
","
","""event"",""trial"",""time""
""fullscreenenter"",""1"",""1211""
","
","","","","","","849","images/straw2.png","","","memory_trial","1","definitely_old",""
"html-keyboard-response","61","224471","0.0-18.0-0.9","7818","approach_avoid_sv1","""event"",""trial"",""time""
""fullscreenenter"",""1"",""1211""
","
","
","""event"",""trial"",""time""
""fullscreenenter"",""1"",""1211""
","
","","","","","","null","<div style=""font-size:60px;"">+</div>","null","","fixation","","",""
"memory-trial","62","226176","0.0-18.0-1.9","7818","approach_avoid_sv1","""event"",""trial"",""time""
""fullscreenenter"",""1"",""1211""
","
","
","""event"",""trial"",""time""
""fullscreenenter"",""1"",""1211""
","
","","","","","","692.5","images/cactus8.png","","","memory_trial","1","definitely_old",""
"html-keyboard-response","63","226683","0.0-18.0-0.10","7818","approach_avoid_sv1","""event"",""trial"",""time""
""fullscreenenter"",""1"",""1211""
","
","
","""event"",""trial"",""time""
""fullscreenenter"",""1"",""1211""
","
","","","","","","null","<div style=""font-size:60px;"">+</div>","null","","fixation","","",""
"memory-trial","64","229127","0.0-18.0-1.10","7818","approach_avoid_sv1","""event"",""trial"",""time""
""fullscreenenter"",""1"",""1211""
","
","
","""event"",""trial"",""time""
""fullscreenenter"",""1"",""1211""
","
","","","","","","1427.8999999761581","images/bush6.png","","","memory_trial","4","definitely_new",""
"html-keyboard-response","65","229636","0.0-18.0-0.11","7818","approach_avoid_sv1","""event"",""trial"",""time""
""fullscreenenter"",""1"",""1211""
","
","
","""event"",""trial"",""time""
""fullscreenenter"",""1"",""1211""
","
","","","","","","null","<div style=""font-size:60px;"">+</div>","null","","fixation","","",""
"memory-trial","66","231510","0.0-18.0-1.11","7818","approach_avoid_sv1","""event"",""trial"",""time""
""fullscreenenter"",""1"",""1211""
","
","
","""event"",""trial"",""time""
""fullscreenenter"",""1"",""1211""
","
","","","","","","859","images/apple1.png","","","memory_trial","1","definitely_old",""
"html-keyboard-response","67","232011","0.0-18.0-0.12","7818","approach_avoid_sv1","""event"",""trial"",""time""
""fullscreenenter"",""1"",""1211""
","
","
","""event"",""trial"",""time""
""fullscreenenter"",""1"",""1211""
","
","","","","","","null","<div style=""font-size:60px;"">+</div>","null","","fixation","","",""
"memory-trial","68","234699","0.0-18.0-1.12","7818","approach_avoid_sv1","""event"",""trial"",""time""
""fullscreenenter"",""1"",""1211""
","
","
","""event"",""trial"",""time""
""fullscreenenter"",""1"",""1211""
","
","","","","","","1678.6000000238419","images/plane1.png","","","memory_trial","4","definitely_new",""
"html-keyboard-response","69","235202","0.0-18.0-0.13","7818","approach_avoid_sv1","""event"",""trial"",""time""
""fullscreenenter"",""1"",""1211""
","
","
","""event"",""trial"",""time""
""fullscreenenter"",""1"",""1211""
","
","","","","","","null","<div style=""font-size:60px;"">+</div>","null","","fixation","","",""
"memory-trial","70","238105","0.0-18.0-1.13","7818","approach_avoid_sv1","""event"",""trial"",""time""
""fullscreenenter"",""1"",""1211""
","
","
","""event"",""trial"",""time""
""fullscreenenter"",""1"",""1211""
","
","","","","","","1890.3999999761581","images/rabbit8.png","","","memory_trial","1","definitely_old",""
"html-keyboard-response","71","238616","0.0-18.0-0.14","7818","approach_avoid_sv1","""event"",""trial"",""time""
""fullscreenenter"",""1"",""1211""
","
","
","""event"",""trial"",""time""
""fullscreenenter"",""1"",""1211""
","
","","","","","","null","<div style=""font-size:60px;"">+</div>","null","","fixation","","",""
"memory-trial","72","241109","0.0-18.0-1.14","7818","approach_avoid_sv1","""event"",""trial"",""time""
""fullscreenenter"",""1"",""1211""
","
","
","""event"",""trial"",""time""
""fullscreenenter"",""1"",""1211""
","
","","","","","","1488","images/bed4.png","","","memory_trial","4","definitely_new",""
"html-keyboard-response","73","241613","0.0-18.0-0.15","7818","approach_avoid_sv1","""event"",""trial"",""time""
""fullscreenenter"",""1"",""1211""
","
","
","""event"",""trial"",""time""
""fullscreenenter"",""1"",""1211""
","
","","","","","","null","<div style=""font-size:60px;"">+</div>","null","","fixation","","",""
"memory-trial","74","243547","0.0-18.0-1.15","7818","approach_avoid_sv1","""event"",""trial"",""time""
""fullscreenenter"",""1"",""1211""
","
","
","""event"",""trial"",""time""
""fullscreenenter"",""1"",""1211""
","
","","","","","","922.6999999880791","images/boat2.png","","","memory_trial","4","definitely_new",""
"html-keyboard-response","75","244053","0.0-18.0-0.16","7818","approach_avoid_sv1","""event"",""trial"",""time""
""fullscreenenter"",""1"",""1211""
","
","
","""event"",""trial"",""time""
""fullscreenenter"",""1"",""1211""
","
","","","","","","null","<div style=""font-size:60px;"">+</div>","null","","fixation","","",""
"memory-trial","76","245854","0.0-18.0-1.16","7818","approach_avoid_sv1","""event"",""trial"",""time""
""fullscreenenter"",""1"",""1211""
","
","
","""event"",""trial"",""time""
""fullscreenenter"",""1"",""1211""
","
","","","","","","794.5999999642372","images/bush8.png","","","memory_trial","4","definitely_new",""
"html-keyboard-response","77","246359","0.0-18.0-0.17","7818","approach_avoid_sv1","""event"",""trial"",""time""
""fullscreenenter"",""1"",""1211""
","
","
","""event"",""trial"",""time""
""fullscreenenter"",""1"",""1211""
","
","","","","","","null","<div style=""font-size:60px;"">+</div>","null","","fixation","","",""
"memory-trial","78","248641","0.0-18.0-1.17","7818","approach_avoid_sv1","""event"",""trial"",""time""
""fullscreenenter"",""1"",""1211""
","
","
","""event"",""trial"",""time""
""fullscreenenter"",""1"",""1211""
","
","","","","","","1269.800000011921","images/train1.png","","","memory_trial","1","definitely_old",""
"html-keyboard-response","79","249152","0.0-18.0-0.18","7818","approach_avoid_sv1","""event"",""trial"",""time""
""fullscreenenter"",""1"",""1211""
","
","
","""event"",""trial"",""time""
""fullscreenenter"",""1"",""1211""
","
","","","","","","null","<div style=""font-size:60px;"">+</div>","null","","fixation","","",""
"memory-trial","80","250892","0.0-18.0-1.18","7818","approach_avoid_sv1","""event"",""trial"",""time""
""fullscreenenter"",""1"",""1211""
","
","
","""event"",""trial"",""time""
""fullscreenenter"",""1"",""1211""
","
","","","","","","726.6999999880791","images/rodent6.png","","","memory_trial","1","definitely_old",""
"html-keyboard-response","81","251401","0.0-18.0-0.19","7818","approach_avoid_sv1","""event"",""trial"",""time""
""fullscreenenter"",""1"",""1211""
","
","
","""event"",""trial"",""time""
""fullscreenenter"",""1"",""1211""
","
","","","","","","null","<div style=""font-size:60px;"">+</div>","null","","fixation","","",""
"memory-trial","82","253837","0.0-18.0-1.19","7818","approach_avoid_sv1","""event"",""trial"",""time""
""fullscreenenter"",""1"",""1211""
","
","
","""event"",""trial"",""time""
""fullscreenenter"",""1"",""1211""
","
","","","","","","1424.0999999642372","images/flower4.png","","","memory_trial","4","definitely_new",""
"html-keyboard-response","83","254343","0.0-18.0-0.20","7818","approach_avoid_sv1","""event"",""trial"",""time""
""fullscreenenter"",""1"",""1211""
","
","
","""event"",""trial"",""time""
""fullscreenenter"",""1"",""1211""
","
","","","","","","null","<div style=""font-size:60px;"">+</div>","null","","fixation","","",""
"memory-trial","84","257837","0.0-18.0-1.20","7818","approach_avoid_sv1","""event"",""trial"",""time""
""fullscreenenter"",""1"",""1211""
","
","
","""event"",""trial"",""time""
""fullscreenenter"",""1"",""1211""
","
","","","","","","2487.300000011921","images/goat7.png","","","memory_trial","4","definitely_new",""
"html-keyboard-response","85","258338","0.0-18.0-0.21","7818","approach_avoid_sv1","""event"",""trial"",""time""
""fullscreenenter"",""1"",""1211""
","
","
","""event"",""trial"",""time""
""fullscreenenter"",""1"",""1211""
","
","","","","","","null","<div style=""font-size:60px;"">+</div>","null","","fixation","","",""
"memory-trial","86","260196","0.0-18.0-1.21","7818","approach_avoid_sv1","""event"",""trial"",""time""
""fullscreenenter"",""1"",""1211""
","
","
","""event"",""trial"",""time""
""fullscreenenter"",""1"",""1211""
","
","","","","","","838.3999999761581","images/apple4.png","","","memory_trial","1","definitely_old",""
"html-keyboard-response","87","260704","0.0-18.0-0.22","7818","approach_avoid_sv1","""event"",""trial"",""time""
""fullscreenenter"",""1"",""1211""
","
","
","""event"",""trial"",""time""
""fullscreenenter"",""1"",""1211""
","
","","","","","","null","<div style=""font-size:60px;"">+</div>","null","","fixation","","",""
"memory-trial","88","262347","0.0-18.0-1.22","7818","approach_avoid_sv1","""event"",""trial"",""time""
""fullscreenenter"",""1"",""1211""
","
","
","""event"",""trial"",""time""
""fullscreenenter"",""1"",""1211""
","
","","","","","","635.8999999761581","images/goat6.png","","","memory_trial","1","definitely_old",""
"html-keyboard-response","89","262849","0.0-18.0-0.23","7818","approach_avoid_sv1","""event"",""trial"",""time""
""fullscreenenter"",""1"",""1211""
","
","
","""event"",""trial"",""time""
""fullscreenenter"",""1"",""1211""
","
","","","","","","null","<div style=""font-size:60px;"">+</div>","null","","fixation","","",""
"memory-trial","90","264732","0.0-18.0-1.23","7818","approach_avoid_sv1","""event"",""trial"",""time""
""fullscreenenter"",""1"",""1211""
","
","
","""event"",""trial"",""time""
""fullscreenenter"",""1"",""1211""
","
","","","","","","873.3999999761581","images/boat1.png","","","memory_trial","4","definitely_new",""
"html-keyboard-response","91","265237","0.0-18.0-0.24","7818","approach_avoid_sv1","""event"",""trial"",""time""
""fullscreenenter"",""1"",""1211""
","
","
","""event"",""trial"",""time""
""fullscreenenter"",""1"",""1211""
","
","","","","","","null","<div style=""font-size:60px;"">+</div>","null","","fixation","","",""
"memory-trial","92","266902","0.0-18.0-1.24","7818","approach_avoid_sv1","""event"",""trial"",""time""
""fullscreenenter"",""1"",""1211""
","
","
","""event"",""trial"",""time""
""fullscreenenter"",""1"",""1211""
","
","","","","","","652.6999999880791","images/rabbit2.png","","","memory_trial","1","definitely_old",""
"html-keyboard-response","93","267408","0.0-18.0-0.25","7818","approach_avoid_sv1","""event"",""trial"",""time""
""fullscreenenter"",""1"",""1211""
","
","
","""event"",""trial"",""time""
""fullscreenenter"",""1"",""1211""
","
","","","","","","null","<div style=""font-size:60px;"">+</div>","null","","fixation","","",""
"memory-trial","94","269599","0.0-18.0-1.25","7818","approach_avoid_sv1","""event"",""trial"",""time""
""fullscreenenter"",""1"",""1211""
","
","
","""event"",""trial"",""time""
""fullscreenenter"",""1"",""1211""
","
","","","","","","1187","images/flower2.png","","","memory_trial","1","definitely_old",""
"html-keyboard-response","95","270101","0.0-18.0-0.26","7818","approach_avoid_sv1","""event"",""trial"",""time""
""fullscreenenter"",""1"",""1211""
","
","
","""event"",""trial"",""time""
""fullscreenenter"",""1"",""1211""
","
","","","","","","null","<div style=""font-size:60px;"">+</div>","null","","fixation","","",""
"memory-trial","96","272563","0.0-18.0-1.26","7818","approach_avoid_sv1","""event"",""trial"",""time""
""fullscreenenter"",""1"",""1211""
","
","
","""event"",""trial"",""time""
""fullscreenenter"",""1"",""1211""
","
","","","","","","1448.5","images/orange1.png","","","memory_trial","4","definitely_new",""
"html-keyboard-response","97","273078","0.0-18.0-0.27","7818","approach_avoid_sv1","""event"",""trial"",""time""
""fullscreenenter"",""1"",""1211""
","
","
","""event"",""trial"",""time""
""fullscreenenter"",""1"",""1211""
","
","","","","","","null","<div style=""font-size:60px;"">+</div>","null","","fixation","","",""
"memory-trial","98","275337","0.0-18.0-1.27","7818","approach_avoid_sv1","""event"",""trial"",""time""
""fullscreenenter"",""1"",""1211""
","
","
","""event"",""trial"",""time""
""fullscreenenter"",""1"",""1211""
","
","","","","","","1241.7000000476837","images/plane5.png","","","memory_trial","1","definitely_old",""
"html-keyboard-response","99","275842","0.0-18.0-0.28","7818","approach_avoid_sv1","""event"",""trial"",""time""
""fullscreenenter"",""1"",""1211""
","
","
","""event"",""trial"",""time""
""fullscreenenter"",""1"",""1211""
","
","","","","","","null","<div style=""font-size:60px;"">+</div>","null","","fixation","","",""
"memory-trial","100","280314","0.0-18.0-1.28","7818","approach_avoid_sv1","""event"",""trial"",""time""
""fullscreenenter"",""1"",""1211""
","
","
","""event"",""trial"",""time""
""fullscreenenter"",""1"",""1211""
","
","","","","","","3463.600000023842","images/rodent8.png","","","memory_trial","4","definitely_new",""
"html-keyboard-response","101","280824","0.0-18.0-0.29","7818","approach_avoid_sv1","""event"",""trial"",""time""
""fullscreenenter"",""1"",""1211""
","
","
","""event"",""trial"",""time""
""fullscreenenter"",""1"",""1211""
","
","","","","","","null","<div style=""font-size:60px;"">+</div>","null","","fixation","","",""
"memory-trial","102","283290","0.0-18.0-1.29","7818","approach_avoid_sv1","""event"",""trial"",""time""
""fullscreenenter"",""1"",""1211""
","
","
","""event"",""trial"",""time""
""fullscreenenter"",""1"",""1211""
","
","","","","","","1449.6000000238419","images/banana3.png","","","memory_trial","4","definitely_new",""
"html-keyboard-response","103","283798","0.0-18.0-0.30","7818","approach_avoid_sv1","""event"",""trial"",""time""
""fullscreenenter"",""1"",""1211""
","
","
","""event"",""trial"",""time""
""fullscreenenter"",""1"",""1211""
","
","","","","","","null","<div style=""font-size:60px;"">+</div>","null","","fixation","","",""
"memory-trial","104","285484","0.0-18.0-1.30","7818","approach_avoid_sv1","""event"",""trial"",""time""
""fullscreenenter"",""1"",""1211""
","
","
","""event"",""trial"",""time""
""fullscreenenter"",""1"",""1211""
","
","","","","","","675.7000000476837","images/rabbit5.png","","","memory_trial","1","definitely_old",""
"html-keyboard-response","105","285993","0.0-18.0-0.31","7818","approach_avoid_sv1","""event"",""trial"",""time""
""fullscreenenter"",""1"",""1211""
","
","
","""event"",""trial"",""time""
""fullscreenenter"",""1"",""1211""
","
","","","","","","null","<div style=""font-size:60px;"">+</div>","null","","fixation","","",""
"memory-trial","106","287963","0.0-18.0-1.31","7818","approach_avoid_sv1","""event"",""trial"",""time""
""fullscreenenter"",""1"",""1211""
","
","
","""event"",""trial"",""time""
""fullscreenenter"",""1"",""1211""
","
","","","","","","954.6999999880791","images/sofa1.png","","","memory_trial","4","definitely_new",""
"html-keyboard-response","107","288469","0.0-18.0-0.32","7818","approach_avoid_sv1","""event"",""trial"",""time""
""fullscreenenter"",""1"",""1211""
","
","
","""event"",""trial"",""time""
""fullscreenenter"",""1"",""1211""
","
","","","","","","null","<div style=""font-size:60px;"">+</div>","null","","fixation","","",""
"memory-trial","108","291345","0.0-18.0-1.32","7818","approach_avoid_sv1","""event"",""trial"",""time""
""fullscreenenter"",""1"",""1211""
","
","
","""event"",""trial"",""time""
""fullscreenenter"",""1"",""1211""
","
","","","","","","1865.5","images/chair6.png","","","memory_trial","4","definitely_new",""
"html-keyboard-response","109","291849","0.0-18.0-0.33","7818","approach_avoid_sv1","""event"",""trial"",""time""
""fullscreenenter"",""1"",""1211""
","
","
","""event"",""trial"",""time""
""fullscreenenter"",""1"",""1211""
","
","","","","","","null","<div style=""font-size:60px;"">+</div>","null","","fixation","","",""
"memory-trial","110","293529","0.0-18.0-1.33","7818","approach_avoid_sv1","""event"",""trial"",""time""
""fullscreenenter"",""1"",""1211""
","
","
","""event"",""trial"",""time""
""fullscreenenter"",""1"",""1211""
","
","","","","","","674.6000000238419","images/apple6.png","","","memory_trial","1","definitely_old",""
"html-keyboard-response","111","294033","0.0-18.0-0.34","7818","approach_avoid_sv1","""event"",""trial"",""time""
""fullscreenenter"",""1"",""1211""
","
","
","""event"",""trial"",""time""
""fullscreenenter"",""1"",""1211""
","
","","","","","","null","<div style=""font-size:60px;"">+</div>","null","","fixation","","",""
"memory-trial","112","295852","0.0-18.0-1.34","7818","approach_avoid_sv1","""event"",""trial"",""time""
""fullscreenenter"",""1"",""1211""
","
","
","""event"",""trial"",""time""
""fullscreenenter"",""1"",""1211""
","
","","","","","","799.6999999880791","images/bed3.png","","","memory_trial","4","definitely_new",""
"html-keyboard-response","113","296359","0.0-18.0-0.35","7818","approach_avoid_sv1","""event"",""trial"",""time""
""fullscreenenter"",""1"",""1211""
","
","
","""event"",""trial"",""time""
""fullscreenenter"",""1"",""1211""
","
","","","","","","null","<div style=""font-size:60px;"">+</div>","null","","fixation","","",""
"memory-trial","114","298257","0.0-18.0-1.35","7818","approach_avoid_sv1","""event"",""trial"",""time""
""fullscreenenter"",""1"",""1211""
","
","
","""event"",""trial"",""time""
""fullscreenenter"",""1"",""1211""
","
","","","","","","890.5999999642372","images/horse2.png","","","memory_trial","4","definitely_new",""
"html-keyboard-response","115","298769","0.0-18.0-0.36","7818","approach_avoid_sv1","""event"",""trial"",""time""
""fullscreenenter"",""1"",""1211""
","
","
","""event"",""trial"",""time""
""fullscreenenter"",""1"",""1211""
","
","","","","","","null","<div style=""font-size:60px;"">+</div>","null","","fixation","","",""
"memory-trial","116","300565","0.0-18.0-1.36","7818","approach_avoid_sv1","""event"",""trial"",""time""
""fullscreenenter"",""1"",""1211""
","
","
","""event"",""trial"",""time""
""fullscreenenter"",""1"",""1211""
","
","","","","","","780.3000000119209","images/goat3.png","","","memory_trial","1","definitely_old",""
"html-keyboard-response","117","301075","0.0-18.0-0.37","7818","approach_avoid_sv1","""event"",""trial"",""time""
""fullscreenenter"",""1"",""1211""
","
","
","""event"",""trial"",""time""
""fullscreenenter"",""1"",""1211""
","
","","","","","","null","<div style=""font-size:60px;"">+</div>","null","","fixation","","",""
"memory-trial","118","302799","0.0-18.0-1.37","7818","approach_avoid_sv1","""event"",""trial"",""time""
""fullscreenenter"",""1"",""1211""
","
","
","""event"",""trial"",""time""
""fullscreenenter"",""1"",""1211""
","
","","","","","","714.1999999880791","images/straw7.png","","","memory_trial","1","definitely_old",""
"html-keyboard-response","119","303305","0.0-18.0-0.38","7818","approach_avoid_sv1","""event"",""trial"",""time""
""fullscreenenter"",""1"",""1211""
","
","
","""event"",""trial"",""time""
""fullscreenenter"",""1"",""1211""
","
","","","","","","null","<div style=""font-size:60px;"">+</div>","null","","fixation","","",""
"memory-trial","120","305177","0.0-18.0-1.38","7818","approach_avoid_sv1","""event"",""trial"",""time""
""fullscreenenter"",""1"",""1211""
","
","
","""event"",""trial"",""time""
""fullscreenenter"",""1"",""1211""
","
","","","","","","854.6999999880791","images/plane6.png","","","memory_trial","4","definitely_new",""
"html-keyboard-response","121","305685","0.0-18.0-0.39","7818","approach_avoid_sv1","""event"",""trial"",""time""
""fullscreenenter"",""1"",""1211""
","
","
","""event"",""trial"",""time""
""fullscreenenter"",""1"",""1211""
","
","","","","","","null","<div style=""font-size:60px;"">+</div>","null","","fixation","","",""
"memory-trial","122","307917","0.0-18.0-1.39","7818","approach_avoid_sv1","""event"",""trial"",""time""
""fullscreenenter"",""1"",""1211""
","
","
","""event"",""trial"",""time""
""fullscreenenter"",""1"",""1211""
","
","","","","","","1221.5999999642372","images/tree3.png","","","memory_trial","1","definitely_old",""
"html-keyboard-response","123","308433","0.0-18.0-0.40","7818","approach_avoid_sv1","""event"",""trial"",""time""
""fullscreenenter"",""1"",""1211""
","
","
","""event"",""trial"",""time""
""fullscreenenter"",""1"",""1211""
","
","","","","","","null","<div style=""font-size:60px;"">+</div>","null","","fixation","","",""
"memory-trial","124","310213","0.0-18.0-1.40","7818","approach_avoid_sv1","""event"",""trial"",""time""
""fullscreenenter"",""1"",""1211""
","
","
","""event"",""trial"",""time""
""fullscreenenter"",""1"",""1211""
","
","","","","","","772.3999999761581","images/cow5.png","","","memory_trial","1","definitely_old",""
"html-keyboard-response","125","310716","0.0-18.0-0.41","7818","approach_avoid_sv1","""event"",""trial"",""time""
""fullscreenenter"",""1"",""1211""
","
","
","""event"",""trial"",""time""
""fullscreenenter"",""1"",""1211""
","
","","","","","","null","<div style=""font-size:60px;"">+</div>","null","","fixation","","",""
"memory-trial","126","312380","0.0-18.0-1.41","7818","approach_avoid_sv1","""event"",""trial"",""time""
""fullscreenenter"",""1"",""1211""
","
","
","""event"",""trial"",""time""
""fullscreenenter"",""1"",""1211""
","
","","","","","","654.2999999523163","images/bush2.png","","","memory_trial","4","definitely_new",""
"html-button-response","127","314526","0.0-18.0-2.41-0.41","7818","approach_avoid_sv1","""event"",""trial"",""time""
""fullscreenenter"",""1"",""1211""
","
","
","""event"",""trial"",""time""
""fullscreenenter"",""1"",""1211""
","
","","","","","","2144.300000011921","<p> Take a break! </p><p> Click the button to continue. </p>","0","","break","","",""
"html-keyboard-response","128","315031","0.0-18.0-0.42","7818","approach_avoid_sv1","""event"",""trial"",""time""
""fullscreenenter"",""1"",""1211""
","
","
","""event"",""trial"",""time""
""fullscreenenter"",""1"",""1211""
","
","","","","","","null","<div style=""font-size:60px;"">+</div>","null","","fixation","","",""
"memory-trial","129","317142","0.0-18.0-1.42","7818","approach_avoid_sv1","""event"",""trial"",""time""
""fullscreenenter"",""1"",""1211""
","
","
","""event"",""trial"",""time""
""fullscreenenter"",""1"",""1211""
","
","","","","","","1091.199999988079","images/rodent5.png","","","memory_trial","1","definitely_old",""
"html-keyboard-response","130","317652","0.0-18.0-0.43","7818","approach_avoid_sv1","""event"",""trial"",""time""
""fullscreenenter"",""1"",""1211""
","
","
","""event"",""trial"",""time""
""fullscreenenter"",""1"",""1211""
","
","","","","","","null","<div style=""font-size:60px;"">+</div>","null","","fixation","","",""
"memory-trial","131","320029","0.0-18.0-1.43","7818","approach_avoid_sv1","""event"",""trial"",""time""
""fullscreenenter"",""1"",""1211""
","
","
","""event"",""trial"",""time""
""fullscreenenter"",""1"",""1211""
","
","","","","","","1359.300000011921","images/dog8.png","","","memory_trial","4","definitely_new",""
"html-keyboard-response","132","320530","0.0-18.0-0.44","7818","approach_avoid_sv1","""event"",""trial"",""time""
""fullscreenenter"",""1"",""1211""
","
","
","""event"",""trial"",""time""
""fullscreenenter"",""1"",""1211""
","
","","","","","","null","<div style=""font-size:60px;"">+</div>","null","","fixation","","",""
"memory-trial","133","323073","0.0-18.0-1.44","7818","approach_avoid_sv1","""event"",""trial"",""time""
""fullscreenenter"",""1"",""1211""
","
","
","""event"",""trial"",""time""
""fullscreenenter"",""1"",""1211""
","
","","","","","","1536","images/sofa8.png","","","memory_trial","4","definitely_new",""
"html-keyboard-response","134","323575","0.0-18.0-0.45","7818","approach_avoid_sv1","""event"",""trial"",""time""
""fullscreenenter"",""1"",""1211""
","
","
","""event"",""trial"",""time""
""fullscreenenter"",""1"",""1211""
","
","","","","","","null","<div style=""font-size:60px;"">+</div>","null","","fixation","","",""
"memory-trial","135","326371","0.0-18.0-1.45","7818","approach_avoid_sv1","""event"",""trial"",""time""
""fullscreenenter"",""1"",""1211""
","
","
","""event"",""trial"",""time""
""fullscreenenter"",""1"",""1211""
","
","","","","","","1788.2000000476837","images/cat2.png","","","memory_trial","2","maybe_old",""
"html-keyboard-response","136","326881","0.0-18.0-0.46","7818","approach_avoid_sv1","""event"",""trial"",""time""
""fullscreenenter"",""1"",""1211""
","
","
","""event"",""trial"",""time""
""fullscreenenter"",""1"",""1211""
","
","","","","","","null","<div style=""font-size:60px;"">+</div>","null","","fixation","","",""
"memory-trial","137","328607","0.0-18.0-1.46","7818","approach_avoid_sv1","""event"",""trial"",""time""
""fullscreenenter"",""1"",""1211""
","
","
","""event"",""trial"",""time""
""fullscreenenter"",""1"",""1211""
","
","","","","","","718.2000000476837","images/rabbit1.png","","","memory_trial","1","definitely_old",""
"html-keyboard-response","138","329114","0.0-18.0-0.47","7818","approach_avoid_sv1","""event"",""trial"",""time""
""fullscreenenter"",""1"",""1211""
","
","
","""event"",""trial"",""time""
""fullscreenenter"",""1"",""1211""
","
","","","","","","null","<div style=""font-size:60px;"">+</div>","null","","fixation","","",""
"memory-trial","139","330714","0.0-18.0-1.47","7818","approach_avoid_sv1","""event"",""trial"",""time""
""fullscreenenter"",""1"",""1211""
","
","
","""event"",""trial"",""time""
""fullscreenenter"",""1"",""1211""
","
","","","","","","591.0999999642372","images/cow3.png","","","memory_trial","1","definitely_old",""
"html-keyboard-response","140","331215","0.0-18.0-0.48","7818","approach_avoid_sv1","""event"",""trial"",""time""
""fullscreenenter"",""1"",""1211""
","
","
","""event"",""trial"",""time""
""fullscreenenter"",""1"",""1211""
","
","","","","","","null","<div style=""font-size:60px;"">+</div>","null","","fixation","","",""
"memory-trial","141","333116","0.0-18.0-1.48","7818","approach_avoid_sv1","""event"",""trial"",""time""
""fullscreenenter"",""1"",""1211""
","
","
","""event"",""trial"",""time""
""fullscreenenter"",""1"",""1211""
","
","","","","","","891.3999999761581","images/chair1.png","","","memory_trial","1","definitely_old",""
"html-keyboard-response","142","333625","0.0-18.0-0.49","7818","approach_avoid_sv1","""event"",""trial"",""time""
""fullscreenenter"",""1"",""1211""
","
","
","""event"",""trial"",""time""
""fullscreenenter"",""1"",""1211""
","
","","","","","","null","<div style=""font-size:60px;"">+</div>","null","","fixation","","",""
"memory-trial","143","335798","0.0-18.0-1.49","7818","approach_avoid_sv1","""event"",""trial"",""time""
""fullscreenenter"",""1"",""1211""
","
","
","""event"",""trial"",""time""
""fullscreenenter"",""1"",""1211""
","
","","","","","","1150.699999988079","images/sofa7.png","","","memory_trial","4","definitely_new",""
"html-keyboard-response","144","336301","0.0-18.0-0.50","7818","approach_avoid_sv1","""event"",""trial"",""time""
""fullscreenenter"",""1"",""1211""
","
","
","""event"",""trial"",""time""
""fullscreenenter"",""1"",""1211""
","
","","","","","","null","<div style=""font-size:60px;"">+</div>","null","","fixation","","",""
"memory-trial","145","337885","0.0-18.0-1.50","7818","approach_avoid_sv1","""event"",""trial"",""time""
""fullscreenenter"",""1"",""1211""
","
","
","""event"",""trial"",""time""
""fullscreenenter"",""1"",""1211""
","
","","","","","","571.1999999880791","images/straw8.png","","","memory_trial","1","definitely_old",""
"html-keyboard-response","146","338390","0.0-18.0-0.51","7818","approach_avoid_sv1","""event"",""trial"",""time""
""fullscreenenter"",""1"",""1211""
","
","
","""event"",""trial"",""time""
""fullscreenenter"",""1"",""1211""
","
","","","","","","null","<div style=""font-size:60px;"">+</div>","null","","fixation","","",""
"memory-trial","147","341324","0.0-18.0-1.51","7818","approach_avoid_sv1","""event"",""trial"",""time""
""fullscreenenter"",""1"",""1211""
","
","
","""event"",""trial"",""time""
""fullscreenenter"",""1"",""1211""
","
","","","","","","1924.8999999761581","images/cactus4.png","","","memory_trial","4","definitely_new",""
"html-keyboard-response","148","341827","0.0-18.0-0.52","7818","approach_avoid_sv1","""event"",""trial"",""time""
""fullscreenenter"",""1"",""1211""
","
","
","""event"",""trial"",""time""
""fullscreenenter"",""1"",""1211""
","
","","","","","","null","<div style=""font-size:60px;"">+</div>","null","","fixation","","",""
"memory-trial","149","343773","0.0-18.0-1.52","7818","approach_avoid_sv1","""event"",""trial"",""time""
""fullscreenenter"",""1"",""1211""
","
","
","""event"",""trial"",""time""
""fullscreenenter"",""1"",""1211""
","
","","","","","","939.0999999642372","images/boat3.png","","","memory_trial","4","definitely_new",""
"html-keyboard-response","150","344276","0.0-18.0-0.53","7818","approach_avoid_sv1","""event"",""trial"",""time""
""fullscreenenter"",""1"",""1211""
","
","
","""event"",""trial"",""time""
""fullscreenenter"",""1"",""1211""
","
","","","","","","null","<div style=""font-size:60px;"">+</div>","null","","fixation","","",""
"memory-trial","151","346045","0.0-18.0-1.53","7818","approach_avoid_sv1","""event"",""trial"",""time""
""fullscreenenter"",""1"",""1211""
","
","
","""event"",""trial"",""time""
""fullscreenenter"",""1"",""1211""
","
","","","","","","756.5","images/horse3.png","","","memory_trial","4","definitely_new",""
"html-keyboard-response","152","346552","0.0-18.0-0.54","7818","approach_avoid_sv1","""event"",""trial"",""time""
""fullscreenenter"",""1"",""1211""
","
","
","""event"",""trial"",""time""
""fullscreenenter"",""1"",""1211""
","
","","","","","","null","<div style=""font-size:60px;"">+</div>","null","","fixation","","",""
"memory-trial","153","348159","0.0-18.0-1.54","7818","approach_avoid_sv1","""event"",""trial"",""time""
""fullscreenenter"",""1"",""1211""
","
","
","""event"",""trial"",""time""
""fullscreenenter"",""1"",""1211""
","
","","","","","","590.6000000238419","images/rabbit6.png","","","memory_trial","1","definitely_old",""
"html-keyboard-response","154","348666","0.0-18.0-0.55","7818","approach_avoid_sv1","""event"",""trial"",""time""
""fullscreenenter"",""1"",""1211""
","
","
","""event"",""trial"",""time""
""fullscreenenter"",""1"",""1211""
","
","","","","","","null","<div style=""font-size:60px;"">+</div>","null","","fixation","","",""
"memory-trial","155","351691","0.0-18.0-1.55","7818","approach_avoid_sv1","""event"",""trial"",""time""
""fullscreenenter"",""1"",""1211""
","
","
","""event"",""trial"",""time""
""fullscreenenter"",""1"",""1211""
","
","","","","","","2018.800000011921","images/plane8.png","","","memory_trial","2","maybe_old",""
"html-keyboard-response","156","352198","0.0-18.0-0.56","7818","approach_avoid_sv1","""event"",""trial"",""time""
""fullscreenenter"",""1"",""1211""
","
","
","""event"",""trial"",""time""
""fullscreenenter"",""1"",""1211""
","
","","","","","","null","<div style=""font-size:60px;"">+</div>","null","","fixation","","",""
"memory-trial","157","353835","0.0-18.0-1.56","7818","approach_avoid_sv1","""event"",""trial"",""time""
""fullscreenenter"",""1"",""1211""
","
","
","""event"",""trial"",""time""
""fullscreenenter"",""1"",""1211""
","
","","","","","","629.5","images/apple7.png","","","memory_trial","1","definitely_old",""
"html-keyboard-response","158","354343","0.0-18.0-0.57","7818","approach_avoid_sv1","""event"",""trial"",""time""
""fullscreenenter"",""1"",""1211""
","
","
","""event"",""trial"",""time""
""fullscreenenter"",""1"",""1211""
","
","","","","","","null","<div style=""font-size:60px;"">+</div>","null","","fixation","","",""
"memory-trial","159","356101","0.0-18.0-1.57","7818","approach_avoid_sv1","""event"",""trial"",""time""
""fullscreenenter"",""1"",""1211""
","
","
","""event"",""trial"",""time""
""fullscreenenter"",""1"",""1211""
","
","","","","","","746.8999999761581","images/table5.png","","","memory_trial","4","definitely_new",""
"html-keyboard-response","160","356611","0.0-18.0-0.58","7818","approach_avoid_sv1","""event"",""trial"",""time""
""fullscreenenter"",""1"",""1211""
","
","
","""event"",""trial"",""time""
""fullscreenenter"",""1"",""1211""
","
","","","","","","null","<div style=""font-size:60px;"">+</div>","null","","fixation","","",""
"memory-trial","161","358238","0.0-18.0-1.58","7818","approach_avoid_sv1","""event"",""trial"",""time""
""fullscreenenter"",""1"",""1211""
","
","
","""event"",""trial"",""time""
""fullscreenenter"",""1"",""1211""
","
","","","","","","615.5","images/horse5.png","","","memory_trial","4","definitely_new",""
"html-keyboard-response","162","358744","0.0-18.0-0.59","7818","approach_avoid_sv1","""event"",""trial"",""time""
""fullscreenenter"",""1"",""1211""
","
","
","""event"",""trial"",""time""
""fullscreenenter"",""1"",""1211""
","
","","","","","","null","<div style=""font-size:60px;"">+</div>","null","","fixation","","",""
"memory-trial","163","360815","0.0-18.0-1.59","7818","approach_avoid_sv1","""event"",""trial"",""time""
""fullscreenenter"",""1"",""1211""
","
","
","""event"",""trial"",""time""
""fullscreenenter"",""1"",""1211""
","
","","","","","","1064.6000000238419","images/dog7.png","","","memory_trial","1","definitely_old",""
"html-keyboard-response","164","361319","0.0-18.0-0.60","7818","approach_avoid_sv1","""event"",""trial"",""time""
""fullscreenenter"",""1"",""1211""
","
","
","""event"",""trial"",""time""
""fullscreenenter"",""1"",""1211""
","
","","","","","","null","<div style=""font-size:60px;"">+</div>","null","","fixation","","",""
"memory-trial","165","363039","0.0-18.0-1.60","7818","approach_avoid_sv1","""event"",""trial"",""time""
""fullscreenenter"",""1"",""1211""
","
","
","""event"",""trial"",""time""
""fullscreenenter"",""1"",""1211""
","
","","","","","","706.8000000119209","images/bush4.png","","","memory_trial","4","definitely_new",""
"html-keyboard-response","166","363543","0.0-18.0-0.61","7818","approach_avoid_sv1","""event"",""trial"",""time""
""fullscreenenter"",""1"",""1211""
","
","
","""event"",""trial"",""time""
""fullscreenenter"",""1"",""1211""
","
","","","","","","null","<div style=""font-size:60px;"">+</div>","null","","fixation","","",""
"memory-trial","167","366110","0.0-18.0-1.61","7818","approach_avoid_sv1","""event"",""trial"",""time""
""fullscreenenter"",""1"",""1211""
","
","
","""event"",""trial"",""time""
""fullscreenenter"",""1"",""1211""
","
","","","","","","1560.2000000476837","images/train8.png","","","memory_trial","4","definitely_new",""
"html-keyboard-response","168","366619","0.0-18.0-0.62","7818","approach_avoid_sv1","""event"",""trial"",""time""
""fullscreenenter"",""1"",""1211""
","
","
","""event"",""trial"",""time""
""fullscreenenter"",""1"",""1211""
","
","","","","","","null","<div style=""font-size:60px;"">+</div>","null","","fixation","","",""
"memory-trial","169","368594","0.0-18.0-1.62","7818","approach_avoid_sv1","""event"",""trial"",""time""
""fullscreenenter"",""1"",""1211""
","
","
","""event"",""trial"",""time""
""fullscreenenter"",""1"",""1211""
","
","","","","","","963.6999999880791","images/chair3.png","","","memory_trial","4","definitely_new",""
"html-keyboard-response","170","369103","0.0-18.0-0.63","7818","approach_avoid_sv1","""event"",""trial"",""time""
""fullscreenenter"",""1"",""1211""
","
","
","""event"",""trial"",""time""
""fullscreenenter"",""1"",""1211""
","
","","","","","","null","<div style=""font-size:60px;"">+</div>","null","","fixation","","",""
"memory-trial","171","370859","0.0-18.0-1.63","7818","approach_avoid_sv1","""event"",""trial"",""time""
""fullscreenenter"",""1"",""1211""
","
","
","""event"",""trial"",""time""
""fullscreenenter"",""1"",""1211""
","
","","","","","","740.2999999523163","images/cow8.png","","","memory_trial","1","definitely_old",""
"html-keyboard-response","172","371373","0.0-18.0-0.64","7818","approach_avoid_sv1","""event"",""trial"",""time""
""fullscreenenter"",""1"",""1211""
","
","
","""event"",""trial"",""time""
""fullscreenenter"",""1"",""1211""
","
","","","","","","null","<div style=""font-size:60px;"">+</div>","null","","fixation","","",""
"memory-trial","173","373763","0.0-18.0-1.64","7818","approach_avoid_sv1","""event"",""trial"",""time""
""fullscreenenter"",""1"",""1211""
","
","
","""event"",""trial"",""time""
""fullscreenenter"",""1"",""1211""
","
","","","","","","1383.7000000476837","images/rodent3.png","","","memory_trial","2","maybe_old",""
"html-keyboard-response","174","374270","0.0-18.0-0.65","7818","approach_avoid_sv1","""event"",""trial"",""time""
""fullscreenenter"",""1"",""1211""
","
","
","""event"",""trial"",""time""
""fullscreenenter"",""1"",""1211""
","
","","","","","","null","<div style=""font-size:60px;"">+</div>","null","","fixation","","",""
"memory-trial","175","376189","0.0-18.0-1.65","7818","approach_avoid_sv1","""event"",""trial"",""time""
""fullscreenenter"",""1"",""1211""
","
","
","""event"",""trial"",""time""
""fullscreenenter"",""1"",""1211""
","
","","","","","","906.8999999761581","images/boat8.png","","","memory_trial","4","definitely_new",""
"html-keyboard-response","176","376698","0.0-18.0-0.66","7818","approach_avoid_sv1","""event"",""trial"",""time""
""fullscreenenter"",""1"",""1211""
","
","
","""event"",""trial"",""time""
""fullscreenenter"",""1"",""1211""
","
","","","","","","null","<div style=""font-size:60px;"">+</div>","null","","fixation","","",""
"memory-trial","177","378547","0.0-18.0-1.66","7818","approach_avoid_sv1","""event"",""trial"",""time""
""fullscreenenter"",""1"",""1211""
","
","
","""event"",""trial"",""time""
""fullscreenenter"",""1"",""1211""
","
","","","","","","842.5999999642372","images/horse8.png","","","memory_trial","4","definitely_new",""
"html-keyboard-response","178","379053","0.0-18.0-0.67","7818","approach_avoid_sv1","""event"",""trial"",""time""
""fullscreenenter"",""1"",""1211""
","
","
","""event"",""trial"",""time""
""fullscreenenter"",""1"",""1211""
","
","","","","","","null","<div style=""font-size:60px;"">+</div>","null","","fixation","","",""
"memory-trial","179","380718","0.0-18.0-1.67","7818","approach_avoid_sv1","""event"",""trial"",""time""
""fullscreenenter"",""1"",""1211""
","
","
","""event"",""trial"",""time""
""fullscreenenter"",""1"",""1211""
","
","","","","","","660.6000000238419","images/rodent7.png","","","memory_trial","1","definitely_old",""
"html-keyboard-response","180","381228","0.0-18.0-0.68","7818","approach_avoid_sv1","""event"",""trial"",""time""
""fullscreenenter"",""1"",""1211""
","
","
","""event"",""trial"",""time""
""fullscreenenter"",""1"",""1211""
","
","","","","","","null","<div style=""font-size:60px;"">+</div>","null","","fixation","","",""
"memory-trial","181","382787","0.0-18.0-1.68","7818","approach_avoid_sv1","""event"",""trial"",""time""
""fullscreenenter"",""1"",""1211""
","
","
","""event"",""trial"",""time""
""fullscreenenter"",""1"",""1211""
","
","","","","","","552.5","images/cow7.png","","","memory_trial","1","definitely_old",""
"html-keyboard-response","182","383290","0.0-18.0-0.69","7818","approach_avoid_sv1","""event"",""trial"",""time""
""fullscreenenter"",""1"",""1211""
","
","
","""event"",""trial"",""time""
""fullscreenenter"",""1"",""1211""
","
","","","","","","null","<div style=""font-size:60px;"">+</div>","null","","fixation","","",""
"memory-trial","183","386423","0.0-18.0-1.69","7818","approach_avoid_sv1","""event"",""trial"",""time""
""fullscreenenter"",""1"",""1211""
","
","
","""event"",""trial"",""time""
""fullscreenenter"",""1"",""1211""
","
","","","","","","2122.699999988079","images/flower5.png","","","memory_trial","3","maybe_new",""
"html-keyboard-response","184","386928","0.0-18.0-0.70","7818","approach_avoid_sv1","""event"",""trial"",""time""
""fullscreenenter"",""1"",""1211""
","
","
","""event"",""trial"",""time""
""fullscreenenter"",""1"",""1211""
","
","","","","","","null","<div style=""font-size:60px;"">+</div>","null","","fixation","","",""
"memory-trial","185","388694","0.0-18.0-1.70","7818","approach_avoid_sv1","""event"",""trial"",""time""
""fullscreenenter"",""1"",""1211""
","
","
","""event"",""trial"",""time""
""fullscreenenter"",""1"",""1211""
","
","","","","","","748.7999999523163","images/chair5.png","","","memory_trial","4","definitely_new",""
"html-keyboard-response","186","389201","0.0-18.0-0.71","7818","approach_avoid_sv1","""event"",""trial"",""time""
""fullscreenenter"",""1"",""1211""
","
","
","""event"",""trial"",""time""
""fullscreenenter"",""1"",""1211""
","
","","","","","","null","<div style=""font-size:60px;"">+</div>","null","","fixation","","",""
"memory-trial","187","390912","0.0-18.0-1.71","7818","approach_avoid_sv1","""event"",""trial"",""time""
""fullscreenenter"",""1"",""1211""
","
","
","""event"",""trial"",""time""
""fullscreenenter"",""1"",""1211""
","
","","","","","","693","images/sofa5.png","","","memory_trial","1","definitely_old",""
"html-keyboard-response","188","391429","0.0-18.0-0.72","7818","approach_avoid_sv1","""event"",""trial"",""time""
""fullscreenenter"",""1"",""1211""
","
","
","""event"",""trial"",""time""
""fullscreenenter"",""1"",""1211""
","
","","","","","","null","<div style=""font-size:60px;"">+</div>","null","","fixation","","",""
"memory-trial","189","393032","0.0-18.0-1.72","7818","approach_avoid_sv1","""event"",""trial"",""time""
""fullscreenenter"",""1"",""1211""
","
","
","""event"",""trial"",""time""
""fullscreenenter"",""1"",""1211""
","
","","","","","","595.6999999880791","images/chair2.png","","","memory_trial","1","definitely_old",""
"html-keyboard-response","190","393546","0.0-18.0-0.73","7818","approach_avoid_sv1","""event"",""trial"",""time""
""fullscreenenter"",""1"",""1211""
","
","
","""event"",""trial"",""time""
""fullscreenenter"",""1"",""1211""
","
","","","","","","null","<div style=""font-size:60px;"">+</div>","null","","fixation","","",""
"memory-trial","191","395075","0.0-18.0-1.73","7818","approach_avoid_sv1","""event"",""trial"",""time""
""fullscreenenter"",""1"",""1211""
","
","
","""event"",""trial"",""time""
""fullscreenenter"",""1"",""1211""
","
","","","","","","516.9000000357628","images/banana5.png","","","memory_trial","1","definitely_old",""
"html-keyboard-response","192","395584","0.0-18.0-0.74","7818","approach_avoid_sv1","""event"",""trial"",""time""
""fullscreenenter"",""1"",""1211""
","
","
","""event"",""trial"",""time""
""fullscreenenter"",""1"",""1211""
","
","","","","","","null","<div style=""font-size:60px;"">+</div>","null","","fixation","","",""
"memory-trial","193","397212","0.0-18.0-1.74","7818","approach_avoid_sv1","""event"",""trial"",""time""
""fullscreenenter"",""1"",""1211""
","
","
","""event"",""trial"",""time""
""fullscreenenter"",""1"",""1211""
","
","","","","","","622.1999999880791","images/horse6.png","","","memory_trial","4","definitely_new",""
"html-keyboard-response","194","397716","0.0-18.0-0.75","7818","approach_avoid_sv1","""event"",""trial"",""time""
""fullscreenenter"",""1"",""1211""
","
","
","""event"",""trial"",""time""
""fullscreenenter"",""1"",""1211""
","
","","","","","","null","<div style=""font-size:60px;"">+</div>","null","","fixation","","",""
"memory-trial","195","400817","0.0-18.0-1.75","7818","approach_avoid_sv1","""event"",""trial"",""time""
""fullscreenenter"",""1"",""1211""
","
","
","""event"",""trial"",""time""
""fullscreenenter"",""1"",""1211""
","
","","","","","","2088.5","images/cow1.png","","","memory_trial","2","maybe_old",""
"html-keyboard-response","196","401319","0.0-18.0-0.76","7818","approach_avoid_sv1","""event"",""trial"",""time""
""fullscreenenter"",""1"",""1211""
","
","
","""event"",""trial"",""time""
""fullscreenenter"",""1"",""1211""
","
","","","","","","null","<div style=""font-size:60px;"">+</div>","null","","fixation","","",""
"memory-trial","197","403046","0.0-18.0-1.76","7818","approach_avoid_sv1","""event"",""trial"",""time""
""fullscreenenter"",""1"",""1211""
","
","
","""event"",""trial"",""time""
""fullscreenenter"",""1"",""1211""
","
","","","","","","720.5","images/sheep1.png","","","memory_trial","1","definitely_old",""
"html-keyboard-response","198","403559","0.0-18.0-0.77","7818","approach_avoid_sv1","""event"",""trial"",""time""
""fullscreenenter"",""1"",""1211""
","
","
","""event"",""trial"",""time""
""fullscreenenter"",""1"",""1211""
","
","","","","","","null","<div style=""font-size:60px;"">+</div>","null","","fixation","","",""
"memory-trial","199","406606","0.0-18.0-1.77","7818","approach_avoid_sv1","""event"",""trial"",""time""
""fullscreenenter"",""1"",""1211""
","
","
","""event"",""trial"",""time""
""fullscreenenter"",""1"",""1211""
","
","","","","","","2039.1000000238419","images/truck2.png","","","memory_trial","2","maybe_old",""
"html-keyboard-response","200","407110","0.0-18.0-0.78","7818","approach_avoid_sv1","""event"",""trial"",""time""
""fullscreenenter"",""1"",""1211""
","
","
","""event"",""trial"",""time""
""fullscreenenter"",""1"",""1211""
","
","","","","","","null","<div style=""font-size:60px;"">+</div>","null","","fixation","","",""
"memory-trial","201","408924","0.0-18.0-1.78","7818","approach_avoid_sv1","""event"",""trial"",""time""
""fullscreenenter"",""1"",""1211""
","
","
","""event"",""trial"",""time""
""fullscreenenter"",""1"",""1211""
","
","","","","","","808.2999999523163","images/sofa3.png","","","memory_trial","2","maybe_old",""
"html-keyboard-response","202","409433","0.0-18.0-0.79","7818","approach_avoid_sv1","""event"",""trial"",""time""
""fullscreenenter"",""1"",""1211""
","
","
","""event"",""trial"",""time""
""fullscreenenter"",""1"",""1211""
","
","","","","","","null","<div style=""font-size:60px;"">+</div>","null","","fixation","","",""
"memory-trial","203","411860","0.0-18.0-1.79","7818","approach_avoid_sv1","""event"",""trial"",""time""
""fullscreenenter"",""1"",""1211""
","
","
","""event"",""trial"",""time""
""fullscreenenter"",""1"",""1211""
","
","","","","","","1420.699999988079","images/dog3.png","","","memory_trial","2","maybe_old",""
"html-keyboard-response","204","412368","0.0-18.0-0.80","7818","approach_avoid_sv1","""event"",""trial"",""time""
""fullscreenenter"",""1"",""1211""
","
","
","""event"",""trial"",""time""
""fullscreenenter"",""1"",""1211""
","
","","","","","","null","<div style=""font-size:60px;"">+</div>","null","","fixation","","",""
"memory-trial","205","414986","0.0-18.0-1.80","7818","approach_avoid_sv1","""event"",""trial"",""time""
""fullscreenenter"",""1"",""1211""
","
","
","""event"",""trial"",""time""
""fullscreenenter"",""1"",""1211""
","
","","","","","","1607.9000000357628","images/apple5.png","","","memory_trial","1","definitely_old",""
"html-keyboard-response","206","415487","0.0-18.0-0.81","7818","approach_avoid_sv1","""event"",""trial"",""time""
""fullscreenenter"",""1"",""1211""
","
","
","""event"",""trial"",""time""
""fullscreenenter"",""1"",""1211""
","
","","","","","","null","<div style=""font-size:60px;"">+</div>","null","","fixation","","",""
"memory-trial","207","417173","0.0-18.0-1.81","7818","approach_avoid_sv1","""event"",""trial"",""time""
""fullscreenenter"",""1"",""1211""
","
","
","""event"",""trial"",""time""
""fullscreenenter"",""1"",""1211""
","
","","","","","","670","images/table8.png","","","memory_trial","4","definitely_new",""
"html-keyboard-response","208","417682","0.0-18.0-0.82","7818","approach_avoid_sv1","""event"",""trial"",""time""
""fullscreenenter"",""1"",""1211""
","
","
","""event"",""trial"",""time""
""fullscreenenter"",""1"",""1211""
","
","","","","","","null","<div style=""font-size:60px;"">+</div>","null","","fixation","","",""
"memory-trial","209","419396","0.0-18.0-1.82","7818","approach_avoid_sv1","""event"",""trial"",""time""
""fullscreenenter"",""1"",""1211""
","
","
","""event"",""trial"",""time""
""fullscreenenter"",""1"",""1211""
","
","","","","","","693","images/horse1.png","","","memory_trial","4","definitely_new",""
"html-keyboard-response","210","419902","0.0-18.0-0.83","7818","approach_avoid_sv1","""event"",""trial"",""time""
""fullscreenenter"",""1"",""1211""
","
","
","""event"",""trial"",""time""
""fullscreenenter"",""1"",""1211""
","
","","","","","","null","<div style=""font-size:60px;"">+</div>","null","","fixation","","",""
"memory-trial","211","421785","0.0-18.0-1.83","7818","approach_avoid_sv1","""event"",""trial"",""time""
""fullscreenenter"",""1"",""1211""
","
","
","""event"",""trial"",""time""
""fullscreenenter"",""1"",""1211""
","
","","","","","","871.8000000119209","images/dog5.png","","","memory_trial","1","definitely_old",""
"html-keyboard-response","212","422289","0.0-18.0-0.84","7818","approach_avoid_sv1","""event"",""trial"",""time""
""fullscreenenter"",""1"",""1211""
","
","
","""event"",""trial"",""time""
""fullscreenenter"",""1"",""1211""
","
","","","","","","null","<div style=""font-size:60px;"">+</div>","null","","fixation","","",""
"memory-trial","213","424221","0.0-18.0-1.84","7818","approach_avoid_sv1","""event"",""trial"",""time""
""fullscreenenter"",""1"",""1211""
","
","
","""event"",""trial"",""time""
""fullscreenenter"",""1"",""1211""
","
","","","","","","922.3999999761581","images/cactus6.png","","","memory_trial","4","definitely_new",""
"html-keyboard-response","214","424728","0.0-18.0-0.85","7818","approach_avoid_sv1","""event"",""trial"",""time""
""fullscreenenter"",""1"",""1211""
","
","
","""event"",""trial"",""time""
""fullscreenenter"",""1"",""1211""
","
","","","","","","null","<div style=""font-size:60px;"">+</div>","null","","fixation","","",""
"memory-trial","215","426365","0.0-18.0-1.85","7818","approach_avoid_sv1","""event"",""trial"",""time""
""fullscreenenter"",""1"",""1211""
","
","
","""event"",""trial"",""time""
""fullscreenenter"",""1"",""1211""
","
","","","","","","624.1999999880791","images/bush5.png","","","memory_trial","4","definitely_new",""
"html-keyboard-response","216","426867","0.0-18.0-0.86","7818","approach_avoid_sv1","""event"",""trial"",""time""
""fullscreenenter"",""1"",""1211""
","
","
","""event"",""trial"",""time""
""fullscreenenter"",""1"",""1211""
","
","","","","","","null","<div style=""font-size:60px;"">+</div>","null","","fixation","","",""
"memory-trial","217","428940","0.0-18.0-1.86","7818","approach_avoid_sv1","""event"",""trial"",""time""
""fullscreenenter"",""1"",""1211""
","
","
","""event"",""trial"",""time""
""fullscreenenter"",""1"",""1211""
","
","","","","","","1066.699999988079","images/cat7.png","","","memory_trial","1","definitely_old",""
"html-keyboard-response","218","429443","0.0-18.0-0.87","7818","approach_avoid_sv1","""event"",""trial"",""time""
""fullscreenenter"",""1"",""1211""
","
","
","""event"",""trial"",""time""
""fullscreenenter"",""1"",""1211""
","
","","","","","","null","<div style=""font-size:60px;"">+</div>","null","","fixation","","",""
"memory-trial","219","431168","0.0-18.0-1.87","7818","approach_avoid_sv1","""event"",""trial"",""time""
""fullscreenenter"",""1"",""1211""
","
","
","""event"",""trial"",""time""
""fullscreenenter"",""1"",""1211""
","
","","","","","","713.1999999880791","images/bed2.png","","","memory_trial","4","definitely_new",""
"html-keyboard-response","220","431671","0.0-18.0-0.88","7818","approach_avoid_sv1","""event"",""trial"",""time""
""fullscreenenter"",""1"",""1211""
","
","
","""event"",""trial"",""time""
""fullscreenenter"",""1"",""1211""
","
","","","","","","null","<div style=""font-size:60px;"">+</div>","null","","fixation","","",""
"memory-trial","221","433340","0.0-18.0-1.88","7818","approach_avoid_sv1","""event"",""trial"",""time""
""fullscreenenter"",""1"",""1211""
","
","
","""event"",""trial"",""time""
""fullscreenenter"",""1"",""1211""
","
","","","","","","657.8000000119209","images/banana4.png","","","memory_trial","1","definitely_old",""
"html-keyboard-response","222","433853","0.0-18.0-0.89","7818","approach_avoid_sv1","""event"",""trial"",""time""
""fullscreenenter"",""1"",""1211""
","
","
","""event"",""trial"",""time""
""fullscreenenter"",""1"",""1211""
","
","","","","","","null","<div style=""font-size:60px;"">+</div>","null","","fixation","","",""
"memory-trial","223","435800","0.0-18.0-1.89","7818","approach_avoid_sv1","""event"",""trial"",""time""
""fullscreenenter"",""1"",""1211""
","
","
","""event"",""trial"",""time""
""fullscreenenter"",""1"",""1211""
","
","","","","","","928.8000000119209","images/cactus1.png","","","memory_trial","4","definitely_new",""
"html-keyboard-response","224","436307","0.0-18.0-0.90","7818","approach_avoid_sv1","""event"",""trial"",""time""
""fullscreenenter"",""1"",""1211""
","
","
","""event"",""trial"",""time""
""fullscreenenter"",""1"",""1211""
","
","","","","","","null","<div style=""font-size:60px;"">+</div>","null","","fixation","","",""
"memory-trial","225","438565","0.0-18.0-1.90","7818","approach_avoid_sv1","""event"",""trial"",""time""
""fullscreenenter"",""1"",""1211""
","
","
","""event"",""trial"",""time""
""fullscreenenter"",""1"",""1211""
","
","","","","","","1252.199999988079","images/tree4.png","","","memory_trial","1","definitely_old",""
"html-keyboard-response","226","439067","0.0-18.0-0.91","7818","approach_avoid_sv1","""event"",""trial"",""time""
""fullscreenenter"",""1"",""1211""
","
","
","""event"",""trial"",""time""
""fullscreenenter"",""1"",""1211""
","
","","","","","","null","<div style=""font-size:60px;"">+</div>","null","","fixation","","",""
"memory-trial","227","441369","0.0-18.0-1.91","7818","approach_avoid_sv1","""event"",""trial"",""time""
""fullscreenenter"",""1"",""1211""
","
","
","""event"",""trial"",""time""
""fullscreenenter"",""1"",""1211""
","
","","","","","","1288","images/cactus2.png","","","memory_trial","1","definitely_old",""
"html-button-response","228","442877","0.0-18.0-2.91-0.91","7818","approach_avoid_sv1","""event"",""trial"",""time""
""fullscreenenter"",""1"",""1211""
","
","
","""event"",""trial"",""time""
""fullscreenenter"",""1"",""1211""
","
","","","","","","1505.5","<p> Take a break! </p><p> Click the button to continue. </p>","0","","break","","",""
"html-keyboard-response","229","443394","0.0-18.0-0.92","7818","approach_avoid_sv1","""event"",""trial"",""time""
""fullscreenenter"",""1"",""1211""
","
","
","""event"",""trial"",""time""
""fullscreenenter"",""1"",""1211""
","
","","","","","","null","<div style=""font-size:60px;"">+</div>","null","","fixation","","",""
"memory-trial","230","445956","0.0-18.0-1.92","7818","approach_avoid_sv1","""event"",""trial"",""time""
""fullscreenenter"",""1"",""1211""
","
","
","""event"",""trial"",""time""
""fullscreenenter"",""1"",""1211""
","
","","","","","","1550.699999988079","images/cactus3.png","","","memory_trial","4","definitely_new",""
"html-keyboard-response","231","446458","0.0-18.0-0.93","7818","approach_avoid_sv1","""event"",""trial"",""time""
""fullscreenenter"",""1"",""1211""
","
","
","""event"",""trial"",""time""
""fullscreenenter"",""1"",""1211""
","
","","","","","","null","<div style=""font-size:60px;"">+</div>","null","","fixation","","",""
"memory-trial","232","448017","0.0-18.0-1.93","7818","approach_avoid_sv1","""event"",""trial"",""time""
""fullscreenenter"",""1"",""1211""
","
","
","""event"",""trial"",""time""
""fullscreenenter"",""1"",""1211""
","
","","","","","","544.7999999523163","images/bush1.png","","","memory_trial","4","definitely_new",""
"html-keyboard-response","233","448522","0.0-18.0-0.94","7818","approach_avoid_sv1","""event"",""trial"",""time""
""fullscreenenter"",""1"",""1211""
","
","
","""event"",""trial"",""time""
""fullscreenenter"",""1"",""1211""
","
","","","","","","null","<div style=""font-size:60px;"">+</div>","null","","fixation","","",""
"memory-trial","234","449742","0.0-18.0-1.94","7818","approach_avoid_sv1","""event"",""trial"",""time""
""fullscreenenter"",""1"",""1211""
","
","
","""event"",""trial"",""time""
""fullscreenenter"",""1"",""1211""
","
","","","","","","210.30000001192093","images/bed6.png","","","memory_trial","1","definitely_old",""
"html-keyboard-response","235","450245","0.0-18.0-0.95","7818","approach_avoid_sv1","""event"",""trial"",""time""
""fullscreenenter"",""1"",""1211""
","
","
","""event"",""trial"",""time""
""fullscreenenter"",""1"",""1211""
","
","","","","","","null","<div style=""font-size:60px;"">+</div>","null","","fixation","","",""
"memory-trial","236","452219","0.0-18.0-1.95","7818","approach_avoid_sv1","""event"",""trial"",""time""
""fullscreenenter"",""1"",""1211""
","
","
","""event"",""trial"",""time""
""fullscreenenter"",""1"",""1211""
","
","","","","","","956.6000000238419","images/table1.png","","","memory_trial","1","definitely_old",""
"html-keyboard-response","237","452726","0.0-18.0-0.96","7818","approach_avoid_sv1","""event"",""trial"",""time""
""fullscreenenter"",""1"",""1211""
","
","
","""event"",""trial"",""time""
""fullscreenenter"",""1"",""1211""
","
","","","","","","null","<div style=""font-size:60px;"">+</div>","null","","fixation","","",""
"memory-trial","238","454612","0.0-18.0-1.96","7818","approach_avoid_sv1","""event"",""trial"",""time""
""fullscreenenter"",""1"",""1211""
","
","
","""event"",""trial"",""time""
""fullscreenenter"",""1"",""1211""
","
","","","","","","880","images/banana1.png","","","memory_trial","4","definitely_new",""
"html-keyboard-response","239","455118","0.0-18.0-0.97","7818","approach_avoid_sv1","""event"",""trial"",""time""
""fullscreenenter"",""1"",""1211""
","
","
","""event"",""trial"",""time""
""fullscreenenter"",""1"",""1211""
","
","","","","","","null","<div style=""font-size:60px;"">+</div>","null","","fixation","","",""
"memory-trial","240","456702","0.0-18.0-1.97","7818","approach_avoid_sv1","""event"",""trial"",""time""
""fullscreenenter"",""1"",""1211""
","
","
","""event"",""trial"",""time""
""fullscreenenter"",""1"",""1211""
","
","","","","","","578","images/sheep6.png","","","memory_trial","1","definitely_old",""
"html-keyboard-response","241","457207","0.0-18.0-0.98","7818","approach_avoid_sv1","""event"",""trial"",""time""
""fullscreenenter"",""1"",""1211""
","
","
","""event"",""trial"",""time""
""fullscreenenter"",""1"",""1211""
","
","","","","","","null","<div style=""font-size:60px;"">+</div>","null","","fixation","","",""
"memory-trial","242","458851","0.0-18.0-1.98","7818","approach_avoid_sv1","""event"",""trial"",""time""
""fullscreenenter"",""1"",""1211""
","
","
","""event"",""trial"",""time""
""fullscreenenter"",""1"",""1211""
","
","","","","","","640.7000000476837","images/goat2.png","","","memory_trial","1","definitely_old",""
"html-keyboard-response","243","459353","0.0-18.0-0.99","7818","approach_avoid_sv1","""event"",""trial"",""time""
""fullscreenenter"",""1"",""1211""
","
","
","""event"",""trial"",""time""
""fullscreenenter"",""1"",""1211""
","
","","","","","","null","<div style=""font-size:60px;"">+</div>","null","","fixation","","",""
"memory-trial","244","461668","0.0-18.0-1.99","7818","approach_avoid_sv1","""event"",""trial"",""time""
""fullscreenenter"",""1"",""1211""
","
","
","""event"",""trial"",""time""
""fullscreenenter"",""1"",""1211""
","
","","","","","","1300.699999988079","images/cow6.png","","","memory_trial","1","definitely_old",""
"html-keyboard-response","245","462172","0.0-18.0-0.100","7818","approach_avoid_sv1","""event"",""trial"",""time""
""fullscreenenter"",""1"",""1211""
","
","
","""event"",""trial"",""time""
""fullscreenenter"",""1"",""1211""
","
","","","","","","null","<div style=""font-size:60px;"">+</div>","null","","fixation","","",""
"memory-trial","246","464446","0.0-18.0-1.100","7818","approach_avoid_sv1","""event"",""trial"",""time""
""fullscreenenter"",""1"",""1211""
","
","
","""event"",""trial"",""time""
""fullscreenenter"",""1"",""1211""
","
","","","","","","1260.7000000476837","images/truck8.png","","","memory_trial","2","maybe_old",""
"html-keyboard-response","247","464956","0.0-18.0-0.101","7818","approach_avoid_sv1","""event"",""trial"",""time""
""fullscreenenter"",""1"",""1211""
","
","
","""event"",""trial"",""time""
""fullscreenenter"",""1"",""1211""
","
","","","","","","null","<div style=""font-size:60px;"">+</div>","null","","fixation","","",""
"memory-trial","248","466765","0.0-18.0-1.101","7818","approach_avoid_sv1","""event"",""trial"",""time""
""fullscreenenter"",""1"",""1211""
","
","
","""event"",""trial"",""time""
""fullscreenenter"",""1"",""1211""
","
","","","","","","802.6999999880791","images/boat4.png","","","memory_trial","2","maybe_old",""
"html-keyboard-response","249","467275","0.0-18.0-0.102","7818","approach_avoid_sv1","""event"",""trial"",""time""
""fullscreenenter"",""1"",""1211""
","
","
","""event"",""trial"",""time""
""fullscreenenter"",""1"",""1211""
","
","","","","","","null","<div style=""font-size:60px;"">+</div>","null","","fixation","","",""
"memory-trial","250","468873","0.0-18.0-1.102","7818","approach_avoid_sv1","""event"",""trial"",""time""
""fullscreenenter"",""1"",""1211""
","
","
","""event"",""trial"",""time""
""fullscreenenter"",""1"",""1211""
","
","","","","","","586","images/rabbit4.png","","","memory_trial","1","definitely_old",""
"html-keyboard-response","251","469380","0.0-18.0-0.103","7818","approach_avoid_sv1","""event"",""trial"",""time""
""fullscreenenter"",""1"",""1211""
","
","
","""event"",""trial"",""time""
""fullscreenenter"",""1"",""1211""
","
","","","","","","null","<div style=""font-size:60px;"">+</div>","null","","fixation","","",""
"memory-trial","252","471276","0.0-18.0-1.103","7818","approach_avoid_sv1","""event"",""trial"",""time""
""fullscreenenter"",""1"",""1211""
","
","
","""event"",""trial"",""time""
""fullscreenenter"",""1"",""1211""
","
","","","","","","880.6000000238419","images/bed1.png","","","memory_trial","4","definitely_new",""
"html-keyboard-response","253","471779","0.0-18.0-0.104","7818","approach_avoid_sv1","""event"",""trial"",""time""
""fullscreenenter"",""1"",""1211""
","
","
","""event"",""trial"",""time""
""fullscreenenter"",""1"",""1211""
","
","","","","","","null","<div style=""font-size:60px;"">+</div>","null","","fixation","","",""
"memory-trial","254","473439","0.0-18.0-1.104","7818","approach_avoid_sv1","""event"",""trial"",""time""
""fullscreenenter"",""1"",""1211""
","
","
","""event"",""trial"",""time""
""fullscreenenter"",""1"",""1211""
","
","","","","","","645.2000000476837","images/cactus5.png","","","memory_trial","4","definitely_new",""
"html-keyboard-response","255","473952","0.0-18.0-0.105","7818","approach_avoid_sv1","""event"",""trial"",""time""
""fullscreenenter"",""1"",""1211""
","
","
","""event"",""trial"",""time""
""fullscreenenter"",""1"",""1211""
","
","","","","","","null","<div style=""font-size:60px;"">+</div>","null","","fixation","","",""
"memory-trial","256","476545","0.0-18.0-1.105","7818","approach_avoid_sv1","""event"",""trial"",""time""
""fullscreenenter"",""1"",""1211""
","
","
","""event"",""trial"",""time""
""fullscreenenter"",""1"",""1211""
","
","","","","","","1573","images/cat3.png","","","memory_trial","1","definitely_old",""
"html-keyboard-response","257","477051","0.0-18.0-0.106","7818","approach_avoid_sv1","""event"",""trial"",""time""
""fullscreenenter"",""1"",""1211""
","
","
","""event"",""trial"",""time""
""fullscreenenter"",""1"",""1211""
","
","","","","","","null","<div style=""font-size:60px;"">+</div>","null","","fixation","","",""
"memory-trial","258","479589","0.0-18.0-1.106","7818","approach_avoid_sv1","""event"",""trial"",""time""
""fullscreenenter"",""1"",""1211""
","
","
","""event"",""trial"",""time""
""fullscreenenter"",""1"",""1211""
","
","","","","","","1523.6000000238419","images/cat4.png","","","memory_trial","2","maybe_old",""
"html-keyboard-response","259","480099","0.0-18.0-0.107","7818","approach_avoid_sv1","""event"",""trial"",""time""
""fullscreenenter"",""1"",""1211""
","
","
","""event"",""trial"",""time""
""fullscreenenter"",""1"",""1211""
","
","","","","","","null","<div style=""font-size:60px;"">+</div>","null","","fixation","","",""
"memory-trial","260","482044","0.0-18.0-1.107","7818","approach_avoid_sv1","""event"",""trial"",""time""
""fullscreenenter"",""1"",""1211""
","
","
","""event"",""trial"",""time""
""fullscreenenter"",""1"",""1211""
","
","","","","","","932.1999999880791","images/sofa2.png","","","memory_trial","4","definitely_new",""
"html-keyboard-response","261","482552","0.0-18.0-0.108","7818","approach_avoid_sv1","""event"",""trial"",""time""
""fullscreenenter"",""1"",""1211""
","
","
","""event"",""trial"",""time""
""fullscreenenter"",""1"",""1211""
","
","","","","","","null","<div style=""font-size:60px;"">+</div>","null","","fixation","","",""
"memory-trial","262","484682","0.0-18.0-1.108","7818","approach_avoid_sv1","""event"",""trial"",""time""
""fullscreenenter"",""1"",""1211""
","
","
","""event"",""trial"",""time""
""fullscreenenter"",""1"",""1211""
","
","","","","","","1122.5","images/truck4.png","","","memory_trial","1","definitely_old",""
"html-keyboard-response","263","485188","0.0-18.0-0.109","7818","approach_avoid_sv1","""event"",""trial"",""time""
""fullscreenenter"",""1"",""1211""
","
","
","""event"",""trial"",""time""
""fullscreenenter"",""1"",""1211""
","
","","","","","","null","<div style=""font-size:60px;"">+</div>","null","","fixation","","",""
"memory-trial","264","487552","0.0-18.0-1.109","7818","approach_avoid_sv1","""event"",""trial"",""time""
""fullscreenenter"",""1"",""1211""
","
","
","""event"",""trial"",""time""
""fullscreenenter"",""1"",""1211""
","
","","","","","","1354.8999999761581","images/banana2.png","","","memory_trial","1","definitely_old",""
"html-keyboard-response","265","488055","0.0-18.0-0.110","7818","approach_avoid_sv1","""event"",""trial"",""time""
""fullscreenenter"",""1"",""1211""
","
","
","""event"",""trial"",""time""
""fullscreenenter"",""1"",""1211""
","
","","","","","","null","<div style=""font-size:60px;"">+</div>","null","","fixation","","",""
"memory-trial","266","490543","0.0-18.0-1.110","7818","approach_avoid_sv1","""event"",""trial"",""time""
""fullscreenenter"",""1"",""1211""
","
","
","""event"",""trial"",""time""
""fullscreenenter"",""1"",""1211""
","
","","","","","","1482","images/truck7.png","","","memory_trial","1","definitely_old",""
"html-keyboard-response","267","491047","0.0-18.0-0.111","7818","approach_avoid_sv1","""event"",""trial"",""time""
""fullscreenenter"",""1"",""1211""
","
","
","""event"",""trial"",""time""
""fullscreenenter"",""1"",""1211""
","
","","","","","","null","<div style=""font-size:60px;"">+</div>","null","","fixation","","",""
"memory-trial","268","493197","0.0-18.0-1.111","7818","approach_avoid_sv1","""event"",""trial"",""time""
""fullscreenenter"",""1"",""1211""
","
","
","""event"",""trial"",""time""
""fullscreenenter"",""1"",""1211""
","
","","","","","","1140.2000000476837","images/chair4.png","","","memory_trial","1","definitely_old",""
"html-keyboard-response","269","493708","0.0-18.0-0.112","7818","approach_avoid_sv1","""event"",""trial"",""time""
""fullscreenenter"",""1"",""1211""
","
","
","""event"",""trial"",""time""
""fullscreenenter"",""1"",""1211""
","
","","","","","","null","<div style=""font-size:60px;"">+</div>","null","","fixation","","",""
"memory-trial","270","495347","0.0-18.0-1.112","7818","approach_avoid_sv1","""event"",""trial"",""time""
""fullscreenenter"",""1"",""1211""
","
","
","""event"",""trial"",""time""
""fullscreenenter"",""1"",""1211""
","
","","","","","","626.3000000119209","images/cow2.png","","","memory_trial","1","definitely_old",""
"html-keyboard-response","271","495855","0.0-18.0-0.113","7818","approach_avoid_sv1","""event"",""trial"",""time""
""fullscreenenter"",""1"",""1211""
","
","
","""event"",""trial"",""time""
""fullscreenenter"",""1"",""1211""
","
","","","","","","null","<div style=""font-size:60px;"">+</div>","null","","fixation","","",""
"memory-trial","272","497525","0.0-18.0-1.113","7818","approach_avoid_sv1","""event"",""trial"",""time""
""fullscreenenter"",""1"",""1211""
","
","
","""event"",""trial"",""time""
""fullscreenenter"",""1"",""1211""
","
","","","","","","664.8999999761581","images/sheep8.png","","","memory_trial","1","definitely_old",""
"html-keyboard-response","273","498034","0.0-18.0-0.114","7818","approach_avoid_sv1","""event"",""trial"",""time""
""fullscreenenter"",""1"",""1211""
","
","
","""event"",""trial"",""time""
""fullscreenenter"",""1"",""1211""
","
","","","","","","null","<div style=""font-size:60px;"">+</div>","null","","fixation","","",""
"memory-trial","274","499659","0.0-18.0-1.114","7818","approach_avoid_sv1","""event"",""trial"",""time""
""fullscreenenter"",""1"",""1211""
","
","
","""event"",""trial"",""time""
""fullscreenenter"",""1"",""1211""
","
","","","","","","614.6000000238419","images/goat8.png","","","memory_trial","1","definitely_old",""
"html-keyboard-response","275","500167","0.0-18.0-0.115","7818","approach_avoid_sv1","""event"",""trial"",""time""
""fullscreenenter"",""1"",""1211""
","
","
","""event"",""trial"",""time""
""fullscreenenter"",""1"",""1211""
","
","","","","","","null","<div style=""font-size:60px;"">+</div>","null","","fixation","","",""
"memory-trial","276","501926","0.0-18.0-1.115","7818","approach_avoid_sv1","""event"",""trial"",""time""
""fullscreenenter"",""1"",""1211""
","
","
","""event"",""trial"",""time""
""fullscreenenter"",""1"",""1211""
","
","","","","","","749.6999999880791","images/bed7.png","","","memory_trial","4","definitely_new",""
"html-keyboard-response","277","502434","0.0-18.0-0.116","7818","approach_avoid_sv1","""event"",""trial"",""time""
""fullscreenenter"",""1"",""1211""
","
","
","""event"",""trial"",""time""
""fullscreenenter"",""1"",""1211""
","
","","","","","","null","<div style=""font-size:60px;"">+</div>","null","","fixation","","",""
"memory-trial","278","504583","0.0-18.0-1.116","7818","approach_avoid_sv1","""event"",""trial"",""time""
""fullscreenenter"",""1"",""1211""
","
","
","""event"",""trial"",""time""
""fullscreenenter"",""1"",""1211""
","
","","","","","","1135.3999999761581","images/cat5.png","","","memory_trial","1","definitely_old",""
"html-keyboard-response","279","505089","0.0-18.0-0.117","7818","approach_avoid_sv1","""event"",""trial"",""time""
""fullscreenenter"",""1"",""1211""
","
","
","""event"",""trial"",""time""
""fullscreenenter"",""1"",""1211""
","
","","","","","","null","<div style=""font-size:60px;"">+</div>","null","","fixation","","",""
"memory-trial","280","506966","0.0-18.0-1.117","7818","approach_avoid_sv1","""event"",""trial"",""time""
""fullscreenenter"",""1"",""1211""
","
","
","""event"",""trial"",""time""
""fullscreenenter"",""1"",""1211""
","
","","","","","","862.1000000238419","images/truck3.png","","","memory_trial","1","definitely_old",""
"html-keyboard-response","281","507469","0.0-18.0-0.118","7818","approach_avoid_sv1","""event"",""trial"",""time""
""fullscreenenter"",""1"",""1211""
","
","
","""event"",""trial"",""time""
""fullscreenenter"",""1"",""1211""
","
","","","","","","null","<div style=""font-size:60px;"">+</div>","null","","fixation","","",""
"memory-trial","282","509147","0.0-18.0-1.118","7818","approach_avoid_sv1","""event"",""trial"",""time""
""fullscreenenter"",""1"",""1211""
","
","
","""event"",""trial"",""time""
""fullscreenenter"",""1"",""1211""
","
","","","","","","672.3999999761581","images/cat1.png","","","memory_trial","1","definitely_old",""
"html-keyboard-response","283","509656","0.0-18.0-0.119","7818","approach_avoid_sv1","""event"",""trial"",""time""
""fullscreenenter"",""1"",""1211""
","
","
","""event"",""trial"",""time""
""fullscreenenter"",""1"",""1211""
","
","","","","","","null","<div style=""font-size:60px;"">+</div>","null","","fixation","","",""
"memory-trial","284","512207","0.0-18.0-1.119","7818","approach_avoid_sv1","""event"",""trial"",""time""
""fullscreenenter"",""1"",""1211""
","
","
","""event"",""trial"",""time""
""fullscreenenter"",""1"",""1211""
","
","","","","","","1531","images/table4.png","","","memory_trial","2","maybe_old",""
"html-keyboard-response","285","512712","0.0-18.0-0.120","7818","approach_avoid_sv1","""event"",""trial"",""time""
""fullscreenenter"",""1"",""1211""
","
","
","""event"",""trial"",""time""
""fullscreenenter"",""1"",""1211""
","
","","","","","","null","<div style=""font-size:60px;"">+</div>","null","","fixation","","",""
"memory-trial","286","514427","0.0-18.0-1.120","7818","approach_avoid_sv1","""event"",""trial"",""time""
""fullscreenenter"",""1"",""1211""
","
","
","""event"",""trial"",""time""
""fullscreenenter"",""1"",""1211""
","
","","","","","","702.5","images/rodent1.png","","","memory_trial","1","definitely_old",""
"html-keyboard-response","287","514931","0.0-18.0-0.121","7818","approach_avoid_sv1","""event"",""trial"",""time""
""fullscreenenter"",""1"",""1211""
","
","
","""event"",""trial"",""time""
""fullscreenenter"",""1"",""1211""
","
","","","","","","null","<div style=""font-size:60px;"">+</div>","null","","fixation","","",""
"memory-trial","288","516536","0.0-18.0-1.121","7818","approach_avoid_sv1","""event"",""trial"",""time""
""fullscreenenter"",""1"",""1211""
","
","
","""event"",""trial"",""time""
""fullscreenenter"",""1"",""1211""
","
","","","","","","595.5999999642372","images/orange4.png","","","memory_trial","1","definitely_old",""
"html-keyboard-response","289","517044","0.0-18.0-0.122","7818","approach_avoid_sv1","""event"",""trial"",""time""
""fullscreenenter"",""1"",""1211""
","
","
","""event"",""trial"",""time""
""fullscreenenter"",""1"",""1211""
","
","","","","","","null","<div style=""font-size:60px;"">+</div>","null","","fixation","","",""
"memory-trial","290","519788","0.0-18.0-1.122","7818","approach_avoid_sv1","""event"",""trial"",""time""
""fullscreenenter"",""1"",""1211""
","
","
","""event"",""trial"",""time""
""fullscreenenter"",""1"",""1211""
","
","","","","","","1729","images/rabbit7.png","","","memory_trial","1","definitely_old",""
"html-keyboard-response","291","520293","0.0-18.0-0.123","7818","approach_avoid_sv1","""event"",""trial"",""time""
""fullscreenenter"",""1"",""1211""
","
","
","""event"",""trial"",""time""
""fullscreenenter"",""1"",""1211""
","
","","","","","","null","<div style=""font-size:60px;"">+</div>","null","","fixation","","",""
"memory-trial","292","522312","0.0-18.0-1.123","7818","approach_avoid_sv1","""event"",""trial"",""time""
""fullscreenenter"",""1"",""1211""
","
","
","""event"",""trial"",""time""
""fullscreenenter"",""1"",""1211""
","
","","","","","","1012.3000000119209","images/sheep7.png","","","memory_trial","1","definitely_old",""
"html-keyboard-response","293","522817","0.0-18.0-0.124","7818","approach_avoid_sv1","""event"",""trial"",""time""
""fullscreenenter"",""1"",""1211""
","
","
","""event"",""trial"",""time""
""fullscreenenter"",""1"",""1211""
","
","","","","","","null","<div style=""font-size:60px;"">+</div>","null","","fixation","","",""
"memory-trial","294","525907","0.0-18.0-1.124","7818","approach_avoid_sv1","""event"",""trial"",""time""
""fullscreenenter"",""1"",""1211""
","
","
","""event"",""trial"",""time""
""fullscreenenter"",""1"",""1211""
","
","","","","","","2071.099999964237","images/tree8.png","","","memory_trial","3","maybe_new",""
"html-keyboard-response","295","526410","0.0-18.0-0.125","7818","approach_avoid_sv1","""event"",""trial"",""time""
""fullscreenenter"",""1"",""1211""
","
","
","""event"",""trial"",""time""
""fullscreenenter"",""1"",""1211""
","
","","","","","","null","<div style=""font-size:60px;"">+</div>","null","","fixation","","",""
"memory-trial","296","528468","0.0-18.0-1.125","7818","approach_avoid_sv1","""event"",""trial"",""time""
""fullscreenenter"",""1"",""1211""
","
","
","""event"",""trial"",""time""
""fullscreenenter"",""1"",""1211""
","
","","","","","","1038.6000000238419","images/sheep4.png","","","memory_trial","1","definitely_old",""
"html-keyboard-response","297","528973","0.0-18.0-0.126","7818","approach_avoid_sv1","""event"",""trial"",""time""
""fullscreenenter"",""1"",""1211""
","
","
