"trial_type","trial_index","time_elapsed","internal_node_id","subject_id","task_version","interactions","blur_events","focus_events","fullscreenenter_events","fullscreenexit_events","success","timeout","failed_images","failed_audio","failed_video","rt","stimulus","response","button_pressed","task_part","key_press","answer","correct"
"pavlovia","0","5","0.0-0.0","4607","approach_avoid_sv1","""event"",""trial"",""time""
""fullscreenenter"",""1"",""1892""
","
","
","""event"",""trial"",""time""
""fullscreenenter"",""1"",""1892""
","
","","","","","","","","","","","","",""
"fullscreen","1","2849","0.0-1.0","4607","approach_avoid_sv1","""event"",""trial"",""time""
""fullscreenenter"",""1"",""1892""
","
","
","""event"",""trial"",""time""
""fullscreenenter"",""1"",""1892""
","
","true","","","","","","","","","","","",""
"preload","2","4527","0.0-2.0","4607","approach_avoid_sv1","""event"",""trial"",""time""
""fullscreenenter"",""1"",""1892""
","
","
","""event"",""trial"",""time""
""fullscreenenter"",""1"",""1892""
","
","true","false","[]","[]","[]","","","","","","","",""
"preload","3","5243","0.0-3.0","4607","approach_avoid_sv1","""event"",""trial"",""time""
""fullscreenenter"",""1"",""1892""
","
","
","""event"",""trial"",""time""
""fullscreenenter"",""1"",""1892""
","
","true","false","[]","[]","[]","","","","","","","",""
"preload","4","5642","0.0-4.0","4607","approach_avoid_sv1","""event"",""trial"",""time""
""fullscreenenter"",""1"",""1892""
""blur"",""5"",""11360""
""focus"",""5"",""12422""
","""event"",""trial"",""time""
""blur"",""5"",""11360""
","""event"",""trial"",""time""
""focus"",""5"",""12422""
","""event"",""trial"",""time""
""fullscreenenter"",""1"",""1892""
","
","true","false","[]","[]","[]","","","","","","","",""
"audio-keyboard-response","5","13546","0.0-5.0","4607","approach_avoid_sv1","""event"",""trial"",""time""
""fullscreenenter"",""1"",""1892""
""blur"",""5"",""11360""
""focus"",""5"",""12422""
""blur"",""6"",""18787""
""focus"",""6"",""22181""
","""event"",""trial"",""time""
""blur"",""5"",""11360""
""blur"",""6"",""18787""
","""event"",""trial"",""time""
""focus"",""5"",""12422""
""focus"",""6"",""22181""
","""event"",""trial"",""time""
""fullscreenenter"",""1"",""1892""
","
","","","","","","0","audio/beep_loop.wav"," ","","","","",""
"audio-button-response","6","23240","0.0-6.0","4607","approach_avoid_sv1","""event"",""trial"",""time""
""fullscreenenter"",""1"",""1892""
""blur"",""5"",""11360""
""focus"",""5"",""12422""
""blur"",""6"",""18787""
""focus"",""6"",""22181""
","""event"",""trial"",""time""
""blur"",""5"",""11360""
""blur"",""6"",""18787""
","""event"",""trial"",""time""
""focus"",""5"",""12422""
""focus"",""6"",""22181""
","""event"",""trial"",""time""
""fullscreenenter"",""1"",""1892""
","
","","","","","","9643","audio/turtle.wav","0","","","","",""
"audio-button-response","7","25623","0.0-7.0","4607","approach_avoid_sv1","""event"",""trial"",""time""
""fullscreenenter"",""1"",""1892""
""blur"",""5"",""11360""
""focus"",""5"",""12422""
""blur"",""6"",""18787""
""focus"",""6"",""22181""
","""event"",""trial"",""time""
""blur"",""5"",""11360""
""blur"",""6"",""18787""
","""event"",""trial"",""time""
""focus"",""5"",""12422""
""focus"",""6"",""22181""
","""event"",""trial"",""time""
""fullscreenenter"",""1"",""1892""
","
","","","","","","1360","audio/shark.wav","2","","","","",""
"preload","8","28178","0.0-8.0","4607","approach_avoid_sv1","""event"",""trial"",""time""
""fullscreenenter"",""1"",""1892""
""blur"",""5"",""11360""
""focus"",""5"",""12422""
""blur"",""6"",""18787""
""focus"",""6"",""22181""
","""event"",""trial"",""time""
""blur"",""5"",""11360""
""blur"",""6"",""18787""
","""event"",""trial"",""time""
""focus"",""5"",""12422""
""focus"",""6"",""22181""
","""event"",""trial"",""time""
""fullscreenenter"",""1"",""1892""
","
","true","false","[]","[]","[]","","","","","","","",""
"learning-instructions","9","34489","0.0-9.0-0.0","4607","approach_avoid_sv1","""event"",""trial"",""time""
""fullscreenenter"",""1"",""1892""
""blur"",""5"",""11360""
""focus"",""5"",""12422""
""blur"",""6"",""18787""
""focus"",""6"",""22181""
","""event"",""trial"",""time""
""blur"",""5"",""11360""
""blur"",""6"",""18787""
","""event"",""trial"",""time""
""focus"",""5"",""12422""
""focus"",""6"",""22181""
","""event"",""trial"",""time""
""fullscreenenter"",""1"",""1892""
","
","","","","","","1831","<p> Welcome back! </p><p> Last week, you had to make choices about lots of different items.  </p>","","0","instructions","","",""
"learning-instructions","10","40722","0.0-9.0-0.1","4607","approach_avoid_sv1","""event"",""trial"",""time""
""fullscreenenter"",""1"",""1892""
""blur"",""5"",""11360""
""focus"",""5"",""12422""
""blur"",""6"",""18787""
""focus"",""6"",""22181""
","""event"",""trial"",""time""
""blur"",""5"",""11360""
""blur"",""6"",""18787""
","""event"",""trial"",""time""
""focus"",""5"",""12422""
""focus"",""6"",""22181""
","""event"",""trial"",""time""
""fullscreenenter"",""1"",""1892""
","
","","","","","","2118","<p> Today, we are going to ask you to try to remember all the items. </p>","","0","instructions","","",""
"learning-instructions","11","53171","0.0-9.0-0.2","4607","approach_avoid_sv1","""event"",""trial"",""time""
""fullscreenenter"",""1"",""1892""
""blur"",""5"",""11360""
""focus"",""5"",""12422""
""blur"",""6"",""18787""
""focus"",""6"",""22181""
","""event"",""trial"",""time""
""blur"",""5"",""11360""
""blur"",""6"",""18787""
","""event"",""trial"",""time""
""focus"",""5"",""12422""
""focus"",""6"",""22181""
","""event"",""trial"",""time""
""fullscreenenter"",""1"",""1892""
","
","","","","","","2317","<p> On every trial, you will see an image. </p><p> The image may be an OLD image you saw during the games last week or it may be a NEW image that was not presented. </p>","","0","instructions","","",""
"learning-instructions","12","65254","0.0-9.0-0.3","4607","approach_avoid_sv1","""event"",""trial"",""time""
""fullscreenenter"",""1"",""1892""
""blur"",""5"",""11360""
""focus"",""5"",""12422""
""blur"",""6"",""18787""
""focus"",""6"",""22181""
","""event"",""trial"",""time""
""blur"",""5"",""11360""
""blur"",""6"",""18787""
","""event"",""trial"",""time""
""focus"",""5"",""12422""
""focus"",""6"",""22181""
","""event"",""trial"",""time""
""fullscreenenter"",""1"",""1892""
","
","","","","","","3555.9999999999927","<p> You need to select whether the image is:  </p><p>  'Definitely old', 'Maybe old', 'Maybe new', or 'Definitely new.'  </p><div class=""mem-choice-instructions-grid""><div class=""choice-option"" id=""choice-option-1"" ><img src=""images/definitely_old_1.png"" id=""choice-option-img-1"" class=""choice-option-img"" stage=""1""></div><div class=""choice-option"" id=""choice-option-2"" ><img src=""images/maybe_old_1.png"" id=""choice-option-img-2"" class=""choice-option-img"" stage=""1""></div><div class=""choice-option"" id=""choice-option-3"" ><img src=""images/maybe_new_1.png"" id=""choice-option-img-3"" class=""choice-option-img"" stage=""1""></div><div class=""choice-option"" id=""choice-option-4"" > <img src=""images/definitely_new_1.png"" id=""choice-option-img-4"" class=""choice-option-img"" stage=""1""></div></div>","","0","instructions","","",""
"learning-instructions","13","81464","0.0-9.0-0.4","4607","approach_avoid_sv1","""event"",""trial"",""time""
""fullscreenenter"",""1"",""1892""
""blur"",""5"",""11360""
""focus"",""5"",""12422""
""blur"",""6"",""18787""
""focus"",""6"",""22181""
","""event"",""trial"",""time""
""blur"",""5"",""11360""
""blur"",""6"",""18787""
","""event"",""trial"",""time""
""focus"",""5"",""12422""
""focus"",""6"",""22181""
","""event"",""trial"",""time""
""fullscreenenter"",""1"",""1892""
","
","","","","","","9662","<p> You should use the 1, 2, 3, and 4 keys to make your responses.  </p><div class=""mem-choice-instructions-grid""><div class=""choice-option"" id=""choice-option-1"" ><img src=""images/definitely_old.png"" id=""choice-option-img-1"" class=""choice-option-img"" stage=""1""></div><div class=""choice-option"" id=""choice-option-2"" ><img src=""images/maybe_old.png"" id=""choice-option-img-2"" class=""choice-option-img"" stage=""1""></div><div class=""choice-option"" id=""choice-option-3"" ><img src=""images/maybe_new.png"" id=""choice-option-img-3"" class=""choice-option-img"" stage=""1""></div><div class=""choice-option"" id=""choice-option-4"" > <img src=""images/definitely_new.png"" id=""choice-option-img-4"" class=""choice-option-img"" stage=""1""></div></div>","","0","instructions","","",""
"learning-instructions","14","89301","0.0-9.0-0.5","4607","approach_avoid_sv1","""event"",""trial"",""time""
""fullscreenenter"",""1"",""1892""
""blur"",""5"",""11360""
""focus"",""5"",""12422""
""blur"",""6"",""18787""
""focus"",""6"",""22181""
","""event"",""trial"",""time""
""blur"",""5"",""11360""
""blur"",""6"",""18787""
","""event"",""trial"",""time""
""focus"",""5"",""12422""
""focus"",""6"",""22181""
","""event"",""trial"",""time""
""fullscreenenter"",""1"",""1892""
","
","","","","","","1511","<p> You will have 10 seconds to make each response.  </p><p>  Make sure to respond before time runs out! </p>","","0","instructions","","",""
"learning-instructions","15","97599","0.0-9.0-0.6","4607","approach_avoid_sv1","""event"",""trial"",""time""
""fullscreenenter"",""1"",""1892""
""blur"",""5"",""11360""
""focus"",""5"",""12422""
""blur"",""6"",""18787""
""focus"",""6"",""22181""
","""event"",""trial"",""time""
""blur"",""5"",""11360""
""blur"",""6"",""18787""
","""event"",""trial"",""time""
""focus"",""5"",""12422""
""focus"",""6"",""22181""
","""event"",""trial"",""time""
""fullscreenenter"",""1"",""1892""
","
","","","","","","1225","<p> Today, you will see each image ONCE only.  </p><p>  That means none of the images will repeat. </p>","","0","instructions","","",""
"learning-instructions","16","114734","0.0-9.0-0.7","4607","approach_avoid_sv1","""event"",""trial"",""time""
""fullscreenenter"",""1"",""1892""
""blur"",""5"",""11360""
""focus"",""5"",""12422""
""blur"",""6"",""18787""
""focus"",""6"",""22181""
","""event"",""trial"",""time""
""blur"",""5"",""11360""
""blur"",""6"",""18787""
","""event"",""trial"",""time""
""focus"",""5"",""12422""
""focus"",""6"",""22181""
","""event"",""trial"",""time""
""fullscreenenter"",""1"",""1892""
","
","","","","","","4468","<p> Before you play the real game, it is time to practice. </p><p>  Just like in the real game, some of the images in the practice will be ones you have seen before. </p><p>  Others will be entirely new. </p>","","0","instructions","","",""
"html-button-response","17","117165","0.0-10.0","4607","approach_avoid_sv1","""event"",""trial"",""time""
""fullscreenenter"",""1"",""1892""
""blur"",""5"",""11360""
""focus"",""5"",""12422""
""blur"",""6"",""18787""
""focus"",""6"",""22181""
","""event"",""trial"",""time""
""blur"",""5"",""11360""
""blur"",""6"",""18787""
","""event"",""trial"",""time""
""focus"",""5"",""12422""
""focus"",""6"",""22181""
","""event"",""trial"",""time""
""fullscreenenter"",""1"",""1892""
","
","","","","","","2327","<p> Ready to practice? </p><p> Remember, use the 1, 2, 3, and 4 keys to make your responses. </p>","0","","instructions","","",""
"html-keyboard-response","18","117769","0.0-11.0-0.0","4607","approach_avoid_sv1","""event"",""trial"",""time""
""fullscreenenter"",""1"",""1892""
""blur"",""5"",""11360""
""focus"",""5"",""12422""
""blur"",""6"",""18787""
""focus"",""6"",""22181""
","""event"",""trial"",""time""
""blur"",""5"",""11360""
""blur"",""6"",""18787""
","""event"",""trial"",""time""
""focus"",""5"",""12422""
""focus"",""6"",""22181""
","""event"",""trial"",""time""
""fullscreenenter"",""1"",""1892""
","
","","","","","","null","<div style=""font-size:60px;"">+</div>","null","","fixation","","",""
"memory-trial","19","121070","0.0-11.0-1.0","4607","approach_avoid_sv1","""event"",""trial"",""time""
""fullscreenenter"",""1"",""1892""
""blur"",""5"",""11360""
""focus"",""5"",""12422""
""blur"",""6"",""18787""
""focus"",""6"",""22181""
","""event"",""trial"",""time""
""blur"",""5"",""11360""
""blur"",""6"",""18787""
","""event"",""trial"",""time""
""focus"",""5"",""12422""
""focus"",""6"",""22181""
","""event"",""trial"",""time""
""fullscreenenter"",""1"",""1892""
","
","","","","","","2276.0000000000146","images/ball2.png","","","practice","4","definitely_new",""
"html-keyboard-response","20","121573","0.0-11.0-0.1","4607","approach_avoid_sv1","""event"",""trial"",""time""
""fullscreenenter"",""1"",""1892""
""blur"",""5"",""11360""
""focus"",""5"",""12422""
""blur"",""6"",""18787""
""focus"",""6"",""22181""
","""event"",""trial"",""time""
""blur"",""5"",""11360""
""blur"",""6"",""18787""
","""event"",""trial"",""time""
""focus"",""5"",""12422""
""focus"",""6"",""22181""
","""event"",""trial"",""time""
""fullscreenenter"",""1"",""1892""
","
","","","","","","null","<div style=""font-size:60px;"">+</div>","null","","fixation","","",""
"memory-trial","21","123866","0.0-11.0-1.1","4607","approach_avoid_sv1","""event"",""trial"",""time""
""fullscreenenter"",""1"",""1892""
""blur"",""5"",""11360""
""focus"",""5"",""12422""
""blur"",""6"",""18787""
""focus"",""6"",""22181""
","""event"",""trial"",""time""
""blur"",""5"",""11360""
""blur"",""6"",""18787""
","""event"",""trial"",""time""
""focus"",""5"",""12422""
""focus"",""6"",""22181""
","""event"",""trial"",""time""
""fullscreenenter"",""1"",""1892""
","
","","","","","","1268","images/racket5.png","","","practice","1","definitely_old",""
"html-keyboard-response","22","124368","0.0-11.0-0.2","4607","approach_avoid_sv1","""event"",""trial"",""time""
""fullscreenenter"",""1"",""1892""
""blur"",""5"",""11360""
""focus"",""5"",""12422""
""blur"",""6"",""18787""
""focus"",""6"",""22181""
","""event"",""trial"",""time""
""blur"",""5"",""11360""
""blur"",""6"",""18787""
","""event"",""trial"",""time""
""focus"",""5"",""12422""
""focus"",""6"",""22181""
","""event"",""trial"",""time""
""fullscreenenter"",""1"",""1892""
","
","","","","","","null","<div style=""font-size:60px;"">+</div>","null","","fixation","","",""
"memory-trial","23","127265","0.0-11.0-1.2","4607","approach_avoid_sv1","""event"",""trial"",""time""
""fullscreenenter"",""1"",""1892""
""blur"",""5"",""11360""
""focus"",""5"",""12422""
""blur"",""6"",""18787""
""focus"",""6"",""22181""
","""event"",""trial"",""time""
""blur"",""5"",""11360""
""blur"",""6"",""18787""
","""event"",""trial"",""time""
""focus"",""5"",""12422""
""focus"",""6"",""22181""
","""event"",""trial"",""time""
""fullscreenenter"",""1"",""1892""
","
","","","","","","1874","images/ball3.png","","","practice","1","definitely_old",""
"html-keyboard-response","24","127768","0.0-11.0-0.3","4607","approach_avoid_sv1","""event"",""trial"",""time""
""fullscreenenter"",""1"",""1892""
""blur"",""5"",""11360""
""focus"",""5"",""12422""
""blur"",""6"",""18787""
""focus"",""6"",""22181""
","""event"",""trial"",""time""
""blur"",""5"",""11360""
""blur"",""6"",""18787""
","""event"",""trial"",""time""
""focus"",""5"",""12422""
""focus"",""6"",""22181""
","""event"",""trial"",""time""
""fullscreenenter"",""1"",""1892""
","
","","","","","","null","<div style=""font-size:60px;"">+</div>","null","","fixation","","",""
"memory-trial","25","129584","0.0-11.0-1.3","4607","approach_avoid_sv1","""event"",""trial"",""time""
""fullscreenenter"",""1"",""1892""
""blur"",""5"",""11360""
""focus"",""5"",""12422""
""blur"",""6"",""18787""
""focus"",""6"",""22181""
","""event"",""trial"",""time""
""blur"",""5"",""11360""
""blur"",""6"",""18787""
","""event"",""trial"",""time""
""focus"",""5"",""12422""
""focus"",""6"",""22181""
","""event"",""trial"",""time""
""fullscreenenter"",""1"",""1892""
","
","","","","","","790.0000000000291","images/racket2.png","","","practice","1","definitely_old",""
"html-keyboard-response","26","130087","0.0-11.0-0.4","4607","approach_avoid_sv1","""event"",""trial"",""time""
""fullscreenenter"",""1"",""1892""
""blur"",""5"",""11360""
""focus"",""5"",""12422""
""blur"",""6"",""18787""
""focus"",""6"",""22181""
","""event"",""trial"",""time""
""blur"",""5"",""11360""
""blur"",""6"",""18787""
","""event"",""trial"",""time""
""focus"",""5"",""12422""
""focus"",""6"",""22181""
","""event"",""trial"",""time""
""fullscreenenter"",""1"",""1892""
","
","","","","","","null","<div style=""font-size:60px;"">+</div>","null","","fixation","","",""
"memory-trial","27","132003","0.0-11.0-1.4","4607","approach_avoid_sv1","""event"",""trial"",""time""
""fullscreenenter"",""1"",""1892""
""blur"",""5"",""11360""
""focus"",""5"",""12422""
""blur"",""6"",""18787""
""focus"",""6"",""22181""
","""event"",""trial"",""time""
""blur"",""5"",""11360""
""blur"",""6"",""18787""
","""event"",""trial"",""time""
""focus"",""5"",""12422""
""focus"",""6"",""22181""
","""event"",""trial"",""time""
""fullscreenenter"",""1"",""1892""
","
","","","","","","891","images/ball1.png","","","practice","1","definitely_old",""
"html-keyboard-response","28","132504","0.0-11.0-0.5","4607","approach_avoid_sv1","""event"",""trial"",""time""
""fullscreenenter"",""1"",""1892""
""blur"",""5"",""11360""
""focus"",""5"",""12422""
""blur"",""6"",""18787""
""focus"",""6"",""22181""
","""event"",""trial"",""time""
""blur"",""5"",""11360""
""blur"",""6"",""18787""
","""event"",""trial"",""time""
""focus"",""5"",""12422""
""focus"",""6"",""22181""
","""event"",""trial"",""time""
""fullscreenenter"",""1"",""1892""
","
","","","","","","null","<div style=""font-size:60px;"">+</div>","null","","fixation","","",""
"memory-trial","29","134320","0.0-11.0-1.5","4607","approach_avoid_sv1","""event"",""trial"",""time""
""fullscreenenter"",""1"",""1892""
""blur"",""5"",""11360""
""focus"",""5"",""12422""
""blur"",""6"",""18787""
""focus"",""6"",""22181""
","""event"",""trial"",""time""
""blur"",""5"",""11360""
""blur"",""6"",""18787""
","""event"",""trial"",""time""
""focus"",""5"",""12422""
""focus"",""6"",""22181""
","""event"",""trial"",""time""
""fullscreenenter"",""1"",""1892""
","
","","","","","","790","images/racket1.png","","","practice","1","definitely_old",""
"html-keyboard-response","30","134822","0.0-11.0-0.6","4607","approach_avoid_sv1","""event"",""trial"",""time""
""fullscreenenter"",""1"",""1892""
""blur"",""5"",""11360""
""focus"",""5"",""12422""
""blur"",""6"",""18787""
""focus"",""6"",""22181""
","""event"",""trial"",""time""
""blur"",""5"",""11360""
""blur"",""6"",""18787""
","""event"",""trial"",""time""
""focus"",""5"",""12422""
""focus"",""6"",""22181""
","""event"",""trial"",""time""
""fullscreenenter"",""1"",""1892""
","
","","","","","","null","<div style=""font-size:60px;"">+</div>","null","","fixation","","",""
"memory-trial","31","138116","0.0-11.0-1.6","4607","approach_avoid_sv1","""event"",""trial"",""time""
""fullscreenenter"",""1"",""1892""
""blur"",""5"",""11360""
""focus"",""5"",""12422""
""blur"",""6"",""18787""
""focus"",""6"",""22181""
","""event"",""trial"",""time""
""blur"",""5"",""11360""
""blur"",""6"",""18787""
","""event"",""trial"",""time""
""focus"",""5"",""12422""
""focus"",""6"",""22181""
","""event"",""trial"",""time""
""fullscreenenter"",""1"",""1892""
","
","","","","","","2268","images/ball5.png","","","practice","2","maybe_old",""
"html-keyboard-response","32","138618","0.0-11.0-0.7","4607","approach_avoid_sv1","""event"",""trial"",""time""
""fullscreenenter"",""1"",""1892""
""blur"",""5"",""11360""
""focus"",""5"",""12422""
""blur"",""6"",""18787""
""focus"",""6"",""22181""
","""event"",""trial"",""time""
""blur"",""5"",""11360""
""blur"",""6"",""18787""
","""event"",""trial"",""time""
""focus"",""5"",""12422""
""focus"",""6"",""22181""
","""event"",""trial"",""time""
""fullscreenenter"",""1"",""1892""
","
","","","","","","null","<div style=""font-size:60px;"">+</div>","null","","fixation","","",""
"memory-trial","33","141171","0.0-11.0-1.7","4607","approach_avoid_sv1","""event"",""trial"",""time""
""fullscreenenter"",""1"",""1892""
""blur"",""5"",""11360""
""focus"",""5"",""12422""
""blur"",""6"",""18787""
""focus"",""6"",""22181""
","""event"",""trial"",""time""
""blur"",""5"",""11360""
""blur"",""6"",""18787""
","""event"",""trial"",""time""
""focus"",""5"",""12422""
""focus"",""6"",""22181""
","""event"",""trial"",""time""
""fullscreenenter"",""1"",""1892""
","
","","","","","","1529","images/racket3.png","","","practice","3","maybe_new",""
"learning-instructions","34","149747","0.0-12.0-0.0","4607","approach_avoid_sv1","""event"",""trial"",""time""
""fullscreenenter"",""1"",""1892""
""blur"",""5"",""11360""
""focus"",""5"",""12422""
""blur"",""6"",""18787""
""focus"",""6"",""22181""
","""event"",""trial"",""time""
""blur"",""5"",""11360""
""blur"",""6"",""18787""
","""event"",""trial"",""time""
""focus"",""5"",""12422""
""focus"",""6"",""22181""
","""event"",""trial"",""time""
""fullscreenenter"",""1"",""1892""
","
","","","","","","1267","<p> Great! You have completed the practice. </p><p> Before you start, we're going to ask you a few questions about how the game works.  </p>","","0","instructions","","",""
"preload","35","150884","0.0-13.0","4607","approach_avoid_sv1","""event"",""trial"",""time""
""fullscreenenter"",""1"",""1892""
""blur"",""5"",""11360""
""focus"",""5"",""12422""
""blur"",""6"",""18787""
""focus"",""6"",""22181""
","""event"",""trial"",""time""
""blur"",""5"",""11360""
""blur"",""6"",""18787""
","""event"",""trial"",""time""
""focus"",""5"",""12422""
""focus"",""6"",""22181""
","""event"",""trial"",""time""
""fullscreenenter"",""1"",""1892""
","
","true","false","[]","[]","[]","","","","","","","",""
"comp-q","36","157798","0.0-14.0-0.0","4607","approach_avoid_sv1","""event"",""trial"",""time""
""fullscreenenter"",""1"",""1892""
""blur"",""5"",""11360""
""focus"",""5"",""12422""
""blur"",""6"",""18787""
""focus"",""6"",""22181""
","""event"",""trial"",""time""
""blur"",""5"",""11360""
""blur"",""6"",""18787""
","""event"",""trial"",""time""
""focus"",""5"",""12422""
""focus"",""6"",""22181""
","""event"",""trial"",""time""
""fullscreenenter"",""1"",""1892""
","
","","","","","","1080","<p> <b> True or False? </b> </p><p> In this game, you will only see each image once. </p>","","0","comp_question","","","true"
"comp-q","37","165396","0.0-14.0-1.0","4607","approach_avoid_sv1","""event"",""trial"",""time""
""fullscreenenter"",""1"",""1892""
""blur"",""5"",""11360""
""focus"",""5"",""12422""
""blur"",""6"",""18787""
""focus"",""6"",""22181""
","""event"",""trial"",""time""
""blur"",""5"",""11360""
""blur"",""6"",""18787""
","""event"",""trial"",""time""
""focus"",""5"",""12422""
""focus"",""6"",""22181""
","""event"",""trial"",""time""
""fullscreenenter"",""1"",""1892""
","
","","","","","","1263","<p> <b> That's right! </b> You will see many different images <i> one time each </i> in this game. </p>","","0","comp_answer","","",""
"comp-q","38","171446","0.0-15.0-0.0","4607","approach_avoid_sv1","""event"",""trial"",""time""
""fullscreenenter"",""1"",""1892""
""blur"",""5"",""11360""
""focus"",""5"",""12422""
""blur"",""6"",""18787""
""focus"",""6"",""22181""
","""event"",""trial"",""time""
""blur"",""5"",""11360""
""blur"",""6"",""18787""
","""event"",""trial"",""time""
""focus"",""5"",""12422""
""focus"",""6"",""22181""
","""event"",""trial"",""time""
""fullscreenenter"",""1"",""1892""
","
","","","","","","1046","<p> <b> True or False? </b> </p><p> You should use the mouse and click to make your response. </p>","","1","comp_question","","","true"
"comp-q","39","178882","0.0-15.0-1.0","4607","approach_avoid_sv1","""event"",""trial"",""time""
""fullscreenenter"",""1"",""1892""
""blur"",""5"",""11360""
""focus"",""5"",""12422""
""blur"",""6"",""18787""
""focus"",""6"",""22181""
","""event"",""trial"",""time""
""blur"",""5"",""11360""
""blur"",""6"",""18787""
","""event"",""trial"",""time""
""focus"",""5"",""12422""
""focus"",""6"",""22181""
","""event"",""trial"",""time""
""fullscreenenter"",""1"",""1892""
","
","","","","","","935","<p><b> That's right! </b> You should use the '1', '2', '3', and '4' keys to make your response. </p>","","0","comp_answer","","",""
"comp-q","40","185245","0.0-16.0-0.0","4607","approach_avoid_sv1","""event"",""trial"",""time""
""fullscreenenter"",""1"",""1892""
""blur"",""5"",""11360""
""focus"",""5"",""12422""
""blur"",""6"",""18787""
""focus"",""6"",""22181""
","""event"",""trial"",""time""
""blur"",""5"",""11360""
""blur"",""6"",""18787""
","""event"",""trial"",""time""
""focus"",""5"",""12422""
""focus"",""6"",""22181""
","""event"",""trial"",""time""
""fullscreenenter"",""1"",""1892""
","
","","","","","","691","<p> <b> True or False? </b> </p><p> You will have as much time as you want to make each choice. </p>","","1","comp_question","","","true"
"comp-q","41","191144","0.0-16.0-1.0","4607","approach_avoid_sv1","""event"",""trial"",""time""
""fullscreenenter"",""1"",""1892""
""blur"",""5"",""11360""
""focus"",""5"",""12422""
""blur"",""6"",""18787""
""focus"",""6"",""22181""
","""event"",""trial"",""time""
""blur"",""5"",""11360""
""blur"",""6"",""18787""
","""event"",""trial"",""time""
""focus"",""5"",""12422""
""focus"",""6"",""22181""
","""event"",""trial"",""time""
""fullscreenenter"",""1"",""1892""
","
","","","","","","1205","<p> <b> That's right! </b> You will only have 10 seconds to make each choice. </p>","","0","comp_answer","","",""
"learning-instructions","42","201426","0.0-17.0","4607","approach_avoid_sv1","""event"",""trial"",""time""
""fullscreenenter"",""1"",""1892""
""blur"",""5"",""11360""
""focus"",""5"",""12422""
""blur"",""6"",""18787""
""focus"",""6"",""22181""
","""event"",""trial"",""time""
""blur"",""5"",""11360""
""blur"",""6"",""18787""
","""event"",""trial"",""time""
""focus"",""5"",""12422""
""focus"",""6"",""22181""
","""event"",""trial"",""time""
""fullscreenenter"",""1"",""1892""
","
","","","","","","1615","<p> Great! You are now ready to begin the game. </p><p> Remember, use the 1, 2, 3, and 4 keys to make your responses. </p>","","0","instructions","","",""
"html-keyboard-response","43","202029","0.0-18.0-0.0","4607","approach_avoid_sv1","""event"",""trial"",""time""
""fullscreenenter"",""1"",""1892""
""blur"",""5"",""11360""
""focus"",""5"",""12422""
""blur"",""6"",""18787""
""focus"",""6"",""22181""
","""event"",""trial"",""time""
""blur"",""5"",""11360""
""blur"",""6"",""18787""
","""event"",""trial"",""time""
""focus"",""5"",""12422""
""focus"",""6"",""22181""
","""event"",""trial"",""time""
""fullscreenenter"",""1"",""1892""
","
","","","","","","null","<div style=""font-size:60px;"">+</div>","null","","fixation","","",""
"memory-trial","44","205217","0.0-18.0-1.0","4607","approach_avoid_sv1","""event"",""trial"",""time""
""fullscreenenter"",""1"",""1892""
""blur"",""5"",""11360""
""focus"",""5"",""12422""
""blur"",""6"",""18787""
""focus"",""6"",""22181""
","""event"",""trial"",""time""
""blur"",""5"",""11360""
""blur"",""6"",""18787""
","""event"",""trial"",""time""
""focus"",""5"",""12422""
""focus"",""6"",""22181""
","""event"",""trial"",""time""
""fullscreenenter"",""1"",""1892""
","
","","","","","","2161","images/truck3.png","","","memory_trial","1","definitely_old",""
"html-keyboard-response","45","205719","0.0-18.0-0.1","4607","approach_avoid_sv1","""event"",""trial"",""time""
""fullscreenenter"",""1"",""1892""
""blur"",""5"",""11360""
""focus"",""5"",""12422""
""blur"",""6"",""18787""
""focus"",""6"",""22181""
","""event"",""trial"",""time""
""blur"",""5"",""11360""
""blur"",""6"",""18787""
","""event"",""trial"",""time""
""focus"",""5"",""12422""
""focus"",""6"",""22181""
","""event"",""trial"",""time""
""fullscreenenter"",""1"",""1892""
","
","","","","","","null","<div style=""font-size:60px;"">+</div>","null","","fixation","","",""
"memory-trial","46","207926","0.0-18.0-1.1","4607","approach_avoid_sv1","""event"",""trial"",""time""
""fullscreenenter"",""1"",""1892""
""blur"",""5"",""11360""
""focus"",""5"",""12422""
""blur"",""6"",""18787""
""focus"",""6"",""22181""
","""event"",""trial"",""time""
""blur"",""5"",""11360""
""blur"",""6"",""18787""
","""event"",""trial"",""time""
""focus"",""5"",""12422""
""focus"",""6"",""22181""
","""event"",""trial"",""time""
""fullscreenenter"",""1"",""1892""
","
","","","","","","1183","images/straw5.png","","","memory_trial","1","definitely_old",""
"html-keyboard-response","47","208428","0.0-18.0-0.2","4607","approach_avoid_sv1","""event"",""trial"",""time""
""fullscreenenter"",""1"",""1892""
""blur"",""5"",""11360""
""focus"",""5"",""12422""
""blur"",""6"",""18787""
""focus"",""6"",""22181""
","""event"",""trial"",""time""
""blur"",""5"",""11360""
""blur"",""6"",""18787""
","""event"",""trial"",""time""
""focus"",""5"",""12422""
""focus"",""6"",""22181""
","""event"",""trial"",""time""
""fullscreenenter"",""1"",""1892""
","
","","","","","","null","<div style=""font-size:60px;"">+</div>","null","","fixation","","",""
"memory-trial","48","212540","0.0-18.0-1.2","4607","approach_avoid_sv1","""event"",""trial"",""time""
""fullscreenenter"",""1"",""1892""
""blur"",""5"",""11360""
""focus"",""5"",""12422""
""blur"",""6"",""18787""
""focus"",""6"",""22181""
","""event"",""trial"",""time""
""blur"",""5"",""11360""
""blur"",""6"",""18787""
","""event"",""trial"",""time""
""focus"",""5"",""12422""
""focus"",""6"",""22181""
","""event"",""trial"",""time""
""fullscreenenter"",""1"",""1892""
","
","","","","","","3086","images/rodent5.png","","","memory_trial","2","maybe_old",""
"html-keyboard-response","49","213043","0.0-18.0-0.3","4607","approach_avoid_sv1","""event"",""trial"",""time""
""fullscreenenter"",""1"",""1892""
""blur"",""5"",""11360""
""focus"",""5"",""12422""
""blur"",""6"",""18787""
""focus"",""6"",""22181""
","""event"",""trial"",""time""
""blur"",""5"",""11360""
""blur"",""6"",""18787""
","""event"",""trial"",""time""
""focus"",""5"",""12422""
""focus"",""6"",""22181""
","""event"",""trial"",""time""
""fullscreenenter"",""1"",""1892""
","
","","","","","","null","<div style=""font-size:60px;"">+</div>","null","","fixation","","",""
"memory-trial","50","216707","0.0-18.0-1.3","4607","approach_avoid_sv1","""event"",""trial"",""time""
""fullscreenenter"",""1"",""1892""
""blur"",""5"",""11360""
""focus"",""5"",""12422""
""blur"",""6"",""18787""
""focus"",""6"",""22181""
","""event"",""trial"",""time""
""blur"",""5"",""11360""
""blur"",""6"",""18787""
","""event"",""trial"",""time""
""focus"",""5"",""12422""
""focus"",""6"",""22181""
","""event"",""trial"",""time""
""fullscreenenter"",""1"",""1892""
","
","","","","","","2641","images/cactus4.png","","","memory_trial","3","maybe_new",""
"html-keyboard-response","51","217209","0.0-18.0-0.4","4607","approach_avoid_sv1","""event"",""trial"",""time""
""fullscreenenter"",""1"",""1892""
""blur"",""5"",""11360""
""focus"",""5"",""12422""
""blur"",""6"",""18787""
""focus"",""6"",""22181""
","""event"",""trial"",""time""
""blur"",""5"",""11360""
""blur"",""6"",""18787""
","""event"",""trial"",""time""
""focus"",""5"",""12422""
""focus"",""6"",""22181""
","""event"",""trial"",""time""
""fullscreenenter"",""1"",""1892""
","
","","","","","","null","<div style=""font-size:60px;"">+</div>","null","","fixation","","",""
"memory-trial","52","220053","0.0-18.0-1.4","4607","approach_avoid_sv1","""event"",""trial"",""time""
""fullscreenenter"",""1"",""1892""
""blur"",""5"",""11360""
""focus"",""5"",""12422""
""blur"",""6"",""18787""
""focus"",""6"",""22181""
","""event"",""trial"",""time""
""blur"",""5"",""11360""
""blur"",""6"",""18787""
","""event"",""trial"",""time""
""focus"",""5"",""12422""
""focus"",""6"",""22181""
","""event"",""trial"",""time""
""fullscreenenter"",""1"",""1892""
","
","","","","","","1818","images/bush5.png","","","memory_trial","1","definitely_old",""
"html-keyboard-response","53","220555","0.0-18.0-0.5","4607","approach_avoid_sv1","""event"",""trial"",""time""
""fullscreenenter"",""1"",""1892""
""blur"",""5"",""11360""
""focus"",""5"",""12422""
""blur"",""6"",""18787""
""focus"",""6"",""22181""
","""event"",""trial"",""time""
""blur"",""5"",""11360""
""blur"",""6"",""18787""
","""event"",""trial"",""time""
""focus"",""5"",""12422""
""focus"",""6"",""22181""
","""event"",""trial"",""time""
""fullscreenenter"",""1"",""1892""
","
","","","","","","null","<div style=""font-size:60px;"">+</div>","null","","fixation","","",""
"memory-trial","54","223520","0.0-18.0-1.5","4607","approach_avoid_sv1","""event"",""trial"",""time""
""fullscreenenter"",""1"",""1892""
""blur"",""5"",""11360""
""focus"",""5"",""12422""
""blur"",""6"",""18787""
""focus"",""6"",""22181""
","""event"",""trial"",""time""
""blur"",""5"",""11360""
""blur"",""6"",""18787""
","""event"",""trial"",""time""
""focus"",""5"",""12422""
""focus"",""6"",""22181""
","""event"",""trial"",""time""
""fullscreenenter"",""1"",""1892""
","
","","","","","","1941","images/dog4.png","","","memory_trial","3","maybe_new",""
"html-keyboard-response","55","224023","0.0-18.0-0.6","4607","approach_avoid_sv1","""event"",""trial"",""time""
""fullscreenenter"",""1"",""1892""
""blur"",""5"",""11360""
""focus"",""5"",""12422""
""blur"",""6"",""18787""
""focus"",""6"",""22181""
","""event"",""trial"",""time""
""blur"",""5"",""11360""
""blur"",""6"",""18787""
","""event"",""trial"",""time""
""focus"",""5"",""12422""
""focus"",""6"",""22181""
","""event"",""trial"",""time""
""fullscreenenter"",""1"",""1892""
","
","","","","","","null","<div style=""font-size:60px;"">+</div>","null","","fixation","","",""
"memory-trial","56","225939","0.0-18.0-1.6","4607","approach_avoid_sv1","""event"",""trial"",""time""
""fullscreenenter"",""1"",""1892""
""blur"",""5"",""11360""
""focus"",""5"",""12422""
""blur"",""6"",""18787""
""focus"",""6"",""22181""
","""event"",""trial"",""time""
""blur"",""5"",""11360""
""blur"",""6"",""18787""
","""event"",""trial"",""time""
""focus"",""5"",""12422""
""focus"",""6"",""22181""
","""event"",""trial"",""time""
""fullscreenenter"",""1"",""1892""
","
","","","","","","890.9999999999709","images/cow8.png","","","memory_trial","1","definitely_old",""
"html-keyboard-response","57","226440","0.0-18.0-0.7","4607","approach_avoid_sv1","""event"",""trial"",""time""
""fullscreenenter"",""1"",""1892""
""blur"",""5"",""11360""
""focus"",""5"",""12422""
""blur"",""6"",""18787""
""focus"",""6"",""22181""
","""event"",""trial"",""time""
""blur"",""5"",""11360""
""blur"",""6"",""18787""
","""event"",""trial"",""time""
""focus"",""5"",""12422""
""focus"",""6"",""22181""
","""event"",""trial"",""time""
""fullscreenenter"",""1"",""1892""
","
","","","","","","null","<div style=""font-size:60px;"">+</div>","null","","fixation","","",""
"memory-trial","58","228161","0.0-18.0-1.7","4607","approach_avoid_sv1","""event"",""trial"",""time""
""fullscreenenter"",""1"",""1892""
""blur"",""5"",""11360""
""focus"",""5"",""12422""
""blur"",""6"",""18787""
""focus"",""6"",""22181""
","""event"",""trial"",""time""
""blur"",""5"",""11360""
""blur"",""6"",""18787""
","""event"",""trial"",""time""
""focus"",""5"",""12422""
""focus"",""6"",""22181""
","""event"",""trial"",""time""
""fullscreenenter"",""1"",""1892""
","
","","","","","","697.0000000000291","images/sheep4.png","","","memory_trial","1","definitely_old",""
"html-keyboard-response","59","228663","0.0-18.0-0.8","4607","approach_avoid_sv1","""event"",""trial"",""time""
""fullscreenenter"",""1"",""1892""
""blur"",""5"",""11360""
""focus"",""5"",""12422""
""blur"",""6"",""18787""
""focus"",""6"",""22181""
","""event"",""trial"",""time""
""blur"",""5"",""11360""
""blur"",""6"",""18787""
","""event"",""trial"",""time""
""focus"",""5"",""12422""
""focus"",""6"",""22181""
","""event"",""trial"",""time""
""fullscreenenter"",""1"",""1892""
","
","","","","","","null","<div style=""font-size:60px;"">+</div>","null","","fixation","","",""
"memory-trial","60","230420","0.0-18.0-1.8","4607","approach_avoid_sv1","""event"",""trial"",""time""
""fullscreenenter"",""1"",""1892""
""blur"",""5"",""11360""
""focus"",""5"",""12422""
""blur"",""6"",""18787""
""focus"",""6"",""22181""
","""event"",""trial"",""time""
""blur"",""5"",""11360""
""blur"",""6"",""18787""
","""event"",""trial"",""time""
""focus"",""5"",""12422""
""focus"",""6"",""22181""
","""event"",""trial"",""time""
""fullscreenenter"",""1"",""1892""
","
","","","","","","731","images/cow7.png","","","memory_trial","1","definitely_old",""
"html-keyboard-response","61","230922","0.0-18.0-0.9","4607","approach_avoid_sv1","""event"",""trial"",""time""
""fullscreenenter"",""1"",""1892""
""blur"",""5"",""11360""
""focus"",""5"",""12422""
""blur"",""6"",""18787""
""focus"",""6"",""22181""
","""event"",""trial"",""time""
""blur"",""5"",""11360""
""blur"",""6"",""18787""
","""event"",""trial"",""time""
""focus"",""5"",""12422""
""focus"",""6"",""22181""
","""event"",""trial"",""time""
""fullscreenenter"",""1"",""1892""
","
","","","","","","null","<div style=""font-size:60px;"">+</div>","null","","fixation","","",""
"memory-trial","62","233750","0.0-18.0-1.9","4607","approach_avoid_sv1","""event"",""trial"",""time""
""fullscreenenter"",""1"",""1892""
""blur"",""5"",""11360""
""focus"",""5"",""12422""
""blur"",""6"",""18787""
""focus"",""6"",""22181""
","""event"",""trial"",""time""
""blur"",""5"",""11360""
""blur"",""6"",""18787""
","""event"",""trial"",""time""
""focus"",""5"",""12422""
""focus"",""6"",""22181""
","""event"",""trial"",""time""
""fullscreenenter"",""1"",""1892""
","
","","","","","","1805.000000000029","images/plane1.png","","","memory_trial","4","definitely_new",""
"html-keyboard-response","63","234252","0.0-18.0-0.10","4607","approach_avoid_sv1","""event"",""trial"",""time""
""fullscreenenter"",""1"",""1892""
""blur"",""5"",""11360""
""focus"",""5"",""12422""
""blur"",""6"",""18787""
""focus"",""6"",""22181""
","""event"",""trial"",""time""
""blur"",""5"",""11360""
""blur"",""6"",""18787""
","""event"",""trial"",""time""
""focus"",""5"",""12422""
""focus"",""6"",""22181""
","""event"",""trial"",""time""
""fullscreenenter"",""1"",""1892""
","
","","","","","","null","<div style=""font-size:60px;"">+</div>","null","","fixation","","",""
"memory-trial","64","237813","0.0-18.0-1.10","4607","approach_avoid_sv1","""event"",""trial"",""time""
""fullscreenenter"",""1"",""1892""
""blur"",""5"",""11360""
""focus"",""5"",""12422""
""blur"",""6"",""18787""
""focus"",""6"",""22181""
","""event"",""trial"",""time""
""blur"",""5"",""11360""
""blur"",""6"",""18787""
","""event"",""trial"",""time""
""focus"",""5"",""12422""
""focus"",""6"",""22181""
","""event"",""trial"",""time""
""fullscreenenter"",""1"",""1892""
","
","","","","","","2536","images/banana4.png","","","memory_trial","3","maybe_new",""
"html-keyboard-response","65","238315","0.0-18.0-0.11","4607","approach_avoid_sv1","""event"",""trial"",""time""
""fullscreenenter"",""1"",""1892""
""blur"",""5"",""11360""
""focus"",""5"",""12422""
""blur"",""6"",""18787""
""focus"",""6"",""22181""
","""event"",""trial"",""time""
""blur"",""5"",""11360""
""blur"",""6"",""18787""
","""event"",""trial"",""time""
""focus"",""5"",""12422""
""focus"",""6"",""22181""
","""event"",""trial"",""time""
""fullscreenenter"",""1"",""1892""
","
","","","","","","null","<div style=""font-size:60px;"">+</div>","null","","fixation","","",""
"memory-trial","66","240586","0.0-18.0-1.11","4607","approach_avoid_sv1","""event"",""trial"",""time""
""fullscreenenter"",""1"",""1892""
""blur"",""5"",""11360""
""focus"",""5"",""12422""
""blur"",""6"",""18787""
""focus"",""6"",""22181""
","""event"",""trial"",""time""
""blur"",""5"",""11360""
""blur"",""6"",""18787""
","""event"",""trial"",""time""
""focus"",""5"",""12422""
""focus"",""6"",""22181""
","""event"",""trial"",""time""
""fullscreenenter"",""1"",""1892""
","
","","","","","","1246","images/apple2.png","","","memory_trial","1","definitely_old",""
"html-keyboard-response","67","241089","0.0-18.0-0.12","4607","approach_avoid_sv1","""event"",""trial"",""time""
""fullscreenenter"",""1"",""1892""
""blur"",""5"",""11360""
""focus"",""5"",""12422""
""blur"",""6"",""18787""
""focus"",""6"",""22181""
","""event"",""trial"",""time""
""blur"",""5"",""11360""
""blur"",""6"",""18787""
","""event"",""trial"",""time""
""focus"",""5"",""12422""
""focus"",""6"",""22181""
","""event"",""trial"",""time""
""fullscreenenter"",""1"",""1892""
","
","","","","","","null","<div style=""font-size:60px;"">+</div>","null","","fixation","","",""
"memory-trial","68","243158","0.0-18.0-1.12","4607","approach_avoid_sv1","""event"",""trial"",""time""
""fullscreenenter"",""1"",""1892""
""blur"",""5"",""11360""
""focus"",""5"",""12422""
""blur"",""6"",""18787""
""focus"",""6"",""22181""
","""event"",""trial"",""time""
""blur"",""5"",""11360""
""blur"",""6"",""18787""
","""event"",""trial"",""time""
""focus"",""5"",""12422""
""focus"",""6"",""22181""
","""event"",""trial"",""time""
""fullscreenenter"",""1"",""1892""
","
","","","","","","1046","images/horse3.png","","","memory_trial","1","definitely_old",""
"html-keyboard-response","69","243660","0.0-18.0-0.13","4607","approach_avoid_sv1","""event"",""trial"",""time""
""fullscreenenter"",""1"",""1892""
""blur"",""5"",""11360""
""focus"",""5"",""12422""
""blur"",""6"",""18787""
""focus"",""6"",""22181""
","""event"",""trial"",""time""
""blur"",""5"",""11360""
""blur"",""6"",""18787""
","""event"",""trial"",""time""
""focus"",""5"",""12422""
""focus"",""6"",""22181""
","""event"",""trial"",""time""
""fullscreenenter"",""1"",""1892""
","
","","","","","","null","<div style=""font-size:60px;"">+</div>","null","","fixation","","",""
"memory-trial","70","245452","0.0-18.0-1.13","4607","approach_avoid_sv1","""event"",""trial"",""time""
""fullscreenenter"",""1"",""1892""
""blur"",""5"",""11360""
""focus"",""5"",""12422""
""blur"",""6"",""18787""
""focus"",""6"",""22181""
","""event"",""trial"",""time""
""blur"",""5"",""11360""
""blur"",""6"",""18787""
","""event"",""trial"",""time""
""focus"",""5"",""12422""
""focus"",""6"",""22181""
","""event"",""trial"",""time""
""fullscreenenter"",""1"",""1892""
","
","","","","","","766.9999999999709","images/tree6.png","","","memory_trial","1","definitely_old",""
"html-keyboard-response","71","245953","0.0-18.0-0.14","4607","approach_avoid_sv1","""event"",""trial"",""time""
""fullscreenenter"",""1"",""1892""
""blur"",""5"",""11360""
""focus"",""5"",""12422""
""blur"",""6"",""18787""
""focus"",""6"",""22181""
","""event"",""trial"",""time""
""blur"",""5"",""11360""
""blur"",""6"",""18787""
","""event"",""trial"",""time""
""focus"",""5"",""12422""
""focus"",""6"",""22181""
","""event"",""trial"",""time""
""fullscreenenter"",""1"",""1892""
","
","","","","","","null","<div style=""font-size:60px;"">+</div>","null","","fixation","","",""
"memory-trial","72","248227","0.0-18.0-1.14","4607","approach_avoid_sv1","""event"",""trial"",""time""
""fullscreenenter"",""1"",""1892""
""blur"",""5"",""11360""
""focus"",""5"",""12422""
""blur"",""6"",""18787""
""focus"",""6"",""22181""
","""event"",""trial"",""time""
""blur"",""5"",""11360""
""blur"",""6"",""18787""
","""event"",""trial"",""time""
""focus"",""5"",""12422""
""focus"",""6"",""22181""
","""event"",""trial"",""time""
""fullscreenenter"",""1"",""1892""
","
","","","","","","1249","images/truck8.png","","","memory_trial","1","definitely_old",""
"html-keyboard-response","73","248729","0.0-18.0-0.15","4607","approach_avoid_sv1","""event"",""trial"",""time""
""fullscreenenter"",""1"",""1892""
""blur"",""5"",""11360""
""focus"",""5"",""12422""
""blur"",""6"",""18787""
""focus"",""6"",""22181""
","""event"",""trial"",""time""
""blur"",""5"",""11360""
""blur"",""6"",""18787""
","""event"",""trial"",""time""
""focus"",""5"",""12422""
""focus"",""6"",""22181""
","""event"",""trial"",""time""
""fullscreenenter"",""1"",""1892""
","
","","","","","","null","<div style=""font-size:60px;"">+</div>","null","","fixation","","",""
"memory-trial","74","250861","0.0-18.0-1.15","4607","approach_avoid_sv1","""event"",""trial"",""time""
""fullscreenenter"",""1"",""1892""
""blur"",""5"",""11360""
""focus"",""5"",""12422""
""blur"",""6"",""18787""
""focus"",""6"",""22181""
","""event"",""trial"",""time""
""blur"",""5"",""11360""
""blur"",""6"",""18787""
","""event"",""trial"",""time""
""focus"",""5"",""12422""
""focus"",""6"",""22181""
","""event"",""trial"",""time""
""fullscreenenter"",""1"",""1892""
","
","","","","","","1106","images/dog6.png","","","memory_trial","1","definitely_old",""
"html-keyboard-response","75","251363","0.0-18.0-0.16","4607","approach_avoid_sv1","""event"",""trial"",""time""
""fullscreenenter"",""1"",""1892""
""blur"",""5"",""11360""
""focus"",""5"",""12422""
""blur"",""6"",""18787""
""focus"",""6"",""22181""
","""event"",""trial"",""time""
""blur"",""5"",""11360""
""blur"",""6"",""18787""
","""event"",""trial"",""time""
""focus"",""5"",""12422""
""focus"",""6"",""22181""
","""event"",""trial"",""time""
""fullscreenenter"",""1"",""1892""
","
","","","","","","null","<div style=""font-size:60px;"">+</div>","null","","fixation","","",""
"memory-trial","76","253728","0.0-18.0-1.16","4607","approach_avoid_sv1","""event"",""trial"",""time""
""fullscreenenter"",""1"",""1892""
""blur"",""5"",""11360""
""focus"",""5"",""12422""
""blur"",""6"",""18787""
""focus"",""6"",""22181""
","""event"",""trial"",""time""
""blur"",""5"",""11360""
""blur"",""6"",""18787""
","""event"",""trial"",""time""
""focus"",""5"",""12422""
""focus"",""6"",""22181""
","""event"",""trial"",""time""
""fullscreenenter"",""1"",""1892""
","
","","","","","","1339","images/cat7.png","","","memory_trial","2","maybe_old",""
"html-keyboard-response","77","254230","0.0-18.0-0.17","4607","approach_avoid_sv1","""event"",""trial"",""time""
""fullscreenenter"",""1"",""1892""
""blur"",""5"",""11360""
""focus"",""5"",""12422""
""blur"",""6"",""18787""
""focus"",""6"",""22181""
","""event"",""trial"",""time""
""blur"",""5"",""11360""
""blur"",""6"",""18787""
","""event"",""trial"",""time""
""focus"",""5"",""12422""
""focus"",""6"",""22181""
","""event"",""trial"",""time""
""fullscreenenter"",""1"",""1892""
","
","","","","","","null","<div style=""font-size:60px;"">+</div>","null","","fixation","","",""
"memory-trial","78","257237","0.0-18.0-1.17","4607","approach_avoid_sv1","""event"",""trial"",""time""
""fullscreenenter"",""1"",""1892""
""blur"",""5"",""11360""
""focus"",""5"",""12422""
""blur"",""6"",""18787""
""focus"",""6"",""22181""
","""event"",""trial"",""time""
""blur"",""5"",""11360""
""blur"",""6"",""18787""
","""event"",""trial"",""time""
""focus"",""5"",""12422""
""focus"",""6"",""22181""
","""event"",""trial"",""time""
""fullscreenenter"",""1"",""1892""
","
","","","","","","1982.999999999971","images/table1.png","","","memory_trial","3","maybe_new",""
"html-keyboard-response","79","257739","0.0-18.0-0.18","4607","approach_avoid_sv1","""event"",""trial"",""time""
""fullscreenenter"",""1"",""1892""
""blur"",""5"",""11360""
""focus"",""5"",""12422""
""blur"",""6"",""18787""
""focus"",""6"",""22181""
","""event"",""trial"",""time""
""blur"",""5"",""11360""
""blur"",""6"",""18787""
","""event"",""trial"",""time""
""focus"",""5"",""12422""
""focus"",""6"",""22181""
","""event"",""trial"",""time""
""fullscreenenter"",""1"",""1892""
","
","","","","","","null","<div style=""font-size:60px;"">+</div>","null","","fixation","","",""
"memory-trial","80","260493","0.0-18.0-1.18","4607","approach_avoid_sv1","""event"",""trial"",""time""
""fullscreenenter"",""1"",""1892""
""blur"",""5"",""11360""
""focus"",""5"",""12422""
""blur"",""6"",""18787""
""focus"",""6"",""22181""
","""event"",""trial"",""time""
""blur"",""5"",""11360""
""blur"",""6"",""18787""
","""event"",""trial"",""time""
""focus"",""5"",""12422""
""focus"",""6"",""22181""
","""event"",""trial"",""time""
""fullscreenenter"",""1"",""1892""
","
","","","","","","1730","images/banana8.png","","","memory_trial","4","definitely_new",""
"html-keyboard-response","81","260995","0.0-18.0-0.19","4607","approach_avoid_sv1","""event"",""trial"",""time""
""fullscreenenter"",""1"",""1892""
""blur"",""5"",""11360""
""focus"",""5"",""12422""
""blur"",""6"",""18787""
""focus"",""6"",""22181""
","""event"",""trial"",""time""
""blur"",""5"",""11360""
""blur"",""6"",""18787""
","""event"",""trial"",""time""
""focus"",""5"",""12422""
""focus"",""6"",""22181""
","""event"",""trial"",""time""
""fullscreenenter"",""1"",""1892""
","
","","","","","","null","<div style=""font-size:60px;"">+</div>","null","","fixation","","",""
"memory-trial","82","263945","0.0-18.0-1.19","4607","approach_avoid_sv1","""event"",""trial"",""time""
""fullscreenenter"",""1"",""1892""
""blur"",""5"",""11360""
""focus"",""5"",""12422""
""blur"",""6"",""18787""
""focus"",""6"",""22181""
","""event"",""trial"",""time""
""blur"",""5"",""11360""
""blur"",""6"",""18787""
","""event"",""trial"",""time""
""focus"",""5"",""12422""
""focus"",""6"",""22181""
","""event"",""trial"",""time""
""fullscreenenter"",""1"",""1892""
","
","","","","","","1923.9999999999418","images/orange8.png","","","memory_trial","2","maybe_old",""
"html-keyboard-response","83","264447","0.0-18.0-0.20","4607","approach_avoid_sv1","""event"",""trial"",""time""
""fullscreenenter"",""1"",""1892""
""blur"",""5"",""11360""
""focus"",""5"",""12422""
""blur"",""6"",""18787""
""focus"",""6"",""22181""
","""event"",""trial"",""time""
""blur"",""5"",""11360""
""blur"",""6"",""18787""
","""event"",""trial"",""time""
""focus"",""5"",""12422""
""focus"",""6"",""22181""
","""event"",""trial"",""time""
""fullscreenenter"",""1"",""1892""
","
","","","","","","null","<div style=""font-size:60px;"">+</div>","null","","fixation","","",""
"memory-trial","84","266604","0.0-18.0-1.20","4607","approach_avoid_sv1","""event"",""trial"",""time""
""fullscreenenter"",""1"",""1892""
""blur"",""5"",""11360""
""focus"",""5"",""12422""
""blur"",""6"",""18787""
""focus"",""6"",""22181""
","""event"",""trial"",""time""
""blur"",""5"",""11360""
""blur"",""6"",""18787""
","""event"",""trial"",""time""
""focus"",""5"",""12422""
""focus"",""6"",""22181""
","""event"",""trial"",""time""
""fullscreenenter"",""1"",""1892""
","
","","","","","","1133","images/table4.png","","","memory_trial","4","definitely_new",""
"html-keyboard-response","85","267105","0.0-18.0-0.21","4607","approach_avoid_sv1","""event"",""trial"",""time""
""fullscreenenter"",""1"",""1892""
""blur"",""5"",""11360""
""focus"",""5"",""12422""
""blur"",""6"",""18787""
""focus"",""6"",""22181""
","""event"",""trial"",""time""
""blur"",""5"",""11360""
""blur"",""6"",""18787""
","""event"",""trial"",""time""
""focus"",""5"",""12422""
""focus"",""6"",""22181""
","""event"",""trial"",""time""
""fullscreenenter"",""1"",""1892""
","
","","","","","","null","<div style=""font-size:60px;"">+</div>","null","","fixation","","",""
"memory-trial","86","269067","0.0-18.0-1.21","4607","approach_avoid_sv1","""event"",""trial"",""time""
""fullscreenenter"",""1"",""1892""
""blur"",""5"",""11360""
""focus"",""5"",""12422""
""blur"",""6"",""18787""
""focus"",""6"",""22181""
","""event"",""trial"",""time""
""blur"",""5"",""11360""
""blur"",""6"",""18787""
","""event"",""trial"",""time""
""focus"",""5"",""12422""
""focus"",""6"",""22181""
","""event"",""trial"",""time""
""fullscreenenter"",""1"",""1892""
","
","","","","","","937","images/plane3.png","","","memory_trial","4","definitely_new",""
"html-keyboard-response","87","269569","0.0-18.0-0.22","4607","approach_avoid_sv1","""event"",""trial"",""time""
""fullscreenenter"",""1"",""1892""
""blur"",""5"",""11360""
""focus"",""5"",""12422""
""blur"",""6"",""18787""
""focus"",""6"",""22181""
","""event"",""trial"",""time""
""blur"",""5"",""11360""
""blur"",""6"",""18787""
","""event"",""trial"",""time""
""focus"",""5"",""12422""
""focus"",""6"",""22181""
","""event"",""trial"",""time""
""fullscreenenter"",""1"",""1892""
","
","","","","","","null","<div style=""font-size:60px;"">+</div>","null","","fixation","","",""
"memory-trial","88","271760","0.0-18.0-1.22","4607","approach_avoid_sv1","""event"",""trial"",""time""
""fullscreenenter"",""1"",""1892""
""blur"",""5"",""11360""
""focus"",""5"",""12422""
""blur"",""6"",""18787""
""focus"",""6"",""22181""
","""event"",""trial"",""time""
""blur"",""5"",""11360""
""blur"",""6"",""18787""
","""event"",""trial"",""time""
""focus"",""5"",""12422""
""focus"",""6"",""22181""
","""event"",""trial"",""time""
""fullscreenenter"",""1"",""1892""
","
","","","","","","1166","images/train2.png","","","memory_trial","1","definitely_old",""
"html-keyboard-response","89","272262","0.0-18.0-0.23","4607","approach_avoid_sv1","""event"",""trial"",""time""
""fullscreenenter"",""1"",""1892""
""blur"",""5"",""11360""
""focus"",""5"",""12422""
""blur"",""6"",""18787""
""focus"",""6"",""22181""
","""event"",""trial"",""time""
""blur"",""5"",""11360""
""blur"",""6"",""18787""
","""event"",""trial"",""time""
""focus"",""5"",""12422""
""focus"",""6"",""22181""
","""event"",""trial"",""time""
""fullscreenenter"",""1"",""1892""
","
","","","","","","null","<div style=""font-size:60px;"">+</div>","null","","fixation","","",""
"memory-trial","90","276882","0.0-18.0-1.23","4607","approach_avoid_sv1","""event"",""trial"",""time""
""fullscreenenter"",""1"",""1892""
""blur"",""5"",""11360""
""focus"",""5"",""12422""
""blur"",""6"",""18787""
""focus"",""6"",""22181""
","""event"",""trial"",""time""
""blur"",""5"",""11360""
""blur"",""6"",""18787""
","""event"",""trial"",""time""
""focus"",""5"",""12422""
""focus"",""6"",""22181""
","""event"",""trial"",""time""
""fullscreenenter"",""1"",""1892""
","
","","","","","","3596","images/plane5.png","","","memory_trial","3","maybe_new",""
"html-keyboard-response","91","277385","0.0-18.0-0.24","4607","approach_avoid_sv1","""event"",""trial"",""time""
""fullscreenenter"",""1"",""1892""
""blur"",""5"",""11360""
""focus"",""5"",""12422""
""blur"",""6"",""18787""
""focus"",""6"",""22181""
","""event"",""trial"",""time""
""blur"",""5"",""11360""
""blur"",""6"",""18787""
","""event"",""trial"",""time""
""focus"",""5"",""12422""
""focus"",""6"",""22181""
","""event"",""trial"",""time""
""fullscreenenter"",""1"",""1892""
","
","","","","","","null","<div style=""font-size:60px;"">+</div>","null","","fixation","","",""
"memory-trial","92","279690","0.0-18.0-1.24","4607","approach_avoid_sv1","""event"",""trial"",""time""
""fullscreenenter"",""1"",""1892""
""blur"",""5"",""11360""
""focus"",""5"",""12422""
""blur"",""6"",""18787""
""focus"",""6"",""22181""
","""event"",""trial"",""time""
""blur"",""5"",""11360""
""blur"",""6"",""18787""
","""event"",""trial"",""time""
""focus"",""5"",""12422""
""focus"",""6"",""22181""
","""event"",""trial"",""time""
""fullscreenenter"",""1"",""1892""
","
","","","","","","1282","images/banana2.png","","","memory_trial","4","definitely_new",""
"html-keyboard-response","93","280193","0.0-18.0-0.25","4607","approach_avoid_sv1","""event"",""trial"",""time""
""fullscreenenter"",""1"",""1892""
""blur"",""5"",""11360""
""focus"",""5"",""12422""
""blur"",""6"",""18787""
""focus"",""6"",""22181""
","""event"",""trial"",""time""
""blur"",""5"",""11360""
""blur"",""6"",""18787""
","""event"",""trial"",""time""
""focus"",""5"",""12422""
""focus"",""6"",""22181""
","""event"",""trial"",""time""
""fullscreenenter"",""1"",""1892""
","
","","","","","","null","<div style=""font-size:60px;"">+</div>","null","","fixation","","",""
"memory-trial","94","282144","0.0-18.0-1.25","4607","approach_avoid_sv1","""event"",""trial"",""time""
""fullscreenenter"",""1"",""1892""
""blur"",""5"",""11360""
""focus"",""5"",""12422""
""blur"",""6"",""18787""
""focus"",""6"",""22181""
","""event"",""trial"",""time""
""blur"",""5"",""11360""
""blur"",""6"",""18787""
","""event"",""trial"",""time""
""focus"",""5"",""12422""
""focus"",""6"",""22181""
","""event"",""trial"",""time""
""fullscreenenter"",""1"",""1892""
","
","","","","","","928","images/sofa6.png","","","memory_trial","1","definitely_old",""
"html-keyboard-response","95","282646","0.0-18.0-0.26","4607","approach_avoid_sv1","""event"",""trial"",""time""
""fullscreenenter"",""1"",""1892""
""blur"",""5"",""11360""
""focus"",""5"",""12422""
""blur"",""6"",""18787""
""focus"",""6"",""22181""
","""event"",""trial"",""time""
""blur"",""5"",""11360""
""blur"",""6"",""18787""
","""event"",""trial"",""time""
""focus"",""5"",""12422""
""focus"",""6"",""22181""
","""event"",""trial"",""time""
""fullscreenenter"",""1"",""1892""
","
","","","","","","null","<div style=""font-size:60px;"">+</div>","null","","fixation","","",""
"memory-trial","96","284685","0.0-18.0-1.26","4607","approach_avoid_sv1","""event"",""trial"",""time""
""fullscreenenter"",""1"",""1892""
""blur"",""5"",""11360""
""focus"",""5"",""12422""
""blur"",""6"",""18787""
""focus"",""6"",""22181""
","""event"",""trial"",""time""
""blur"",""5"",""11360""
""blur"",""6"",""18787""
","""event"",""trial"",""time""
""focus"",""5"",""12422""
""focus"",""6"",""22181""
","""event"",""trial"",""time""
""fullscreenenter"",""1"",""1892""
","
","","","","","","1013","images/rodent6.png","","","memory_trial","1","definitely_old",""
"html-keyboard-response","97","285187","0.0-18.0-0.27","4607","approach_avoid_sv1","""event"",""trial"",""time""
""fullscreenenter"",""1"",""1892""
""blur"",""5"",""11360""
""focus"",""5"",""12422""
""blur"",""6"",""18787""
""focus"",""6"",""22181""
","""event"",""trial"",""time""
""blur"",""5"",""11360""
""blur"",""6"",""18787""
","""event"",""trial"",""time""
""focus"",""5"",""12422""
""focus"",""6"",""22181""
","""event"",""trial"",""time""
""fullscreenenter"",""1"",""1892""
","
","","","","","","null","<div style=""font-size:60px;"">+</div>","null","","fixation","","",""
"memory-trial","98","288914","0.0-18.0-1.27","4607","approach_avoid_sv1","""event"",""trial"",""time""
""fullscreenenter"",""1"",""1892""
""blur"",""5"",""11360""
""focus"",""5"",""12422""
""blur"",""6"",""18787""
""focus"",""6"",""22181""
","""event"",""trial"",""time""
""blur"",""5"",""11360""
""blur"",""6"",""18787""
","""event"",""trial"",""time""
""focus"",""5"",""12422""
""focus"",""6"",""22181""
","""event"",""trial"",""time""
""fullscreenenter"",""1"",""1892""
","
","","","","","","2702","images/truck7.png","","","memory_trial","2","maybe_old",""
"html-keyboard-response","99","289416","0.0-18.0-0.28","4607","approach_avoid_sv1","""event"",""trial"",""time""
""fullscreenenter"",""1"",""1892""
""blur"",""5"",""11360""
""focus"",""5"",""12422""
""blur"",""6"",""18787""
""focus"",""6"",""22181""
","""event"",""trial"",""time""
""blur"",""5"",""11360""
""blur"",""6"",""18787""
","""event"",""trial"",""time""
""focus"",""5"",""12422""
""focus"",""6"",""22181""
","""event"",""trial"",""time""
""fullscreenenter"",""1"",""1892""
","
","","","","","","null","<div style=""font-size:60px;"">+</div>","null","","fixation","","",""
"memory-trial","100","291396","0.0-18.0-1.28","4607","approach_avoid_sv1","""event"",""trial"",""time""
""fullscreenenter"",""1"",""1892""
""blur"",""5"",""11360""
""focus"",""5"",""12422""
""blur"",""6"",""18787""
""focus"",""6"",""22181""
","""event"",""trial"",""time""
""blur"",""5"",""11360""
""blur"",""6"",""18787""
","""event"",""trial"",""time""
""focus"",""5"",""12422""
""focus"",""6"",""22181""
","""event"",""trial"",""time""
""fullscreenenter"",""1"",""1892""
","
","","","","","","957","images/dog2.png","","","memory_trial","1","definitely_old",""
"html-keyboard-response","101","291899","0.0-18.0-0.29","4607","approach_avoid_sv1","""event"",""trial"",""time""
""fullscreenenter"",""1"",""1892""
""blur"",""5"",""11360""
""focus"",""5"",""12422""
""blur"",""6"",""18787""
""focus"",""6"",""22181""
","""event"",""trial"",""time""
""blur"",""5"",""11360""
""blur"",""6"",""18787""
","""event"",""trial"",""time""
""focus"",""5"",""12422""
""focus"",""6"",""22181""
","""event"",""trial"",""time""
""fullscreenenter"",""1"",""1892""
","
","","","","","","null","<div style=""font-size:60px;"">+</div>","null","","fixation","","",""
"memory-trial","102","293637","0.0-18.0-1.29","4607","approach_avoid_sv1","""event"",""trial"",""time""
""fullscreenenter"",""1"",""1892""
""blur"",""5"",""11360""
""focus"",""5"",""12422""
""blur"",""6"",""18787""
""focus"",""6"",""22181""
","""event"",""trial"",""time""
""blur"",""5"",""11360""
""blur"",""6"",""18787""
","""event"",""trial"",""time""
""focus"",""5"",""12422""
""focus"",""6"",""22181""
","""event"",""trial"",""time""
""fullscreenenter"",""1"",""1892""
","
","","","","","","715","images/tree7.png","","","memory_trial","1","definitely_old",""
"html-keyboard-response","103","294138","0.0-18.0-0.30","4607","approach_avoid_sv1","""event"",""trial"",""time""
""fullscreenenter"",""1"",""1892""
""blur"",""5"",""11360""
""focus"",""5"",""12422""
""blur"",""6"",""18787""
""focus"",""6"",""22181""
","""event"",""trial"",""time""
""blur"",""5"",""11360""
""blur"",""6"",""18787""
","""event"",""trial"",""time""
""focus"",""5"",""12422""
""focus"",""6"",""22181""
","""event"",""trial"",""time""
""fullscreenenter"",""1"",""1892""
","
","","","","","","null","<div style=""font-size:60px;"">+</div>","null","","fixation","","",""
"memory-trial","104","295994","0.0-18.0-1.30","4607","approach_avoid_sv1","""event"",""trial"",""time""
""fullscreenenter"",""1"",""1892""
""blur"",""5"",""11360""
""focus"",""5"",""12422""
""blur"",""6"",""18787""
""focus"",""6"",""22181""
","""event"",""trial"",""time""
""blur"",""5"",""11360""
""blur"",""6"",""18787""
","""event"",""trial"",""time""
""focus"",""5"",""12422""
""focus"",""6"",""22181""
","""event"",""trial"",""time""
""fullscreenenter"",""1"",""1892""
","
","","","","","","832","images/rabbit6.png","","","memory_trial","1","definitely_old",""
"html-keyboard-response","105","296496","0.0-18.0-0.31","4607","approach_avoid_sv1","""event"",""trial"",""time""
""fullscreenenter"",""1"",""1892""
""blur"",""5"",""11360""
""focus"",""5"",""12422""
""blur"",""6"",""18787""
""focus"",""6"",""22181""
","""event"",""trial"",""time""
""blur"",""5"",""11360""
""blur"",""6"",""18787""
","""event"",""trial"",""time""
""focus"",""5"",""12422""
""focus"",""6"",""22181""
","""event"",""trial"",""time""
""fullscreenenter"",""1"",""1892""
","
","","","","","","null","<div style=""font-size:60px;"">+</div>","null","","fixation","","",""
"memory-trial","106","298267","0.0-18.0-1.31","4607","approach_avoid_sv1","""event"",""trial"",""time""
""fullscreenenter"",""1"",""1892""
""blur"",""5"",""11360""
""focus"",""5"",""12422""
""blur"",""6"",""18787""
""focus"",""6"",""22181""
","""event"",""trial"",""time""
""blur"",""5"",""11360""
""blur"",""6"",""18787""
","""event"",""trial"",""time""
""focus"",""5"",""12422""
""focus"",""6"",""22181""
","""event"",""trial"",""time""
""fullscreenenter"",""1"",""1892""
","
","","","","","","747","images/rabbit7.png","","","memory_trial","1","definitely_old",""
"html-keyboard-response","107","298769","0.0-18.0-0.32","4607","approach_avoid_sv1","""event"",""trial"",""time""
""fullscreenenter"",""1"",""1892""
""blur"",""5"",""11360""
""focus"",""5"",""12422""
""blur"",""6"",""18787""
""focus"",""6"",""22181""
","""event"",""trial"",""time""
""blur"",""5"",""11360""
""blur"",""6"",""18787""
","""event"",""trial"",""time""
""focus"",""5"",""12422""
""focus"",""6"",""22181""
","""event"",""trial"",""time""
""fullscreenenter"",""1"",""1892""
","
","","","","","","null","<div style=""font-size:60px;"">+</div>","null","","fixation","","",""
"memory-trial","108","302720","0.0-18.0-1.32","4607","approach_avoid_sv1","""event"",""trial"",""time""
""fullscreenenter"",""1"",""1892""
""blur"",""5"",""11360""
""focus"",""5"",""12422""
""blur"",""6"",""18787""
""focus"",""6"",""22181""
","""event"",""trial"",""time""
""blur"",""5"",""11360""
""blur"",""6"",""18787""
","""event"",""trial"",""time""
""focus"",""5"",""12422""
""focus"",""6"",""22181""
","""event"",""trial"",""time""
""fullscreenenter"",""1"",""1892""
","
","","","","","","2926","images/straw7.png","","","memory_trial","2","maybe_old",""
"html-keyboard-response","109","303222","0.0-18.0-0.33","4607","approach_avoid_sv1","""event"",""trial"",""time""
""fullscreenenter"",""1"",""1892""
""blur"",""5"",""11360""
""focus"",""5"",""12422""
""blur"",""6"",""18787""
""focus"",""6"",""22181""
","""event"",""trial"",""time""
""blur"",""5"",""11360""
""blur"",""6"",""18787""
","""event"",""trial"",""time""
""focus"",""5"",""12422""
""focus"",""6"",""22181""
","""event"",""trial"",""time""
""fullscreenenter"",""1"",""1892""
","
","","","","","","null","<div style=""font-size:60px;"">+</div>","null","","fixation","","",""
"memory-trial","110","305121","0.0-18.0-1.33","4607","approach_avoid_sv1","""event"",""trial"",""time""
""fullscreenenter"",""1"",""1892""
""blur"",""5"",""11360""
""focus"",""5"",""12422""
""blur"",""6"",""18787""
""focus"",""6"",""22181""
","""event"",""trial"",""time""
""blur"",""5"",""11360""
""blur"",""6"",""18787""
","""event"",""trial"",""time""
""focus"",""5"",""12422""
""focus"",""6"",""22181""
","""event"",""trial"",""time""
""fullscreenenter"",""1"",""1892""
","
","","","","","","873.9999999999418","images/rodent7.png","","","memory_trial","1","definitely_old",""
"html-keyboard-response","111","305622","0.0-18.0-0.34","4607","approach_avoid_sv1","""event"",""trial"",""time""
""fullscreenenter"",""1"",""1892""
""blur"",""5"",""11360""
""focus"",""5"",""12422""
""blur"",""6"",""18787""
""focus"",""6"",""22181""
","""event"",""trial"",""time""
""blur"",""5"",""11360""
""blur"",""6"",""18787""
","""event"",""trial"",""time""
""focus"",""5"",""12422""
""focus"",""6"",""22181""
","""event"",""trial"",""time""
""fullscreenenter"",""1"",""1892""
","
","","","","","","null","<div style=""font-size:60px;"">+</div>","null","","fixation","","",""
"memory-trial","112","308606","0.0-18.0-1.34","4607","approach_avoid_sv1","""event"",""trial"",""time""
""fullscreenenter"",""1"",""1892""
""blur"",""5"",""11360""
""focus"",""5"",""12422""
""blur"",""6"",""18787""
""focus"",""6"",""22181""
","""event"",""trial"",""time""
""blur"",""5"",""11360""
""blur"",""6"",""18787""
","""event"",""trial"",""time""
""focus"",""5"",""12422""
""focus"",""6"",""22181""
","""event"",""trial"",""time""
""fullscreenenter"",""1"",""1892""
","
","","","","","","1959","images/apple6.png","","","memory_trial","2","maybe_old",""
"html-keyboard-response","113","309108","0.0-18.0-0.35","4607","approach_avoid_sv1","""event"",""trial"",""time""
""fullscreenenter"",""1"",""1892""
""blur"",""5"",""11360""
""focus"",""5"",""12422""
""blur"",""6"",""18787""
""focus"",""6"",""22181""
","""event"",""trial"",""time""
""blur"",""5"",""11360""
""blur"",""6"",""18787""
","""event"",""trial"",""time""
""focus"",""5"",""12422""
""focus"",""6"",""22181""
","""event"",""trial"",""time""
""fullscreenenter"",""1"",""1892""
","
","","","","","","null","<div style=""font-size:60px;"">+</div>","null","","fixation","","",""
"memory-trial","114","311530","0.0-18.0-1.35","4607","approach_avoid_sv1","""event"",""trial"",""time""
""fullscreenenter"",""1"",""1892""
""blur"",""5"",""11360""
""focus"",""5"",""12422""
""blur"",""6"",""18787""
""focus"",""6"",""22181""
","""event"",""trial"",""time""
""blur"",""5"",""11360""
""blur"",""6"",""18787""
","""event"",""trial"",""time""
""focus"",""5"",""12422""
""focus"",""6"",""22181""
","""event"",""trial"",""time""
""fullscreenenter"",""1"",""1892""
","
","","","","","","1398","images/bush4.png","","","memory_trial","2","maybe_old",""
"html-keyboard-response","115","312032","0.0-18.0-0.36","4607","approach_avoid_sv1","""event"",""trial"",""time""
""fullscreenenter"",""1"",""1892""
""blur"",""5"",""11360""
""focus"",""5"",""12422""
""blur"",""6"",""18787""
""focus"",""6"",""22181""
","""event"",""trial"",""time""
""blur"",""5"",""11360""
""blur"",""6"",""18787""
","""event"",""trial"",""time""
""focus"",""5"",""12422""
""focus"",""6"",""22181""
","""event"",""trial"",""time""
""fullscreenenter"",""1"",""1892""
","
","","","","","","null","<div style=""font-size:60px;"">+</div>","null","","fixation","","",""
"memory-trial","116","314626","0.0-18.0-1.36","4607","approach_avoid_sv1","""event"",""trial"",""time""
""fullscreenenter"",""1"",""1892""
""blur"",""5"",""11360""
""focus"",""5"",""12422""
""blur"",""6"",""18787""
""focus"",""6"",""22181""
","""event"",""trial"",""time""
""blur"",""5"",""11360""
""blur"",""6"",""18787""
","""event"",""trial"",""time""
""focus"",""5"",""12422""
""focus"",""6"",""22181""
","""event"",""trial"",""time""
""fullscreenenter"",""1"",""1892""
","
","","","","","","1569","images/flower2.png","","","memory_trial","4","definitely_new",""
"html-keyboard-response","117","315128","0.0-18.0-0.37","4607","approach_avoid_sv1","""event"",""trial"",""time""
""fullscreenenter"",""1"",""1892""
""blur"",""5"",""11360""
""focus"",""5"",""12422""
""blur"",""6"",""18787""
""focus"",""6"",""22181""
","""event"",""trial"",""time""
""blur"",""5"",""11360""
""blur"",""6"",""18787""
","""event"",""trial"",""time""
""focus"",""5"",""12422""
""focus"",""6"",""22181""
","""event"",""trial"",""time""
""fullscreenenter"",""1"",""1892""
","
","","","","","","null","<div style=""font-size:60px;"">+</div>","null","","fixation","","",""
"memory-trial","118","317197","0.0-18.0-1.37","4607","approach_avoid_sv1","""event"",""trial"",""time""
""fullscreenenter"",""1"",""1892""
""blur"",""5"",""11360""
""focus"",""5"",""12422""
""blur"",""6"",""18787""
""focus"",""6"",""22181""
","""event"",""trial"",""time""
""blur"",""5"",""11360""
""blur"",""6"",""18787""
","""event"",""trial"",""time""
""focus"",""5"",""12422""
""focus"",""6"",""22181""
","""event"",""trial"",""time""
""fullscreenenter"",""1"",""1892""
","
","","","","","","1046","images/straw1.png","","","memory_trial","1","definitely_old",""
"html-keyboard-response","119","317699","0.0-18.0-0.38","4607","approach_avoid_sv1","""event"",""trial"",""time""
""fullscreenenter"",""1"",""1892""
""blur"",""5"",""11360""
""focus"",""5"",""12422""
""blur"",""6"",""18787""
""focus"",""6"",""22181""
","""event"",""trial"",""time""
""blur"",""5"",""11360""
""blur"",""6"",""18787""
","""event"",""trial"",""time""
""focus"",""5"",""12422""
""focus"",""6"",""22181""
","""event"",""trial"",""time""
""fullscreenenter"",""1"",""1892""
","
","","","","","","null","<div style=""font-size:60px;"">+</div>","null","","fixation","","",""
"memory-trial","120","321867","0.0-18.0-1.38","4607","approach_avoid_sv1","""event"",""trial"",""time""
""fullscreenenter"",""1"",""1892""
""blur"",""5"",""11360""
""focus"",""5"",""12422""
""blur"",""6"",""18787""
""focus"",""6"",""22181""
","""event"",""trial"",""time""
""blur"",""5"",""11360""
""blur"",""6"",""18787""
","""event"",""trial"",""time""
""focus"",""5"",""12422""
""focus"",""6"",""22181""
","""event"",""trial"",""time""
""fullscreenenter"",""1"",""1892""
","
","","","","","","3143","images/cow1.png","","","memory_trial","3","maybe_new",""
"html-keyboard-response","121","322368","0.0-18.0-0.39","4607","approach_avoid_sv1","""event"",""trial"",""time""
""fullscreenenter"",""1"",""1892""
""blur"",""5"",""11360""
""focus"",""5"",""12422""
""blur"",""6"",""18787""
""focus"",""6"",""22181""
","""event"",""trial"",""time""
""blur"",""5"",""11360""
""blur"",""6"",""18787""
","""event"",""trial"",""time""
""focus"",""5"",""12422""
""focus"",""6"",""22181""
","""event"",""trial"",""time""
""fullscreenenter"",""1"",""1892""
","
","","","","","","null","<div style=""font-size:60px;"">+</div>","null","","fixation","","",""
"memory-trial","122","325551","0.0-18.0-1.39","4607","approach_avoid_sv1","""event"",""trial"",""time""
""fullscreenenter"",""1"",""1892""
""blur"",""5"",""11360""
""focus"",""5"",""12422""
""blur"",""6"",""18787""
""focus"",""6"",""22181""
","""event"",""trial"",""time""
""blur"",""5"",""11360""
""blur"",""6"",""18787""
","""event"",""trial"",""time""
""focus"",""5"",""12422""
""focus"",""6"",""22181""
","""event"",""trial"",""time""
""fullscreenenter"",""1"",""1892""
","
","","","","","","2158","images/apple7.png","","","memory_trial","3","maybe_new",""
"html-keyboard-response","123","326052","0.0-18.0-0.40","4607","approach_avoid_sv1","""event"",""trial"",""time""
""fullscreenenter"",""1"",""1892""
""blur"",""5"",""11360""
""focus"",""5"",""12422""
""blur"",""6"",""18787""
""focus"",""6"",""22181""
","""event"",""trial"",""time""
""blur"",""5"",""11360""
""blur"",""6"",""18787""
","""event"",""trial"",""time""
""focus"",""5"",""12422""
""focus"",""6"",""22181""
","""event"",""trial"",""time""
""fullscreenenter"",""1"",""1892""
","
","","","","","","null","<div style=""font-size:60px;"">+</div>","null","","fixation","","",""
"memory-trial","124","329351","0.0-18.0-1.40","4607","approach_avoid_sv1","""event"",""trial"",""time""
""fullscreenenter"",""1"",""1892""
""blur"",""5"",""11360""
""focus"",""5"",""12422""
""blur"",""6"",""18787""
""focus"",""6"",""22181""
","""event"",""trial"",""time""
""blur"",""5"",""11360""
""blur"",""6"",""18787""
","""event"",""trial"",""time""
""focus"",""5"",""12422""
""focus"",""6"",""22181""
","""event"",""trial"",""time""
""fullscreenenter"",""1"",""1892""
","
","","","","","","2275","images/table6.png","","","memory_trial","4","definitely_new",""
"html-keyboard-response","125","329853","0.0-18.0-0.41","4607","approach_avoid_sv1","""event"",""trial"",""time""
""fullscreenenter"",""1"",""1892""
""blur"",""5"",""11360""
""focus"",""5"",""12422""
""blur"",""6"",""18787""
""focus"",""6"",""22181""
","""event"",""trial"",""time""
""blur"",""5"",""11360""
""blur"",""6"",""18787""
","""event"",""trial"",""time""
""focus"",""5"",""12422""
""focus"",""6"",""22181""
","""event"",""trial"",""time""
""fullscreenenter"",""1"",""1892""
","
","","","","","","null","<div style=""font-size:60px;"">+</div>","null","","fixation","","",""
"memory-trial","126","332019","0.0-18.0-1.41","4607","approach_avoid_sv1","""event"",""trial"",""time""
""fullscreenenter"",""1"",""1892""
""blur"",""5"",""11360""
""focus"",""5"",""12422""
""blur"",""6"",""18787""
""focus"",""6"",""22181""
","""event"",""trial"",""time""
""blur"",""5"",""11360""
""blur"",""6"",""18787""
","""event"",""trial"",""time""
""focus"",""5"",""12422""
""focus"",""6"",""22181""
","""event"",""trial"",""time""
""fullscreenenter"",""1"",""1892""
","
","","","","","","1140.9999999999418","images/horse7.png","","","memory_trial","4","definitely_new",""
"html-button-response","127","334885","0.0-18.0-2.41-0.41","4607","approach_avoid_sv1","""event"",""trial"",""time""
""fullscreenenter"",""1"",""1892""
""blur"",""5"",""11360""
""focus"",""5"",""12422""
""blur"",""6"",""18787""
""focus"",""6"",""22181""
","""event"",""trial"",""time""
""blur"",""5"",""11360""
""blur"",""6"",""18787""
","""event"",""trial"",""time""
""focus"",""5"",""12422""
""focus"",""6"",""22181""
","""event"",""trial"",""time""
""fullscreenenter"",""1"",""1892""
","
","","","","","","2864","<p> Take a break! </p><p> Click the button to continue. </p>","0","","break","","",""
"html-keyboard-response","128","335387","0.0-18.0-0.42","4607","approach_avoid_sv1","""event"",""trial"",""time""
""fullscreenenter"",""1"",""1892""
""blur"",""5"",""11360""
""focus"",""5"",""12422""
""blur"",""6"",""18787""
""focus"",""6"",""22181""
","""event"",""trial"",""time""
""blur"",""5"",""11360""
""blur"",""6"",""18787""
","""event"",""trial"",""time""
""focus"",""5"",""12422""
""focus"",""6"",""22181""
","""event"",""trial"",""time""
""fullscreenenter"",""1"",""1892""
","
","","","","","","null","<div style=""font-size:60px;"">+</div>","null","","fixation","","",""
"memory-trial","129","339346","0.0-18.0-1.42","4607","approach_avoid_sv1","""event"",""trial"",""time""
""fullscreenenter"",""1"",""1892""
""blur"",""5"",""11360""
""focus"",""5"",""12422""
""blur"",""6"",""18787""
""focus"",""6"",""22181""
","""event"",""trial"",""time""
""blur"",""5"",""11360""
""blur"",""6"",""18787""
","""event"",""trial"",""time""
""focus"",""5"",""12422""
""focus"",""6"",""22181""
","""event"",""trial"",""time""
""fullscreenenter"",""1"",""1892""
","
","","","","","","2933","images/rodent4.png","","","memory_trial","1","definitely_old",""
"html-keyboard-response","130","339848","0.0-18.0-0.43","4607","approach_avoid_sv1","""event"",""trial"",""time""
""fullscreenenter"",""1"",""1892""
""blur"",""5"",""11360""
""focus"",""5"",""12422""
""blur"",""6"",""18787""
""focus"",""6"",""22181""
","""event"",""trial"",""time""
""blur"",""5"",""11360""
""blur"",""6"",""18787""
","""event"",""trial"",""time""
""focus"",""5"",""12422""
""focus"",""6"",""22181""
","""event"",""trial"",""time""
""fullscreenenter"",""1"",""1892""
","
","","","","","","null","<div style=""font-size:60px;"">+</div>","null","","fixation","","",""
"memory-trial","131","343093","0.0-18.0-1.43","4607","approach_avoid_sv1","""event"",""trial"",""time""
""fullscreenenter"",""1"",""1892""
""blur"",""5"",""11360""
""focus"",""5"",""12422""
""blur"",""6"",""18787""
""focus"",""6"",""22181""
","""event"",""trial"",""time""
""blur"",""5"",""11360""
""blur"",""6"",""18787""
","""event"",""trial"",""time""
""focus"",""5"",""12422""
""focus"",""6"",""22181""
","""event"",""trial"",""time""
""fullscreenenter"",""1"",""1892""
","
","","","","","","2222","images/bed6.png","","","memory_trial","4","definitely_new",""
"html-keyboard-response","132","343595","0.0-18.0-0.44","4607","approach_avoid_sv1","""event"",""trial"",""time""
""fullscreenenter"",""1"",""1892""
""blur"",""5"",""11360""
""focus"",""5"",""12422""
""blur"",""6"",""18787""
""focus"",""6"",""22181""
","""event"",""trial"",""time""
""blur"",""5"",""11360""
""blur"",""6"",""18787""
","""event"",""trial"",""time""
""focus"",""5"",""12422""
""focus"",""6"",""22181""
","""event"",""trial"",""time""
""fullscreenenter"",""1"",""1892""
","
","","","","","","null","<div style=""font-size:60px;"">+</div>","null","","fixation","","",""
"memory-trial","133","345471","0.0-18.0-1.44","4607","approach_avoid_sv1","""event"",""trial"",""time""
""fullscreenenter"",""1"",""1892""
""blur"",""5"",""11360""
""focus"",""5"",""12422""
""blur"",""6"",""18787""
""focus"",""6"",""22181""
","""event"",""trial"",""time""
""blur"",""5"",""11360""
""blur"",""6"",""18787""
","""event"",""trial"",""time""
""focus"",""5"",""12422""
""focus"",""6"",""22181""
","""event"",""trial"",""time""
""fullscreenenter"",""1"",""1892""
","
","","","","","","852","images/sheep6.png","","","memory_trial","1","definitely_old",""
"html-keyboard-response","134","345973","0.0-18.0-0.45","4607","approach_avoid_sv1","""event"",""trial"",""time""
""fullscreenenter"",""1"",""1892""
""blur"",""5"",""11360""
""focus"",""5"",""12422""
""blur"",""6"",""18787""
""focus"",""6"",""22181""
","""event"",""trial"",""time""
""blur"",""5"",""11360""
""blur"",""6"",""18787""
","""event"",""trial"",""time""
""focus"",""5"",""12422""
""focus"",""6"",""22181""
","""event"",""trial"",""time""
""fullscreenenter"",""1"",""1892""
","
","","","","","","null","<div style=""font-size:60px;"">+</div>","null","","fixation","","",""
"memory-trial","135","348487","0.0-18.0-1.45","4607","approach_avoid_sv1","""event"",""trial"",""time""
""fullscreenenter"",""1"",""1892""
""blur"",""5"",""11360""
""focus"",""5"",""12422""
""blur"",""6"",""18787""
""focus"",""6"",""22181""
","""event"",""trial"",""time""
""blur"",""5"",""11360""
""blur"",""6"",""18787""
","""event"",""trial"",""time""
""focus"",""5"",""12422""
""focus"",""6"",""22181""
","""event"",""trial"",""time""
""fullscreenenter"",""1"",""1892""
","
","","","","","","1489","images/dog8.png","","","memory_trial","3","maybe_new",""
"html-keyboard-response","136","348989","0.0-18.0-0.46","4607","approach_avoid_sv1","""event"",""trial"",""time""
""fullscreenenter"",""1"",""1892""
""blur"",""5"",""11360""
""focus"",""5"",""12422""
""blur"",""6"",""18787""
""focus"",""6"",""22181""
","""event"",""trial"",""time""
""blur"",""5"",""11360""
""blur"",""6"",""18787""
","""event"",""trial"",""time""
""focus"",""5"",""12422""
""focus"",""6"",""22181""
","""event"",""trial"",""time""
""fullscreenenter"",""1"",""1892""
","
","","","","","","null","<div style=""font-size:60px;"">+</div>","null","","fixation","","",""
"memory-trial","137","351336","0.0-18.0-1.46","4607","approach_avoid_sv1","""event"",""trial"",""time""
""fullscreenenter"",""1"",""1892""
""blur"",""5"",""11360""
""focus"",""5"",""12422""
""blur"",""6"",""18787""
""focus"",""6"",""22181""
","""event"",""trial"",""time""
""blur"",""5"",""11360""
""blur"",""6"",""18787""
","""event"",""trial"",""time""
""focus"",""5"",""12422""
""focus"",""6"",""22181""
","""event"",""trial"",""time""
""fullscreenenter"",""1"",""1892""
","
","","","","","","1323","images/train4.png","","","memory_trial","3","maybe_new",""
"html-keyboard-response","138","351838","0.0-18.0-0.47","4607","approach_avoid_sv1","""event"",""trial"",""time""
""fullscreenenter"",""1"",""1892""
""blur"",""5"",""11360""
""focus"",""5"",""12422""
""blur"",""6"",""18787""
""focus"",""6"",""22181""
","""event"",""trial"",""time""
""blur"",""5"",""11360""
""blur"",""6"",""18787""
","""event"",""trial"",""time""
""focus"",""5"",""12422""
""focus"",""6"",""22181""
","""event"",""trial"",""time""
""fullscreenenter"",""1"",""1892""
","
","","","","","","null","<div style=""font-size:60px;"">+</div>","null","","fixation","","",""
"memory-trial","139","353717","0.0-18.0-1.47","4607","approach_avoid_sv1","""event"",""trial"",""time""
""fullscreenenter"",""1"",""1892""
""blur"",""5"",""11360""
""focus"",""5"",""12422""
""blur"",""6"",""18787""
""focus"",""6"",""22181""
","""event"",""trial"",""time""
""blur"",""5"",""11360""
""blur"",""6"",""18787""
","""event"",""trial"",""time""
""focus"",""5"",""12422""
""focus"",""6"",""22181""
","""event"",""trial"",""time""
""fullscreenenter"",""1"",""1892""
","
","","","","","","855","images/sofa7.png","","","memory_trial","1","definitely_old",""
"html-keyboard-response","140","354218","0.0-18.0-0.48","4607","approach_avoid_sv1","""event"",""trial"",""time""
""fullscreenenter"",""1"",""1892""
""blur"",""5"",""11360""
""focus"",""5"",""12422""
""blur"",""6"",""18787""
""focus"",""6"",""22181""
","""event"",""trial"",""time""
""blur"",""5"",""11360""
""blur"",""6"",""18787""
","""event"",""trial"",""time""
""focus"",""5"",""12422""
""focus"",""6"",""22181""
","""event"",""trial"",""time""
""fullscreenenter"",""1"",""1892""
","
","","","","","","null","<div style=""font-size:60px;"">+</div>","null","","fixation","","",""
"memory-trial","141","356684","0.0-18.0-1.48","4607","approach_avoid_sv1","""event"",""trial"",""time""
""fullscreenenter"",""1"",""1892""
""blur"",""5"",""11360""
""focus"",""5"",""12422""
""blur"",""6"",""18787""
""focus"",""6"",""22181""
","""event"",""trial"",""time""
""blur"",""5"",""11360""
""blur"",""6"",""18787""
","""event"",""trial"",""time""
""focus"",""5"",""12422""
""focus"",""6"",""22181""
","""event"",""trial"",""time""
""fullscreenenter"",""1"",""1892""
","
","","","","","","1442","images/cat1.png","","","memory_trial","4","definitely_new",""
"html-keyboard-response","142","357186","0.0-18.0-0.49","4607","approach_avoid_sv1","""event"",""trial"",""time""
""fullscreenenter"",""1"",""1892""
""blur"",""5"",""11360""
""focus"",""5"",""12422""
""blur"",""6"",""18787""
""focus"",""6"",""22181""
","""event"",""trial"",""time""
""blur"",""5"",""11360""
""blur"",""6"",""18787""
","""event"",""trial"",""time""
""focus"",""5"",""12422""
""focus"",""6"",""22181""
","""event"",""trial"",""time""
""fullscreenenter"",""1"",""1892""
","
","","","","","","null","<div style=""font-size:60px;"">+</div>","null","","fixation","","",""
"memory-trial","143","359406","0.0-18.0-1.49","4607","approach_avoid_sv1","""event"",""trial"",""time""
""fullscreenenter"",""1"",""1892""
""blur"",""5"",""11360""
""focus"",""5"",""12422""
""blur"",""6"",""18787""
""focus"",""6"",""22181""
","""event"",""trial"",""time""
""blur"",""5"",""11360""
""blur"",""6"",""18787""
","""event"",""trial"",""time""
""focus"",""5"",""12422""
""focus"",""6"",""22181""
","""event"",""trial"",""time""
""fullscreenenter"",""1"",""1892""
","
","","","","","","1196","images/cow3.png","","","memory_trial","3","maybe_new",""
"html-keyboard-response","144","359908","0.0-18.0-0.50","4607","approach_avoid_sv1","""event"",""trial"",""time""
""fullscreenenter"",""1"",""1892""
""blur"",""5"",""11360""
""focus"",""5"",""12422""
""blur"",""6"",""18787""
""focus"",""6"",""22181""
","""event"",""trial"",""time""
""blur"",""5"",""11360""
""blur"",""6"",""18787""
","""event"",""trial"",""time""
""focus"",""5"",""12422""
""focus"",""6"",""22181""
","""event"",""trial"",""time""
""fullscreenenter"",""1"",""1892""
","
","","","","","","null","<div style=""font-size:60px;"">+</div>","null","","fixation","","",""
"memory-trial","145","362281","0.0-18.0-1.50","4607","approach_avoid_sv1","""event"",""trial"",""time""
""fullscreenenter"",""1"",""1892""
""blur"",""5"",""11360""
""focus"",""5"",""12422""
""blur"",""6"",""18787""
""focus"",""6"",""22181""
","""event"",""trial"",""time""
""blur"",""5"",""11360""
""blur"",""6"",""18787""
","""event"",""trial"",""time""
""focus"",""5"",""12422""
""focus"",""6"",""22181""
","""event"",""trial"",""time""
""fullscreenenter"",""1"",""1892""
","
","","","","","","1350.0000000000582","images/orange1.png","","","memory_trial","3","maybe_new",""
"html-keyboard-response","146","362783","0.0-18.0-0.51","4607","approach_avoid_sv1","""event"",""trial"",""time""
""fullscreenenter"",""1"",""1892""
""blur"",""5"",""11360""
""focus"",""5"",""12422""
""blur"",""6"",""18787""
""focus"",""6"",""22181""
","""event"",""trial"",""time""
""blur"",""5"",""11360""
""blur"",""6"",""18787""
","""event"",""trial"",""time""
""focus"",""5"",""12422""
""focus"",""6"",""22181""
","""event"",""trial"",""time""
""fullscreenenter"",""1"",""1892""
","
","","","","","","null","<div style=""font-size:60px;"">+</div>","null","","fixation","","",""
"memory-trial","147","364620","0.0-18.0-1.51","4607","approach_avoid_sv1","""event"",""trial"",""time""
""fullscreenenter"",""1"",""1892""
""blur"",""5"",""11360""
""focus"",""5"",""12422""
""blur"",""6"",""18787""
""focus"",""6"",""22181""
","""event"",""trial"",""time""
""blur"",""5"",""11360""
""blur"",""6"",""18787""
","""event"",""trial"",""time""
""focus"",""5"",""12422""
""focus"",""6"",""22181""
","""event"",""trial"",""time""
""fullscreenenter"",""1"",""1892""
","
","","","","","","813","images/chair2.png","","","memory_trial","1","definitely_old",""
"html-keyboard-response","148","365122","0.0-18.0-0.52","4607","approach_avoid_sv1","""event"",""trial"",""time""
""fullscreenenter"",""1"",""1892""
""blur"",""5"",""11360""
""focus"",""5"",""12422""
""blur"",""6"",""18787""
""focus"",""6"",""22181""
","""event"",""trial"",""time""
""blur"",""5"",""11360""
""blur"",""6"",""18787""
","""event"",""trial"",""time""
""focus"",""5"",""12422""
""focus"",""6"",""22181""
","""event"",""trial"",""time""
""fullscreenenter"",""1"",""1892""
","
","","","","","","null","<div style=""font-size:60px;"">+</div>","null","","fixation","","",""
"memory-trial","149","367823","0.0-18.0-1.52","4607","approach_avoid_sv1","""event"",""trial"",""time""
""fullscreenenter"",""1"",""1892""
""blur"",""5"",""11360""
""focus"",""5"",""12422""
""blur"",""6"",""18787""
""focus"",""6"",""22181""
","""event"",""trial"",""time""
""blur"",""5"",""11360""
""blur"",""6"",""18787""
","""event"",""trial"",""time""
""focus"",""5"",""12422""
""focus"",""6"",""22181""
","""event"",""trial"",""time""
""fullscreenenter"",""1"",""1892""
","
","","","","","","1677","images/flower8.png","","","memory_trial","3","maybe_new",""
"html-keyboard-response","150","368325","0.0-18.0-0.53","4607","approach_avoid_sv1","""event"",""trial"",""time""
""fullscreenenter"",""1"",""1892""
""blur"",""5"",""11360""
""focus"",""5"",""12422""
""blur"",""6"",""18787""
""focus"",""6"",""22181""
","""event"",""trial"",""time""
""blur"",""5"",""11360""
""blur"",""6"",""18787""
","""event"",""trial"",""time""
""focus"",""5"",""12422""
""focus"",""6"",""22181""
","""event"",""trial"",""time""
""fullscreenenter"",""1"",""1892""
","
","","","","","","null","<div style=""font-size:60px;"">+</div>","null","","fixation","","",""
"memory-trial","151","370266","0.0-18.0-1.53","4607","approach_avoid_sv1","""event"",""trial"",""time""
""fullscreenenter"",""1"",""1892""
""blur"",""5"",""11360""
""focus"",""5"",""12422""
""blur"",""6"",""18787""
""focus"",""6"",""22181""
","""event"",""trial"",""time""
""blur"",""5"",""11360""
""blur"",""6"",""18787""
","""event"",""trial"",""time""
""focus"",""5"",""12422""
""focus"",""6"",""22181""
","""event"",""trial"",""time""
""fullscreenenter"",""1"",""1892""
","
","","","","","","915","images/orange3.png","","","memory_trial","3","maybe_new",""
"html-keyboard-response","152","370768","0.0-18.0-0.54","4607","approach_avoid_sv1","""event"",""trial"",""time""
""fullscreenenter"",""1"",""1892""
""blur"",""5"",""11360""
""focus"",""5"",""12422""
""blur"",""6"",""18787""
""focus"",""6"",""22181""
","""event"",""trial"",""time""
""blur"",""5"",""11360""
""blur"",""6"",""18787""
","""event"",""trial"",""time""
""focus"",""5"",""12422""
""focus"",""6"",""22181""
","""event"",""trial"",""time""
""fullscreenenter"",""1"",""1892""
","
","","","","","","null","<div style=""font-size:60px;"">+</div>","null","","fixation","","",""
"memory-trial","153","373881","0.0-18.0-1.54","4607","approach_avoid_sv1","""event"",""trial"",""time""
""fullscreenenter"",""1"",""1892""
""blur"",""5"",""11360""
""focus"",""5"",""12422""
""blur"",""6"",""18787""
""focus"",""6"",""22181""
","""event"",""trial"",""time""
""blur"",""5"",""11360""
""blur"",""6"",""18787""
","""event"",""trial"",""time""
""focus"",""5"",""12422""
""focus"",""6"",""22181""
","""event"",""trial"",""time""
""fullscreenenter"",""1"",""1892""
","
","","","","","","2089","images/horse8.png","","","memory_trial","3","maybe_new",""
"html-keyboard-response","154","374383","0.0-18.0-0.55","4607","approach_avoid_sv1","""event"",""trial"",""time""
""fullscreenenter"",""1"",""1892""
""blur"",""5"",""11360""
""focus"",""5"",""12422""
""blur"",""6"",""18787""
""focus"",""6"",""22181""
","""event"",""trial"",""time""
""blur"",""5"",""11360""
""blur"",""6"",""18787""
","""event"",""trial"",""time""
""focus"",""5"",""12422""
""focus"",""6"",""22181""
","""event"",""trial"",""time""
""fullscreenenter"",""1"",""1892""
","
","","","","","","null","<div style=""font-size:60px;"">+</div>","null","","fixation","","",""
"memory-trial","155","376200","0.0-18.0-1.55","4607","approach_avoid_sv1","""event"",""trial"",""time""
""fullscreenenter"",""1"",""1892""
""blur"",""5"",""11360""
""focus"",""5"",""12422""
""blur"",""6"",""18787""
""focus"",""6"",""22181""
","""event"",""trial"",""time""
""blur"",""5"",""11360""
""blur"",""6"",""18787""
","""event"",""trial"",""time""
""focus"",""5"",""12422""
""focus"",""6"",""22181""
","""event"",""trial"",""time""
""fullscreenenter"",""1"",""1892""
","
","","","","","","792","images/cactus7.png","","","memory_trial","1","definitely_old",""
"html-keyboard-response","156","376703","0.0-18.0-0.56","4607","approach_avoid_sv1","""event"",""trial"",""time""
""fullscreenenter"",""1"",""1892""
""blur"",""5"",""11360""
""focus"",""5"",""12422""
""blur"",""6"",""18787""
""focus"",""6"",""22181""
","""event"",""trial"",""time""
""blur"",""5"",""11360""
""blur"",""6"",""18787""
","""event"",""trial"",""time""
""focus"",""5"",""12422""
""focus"",""6"",""22181""
","""event"",""trial"",""time""
""fullscreenenter"",""1"",""1892""
","
","","","","","","null","<div style=""font-size:60px;"">+</div>","null","","fixation","","",""
"memory-trial","157","379118","0.0-18.0-1.56","4607","approach_avoid_sv1","""event"",""trial"",""time""
""fullscreenenter"",""1"",""1892""
""blur"",""5"",""11360""
""focus"",""5"",""12422""
""blur"",""6"",""18787""
""focus"",""6"",""22181""
","""event"",""trial"",""time""
""blur"",""5"",""11360""
""blur"",""6"",""18787""
","""event"",""trial"",""time""
""focus"",""5"",""12422""
""focus"",""6"",""22181""
","""event"",""trial"",""time""
""fullscreenenter"",""1"",""1892""
","
","","","","","","1392","images/straw6.png","","","memory_trial","1","definitely_old",""
"html-keyboard-response","158","379621","0.0-18.0-0.57","4607","approach_avoid_sv1","""event"",""trial"",""time""
""fullscreenenter"",""1"",""1892""
""blur"",""5"",""11360""
""focus"",""5"",""12422""
""blur"",""6"",""18787""
""focus"",""6"",""22181""
","""event"",""trial"",""time""
""blur"",""5"",""11360""
""blur"",""6"",""18787""
","""event"",""trial"",""time""
""focus"",""5"",""12422""
""focus"",""6"",""22181""
","""event"",""trial"",""time""
""fullscreenenter"",""1"",""1892""
","
","","","","","","null","<div style=""font-size:60px;"">+</div>","null","","fixation","","",""
"memory-trial","159","382313","0.0-18.0-1.57","4607","approach_avoid_sv1","""event"",""trial"",""time""
""fullscreenenter"",""1"",""1892""
""blur"",""5"",""11360""
""focus"",""5"",""12422""
""blur"",""6"",""18787""
""focus"",""6"",""22181""
","""event"",""trial"",""time""
""blur"",""5"",""11360""
""blur"",""6"",""18787""
","""event"",""trial"",""time""
""focus"",""5"",""12422""
""focus"",""6"",""22181""
","""event"",""trial"",""time""
""fullscreenenter"",""1"",""1892""
","
","","","","","","1668","images/chair4.png","","","memory_trial","3","maybe_new",""
"html-keyboard-response","160","382815","0.0-18.0-0.58","4607","approach_avoid_sv1","""event"",""trial"",""time""
""fullscreenenter"",""1"",""1892""
""blur"",""5"",""11360""
""focus"",""5"",""12422""
""blur"",""6"",""18787""
""focus"",""6"",""22181""
","""event"",""trial"",""time""
""blur"",""5"",""11360""
""blur"",""6"",""18787""
","""event"",""trial"",""time""
""focus"",""5"",""12422""
""focus"",""6"",""22181""
","""event"",""trial"",""time""
""fullscreenenter"",""1"",""1892""
","
","","","","","","null","<div style=""font-size:60px;"">+</div>","null","","fixation","","",""
"memory-trial","161","385430","0.0-18.0-1.58","4607","approach_avoid_sv1","""event"",""trial"",""time""
""fullscreenenter"",""1"",""1892""
""blur"",""5"",""11360""
""focus"",""5"",""12422""
""blur"",""6"",""18787""
""focus"",""6"",""22181""
","""event"",""trial"",""time""
""blur"",""5"",""11360""
""blur"",""6"",""18787""
","""event"",""trial"",""time""
""focus"",""5"",""12422""
""focus"",""6"",""22181""
","""event"",""trial"",""time""
""fullscreenenter"",""1"",""1892""
","
","","","","","","1591.0000000000582","images/boat6.png","","","memory_trial","1","definitely_old",""
"html-keyboard-response","162","385932","0.0-18.0-0.59","4607","approach_avoid_sv1","""event"",""trial"",""time""
""fullscreenenter"",""1"",""1892""
""blur"",""5"",""11360""
""focus"",""5"",""12422""
""blur"",""6"",""18787""
""focus"",""6"",""22181""
","""event"",""trial"",""time""
""blur"",""5"",""11360""
""blur"",""6"",""18787""
","""event"",""trial"",""time""
""focus"",""5"",""12422""
""focus"",""6"",""22181""
","""event"",""trial"",""time""
""fullscreenenter"",""1"",""1892""
","
","","","","","","null","<div style=""font-size:60px;"">+</div>","null","","fixation","","",""
"memory-trial","163","388036","0.0-18.0-1.59","4607","approach_avoid_sv1","""event"",""trial"",""time""
""fullscreenenter"",""1"",""1892""
""blur"",""5"",""11360""
""focus"",""5"",""12422""
""blur"",""6"",""18787""
""focus"",""6"",""22181""
","""event"",""trial"",""time""
""blur"",""5"",""11360""
""blur"",""6"",""18787""
","""event"",""trial"",""time""
""focus"",""5"",""12422""
""focus"",""6"",""22181""
","""event"",""trial"",""time""
""fullscreenenter"",""1"",""1892""
","
","","","","","","1081","images/rabbit4.png","","","memory_trial","1","definitely_old",""
"html-keyboard-response","164","388538","0.0-18.0-0.60","4607","approach_avoid_sv1","""event"",""trial"",""time""
""fullscreenenter"",""1"",""1892""
""blur"",""5"",""11360""
""focus"",""5"",""12422""
""blur"",""6"",""18787""
""focus"",""6"",""22181""
","""event"",""trial"",""time""
""blur"",""5"",""11360""
""blur"",""6"",""18787""
","""event"",""trial"",""time""
""focus"",""5"",""12422""
""focus"",""6"",""22181""
","""event"",""trial"",""time""
""fullscreenenter"",""1"",""1892""
","
","","","","","","null","<div style=""font-size:60px;"">+</div>","null","","fixation","","",""
"memory-trial","165","390488","0.0-18.0-1.60","4607","approach_avoid_sv1","""event"",""trial"",""time""
""fullscreenenter"",""1"",""1892""
""blur"",""5"",""11360""
""focus"",""5"",""12422""
""blur"",""6"",""18787""
""focus"",""6"",""22181""
","""event"",""trial"",""time""
""blur"",""5"",""11360""
""blur"",""6"",""18787""
","""event"",""trial"",""time""
""focus"",""5"",""12422""
""focus"",""6"",""22181""
","""event"",""trial"",""time""
""fullscreenenter"",""1"",""1892""
","
","","","","","","925","images/bush8.png","","","memory_trial","1","definitely_old",""
"html-keyboard-response","166","390990","0.0-18.0-0.61","4607","approach_avoid_sv1","""event"",""trial"",""time""
""fullscreenenter"",""1"",""1892""
""blur"",""5"",""11360""
""focus"",""5"",""12422""
""blur"",""6"",""18787""
""focus"",""6"",""22181""
","""event"",""trial"",""time""
""blur"",""5"",""11360""
""blur"",""6"",""18787""
","""event"",""trial"",""time""
""focus"",""5"",""12422""
""focus"",""6"",""22181""
","""event"",""trial"",""time""
""fullscreenenter"",""1"",""1892""
","
","","","","","","null","<div style=""font-size:60px;"">+</div>","null","","fixation","","",""
