"trial_type","trial_index","time_elapsed","internal_node_id","subject_id","task_version","interactions","blur_events","focus_events","fullscreenenter_events","fullscreenexit_events","success","timeout","failed_images","failed_audio","failed_video","rt","stimulus","response","button_pressed","task_part","key_press","answer","correct"
"pavlovia","0","3","0.0-0.0","6271","approach_avoid_sv1","""event"",""trial"",""time""
""fullscreenenter"",""1"",""3878""
","
","
","""event"",""trial"",""time""
""fullscreenenter"",""1"",""3878""
","
","","","","","","","","","","","","",""
"fullscreen","1","4862","0.0-1.0","6271","approach_avoid_sv1","""event"",""trial"",""time""
""fullscreenenter"",""1"",""3878""
","
","
","""event"",""trial"",""time""
""fullscreenenter"",""1"",""3878""
","
","true","","","","","","","","","","","",""
"preload","2","6723","0.0-2.0","6271","approach_avoid_sv1","""event"",""trial"",""time""
""fullscreenenter"",""1"",""3878""
","
","
","""event"",""trial"",""time""
""fullscreenenter"",""1"",""3878""
","
","true","false","[]","[]","[]","","","","","","","",""
"preload","3","7359","0.0-3.0","6271","approach_avoid_sv1","""event"",""trial"",""time""
""fullscreenenter"",""1"",""3878""
","
","
","""event"",""trial"",""time""
""fullscreenenter"",""1"",""3878""
","
","true","false","[]","[]","[]","","","","","","","",""
"preload","4","7628","0.0-4.0","6271","approach_avoid_sv1","""event"",""trial"",""time""
""fullscreenenter"",""1"",""3878""
","
","
","""event"",""trial"",""time""
""fullscreenenter"",""1"",""3878""
","
","true","false","[]","[]","[]","","","","","","","",""
"audio-keyboard-response","5","11361","0.0-5.0","6271","approach_avoid_sv1","""event"",""trial"",""time""
""fullscreenenter"",""1"",""3878""
","
","
","""event"",""trial"",""time""
""fullscreenenter"",""1"",""3878""
","
","","","","","","3730.6666666666665","audio/beep_loop.wav","audiovolumedown","","","","",""
"audio-button-response","6","14891","0.0-6.0","6271","approach_avoid_sv1","""event"",""trial"",""time""
""fullscreenenter"",""1"",""3878""
","
","
","""event"",""trial"",""time""
""fullscreenenter"",""1"",""3878""
","
","","","","","","3531","audio/turtle.wav","3","","","","",""
"audio-button-response","7","17115","0.0-7.0","6271","approach_avoid_sv1","""event"",""trial"",""time""
""fullscreenenter"",""1"",""3878""
","
","
","""event"",""trial"",""time""
""fullscreenenter"",""1"",""3878""
","
","","","","","","1208","audio/shark.wav","2","","","","",""
"preload","8","20034","0.0-8.0","6271","approach_avoid_sv1","""event"",""trial"",""time""
""fullscreenenter"",""1"",""3878""
","
","
","""event"",""trial"",""time""
""fullscreenenter"",""1"",""3878""
","
","true","false","[]","[]","[]","","","","","","","",""
"learning-instructions","9","26059","0.0-9.0-0.0","6271","approach_avoid_sv1","""event"",""trial"",""time""
""fullscreenenter"",""1"",""3878""
","
","
","""event"",""trial"",""time""
""fullscreenenter"",""1"",""3878""
","
","","","","","","1551.8999999910593","<p> Welcome back! </p><p> Last week, you had to make choices about lots of different items.  </p>","","0","instructions","","",""
"learning-instructions","10","31347","0.0-9.0-0.1","6271","approach_avoid_sv1","""event"",""trial"",""time""
""fullscreenenter"",""1"",""3878""
","
","
","""event"",""trial"",""time""
""fullscreenenter"",""1"",""3878""
","
","","","","","","1170.0999999940395","<p> Today, we are going to ask you to try to remember all the items. </p>","","0","instructions","","",""
"learning-instructions","11","42691","0.0-9.0-0.2","6271","approach_avoid_sv1","""event"",""trial"",""time""
""fullscreenenter"",""1"",""3878""
","
","
","""event"",""trial"",""time""
""fullscreenenter"",""1"",""3878""
","
","","","","","","1214.2000000029802","<p> On every trial, you will see an image. </p><p> The image may be an OLD image you saw during the games last week or it may be a NEW image that was not presented. </p>","","0","instructions","","",""
"learning-instructions","12","51908","0.0-9.0-0.3","6271","approach_avoid_sv1","""event"",""trial"",""time""
""fullscreenenter"",""1"",""3878""
","
","
","""event"",""trial"",""time""
""fullscreenenter"",""1"",""3878""
","
","","","","","","700.5999999940395","<p> You need to select whether the image is:  </p><p>  'Definitely old', 'Maybe old', 'Maybe new', or 'Definitely new.'  </p><div class=""mem-choice-instructions-grid""><div class=""choice-option"" id=""choice-option-1"" ><img src=""images/definitely_old_1.png"" id=""choice-option-img-1"" class=""choice-option-img"" stage=""1""></div><div class=""choice-option"" id=""choice-option-2"" ><img src=""images/maybe_old_1.png"" id=""choice-option-img-2"" class=""choice-option-img"" stage=""1""></div><div class=""choice-option"" id=""choice-option-3"" ><img src=""images/maybe_new_1.png"" id=""choice-option-img-3"" class=""choice-option-img"" stage=""1""></div><div class=""choice-option"" id=""choice-option-4"" > <img src=""images/definitely_new_1.png"" id=""choice-option-img-4"" class=""choice-option-img"" stage=""1""></div></div>","","0","instructions","","",""
"learning-instructions","13","58595","0.0-9.0-0.4","6271","approach_avoid_sv1","""event"",""trial"",""time""
""fullscreenenter"",""1"",""3878""
","
","
","""event"",""trial"",""time""
""fullscreenenter"",""1"",""3878""
","
","","","","","","177.90000000596046","<p> You should use the 1, 2, 3, and 4 keys to make your responses.  </p><div class=""mem-choice-instructions-grid""><div class=""choice-option"" id=""choice-option-1"" ><img src=""images/definitely_old.png"" id=""choice-option-img-1"" class=""choice-option-img"" stage=""1""></div><div class=""choice-option"" id=""choice-option-2"" ><img src=""images/maybe_old.png"" id=""choice-option-img-2"" class=""choice-option-img"" stage=""1""></div><div class=""choice-option"" id=""choice-option-3"" ><img src=""images/maybe_new.png"" id=""choice-option-img-3"" class=""choice-option-img"" stage=""1""></div><div class=""choice-option"" id=""choice-option-4"" > <img src=""images/definitely_new.png"" id=""choice-option-img-4"" class=""choice-option-img"" stage=""1""></div></div>","","0","instructions","","",""
"learning-instructions","14","65282","0.0-9.0-0.5","6271","approach_avoid_sv1","""event"",""trial"",""time""
""fullscreenenter"",""1"",""3878""
","
","
","""event"",""trial"",""time""
""fullscreenenter"",""1"",""3878""
","
","","","","","","364.09999999403954","<p> You will have 10 seconds to make each response.  </p><p>  Make sure to respond before time runs out! </p>","","0","instructions","","",""
"learning-instructions","15","72995","0.0-9.0-0.6","6271","approach_avoid_sv1","""event"",""trial"",""time""
""fullscreenenter"",""1"",""3878""
","
","
","""event"",""trial"",""time""
""fullscreenenter"",""1"",""3878""
","
","","","","","","638.2000000029802","<p> Today, you will see each image ONCE only.  </p><p>  That means none of the images will repeat. </p>","","0","instructions","","",""
"learning-instructions","16","86061","0.0-9.0-0.7","6271","approach_avoid_sv1","""event"",""trial"",""time""
""fullscreenenter"",""1"",""3878""
","
","
","""event"",""trial"",""time""
""fullscreenenter"",""1"",""3878""
","
","","","","","","394.69999998807907","<p> Before you play the real game, it is time to practice. </p><p>  Just like in the real game, some of the images in the practice will be ones you have seen before. </p><p>  Others will be entirely new. </p>","","0","instructions","","",""
"html-button-response","17","88277","0.0-10.0","6271","approach_avoid_sv1","""event"",""trial"",""time""
""fullscreenenter"",""1"",""3878""
","
","
","""event"",""trial"",""time""
""fullscreenenter"",""1"",""3878""
","
","","","","","","2100.5999999940395","<p> Ready to practice? </p><p> Remember, use the 1, 2, 3, and 4 keys to make your responses. </p>","0","","instructions","","",""
"html-keyboard-response","18","88882","0.0-11.0-0.0","6271","approach_avoid_sv1","""event"",""trial"",""time""
""fullscreenenter"",""1"",""3878""
","
","
","""event"",""trial"",""time""
""fullscreenenter"",""1"",""3878""
","
","","","","","","null","<div style=""font-size:60px;"">+</div>","null","","fixation","","",""
"memory-trial","19","92615","0.0-11.0-1.0","6271","approach_avoid_sv1","""event"",""trial"",""time""
""fullscreenenter"",""1"",""3878""
","
","
","""event"",""trial"",""time""
""fullscreenenter"",""1"",""3878""
","
","","","","","","2716.7000000029802","images/racket5.png","","","practice","3","maybe_new",""
"html-keyboard-response","20","93125","0.0-11.0-0.1","6271","approach_avoid_sv1","""event"",""trial"",""time""
""fullscreenenter"",""1"",""3878""
","
","
","""event"",""trial"",""time""
""fullscreenenter"",""1"",""3878""
","
","","","","","","null","<div style=""font-size:60px;"">+</div>","null","","fixation","","",""
"memory-trial","21","96438","0.0-11.0-1.1","6271","approach_avoid_sv1","""event"",""trial"",""time""
""fullscreenenter"",""1"",""3878""
","
","
","""event"",""trial"",""time""
""fullscreenenter"",""1"",""3878""
","
","","","","","","2297.2999999970198","images/racket2.png","","","practice","2","maybe_old",""
"html-keyboard-response","22","96946","0.0-11.0-0.2","6271","approach_avoid_sv1","""event"",""trial"",""time""
""fullscreenenter"",""1"",""3878""
","
","
","""event"",""trial"",""time""
""fullscreenenter"",""1"",""3878""
","
","","","","","","null","<div style=""font-size:60px;"">+</div>","null","","fixation","","",""
"memory-trial","23","99980","0.0-11.0-1.2","6271","approach_avoid_sv1","""event"",""trial"",""time""
""fullscreenenter"",""1"",""3878""
","
","
","""event"",""trial"",""time""
""fullscreenenter"",""1"",""3878""
","
","","","","","","2029.4000000059605","images/racket1.png","","","practice","4","definitely_new",""
"html-keyboard-response","24","100493","0.0-11.0-0.3","6271","approach_avoid_sv1","""event"",""trial"",""time""
""fullscreenenter"",""1"",""3878""
","
","
","""event"",""trial"",""time""
""fullscreenenter"",""1"",""3878""
","
","","","","","","null","<div style=""font-size:60px;"">+</div>","null","","fixation","","",""
"memory-trial","25","102844","0.0-11.0-1.3","6271","approach_avoid_sv1","""event"",""trial"",""time""
""fullscreenenter"",""1"",""3878""
","
","
","""event"",""trial"",""time""
""fullscreenenter"",""1"",""3878""
","
","","","","","","1343.7999999970198","images/ball1.png","","","practice","1","definitely_old",""
"html-keyboard-response","26","103360","0.0-11.0-0.4","6271","approach_avoid_sv1","""event"",""trial"",""time""
""fullscreenenter"",""1"",""3878""
","
","
","""event"",""trial"",""time""
""fullscreenenter"",""1"",""3878""
","
","","","","","","null","<div style=""font-size:60px;"">+</div>","null","","fixation","","",""
"memory-trial","27","106221","0.0-11.0-1.4","6271","approach_avoid_sv1","""event"",""trial"",""time""
""fullscreenenter"",""1"",""3878""
","
","
","""event"",""trial"",""time""
""fullscreenenter"",""1"",""3878""
","
","","","","","","1853.5999999940395","images/racket3.png","","","practice","2","maybe_old",""
"html-keyboard-response","28","106734","0.0-11.0-0.5","6271","approach_avoid_sv1","""event"",""trial"",""time""
""fullscreenenter"",""1"",""3878""
","
","
","""event"",""trial"",""time""
""fullscreenenter"",""1"",""3878""
","
","","","","","","null","<div style=""font-size:60px;"">+</div>","null","","fixation","","",""
"memory-trial","29","109305","0.0-11.0-1.5","6271","approach_avoid_sv1","""event"",""trial"",""time""
""fullscreenenter"",""1"",""3878""
","
","
","""event"",""trial"",""time""
""fullscreenenter"",""1"",""3878""
","
","","","","","","1566","images/ball5.png","","","practice","1","definitely_old",""
"html-keyboard-response","30","109815","0.0-11.0-0.6","6271","approach_avoid_sv1","""event"",""trial"",""time""
""fullscreenenter"",""1"",""3878""
","
","
","""event"",""trial"",""time""
""fullscreenenter"",""1"",""3878""
","
","","","","","","null","<div style=""font-size:60px;"">+</div>","null","","fixation","","",""
"memory-trial","31","112636","0.0-11.0-1.6","6271","approach_avoid_sv1","""event"",""trial"",""time""
""fullscreenenter"",""1"",""3878""
","
","
","""event"",""trial"",""time""
""fullscreenenter"",""1"",""3878""
","
","","","","","","1819.4000000059605","images/ball2.png","","","practice","1","definitely_old",""
"html-keyboard-response","32","113142","0.0-11.0-0.7","6271","approach_avoid_sv1","""event"",""trial"",""time""
""fullscreenenter"",""1"",""3878""
","
","
","""event"",""trial"",""time""
""fullscreenenter"",""1"",""3878""
","
","","","","","","null","<div style=""font-size:60px;"">+</div>","null","","fixation","","",""
"memory-trial","33","115354","0.0-11.0-1.7","6271","approach_avoid_sv1","""event"",""trial"",""time""
""fullscreenenter"",""1"",""3878""
","
","
","""event"",""trial"",""time""
""fullscreenenter"",""1"",""3878""
","
","","","","","","1209.3999999910593","images/ball3.png","","","practice","1","definitely_old",""
"learning-instructions","34","122936","0.0-12.0-0.0","6271","approach_avoid_sv1","""event"",""trial"",""time""
""fullscreenenter"",""1"",""3878""
","
","
","""event"",""trial"",""time""
""fullscreenenter"",""1"",""3878""
","
","","","","","","279","<p> Great! You have completed the practice. </p><p> Before you start, we're going to ask you a few questions about how the game works.  </p>","","0","instructions","","",""
"preload","35","124805","0.0-13.0","6271","approach_avoid_sv1","""event"",""trial"",""time""
""fullscreenenter"",""1"",""3878""
","
","
","""event"",""trial"",""time""
""fullscreenenter"",""1"",""3878""
","
","true","false","[]","[]","[]","","","","","","","",""
"comp-q","36","132289","0.0-14.0-0.0","6271","approach_avoid_sv1","""event"",""trial"",""time""
""fullscreenenter"",""1"",""3878""
","
","
","""event"",""trial"",""time""
""fullscreenenter"",""1"",""3878""
","
","","","","","","1651.7000000029802","<p> <b> True or False? </b> </p><p> In this game, you will only see each image once. </p>","","0","comp_question","","","true"
"comp-q","37","140346","0.0-14.0-1.0","6271","approach_avoid_sv1","""event"",""trial"",""time""
""fullscreenenter"",""1"",""3878""
","
","
","""event"",""trial"",""time""
""fullscreenenter"",""1"",""3878""
","
","","","","","","1708.7999999970198","<p> <b> That's right! </b> You will see many different images <i> one time each </i> in this game. </p>","","0","comp_answer","","",""
"comp-q","38","147437","0.0-15.0-0.0","6271","approach_avoid_sv1","""event"",""trial"",""time""
""fullscreenenter"",""1"",""3878""
","
","
","""event"",""trial"",""time""
""fullscreenenter"",""1"",""3878""
","
","","","","","","2071.199999988079","<p> <b> True or False? </b> </p><p> You should use the mouse and click to make your response. </p>","","1","comp_question","","","true"
"comp-q","39","155487","0.0-15.0-1.0","6271","approach_avoid_sv1","""event"",""trial"",""time""
""fullscreenenter"",""1"",""3878""
","
","
","""event"",""trial"",""time""
""fullscreenenter"",""1"",""3878""
","
","","","","","","1541","<p><b> That's right! </b> You should use the '1', '2', '3', and '4' keys to make your response. </p>","","0","comp_answer","","",""
"comp-q","40","163166","0.0-16.0-0.0","6271","approach_avoid_sv1","""event"",""trial"",""time""
""fullscreenenter"",""1"",""3878""
","
","
","""event"",""trial"",""time""
""fullscreenenter"",""1"",""3878""
","
","","","","","","2009.7999999970198","<p> <b> True or False? </b> </p><p> You will have as much time as you want to make each choice. </p>","","1","comp_question","","","true"
"comp-q","41","169244","0.0-16.0-1.0","6271","approach_avoid_sv1","""event"",""trial"",""time""
""fullscreenenter"",""1"",""3878""
","
","
","""event"",""trial"",""time""
""fullscreenenter"",""1"",""3878""
","
","","","","","","1387.2000000029802","<p> <b> That's right! </b> You will only have 10 seconds to make each choice. </p>","","0","comp_answer","","",""
"learning-instructions","42","178997","0.0-17.0","6271","approach_avoid_sv1","""event"",""trial"",""time""
""fullscreenenter"",""1"",""3878""
","
","
","""event"",""trial"",""time""
""fullscreenenter"",""1"",""3878""
","
","","","","","","1080.7999999970198","<p> Great! You are now ready to begin the game. </p><p> Remember, use the 1, 2, 3, and 4 keys to make your responses. </p>","","0","instructions","","",""
"html-keyboard-response","43","179604","0.0-18.0-0.0","6271","approach_avoid_sv1","""event"",""trial"",""time""
""fullscreenenter"",""1"",""3878""
","
","
","""event"",""trial"",""time""
""fullscreenenter"",""1"",""3878""
","
","","","","","","null","<div style=""font-size:60px;"">+</div>","null","","fixation","","",""
"memory-trial","44","183896","0.0-18.0-1.0","6271","approach_avoid_sv1","""event"",""trial"",""time""
""fullscreenenter"",""1"",""3878""
","
","
","""event"",""trial"",""time""
""fullscreenenter"",""1"",""3878""
","
","","","","","","3278.1000000089407","images/sofa2.png","","","memory_trial","3","maybe_new",""
"html-keyboard-response","45","184410","0.0-18.0-0.1","6271","approach_avoid_sv1","""event"",""trial"",""time""
""fullscreenenter"",""1"",""3878""
","
","
","""event"",""trial"",""time""
""fullscreenenter"",""1"",""3878""
","
","","","","","","null","<div style=""font-size:60px;"">+</div>","null","","fixation","","",""
"memory-trial","46","187097","0.0-18.0-1.1","6271","approach_avoid_sv1","""event"",""trial"",""time""
""fullscreenenter"",""1"",""3878""
","
","
","""event"",""trial"",""time""
""fullscreenenter"",""1"",""3878""
","
","","","","","","1685","images/flower5.png","","","memory_trial","1","definitely_old",""
"html-keyboard-response","47","187605","0.0-18.0-0.2","6271","approach_avoid_sv1","""event"",""trial"",""time""
""fullscreenenter"",""1"",""3878""
","
","
","""event"",""trial"",""time""
""fullscreenenter"",""1"",""3878""
","
","","","","","","null","<div style=""font-size:60px;"">+</div>","null","","fixation","","",""
"memory-trial","48","190100","0.0-18.0-1.2","6271","approach_avoid_sv1","""event"",""trial"",""time""
""fullscreenenter"",""1"",""3878""
","
","
","""event"",""trial"",""time""
""fullscreenenter"",""1"",""3878""
","
","","","","","","1485.2000000029802","images/banana1.png","","","memory_trial","4","definitely_new",""
"html-keyboard-response","49","190601","0.0-18.0-0.3","6271","approach_avoid_sv1","""event"",""trial"",""time""
""fullscreenenter"",""1"",""3878""
","
","
","""event"",""trial"",""time""
""fullscreenenter"",""1"",""3878""
","
","","","","","","null","<div style=""font-size:60px;"">+</div>","null","","fixation","","",""
"memory-trial","50","192705","0.0-18.0-1.3","6271","approach_avoid_sv1","""event"",""trial"",""time""
""fullscreenenter"",""1"",""3878""
","
","
","""event"",""trial"",""time""
""fullscreenenter"",""1"",""3878""
","
","","","","","","1097.5999999940395","images/table3.png","","","memory_trial","1","definitely_old",""
"html-keyboard-response","51","193217","0.0-18.0-0.4","6271","approach_avoid_sv1","""event"",""trial"",""time""
""fullscreenenter"",""1"",""3878""
","
","
","""event"",""trial"",""time""
""fullscreenenter"",""1"",""3878""
","
","","","","","","null","<div style=""font-size:60px;"">+</div>","null","","fixation","","",""
"memory-trial","52","195645","0.0-18.0-1.4","6271","approach_avoid_sv1","""event"",""trial"",""time""
""fullscreenenter"",""1"",""3878""
","
","
","""event"",""trial"",""time""
""fullscreenenter"",""1"",""3878""
","
","","","","","","1421.2999999970198","images/rabbit5.png","","","memory_trial","1","definitely_old",""
"html-keyboard-response","53","196160","0.0-18.0-0.5","6271","approach_avoid_sv1","""event"",""trial"",""time""
""fullscreenenter"",""1"",""3878""
","
","
","""event"",""trial"",""time""
""fullscreenenter"",""1"",""3878""
","
","","","","","","null","<div style=""font-size:60px;"">+</div>","null","","fixation","","",""
"memory-trial","54","198544","0.0-18.0-1.5","6271","approach_avoid_sv1","""event"",""trial"",""time""
""fullscreenenter"",""1"",""3878""
","
","
","""event"",""trial"",""time""
""fullscreenenter"",""1"",""3878""
","
","","","","","","1370.1000000089407","images/bush5.png","","","memory_trial","4","definitely_new",""
"html-keyboard-response","55","199064","0.0-18.0-0.6","6271","approach_avoid_sv1","""event"",""trial"",""time""
""fullscreenenter"",""1"",""3878""
","
","
","""event"",""trial"",""time""
""fullscreenenter"",""1"",""3878""
","
","","","","","","null","<div style=""font-size:60px;"">+</div>","null","","fixation","","",""
"memory-trial","56","201926","0.0-18.0-1.6","6271","approach_avoid_sv1","""event"",""trial"",""time""
""fullscreenenter"",""1"",""3878""
","
","
","""event"",""trial"",""time""
""fullscreenenter"",""1"",""3878""
","
","","","","","","1847.1000000089407","images/boat1.png","","","memory_trial","2","maybe_old",""
"html-keyboard-response","57","202428","0.0-18.0-0.7","6271","approach_avoid_sv1","""event"",""trial"",""time""
""fullscreenenter"",""1"",""3878""
","
","
","""event"",""trial"",""time""
""fullscreenenter"",""1"",""3878""
","
","","","","","","null","<div style=""font-size:60px;"">+</div>","null","","fixation","","",""
"memory-trial","58","206211","0.0-18.0-1.7","6271","approach_avoid_sv1","""event"",""trial"",""time""
""fullscreenenter"",""1"",""3878""
","
","
","""event"",""trial"",""time""
""fullscreenenter"",""1"",""3878""
","
","","","","","","2772","images/table4.png","","","memory_trial","3","maybe_new",""
"html-keyboard-response","59","206715","0.0-18.0-0.8","6271","approach_avoid_sv1","""event"",""trial"",""time""
""fullscreenenter"",""1"",""3878""
","
","
","""event"",""trial"",""time""
""fullscreenenter"",""1"",""3878""
","
","","","","","","null","<div style=""font-size:60px;"">+</div>","null","","fixation","","",""
"memory-trial","60","209123","0.0-18.0-1.8","6271","approach_avoid_sv1","""event"",""trial"",""time""
""fullscreenenter"",""1"",""3878""
","
","
","""event"",""trial"",""time""
""fullscreenenter"",""1"",""3878""
","
","","","","","","1405.300000011921","images/sofa8.png","","","memory_trial","4","definitely_new",""
"html-keyboard-response","61","209624","0.0-18.0-0.9","6271","approach_avoid_sv1","""event"",""trial"",""time""
""fullscreenenter"",""1"",""3878""
","
","
","""event"",""trial"",""time""
""fullscreenenter"",""1"",""3878""
","
","","","","","","null","<div style=""font-size:60px;"">+</div>","null","","fixation","","",""
"memory-trial","62","211879","0.0-18.0-1.9","6271","approach_avoid_sv1","""event"",""trial"",""time""
""fullscreenenter"",""1"",""3878""
","
","
","""event"",""trial"",""time""
""fullscreenenter"",""1"",""3878""
","
","","","","","","1252.7999999970198","images/cactus8.png","","","memory_trial","4","definitely_new",""
"html-keyboard-response","63","212381","0.0-18.0-0.10","6271","approach_avoid_sv1","""event"",""trial"",""time""
""fullscreenenter"",""1"",""3878""
","
","
","""event"",""trial"",""time""
""fullscreenenter"",""1"",""3878""
","
","","","","","","null","<div style=""font-size:60px;"">+</div>","null","","fixation","","",""
"memory-trial","64","215181","0.0-18.0-1.10","6271","approach_avoid_sv1","""event"",""trial"",""time""
""fullscreenenter"",""1"",""3878""
","
","
","""event"",""trial"",""time""
""fullscreenenter"",""1"",""3878""
","
","","","","","","1797.5999999940395","images/dog5.png","","","memory_trial","2","maybe_old",""
"html-keyboard-response","65","215681","0.0-18.0-0.11","6271","approach_avoid_sv1","""event"",""trial"",""time""
""fullscreenenter"",""1"",""3878""
","
","
","""event"",""trial"",""time""
""fullscreenenter"",""1"",""3878""
","
","","","","","","null","<div style=""font-size:60px;"">+</div>","null","","fixation","","",""
"memory-trial","66","217956","0.0-18.0-1.11","6271","approach_avoid_sv1","""event"",""trial"",""time""
""fullscreenenter"",""1"",""3878""
","
","
","""event"",""trial"",""time""
""fullscreenenter"",""1"",""3878""
","
","","","","","","1269.9000000059605","images/train4.png","","","memory_trial","2","maybe_old",""
"html-keyboard-response","67","218457","0.0-18.0-0.12","6271","approach_avoid_sv1","""event"",""trial"",""time""
""fullscreenenter"",""1"",""3878""
","
","
","""event"",""trial"",""time""
""fullscreenenter"",""1"",""3878""
","
","","","","","","null","<div style=""font-size:60px;"">+</div>","null","","fixation","","",""
"memory-trial","68","220730","0.0-18.0-1.12","6271","approach_avoid_sv1","""event"",""trial"",""time""
""fullscreenenter"",""1"",""3878""
","
","
","""event"",""trial"",""time""
""fullscreenenter"",""1"",""3878""
","
","","","","","","1270.5","images/banana2.png","","","memory_trial","4","definitely_new",""
"html-keyboard-response","69","221231","0.0-18.0-0.13","6271","approach_avoid_sv1","""event"",""trial"",""time""
""fullscreenenter"",""1"",""3878""
","
","
","""event"",""trial"",""time""
""fullscreenenter"",""1"",""3878""
","
","","","","","","null","<div style=""font-size:60px;"">+</div>","null","","fixation","","",""
"memory-trial","70","223850","0.0-18.0-1.13","6271","approach_avoid_sv1","""event"",""trial"",""time""
""fullscreenenter"",""1"",""3878""
","
","
","""event"",""trial"",""time""
""fullscreenenter"",""1"",""3878""
","
","","","","","","1616.7999999970198","images/flower4.png","","","memory_trial","2","maybe_old",""
"html-keyboard-response","71","224351","0.0-18.0-0.14","6271","approach_avoid_sv1","""event"",""trial"",""time""
""fullscreenenter"",""1"",""3878""
","
","
","""event"",""trial"",""time""
""fullscreenenter"",""1"",""3878""
","
","","","","","","null","<div style=""font-size:60px;"">+</div>","null","","fixation","","",""
"memory-trial","72","226190","0.0-18.0-1.14","6271","approach_avoid_sv1","""event"",""trial"",""time""
""fullscreenenter"",""1"",""3878""
","
","
","""event"",""trial"",""time""
""fullscreenenter"",""1"",""3878""
","
","","","","","","836.2999999970198","images/bed6.png","","","memory_trial","1","definitely_old",""
"html-keyboard-response","73","226691","0.0-18.0-0.15","6271","approach_avoid_sv1","""event"",""trial"",""time""
""fullscreenenter"",""1"",""3878""
","
","
","""event"",""trial"",""time""
""fullscreenenter"",""1"",""3878""
","
","","","","","","null","<div style=""font-size:60px;"">+</div>","null","","fixation","","",""
"memory-trial","74","229492","0.0-18.0-1.15","6271","approach_avoid_sv1","""event"",""trial"",""time""
""fullscreenenter"",""1"",""3878""
","
","
","""event"",""trial"",""time""
""fullscreenenter"",""1"",""3878""
","
","","","","","","1798.1000000089407","images/banana3.png","","","memory_trial","4","definitely_new",""
"html-keyboard-response","75","229994","0.0-18.0-0.16","6271","approach_avoid_sv1","""event"",""trial"",""time""
""fullscreenenter"",""1"",""3878""
","
","
","""event"",""trial"",""time""
""fullscreenenter"",""1"",""3878""
","
","","","","","","null","<div style=""font-size:60px;"">+</div>","null","","fixation","","",""
"memory-trial","76","233085","0.0-18.0-1.16","6271","approach_avoid_sv1","""event"",""trial"",""time""
""fullscreenenter"",""1"",""3878""
","
","
","""event"",""trial"",""time""
""fullscreenenter"",""1"",""3878""
","
","","","","","","2088.2000000029802","images/goat4.png","","","memory_trial","3","maybe_new",""
"html-keyboard-response","77","233587","0.0-18.0-0.17","6271","approach_avoid_sv1","""event"",""trial"",""time""
""fullscreenenter"",""1"",""3878""
","
","
","""event"",""trial"",""time""
""fullscreenenter"",""1"",""3878""
","
","","","","","","null","<div style=""font-size:60px;"">+</div>","null","","fixation","","",""
"memory-trial","78","235703","0.0-18.0-1.17","6271","approach_avoid_sv1","""event"",""trial"",""time""
""fullscreenenter"",""1"",""3878""
","
","
","""event"",""trial"",""time""
""fullscreenenter"",""1"",""3878""
","
","","","","","","1114","images/orange3.png","","","memory_trial","1","definitely_old",""
"html-keyboard-response","79","236205","0.0-18.0-0.18","6271","approach_avoid_sv1","""event"",""trial"",""time""
""fullscreenenter"",""1"",""3878""
","
","
","""event"",""trial"",""time""
""fullscreenenter"",""1"",""3878""
","
","","","","","","null","<div style=""font-size:60px;"">+</div>","null","","fixation","","",""
"memory-trial","80","238091","0.0-18.0-1.18","6271","approach_avoid_sv1","""event"",""trial"",""time""
""fullscreenenter"",""1"",""3878""
","
","
","""event"",""trial"",""time""
""fullscreenenter"",""1"",""3878""
","
","","","","","","872.7000000029802","images/bush1.png","","","memory_trial","1","definitely_old",""
"html-keyboard-response","81","238592","0.0-18.0-0.19","6271","approach_avoid_sv1","""event"",""trial"",""time""
""fullscreenenter"",""1"",""3878""
","
","
","""event"",""trial"",""time""
""fullscreenenter"",""1"",""3878""
","
","","","","","","null","<div style=""font-size:60px;"">+</div>","null","","fixation","","",""
"memory-trial","82","241140","0.0-18.0-1.19","6271","approach_avoid_sv1","""event"",""trial"",""time""
""fullscreenenter"",""1"",""3878""
","
","
","""event"",""trial"",""time""
""fullscreenenter"",""1"",""3878""
","
","","","","","","1546.0999999940395","images/orange6.png","","","memory_trial","2","maybe_old",""
"html-keyboard-response","83","241642","0.0-18.0-0.20","6271","approach_avoid_sv1","""event"",""trial"",""time""
""fullscreenenter"",""1"",""3878""
","
","
","""event"",""trial"",""time""
""fullscreenenter"",""1"",""3878""
","
","","","","","","null","<div style=""font-size:60px;"">+</div>","null","","fixation","","",""
"memory-trial","84","245108","0.0-18.0-1.20","6271","approach_avoid_sv1","""event"",""trial"",""time""
""fullscreenenter"",""1"",""3878""
","
","
","""event"",""trial"",""time""
""fullscreenenter"",""1"",""3878""
","
","","","","","","2452.7999999970198","images/plane5.png","","","memory_trial","4","definitely_new",""
"html-keyboard-response","85","245609","0.0-18.0-0.21","6271","approach_avoid_sv1","""event"",""trial"",""time""
""fullscreenenter"",""1"",""3878""
","
","
","""event"",""trial"",""time""
""fullscreenenter"",""1"",""3878""
","
","","","","","","null","<div style=""font-size:60px;"">+</div>","null","","fixation","","",""
"memory-trial","86","248128","0.0-18.0-1.21","6271","approach_avoid_sv1","""event"",""trial"",""time""
""fullscreenenter"",""1"",""3878""
","
","
","""event"",""trial"",""time""
""fullscreenenter"",""1"",""3878""
","
","","","","","","1517","images/cow4.png","","","memory_trial","3","maybe_new",""
"html-keyboard-response","87","248629","0.0-18.0-0.22","6271","approach_avoid_sv1","""event"",""trial"",""time""
""fullscreenenter"",""1"",""3878""
","
","
","""event"",""trial"",""time""
""fullscreenenter"",""1"",""3878""
","
","","","","","","null","<div style=""font-size:60px;"">+</div>","null","","fixation","","",""
"memory-trial","88","251565","0.0-18.0-1.22","6271","approach_avoid_sv1","""event"",""trial"",""time""
""fullscreenenter"",""1"",""3878""
","
","
","""event"",""trial"",""time""
""fullscreenenter"",""1"",""3878""
","
","","","","","","1933.2999999970198","images/horse7.png","","","memory_trial","1","definitely_old",""
"html-keyboard-response","89","252066","0.0-18.0-0.23","6271","approach_avoid_sv1","""event"",""trial"",""time""
""fullscreenenter"",""1"",""3878""
","
","
","""event"",""trial"",""time""
""fullscreenenter"",""1"",""3878""
","
","","","","","","null","<div style=""font-size:60px;"">+</div>","null","","fixation","","",""
"memory-trial","90","253985","0.0-18.0-1.23","6271","approach_avoid_sv1","""event"",""trial"",""time""
""fullscreenenter"",""1"",""3878""
","
","
","""event"",""trial"",""time""
""fullscreenenter"",""1"",""3878""
","
","","","","","","916.1000000089407","images/sofa7.png","","","memory_trial","1","definitely_old",""
"html-keyboard-response","91","254487","0.0-18.0-0.24","6271","approach_avoid_sv1","""event"",""trial"",""time""
""fullscreenenter"",""1"",""3878""
","
","
","""event"",""trial"",""time""
""fullscreenenter"",""1"",""3878""
","
","","","","","","null","<div style=""font-size:60px;"">+</div>","null","","fixation","","",""
"memory-trial","92","257344","0.0-18.0-1.24","6271","approach_avoid_sv1","""event"",""trial"",""time""
""fullscreenenter"",""1"",""3878""
","
","
","""event"",""trial"",""time""
""fullscreenenter"",""1"",""3878""
","
","","","","","","1854.800000011921","images/straw6.png","","","memory_trial","1","definitely_old",""
"html-keyboard-response","93","257846","0.0-18.0-0.25","6271","approach_avoid_sv1","""event"",""trial"",""time""
""fullscreenenter"",""1"",""3878""
","
","
","""event"",""trial"",""time""
""fullscreenenter"",""1"",""3878""
","
","","","","","","null","<div style=""font-size:60px;"">+</div>","null","","fixation","","",""
"memory-trial","94","260216","0.0-18.0-1.25","6271","approach_avoid_sv1","""event"",""trial"",""time""
""fullscreenenter"",""1"",""3878""
","
","
","""event"",""trial"",""time""
""fullscreenenter"",""1"",""3878""
","
","","","","","","1353.7999999970198","images/rodent5.png","","","memory_trial","4","definitely_new",""
"html-keyboard-response","95","260717","0.0-18.0-0.26","6271","approach_avoid_sv1","""event"",""trial"",""time""
""fullscreenenter"",""1"",""3878""
","
","
","""event"",""trial"",""time""
""fullscreenenter"",""1"",""3878""
","
","","","","","","null","<div style=""font-size:60px;"">+</div>","null","","fixation","","",""
"memory-trial","96","262940","0.0-18.0-1.26","6271","approach_avoid_sv1","""event"",""trial"",""time""
""fullscreenenter"",""1"",""3878""
","
","
","""event"",""trial"",""time""
""fullscreenenter"",""1"",""3878""
","
","","","","","","1220.4000000059605","images/bush7.png","","","memory_trial","1","definitely_old",""
"html-keyboard-response","97","263442","0.0-18.0-0.27","6271","approach_avoid_sv1","""event"",""trial"",""time""
""fullscreenenter"",""1"",""3878""
","
","
","""event"",""trial"",""time""
""fullscreenenter"",""1"",""3878""
","
","","","","","","null","<div style=""font-size:60px;"">+</div>","null","","fixation","","",""
"memory-trial","98","265870","0.0-18.0-1.27","6271","approach_avoid_sv1","""event"",""trial"",""time""
""fullscreenenter"",""1"",""3878""
","
","
","""event"",""trial"",""time""
""fullscreenenter"",""1"",""3878""
","
","","","","","","1426.1000000089407","images/rodent2.png","","","memory_trial","4","definitely_new",""
"html-keyboard-response","99","266372","0.0-18.0-0.28","6271","approach_avoid_sv1","""event"",""trial"",""time""
""fullscreenenter"",""1"",""3878""
","
","
","""event"",""trial"",""time""
""fullscreenenter"",""1"",""3878""
","
","","","","","","null","<div style=""font-size:60px;"">+</div>","null","","fixation","","",""
"memory-trial","100","269671","0.0-18.0-1.28","6271","approach_avoid_sv1","""event"",""trial"",""time""
""fullscreenenter"",""1"",""3878""
","
","
","""event"",""trial"",""time""
""fullscreenenter"",""1"",""3878""
","
","","","","","","2295.8999999910593","images/cactus4.png","","","memory_trial","2","maybe_old",""
"html-keyboard-response","101","270173","0.0-18.0-0.29","6271","approach_avoid_sv1","""event"",""trial"",""time""
""fullscreenenter"",""1"",""3878""
","
","
","""event"",""trial"",""time""
""fullscreenenter"",""1"",""3878""
","
","","","","","","null","<div style=""font-size:60px;"">+</div>","null","","fixation","","",""
"memory-trial","102","272350","0.0-18.0-1.29","6271","approach_avoid_sv1","""event"",""trial"",""time""
""fullscreenenter"",""1"",""3878""
","
","
","""event"",""trial"",""time""
""fullscreenenter"",""1"",""3878""
","
","","","","","","1174.5","images/flower7.png","","","memory_trial","1","definitely_old",""
"html-keyboard-response","103","272851","0.0-18.0-0.30","6271","approach_avoid_sv1","""event"",""trial"",""time""
""fullscreenenter"",""1"",""3878""
","
","
","""event"",""trial"",""time""
""fullscreenenter"",""1"",""3878""
","
","","","","","","null","<div style=""font-size:60px;"">+</div>","null","","fixation","","",""
"memory-trial","104","275644","0.0-18.0-1.30","6271","approach_avoid_sv1","""event"",""trial"",""time""
""fullscreenenter"",""1"",""3878""
","
","
","""event"",""trial"",""time""
""fullscreenenter"",""1"",""3878""
","
","","","","","","1790.7999999970198","images/sheep2.png","","","memory_trial","4","definitely_new",""
"html-keyboard-response","105","276145","0.0-18.0-0.31","6271","approach_avoid_sv1","""event"",""trial"",""time""
""fullscreenenter"",""1"",""3878""
","
","
","""event"",""trial"",""time""
""fullscreenenter"",""1"",""3878""
","
","","","","","","null","<div style=""font-size:60px;"">+</div>","null","","fixation","","",""
"memory-trial","106","278349","0.0-18.0-1.31","6271","approach_avoid_sv1","""event"",""trial"",""time""
""fullscreenenter"",""1"",""3878""
","
","
","""event"",""trial"",""time""
""fullscreenenter"",""1"",""3878""
","
","","","","","","1201.1000000089407","images/boat6.png","","","memory_trial","2","maybe_old",""
"html-keyboard-response","107","278851","0.0-18.0-0.32","6271","approach_avoid_sv1","""event"",""trial"",""time""
""fullscreenenter"",""1"",""3878""
","
","
","""event"",""trial"",""time""
""fullscreenenter"",""1"",""3878""
","
","","","","","","null","<div style=""font-size:60px;"">+</div>","null","","fixation","","",""
"memory-trial","108","280485","0.0-18.0-1.32","6271","approach_avoid_sv1","""event"",""trial"",""time""
""fullscreenenter"",""1"",""3878""
","
","
","""event"",""trial"",""time""
""fullscreenenter"",""1"",""3878""
","
","","","","","","632.2999999970198","images/cow3.png","","","memory_trial","2","maybe_old",""
"html-keyboard-response","109","280986","0.0-18.0-0.33","6271","approach_avoid_sv1","""event"",""trial"",""time""
""fullscreenenter"",""1"",""3878""
","
","
","""event"",""trial"",""time""
""fullscreenenter"",""1"",""3878""
","
","","","","","","null","<div style=""font-size:60px;"">+</div>","null","","fixation","","",""
"memory-trial","110","283571","0.0-18.0-1.33","6271","approach_avoid_sv1","""event"",""trial"",""time""
""fullscreenenter"",""1"",""3878""
","
","
","""event"",""trial"",""time""
""fullscreenenter"",""1"",""3878""
","
","","","","","","1582","images/banana7.png","","","memory_trial","4","definitely_new",""
"html-keyboard-response","111","284073","0.0-18.0-0.34","6271","approach_avoid_sv1","""event"",""trial"",""time""
""fullscreenenter"",""1"",""3878""
","
","
","""event"",""trial"",""time""
""fullscreenenter"",""1"",""3878""
","
","","","","","","null","<div style=""font-size:60px;"">+</div>","null","","fixation","","",""
"memory-trial","112","286470","0.0-18.0-1.34","6271","approach_avoid_sv1","""event"",""trial"",""time""
""fullscreenenter"",""1"",""3878""
","
","
","""event"",""trial"",""time""
""fullscreenenter"",""1"",""3878""
","
","","","","","","1395.5","images/bush3.png","","","memory_trial","2","maybe_old",""
"html-keyboard-response","113","286972","0.0-18.0-0.35","6271","approach_avoid_sv1","""event"",""trial"",""time""
""fullscreenenter"",""1"",""3878""
","
","
","""event"",""trial"",""time""
""fullscreenenter"",""1"",""3878""
","
","","","","","","null","<div style=""font-size:60px;"">+</div>","null","","fixation","","",""
"memory-trial","114","289178","0.0-18.0-1.35","6271","approach_avoid_sv1","""event"",""trial"",""time""
""fullscreenenter"",""1"",""3878""
","
","
","""event"",""trial"",""time""
""fullscreenenter"",""1"",""3878""
","
","","","","","","1203.6000000089407","images/table7.png","","","memory_trial","1","definitely_old",""
"html-keyboard-response","115","289679","0.0-18.0-0.36","6271","approach_avoid_sv1","""event"",""trial"",""time""
""fullscreenenter"",""1"",""3878""
","
","
","""event"",""trial"",""time""
""fullscreenenter"",""1"",""3878""
","
","","","","","","null","<div style=""font-size:60px;"">+</div>","null","","fixation","","",""
"memory-trial","116","291960","0.0-18.0-1.36","6271","approach_avoid_sv1","""event"",""trial"",""time""
""fullscreenenter"",""1"",""3878""
","
","
","""event"",""trial"",""time""
""fullscreenenter"",""1"",""3878""
","
","","","","","","1278.4000000059605","images/plane7.png","","","memory_trial","4","definitely_new",""
"html-keyboard-response","117","292461","0.0-18.0-0.37","6271","approach_avoid_sv1","""event"",""trial"",""time""
""fullscreenenter"",""1"",""3878""
","
","
","""event"",""trial"",""time""
""fullscreenenter"",""1"",""3878""
","
","","","","","","null","<div style=""font-size:60px;"">+</div>","null","","fixation","","",""
"memory-trial","118","294735","0.0-18.0-1.37","6271","approach_avoid_sv1","""event"",""trial"",""time""
""fullscreenenter"",""1"",""3878""
","
","
","""event"",""trial"",""time""
""fullscreenenter"",""1"",""3878""
","
","","","","","","1270.2999999970198","images/straw1.png","","","memory_trial","4","definitely_new",""
"html-keyboard-response","119","295236","0.0-18.0-0.38","6271","approach_avoid_sv1","""event"",""trial"",""time""
""fullscreenenter"",""1"",""3878""
","
","
","""event"",""trial"",""time""
""fullscreenenter"",""1"",""3878""
","
","","","","","","null","<div style=""font-size:60px;"">+</div>","null","","fixation","","",""
"memory-trial","120","299200","0.0-18.0-1.38","6271","approach_avoid_sv1","""event"",""trial"",""time""
""fullscreenenter"",""1"",""3878""
","
","
","""event"",""trial"",""time""
""fullscreenenter"",""1"",""3878""
","
","","","","","","2962.0999999940395","images/cow1.png","","","memory_trial","3","maybe_new",""
"html-keyboard-response","121","299701","0.0-18.0-0.39","6271","approach_avoid_sv1","""event"",""trial"",""time""
""fullscreenenter"",""1"",""3878""
","
","
","""event"",""trial"",""time""
""fullscreenenter"",""1"",""3878""
","
","","","","","","null","<div style=""font-size:60px;"">+</div>","null","","fixation","","",""
"memory-trial","122","302343","0.0-18.0-1.39","6271","approach_avoid_sv1","""event"",""trial"",""time""
""fullscreenenter"",""1"",""3878""
","
","
","""event"",""trial"",""time""
""fullscreenenter"",""1"",""3878""
","
","","","","","","1639.1000000089407","images/boat2.png","","","memory_trial","3","maybe_new",""
"html-keyboard-response","123","302844","0.0-18.0-0.40","6271","approach_avoid_sv1","""event"",""trial"",""time""
""fullscreenenter"",""1"",""3878""
","
","
","""event"",""trial"",""time""
""fullscreenenter"",""1"",""3878""
","
","","","","","","null","<div style=""font-size:60px;"">+</div>","null","","fixation","","",""
"memory-trial","124","305166","0.0-18.0-1.40","6271","approach_avoid_sv1","""event"",""trial"",""time""
""fullscreenenter"",""1"",""3878""
","
","
","""event"",""trial"",""time""
""fullscreenenter"",""1"",""3878""
","
","","","","","","1320.4000000059605","images/tree6.png","","","memory_trial","4","definitely_new",""
"html-keyboard-response","125","305668","0.0-18.0-0.41","6271","approach_avoid_sv1","""event"",""trial"",""time""
""fullscreenenter"",""1"",""3878""
","
","
","""event"",""trial"",""time""
""fullscreenenter"",""1"",""3878""
","
","","","","","","null","<div style=""font-size:60px;"">+</div>","null","","fixation","","",""
"memory-trial","126","307747","0.0-18.0-1.41","6271","approach_avoid_sv1","""event"",""trial"",""time""
""fullscreenenter"",""1"",""3878""
","
","
","""event"",""trial"",""time""
""fullscreenenter"",""1"",""3878""
","
","","","","","","1076.7999999970198","images/goat8.png","","","memory_trial","3","maybe_new",""
"html-button-response","127","311101","0.0-18.0-2.41-0.41","6271","approach_avoid_sv1","""event"",""trial"",""time""
""fullscreenenter"",""1"",""3878""
","
","
","""event"",""trial"",""time""
""fullscreenenter"",""1"",""3878""
","
","","","","","","3352.5999999940395","<p> Take a break! </p><p> Click the button to continue. </p>","0","","break","","",""
"html-keyboard-response","128","311601","0.0-18.0-0.42","6271","approach_avoid_sv1","""event"",""trial"",""time""
""fullscreenenter"",""1"",""3878""
","
","
","""event"",""trial"",""time""
""fullscreenenter"",""1"",""3878""
","
","","","","","","null","<div style=""font-size:60px;"">+</div>","null","","fixation","","",""
"memory-trial","129","315134","0.0-18.0-1.42","6271","approach_avoid_sv1","""event"",""trial"",""time""
""fullscreenenter"",""1"",""3878""
","
","
","""event"",""trial"",""time""
""fullscreenenter"",""1"",""3878""
","
","","","","","","2529.7000000029802","images/horse2.png","","","memory_trial","4","definitely_new",""
"html-keyboard-response","130","315635","0.0-18.0-0.43","6271","approach_avoid_sv1","""event"",""trial"",""time""
""fullscreenenter"",""1"",""3878""
","
","
","""event"",""trial"",""time""
""fullscreenenter"",""1"",""3878""
","
","","","","","","null","<div style=""font-size:60px;"">+</div>","null","","fixation","","",""
"memory-trial","131","318035","0.0-18.0-1.43","6271","approach_avoid_sv1","""event"",""trial"",""time""
""fullscreenenter"",""1"",""3878""
","
","
","""event"",""trial"",""time""
""fullscreenenter"",""1"",""3878""
","
","","","","","","1388.2999999970198","images/rabbit6.png","","","memory_trial","2","maybe_old",""
"html-keyboard-response","132","318537","0.0-18.0-0.44","6271","approach_avoid_sv1","""event"",""trial"",""time""
""fullscreenenter"",""1"",""3878""
","
","
","""event"",""trial"",""time""
""fullscreenenter"",""1"",""3878""
","
","","","","","","null","<div style=""font-size:60px;"">+</div>","null","","fixation","","",""
"memory-trial","133","320794","0.0-18.0-1.44","6271","approach_avoid_sv1","""event"",""trial"",""time""
""fullscreenenter"",""1"",""3878""
","
","
","""event"",""trial"",""time""
""fullscreenenter"",""1"",""3878""
","
","","","","","","1255.5","images/plane8.png","","","memory_trial","4","definitely_new",""
"html-keyboard-response","134","321295","0.0-18.0-0.45","6271","approach_avoid_sv1","""event"",""trial"",""time""
""fullscreenenter"",""1"",""3878""
","
","
","""event"",""trial"",""time""
""fullscreenenter"",""1"",""3878""
","
","","","","","","null","<div style=""font-size:60px;"">+</div>","null","","fixation","","",""
"memory-trial","135","323742","0.0-18.0-1.45","6271","approach_avoid_sv1","""event"",""trial"",""time""
""fullscreenenter"",""1"",""3878""
","
","
","""event"",""trial"",""time""
""fullscreenenter"",""1"",""3878""
","
","","","","","","1445.7000000029802","images/dog1.png","","","memory_trial","2","maybe_old",""
"html-keyboard-response","136","324243","0.0-18.0-0.46","6271","approach_avoid_sv1","""event"",""trial"",""time""
""fullscreenenter"",""1"",""3878""
","
","
","""event"",""trial"",""time""
""fullscreenenter"",""1"",""3878""
","
","","","","","","null","<div style=""font-size:60px;"">+</div>","null","","fixation","","",""
"memory-trial","137","326619","0.0-18.0-1.46","6271","approach_avoid_sv1","""event"",""trial"",""time""
""fullscreenenter"",""1"",""3878""
","
","
","""event"",""trial"",""time""
""fullscreenenter"",""1"",""3878""
","
","","","","","","1373","images/cat3.png","","","memory_trial","1","definitely_old",""
"html-keyboard-response","138","327121","0.0-18.0-0.47","6271","approach_avoid_sv1","""event"",""trial"",""time""
""fullscreenenter"",""1"",""3878""
","
","
","""event"",""trial"",""time""
""fullscreenenter"",""1"",""3878""
","
","","","","","","null","<div style=""font-size:60px;"">+</div>","null","","fixation","","",""
"memory-trial","139","329047","0.0-18.0-1.47","6271","approach_avoid_sv1","""event"",""trial"",""time""
""fullscreenenter"",""1"",""3878""
","
","
","""event"",""trial"",""time""
""fullscreenenter"",""1"",""3878""
","
","","","","","","925.2000000029802","images/dog6.png","","","memory_trial","3","maybe_new",""
"html-keyboard-response","140","329549","0.0-18.0-0.48","6271","approach_avoid_sv1","""event"",""trial"",""time""
""fullscreenenter"",""1"",""3878""
","
","
","""event"",""trial"",""time""
""fullscreenenter"",""1"",""3878""
","
","","","","","","null","<div style=""font-size:60px;"">+</div>","null","","fixation","","",""
"memory-trial","141","332735","0.0-18.0-1.48","6271","approach_avoid_sv1","""event"",""trial"",""time""
""fullscreenenter"",""1"",""3878""
","
","
","""event"",""trial"",""time""
""fullscreenenter"",""1"",""3878""
","
","","","","","","2184.6000000089407","images/boat5.png","","","memory_trial","3","maybe_new",""
"html-keyboard-response","142","333237","0.0-18.0-0.49","6271","approach_avoid_sv1","""event"",""trial"",""time""
""fullscreenenter"",""1"",""3878""
","
","
","""event"",""trial"",""time""
""fullscreenenter"",""1"",""3878""
","
","","","","","","null","<div style=""font-size:60px;"">+</div>","null","","fixation","","",""
"memory-trial","143","335619","0.0-18.0-1.49","6271","approach_avoid_sv1","""event"",""trial"",""time""
""fullscreenenter"",""1"",""3878""
","
","
","""event"",""trial"",""time""
""fullscreenenter"",""1"",""3878""
","
","","","","","","1379.2999999970198","images/apple1.png","","","memory_trial","1","definitely_old",""
"html-keyboard-response","144","336120","0.0-18.0-0.50","6271","approach_avoid_sv1","""event"",""trial"",""time""
""fullscreenenter"",""1"",""3878""
","
","
","""event"",""trial"",""time""
""fullscreenenter"",""1"",""3878""
","
","","","","","","null","<div style=""font-size:60px;"">+</div>","null","","fixation","","",""
"memory-trial","145","338579","0.0-18.0-1.50","6271","approach_avoid_sv1","""event"",""trial"",""time""
""fullscreenenter"",""1"",""3878""
","
","
","""event"",""trial"",""time""
""fullscreenenter"",""1"",""3878""
","
","","","","","","1458.0999999940395","images/cat5.png","","","memory_trial","1","definitely_old",""
"html-keyboard-response","146","339081","0.0-18.0-0.51","6271","approach_avoid_sv1","""event"",""trial"",""time""
""fullscreenenter"",""1"",""3878""
","
","
","""event"",""trial"",""time""
""fullscreenenter"",""1"",""3878""
","
","","","","","","null","<div style=""font-size:60px;"">+</div>","null","","fixation","","",""
"memory-trial","147","341592","0.0-18.0-1.51","6271","approach_avoid_sv1","""event"",""trial"",""time""
""fullscreenenter"",""1"",""3878""
","
","
","""event"",""trial"",""time""
""fullscreenenter"",""1"",""3878""
","
","","","","","","1503.4000000059605","images/banana8.png","","","memory_trial","4","definitely_new",""
"html-keyboard-response","148","342093","0.0-18.0-0.52","6271","approach_avoid_sv1","""event"",""trial"",""time""
""fullscreenenter"",""1"",""3878""
","
","
","""event"",""trial"",""time""
""fullscreenenter"",""1"",""3878""
","
","","","","","","null","<div style=""font-size:60px;"">+</div>","null","","fixation","","",""
"memory-trial","149","344390","0.0-18.0-1.52","6271","approach_avoid_sv1","""event"",""trial"",""time""
""fullscreenenter"",""1"",""3878""
","
","
","""event"",""trial"",""time""
""fullscreenenter"",""1"",""3878""
","
","","","","","","1293.5999999940395","images/horse8.png","","","memory_trial","4","definitely_new",""
"html-keyboard-response","150","344892","0.0-18.0-0.53","6271","approach_avoid_sv1","""event"",""trial"",""time""
""fullscreenenter"",""1"",""3878""
","
","
","""event"",""trial"",""time""
""fullscreenenter"",""1"",""3878""
","
","","","","","","null","<div style=""font-size:60px;"">+</div>","null","","fixation","","",""
"memory-trial","151","347569","0.0-18.0-1.53","6271","approach_avoid_sv1","""event"",""trial"",""time""
""fullscreenenter"",""1"",""3878""
","
","
","""event"",""trial"",""time""
""fullscreenenter"",""1"",""3878""
","
","","","","","","1672.5999999940395","images/train6.png","","","memory_trial","1","definitely_old",""
"html-keyboard-response","152","348071","0.0-18.0-0.54","6271","approach_avoid_sv1","""event"",""trial"",""time""
""fullscreenenter"",""1"",""3878""
","
","
","""event"",""trial"",""time""
""fullscreenenter"",""1"",""3878""
","
","","","","","","null","<div style=""font-size:60px;"">+</div>","null","","fixation","","",""
"memory-trial","153","351050","0.0-18.0-1.54","6271","approach_avoid_sv1","""event"",""trial"",""time""
""fullscreenenter"",""1"",""3878""
","
","
","""event"",""trial"",""time""
""fullscreenenter"",""1"",""3878""
","
","","","","","","1976.800000011921","images/chair3.png","","","memory_trial","3","maybe_new",""
"html-keyboard-response","154","351551","0.0-18.0-0.55","6271","approach_avoid_sv1","""event"",""trial"",""time""
""fullscreenenter"",""1"",""3878""
","
","
","""event"",""trial"",""time""
""fullscreenenter"",""1"",""3878""
","
","","","","","","null","<div style=""font-size:60px;"">+</div>","null","","fixation","","",""
"memory-trial","155","354005","0.0-18.0-1.55","6271","approach_avoid_sv1","""event"",""trial"",""time""
""fullscreenenter"",""1"",""3878""
","
","
","""event"",""trial"",""time""
""fullscreenenter"",""1"",""3878""
","
","","","","","","1451.8999999910593","images/cactus5.png","","","memory_trial","1","definitely_old",""
"html-keyboard-response","156","354507","0.0-18.0-0.56","6271","approach_avoid_sv1","""event"",""trial"",""time""
""fullscreenenter"",""1"",""3878""
","
","
","""event"",""trial"",""time""
""fullscreenenter"",""1"",""3878""
","
","","","","","","null","<div style=""font-size:60px;"">+</div>","null","","fixation","","",""
"memory-trial","157","356618","0.0-18.0-1.56","6271","approach_avoid_sv1","""event"",""trial"",""time""
""fullscreenenter"",""1"",""3878""
","
","
","""event"",""trial"",""time""
""fullscreenenter"",""1"",""3878""
","
","","","","","","1110","images/truck8.png","","","memory_trial","1","definitely_old",""
"html-keyboard-response","158","357119","0.0-18.0-0.57","6271","approach_avoid_sv1","""event"",""trial"",""time""
""fullscreenenter"",""1"",""3878""
","
","
","""event"",""trial"",""time""
""fullscreenenter"",""1"",""3878""
","
","","","","","","null","<div style=""font-size:60px;"">+</div>","null","","fixation","","",""
"memory-trial","159","358999","0.0-18.0-1.57","6271","approach_avoid_sv1","""event"",""trial"",""time""
""fullscreenenter"",""1"",""3878""
","
","
","""event"",""trial"",""time""
""fullscreenenter"",""1"",""3878""
","
","","","","","","878.2000000029802","images/sheep7.png","","","memory_trial","2","maybe_old",""
"html-keyboard-response","160","359501","0.0-18.0-0.58","6271","approach_avoid_sv1","""event"",""trial"",""time""
""fullscreenenter"",""1"",""3878""
","
","
","""event"",""trial"",""time""
""fullscreenenter"",""1"",""3878""
","
","","","","","","null","<div style=""font-size:60px;"">+</div>","null","","fixation","","",""
"memory-trial","161","361512","0.0-18.0-1.58","6271","approach_avoid_sv1","""event"",""trial"",""time""
""fullscreenenter"",""1"",""3878""
","
","
","""event"",""trial"",""time""
""fullscreenenter"",""1"",""3878""
","
","","","","","","1008.2999999970198","images/cat8.png","","","memory_trial","3","maybe_new",""
"html-keyboard-response","162","362013","0.0-18.0-0.59","6271","approach_avoid_sv1","""event"",""trial"",""time""
""fullscreenenter"",""1"",""3878""
","
","
","""event"",""trial"",""time""
""fullscreenenter"",""1"",""3878""
","
","","","","","","null","<div style=""font-size:60px;"">+</div>","null","","fixation","","",""
"memory-trial","163","364876","0.0-18.0-1.59","6271","approach_avoid_sv1","""event"",""trial"",""time""
""fullscreenenter"",""1"",""3878""
","
","
","""event"",""trial"",""time""
""fullscreenenter"",""1"",""3878""
","
","","","","","","1861","images/tree7.png","","","memory_trial","4","definitely_new",""
"html-keyboard-response","164","365378","0.0-18.0-0.60","6271","approach_avoid_sv1","""event"",""trial"",""time""
""fullscreenenter"",""1"",""3878""
","
","
","""event"",""trial"",""time""
""fullscreenenter"",""1"",""3878""
","
","","","","","","null","<div style=""font-size:60px;"">+</div>","null","","fixation","","",""
"memory-trial","165","367652","0.0-18.0-1.60","6271","approach_avoid_sv1","""event"",""trial"",""time""
""fullscreenenter"",""1"",""3878""
","
","
","""event"",""trial"",""time""
""fullscreenenter"",""1"",""3878""
","
","","","","","","1271.8999999910593","images/tree3.png","","","memory_trial","4","definitely_new",""
"html-keyboard-response","166","368154","0.0-18.0-0.61","6271","approach_avoid_sv1","""event"",""trial"",""time""
""fullscreenenter"",""1"",""3878""
","
","
","""event"",""trial"",""time""
""fullscreenenter"",""1"",""3878""
","
","","","","","","null","<div style=""font-size:60px;"">+</div>","null","","fixation","","",""
"memory-trial","167","371510","0.0-18.0-1.61","6271","approach_avoid_sv1","""event"",""trial"",""time""
""fullscreenenter"",""1"",""3878""
","
","
","""event"",""trial"",""time""
""fullscreenenter"",""1"",""3878""
","
","","","","","","2354.0999999940395","images/sofa6.png","","","memory_trial","2","maybe_old",""
"html-keyboard-response","168","372011","0.0-18.0-0.62","6271","approach_avoid_sv1","""event"",""trial"",""time""
""fullscreenenter"",""1"",""3878""
","
","
","""event"",""trial"",""time""
""fullscreenenter"",""1"",""3878""
","
","","","","","","null","<div style=""font-size:60px;"">+</div>","null","","fixation","","",""
"memory-trial","169","374838","0.0-18.0-1.62","6271","approach_avoid_sv1","""event"",""trial"",""time""
""fullscreenenter"",""1"",""3878""
","
","
","""event"",""trial"",""time""
""fullscreenenter"",""1"",""3878""
","
","","","","","","1823.5999999940395","images/rodent8.png","","","memory_trial","4","definitely_new",""
"html-keyboard-response","170","375340","0.0-18.0-0.63","6271","approach_avoid_sv1","""event"",""trial"",""time""
""fullscreenenter"",""1"",""3878""
","
","
","""event"",""trial"",""time""
""fullscreenenter"",""1"",""3878""
","
","","","","","","null","<div style=""font-size:60px;"">+</div>","null","","fixation","","",""
"memory-trial","171","377372","0.0-18.0-1.63","6271","approach_avoid_sv1","""event"",""trial"",""time""
""fullscreenenter"",""1"",""3878""
","
","
","""event"",""trial"",""time""
""fullscreenenter"",""1"",""3878""
","
","","","","","","1024.7000000029802","images/sheep5.png","","","memory_trial","1","definitely_old",""
"html-keyboard-response","172","377873","0.0-18.0-0.64","6271","approach_avoid_sv1","""event"",""trial"",""time""
""fullscreenenter"",""1"",""3878""
","
","
","""event"",""trial"",""time""
""fullscreenenter"",""1"",""3878""
","
","","","","","","null","<div style=""font-size:60px;"">+</div>","null","","fixation","","",""
"memory-trial","173","379795","0.0-18.0-1.64","6271","approach_avoid_sv1","""event"",""trial"",""time""
""fullscreenenter"",""1"",""3878""
","
","
","""event"",""trial"",""time""
""fullscreenenter"",""1"",""3878""
","
","","","","","","919.9000000059605","images/cactus7.png","","","memory_trial","4","definitely_new",""
"html-keyboard-response","174","380296","0.0-18.0-0.65","6271","approach_avoid_sv1","""event"",""trial"",""time""
""fullscreenenter"",""1"",""3878""
","
","
","""event"",""trial"",""time""
""fullscreenenter"",""1"",""3878""
","
","","","","","","null","<div style=""font-size:60px;"">+</div>","null","","fixation","","",""
"memory-trial","175","382673","0.0-18.0-1.65","6271","approach_avoid_sv1","""event"",""trial"",""time""
""fullscreenenter"",""1"",""3878""
","
","
","""event"",""trial"",""time""
""fullscreenenter"",""1"",""3878""
","
","","","","","","1375.2999999970198","images/dog7.png","","","memory_trial","4","definitely_new",""
"html-keyboard-response","176","383174","0.0-18.0-0.66","6271","approach_avoid_sv1","""event"",""trial"",""time""
""fullscreenenter"",""1"",""3878""
","
","
","""event"",""trial"",""time""
""fullscreenenter"",""1"",""3878""
","
","","","","","","null","<div style=""font-size:60px;"">+</div>","null","","fixation","","",""
"memory-trial","177","385260","0.0-18.0-1.66","6271","approach_avoid_sv1","""event"",""trial"",""time""
""fullscreenenter"",""1"",""3878""
","
","
","""event"",""trial"",""time""
""fullscreenenter"",""1"",""3878""
","
","","","","","","1084.3999999910593","images/banana5.png","","","memory_trial","4","definitely_new",""
"html-keyboard-response","178","385762","0.0-18.0-0.67","6271","approach_avoid_sv1","""event"",""trial"",""time""
""fullscreenenter"",""1"",""3878""
","
","
","""event"",""trial"",""time""
""fullscreenenter"",""1"",""3878""
","
","","","","","","null","<div style=""font-size:60px;"">+</div>","null","","fixation","","",""
"memory-trial","179","388183","0.0-18.0-1.67","6271","approach_avoid_sv1","""event"",""trial"",""time""
""fullscreenenter"",""1"",""3878""
","
","
","""event"",""trial"",""time""
""fullscreenenter"",""1"",""3878""
","
","","","","","","1419.0999999940395","images/goat7.png","","","memory_trial","1","definitely_old",""
"html-keyboard-response","180","388684","0.0-18.0-0.68","6271","approach_avoid_sv1","""event"",""trial"",""time""
""fullscreenenter"",""1"",""3878""
","
","
","""event"",""trial"",""time""
""fullscreenenter"",""1"",""3878""
","
","","","","","","null","<div style=""font-size:60px;"">+</div>","null","","fixation","","",""
"memory-trial","181","391017","0.0-18.0-1.68","6271","approach_avoid_sv1","""event"",""trial"",""time""
""fullscreenenter"",""1"",""3878""
","
","
","""event"",""trial"",""time""
""fullscreenenter"",""1"",""3878""
","
","","","","","","1330.5","images/chair5.png","","","memory_trial","2","maybe_old",""
"html-keyboard-response","182","391519","0.0-18.0-0.69","6271","approach_avoid_sv1","""event"",""trial"",""time""
""fullscreenenter"",""1"",""3878""
","
","
","""event"",""trial"",""time""
""fullscreenenter"",""1"",""3878""
","
","","","","","","null","<div style=""font-size:60px;"">+</div>","null","","fixation","","",""
"memory-trial","183","393310","0.0-18.0-1.69","6271","approach_avoid_sv1","""event"",""trial"",""time""
""fullscreenenter"",""1"",""3878""
","
","
","""event"",""trial"",""time""
""fullscreenenter"",""1"",""3878""
","
","","","","","","789.2999999970198","images/bed3.png","","","memory_trial","1","definitely_old",""
"html-keyboard-response","184","393811","0.0-18.0-0.70","6271","approach_avoid_sv1","""event"",""trial"",""time""
""fullscreenenter"",""1"",""3878""
","
","
","""event"",""trial"",""time""
""fullscreenenter"",""1"",""3878""
","
","","","","","","null","<div style=""font-size:60px;"">+</div>","null","","fixation","","",""
"memory-trial","185","396230","0.0-18.0-1.70","6271","approach_avoid_sv1","""event"",""trial"",""time""
""fullscreenenter"",""1"",""3878""
","
","
","""event"",""trial"",""time""
""fullscreenenter"",""1"",""3878""
","
","","","","","","1417.4000000059605","images/plane3.png","","","memory_trial","4","definitely_new",""
"html-keyboard-response","186","396732","0.0-18.0-0.71","6271","approach_avoid_sv1","""event"",""trial"",""time""
""fullscreenenter"",""1"",""3878""
","
","
","""event"",""trial"",""time""
""fullscreenenter"",""1"",""3878""
","
","","","","","","null","<div style=""font-size:60px;"">+</div>","null","","fixation","","",""
"memory-trial","187","399496","0.0-18.0-1.71","6271","approach_avoid_sv1","""event"",""trial"",""time""
""fullscreenenter"",""1"",""3878""
","
","
","""event"",""trial"",""time""
""fullscreenenter"",""1"",""3878""
","
","","","","","","1761.6000000089407","images/tree8.png","","","memory_trial","3","maybe_new",""
"html-keyboard-response","188","399997","0.0-18.0-0.72","6271","approach_avoid_sv1","""event"",""trial"",""time""
""fullscreenenter"",""1"",""3878""
","
","
","""event"",""trial"",""time""
""fullscreenenter"",""1"",""3878""
","
","","","","","","null","<div style=""font-size:60px;"">+</div>","null","","fixation","","",""
"memory-trial","189","402060","0.0-18.0-1.72","6271","approach_avoid_sv1","""event"",""trial"",""time""
""fullscreenenter"",""1"",""3878""
","
","
","""event"",""trial"",""time""
""fullscreenenter"",""1"",""3878""
","
","","","","","","1060.2999999970198","images/bush6.png","","","memory_trial","1","definitely_old",""
"html-keyboard-response","190","402561","0.0-18.0-0.73","6271","approach_avoid_sv1","""event"",""trial"",""time""
""fullscreenenter"",""1"",""3878""
","
","
","""event"",""trial"",""time""
""fullscreenenter"",""1"",""3878""
","
","","","","","","null","<div style=""font-size:60px;"">+</div>","null","","fixation","","",""
"memory-trial","191","404318","0.0-18.0-1.73","6271","approach_avoid_sv1","""event"",""trial"",""time""
""fullscreenenter"",""1"",""3878""
","
","
","""event"",""trial"",""time""
""fullscreenenter"",""1"",""3878""
","
","","","","","","754.5","images/bed7.png","","","memory_trial","1","definitely_old",""
"html-keyboard-response","192","404819","0.0-18.0-0.74","6271","approach_avoid_sv1","""event"",""trial"",""time""
""fullscreenenter"",""1"",""3878""
","
","
","""event"",""trial"",""time""
""fullscreenenter"",""1"",""3878""
","
","","","","","","null","<div style=""font-size:60px;"">+</div>","null","","fixation","","",""
"memory-trial","193","407365","0.0-18.0-1.74","6271","approach_avoid_sv1","""event"",""trial"",""time""
""fullscreenenter"",""1"",""3878""
","
","
","""event"",""trial"",""time""
""fullscreenenter"",""1"",""3878""
","
","","","","","","1544.199999988079","images/flower2.png","","","memory_trial","2","maybe_old",""
"html-keyboard-response","194","407866","0.0-18.0-0.75","6271","approach_avoid_sv1","""event"",""trial"",""time""
""fullscreenenter"",""1"",""3878""
","
","
","""event"",""trial"",""time""
""fullscreenenter"",""1"",""3878""
","
","","","","","","null","<div style=""font-size:60px;"">+</div>","null","","fixation","","",""
"memory-trial","195","410016","0.0-18.0-1.75","6271","approach_avoid_sv1","""event"",""trial"",""time""
""fullscreenenter"",""1"",""3878""
","
","
","""event"",""trial"",""time""
""fullscreenenter"",""1"",""3878""
","
","","","","","","1147.6000000089407","images/chair7.png","","","memory_trial","3","maybe_new",""
"html-keyboard-response","196","410518","0.0-18.0-0.76","6271","approach_avoid_sv1","""event"",""trial"",""time""
""fullscreenenter"",""1"",""3878""
","
","
","""event"",""trial"",""time""
""fullscreenenter"",""1"",""3878""
","
","","","","","","null","<div style=""font-size:60px;"">+</div>","null","","fixation","","",""
"memory-trial","197","413842","0.0-18.0-1.76","6271","approach_avoid_sv1","""event"",""trial"",""time""
""fullscreenenter"",""1"",""3878""
","
","
","""event"",""trial"",""time""
""fullscreenenter"",""1"",""3878""
","
","","","","","","2321.9000000059605","images/sofa1.png","","","memory_trial","4","definitely_new",""
"html-keyboard-response","198","414342","0.0-18.0-0.77","6271","approach_avoid_sv1","""event"",""trial"",""time""
""fullscreenenter"",""1"",""3878""
","
","
","""event"",""trial"",""time""
""fullscreenenter"",""1"",""3878""
","
","","","","","","null","<div style=""font-size:60px;"">+</div>","null","","fixation","","",""
"memory-trial","199","417352","0.0-18.0-1.77","6271","approach_avoid_sv1","""event"",""trial"",""time""
""fullscreenenter"",""1"",""3878""
","
","
","""event"",""trial"",""time""
""fullscreenenter"",""1"",""3878""
","
","","","","","","2007.4000000059605","images/boat8.png","","","memory_trial","1","definitely_old",""
"html-keyboard-response","200","417852","0.0-18.0-0.78","6271","approach_avoid_sv1","""event"",""trial"",""time""
""fullscreenenter"",""1"",""3878""
","
","
","""event"",""trial"",""time""
""fullscreenenter"",""1"",""3878""
","
","","","","","","null","<div style=""font-size:60px;"">+</div>","null","","fixation","","",""
"memory-trial","201","420129","0.0-18.0-1.78","6271","approach_avoid_sv1","""event"",""trial"",""time""
""fullscreenenter"",""1"",""3878""
","
","
","""event"",""trial"",""time""
""fullscreenenter"",""1"",""3878""
","
","","","","","","1274.0999999940395","images/cat2.png","","","memory_trial","3","maybe_new",""
"html-keyboard-response","202","420630","0.0-18.0-0.79","6271","approach_avoid_sv1","""event"",""trial"",""time""
""fullscreenenter"",""1"",""3878""
","
","
","""event"",""trial"",""time""
""fullscreenenter"",""1"",""3878""
","
","","","","","","null","<div style=""font-size:60px;"">+</div>","null","","fixation","","",""
"memory-trial","203","423256","0.0-18.0-1.79","6271","approach_avoid_sv1","""event"",""trial"",""time""
""fullscreenenter"",""1"",""3878""
","
","
","""event"",""trial"",""time""
""fullscreenenter"",""1"",""3878""
","
","","","","","","1624.8999999910593","images/train5.png","","","memory_trial","4","definitely_new",""
"html-keyboard-response","204","423758","0.0-18.0-0.80","6271","approach_avoid_sv1","""event"",""trial"",""time""
""fullscreenenter"",""1"",""3878""
","
","
","""event"",""trial"",""time""
""fullscreenenter"",""1"",""3878""
","
","","","","","","null","<div style=""font-size:60px;"">+</div>","null","","fixation","","",""
"memory-trial","205","425956","0.0-18.0-1.80","6271","approach_avoid_sv1","""event"",""trial"",""time""
""fullscreenenter"",""1"",""3878""
","
","
","""event"",""trial"",""time""
""fullscreenenter"",""1"",""3878""
","
","","","","","","1195.5999999940395","images/orange2.png","","","memory_trial","1","definitely_old",""
"html-keyboard-response","206","426458","0.0-18.0-0.81","6271","approach_avoid_sv1","""event"",""trial"",""time""
""fullscreenenter"",""1"",""3878""
","
","
","""event"",""trial"",""time""
""fullscreenenter"",""1"",""3878""
","
","","","","","","null","<div style=""font-size:60px;"">+</div>","null","","fixation","","",""
"memory-trial","207","428701","0.0-18.0-1.81","6271","approach_avoid_sv1","""event"",""trial"",""time""
""fullscreenenter"",""1"",""3878""
","
","
","""event"",""trial"",""time""
""fullscreenenter"",""1"",""3878""
","
","","","","","","1240.7999999970198","images/train8.png","","","memory_trial","1","definitely_old",""
"html-keyboard-response","208","429203","0.0-18.0-0.82","6271","approach_avoid_sv1","""event"",""trial"",""time""
""fullscreenenter"",""1"",""3878""
","
","
","""event"",""trial"",""time""
""fullscreenenter"",""1"",""3878""
","
","","","","","","null","<div style=""font-size:60px;"">+</div>","null","","fixation","","",""
"memory-trial","209","431294","0.0-18.0-1.82","6271","approach_avoid_sv1","""event"",""trial"",""time""
""fullscreenenter"",""1"",""3878""
","
","
","""event"",""trial"",""time""
""fullscreenenter"",""1"",""3878""
","
","","","","","","1089.2000000029802","images/flower6.png","","","memory_trial","1","definitely_old",""
"html-keyboard-response","210","431796","0.0-18.0-0.83","6271","approach_avoid_sv1","""event"",""trial"",""time""
""fullscreenenter"",""1"",""3878""
","
","
","""event"",""trial"",""time""
""fullscreenenter"",""1"",""3878""
","
","","","","","","null","<div style=""font-size:60px;"">+</div>","null","","fixation","","",""
"memory-trial","211","433827","0.0-18.0-1.83","6271","approach_avoid_sv1","""event"",""trial"",""time""
""fullscreenenter"",""1"",""3878""
","
","
","""event"",""trial"",""time""
""fullscreenenter"",""1"",""3878""
","
","","","","","","1030","images/goat6.png","","","memory_trial","1","definitely_old",""
"html-keyboard-response","212","434330","0.0-18.0-0.84","6271","approach_avoid_sv1","""event"",""trial"",""time""
""fullscreenenter"",""1"",""3878""
""blur"",""213"",""435320""
","""event"",""trial"",""time""
""blur"",""213"",""435320""
","
","""event"",""trial"",""time""
""fullscreenenter"",""1"",""3878""
","
","","","","","","null","<div style=""font-size:60px;"">+</div>","null","","fixation","","",""
"memory-trial","213","436279","0.0-18.0-1.84","6271","approach_avoid_sv1","""event"",""trial"",""time""
""fullscreenenter"",""1"",""3878""
""blur"",""213"",""435320""
","""event"",""trial"",""time""
""blur"",""213"",""435320""
","
","""event"",""trial"",""time""
""fullscreenenter"",""1"",""3878""
","
","","","","","","945.9000000059605","images/horse1.png","","","memory_trial","4","definitely_new",""
"html-keyboard-response","214","436781","0.0-18.0-0.85","6271","approach_avoid_sv1","""event"",""trial"",""time""
""fullscreenenter"",""1"",""3878""
""blur"",""213"",""435320""
""focus"",""215"",""437602""
","""event"",""trial"",""time""
""blur"",""213"",""435320""
","""event"",""trial"",""time""
""focus"",""215"",""437602""
","""event"",""trial"",""time""
""fullscreenenter"",""1"",""3878""
","
","","","","","","null","<div style=""font-size:60px;"">+</div>","null","","fixation","","",""
"memory-trial","215","442173","0.0-18.0-1.85","6271","approach_avoid_sv1","""event"",""trial"",""time""
""fullscreenenter"",""1"",""3878""
""blur"",""213"",""435320""
""focus"",""215"",""437602""
","""event"",""trial"",""time""
""blur"",""213"",""435320""
","""event"",""trial"",""time""
""focus"",""215"",""437602""
","""event"",""trial"",""time""
""fullscreenenter"",""1"",""3878""
","
","","","","","","4389.9000000059605","images/bush4.png","","","memory_trial","4","definitely_new",""
"html-keyboard-response","216","442674","0.0-18.0-0.86","6271","approach_avoid_sv1","""event"",""trial"",""time""
""fullscreenenter"",""1"",""3878""
""blur"",""213"",""435320""
""focus"",""215"",""437602""
","""event"",""trial"",""time""
""blur"",""213"",""435320""
","""event"",""trial"",""time""
""focus"",""215"",""437602""
","""event"",""trial"",""time""
""fullscreenenter"",""1"",""3878""
","
","","","","","","null","<div style=""font-size:60px;"">+</div>","null","","fixation","","",""
"memory-trial","217","444599","0.0-18.0-1.86","6271","approach_avoid_sv1","""event"",""trial"",""time""
""fullscreenenter"",""1"",""3878""
""blur"",""213"",""435320""
""focus"",""215"",""437602""
","""event"",""trial"",""time""
""blur"",""213"",""435320""
","""event"",""trial"",""time""
""focus"",""215"",""437602""
","""event"",""trial"",""time""
""fullscreenenter"",""1"",""3878""
","
","","","","","","923.2000000029802","images/truck6.png","","","memory_trial","1","definitely_old",""
"html-keyboard-response","218","445101","0.0-18.0-0.87","6271","approach_avoid_sv1","""event"",""trial"",""time""
""fullscreenenter"",""1"",""3878""
""blur"",""213"",""435320""
""focus"",""215"",""437602""
","""event"",""trial"",""time""
""blur"",""213"",""435320""
","""event"",""trial"",""time""
""focus"",""215"",""437602""
","""event"",""trial"",""time""
""fullscreenenter"",""1"",""3878""
","
","","","","","","null","<div style=""font-size:60px;"">+</div>","null","","fixation","","",""
"memory-trial","219","448387","0.0-18.0-1.87","6271","approach_avoid_sv1","""event"",""trial"",""time""
""fullscreenenter"",""1"",""3878""
""blur"",""213"",""435320""
""focus"",""215"",""437602""
","""event"",""trial"",""time""
""blur"",""213"",""435320""
","""event"",""trial"",""time""
""focus"",""215"",""437602""
","""event"",""trial"",""time""
""fullscreenenter"",""1"",""3878""
","
","","","","","","2283.5","images/straw7.png","","","memory_trial","2","maybe_old",""
"html-keyboard-response","220","448888","0.0-18.0-0.88","6271","approach_avoid_sv1","""event"",""trial"",""time""
""fullscreenenter"",""1"",""3878""
""blur"",""213"",""435320""
""focus"",""215"",""437602""
","""event"",""trial"",""time""
""blur"",""213"",""435320""
","""event"",""trial"",""time""
""focus"",""215"",""437602""
","""event"",""trial"",""time""
""fullscreenenter"",""1"",""3878""
","
","","","","","","null","<div style=""font-size:60px;"">+</div>","null","","fixation","","",""
"memory-trial","221","452591","0.0-18.0-1.88","6271","approach_avoid_sv1","""event"",""trial"",""time""
""fullscreenenter"",""1"",""3878""
""blur"",""213"",""435320""
""focus"",""215"",""437602""
","""event"",""trial"",""time""
""blur"",""213"",""435320""
","""event"",""trial"",""time""
""focus"",""215"",""437602""
","""event"",""trial"",""time""
""fullscreenenter"",""1"",""3878""
","
","","","","","","2700","images/sofa3.png","","","memory_trial","3","maybe_new",""
"html-keyboard-response","222","453092","0.0-18.0-0.89","6271","approach_avoid_sv1","""event"",""trial"",""time""
""fullscreenenter"",""1"",""3878""
""blur"",""213"",""435320""
""focus"",""215"",""437602""
","""event"",""trial"",""time""
""blur"",""213"",""435320""
","""event"",""trial"",""time""
""focus"",""215"",""437602""
","""event"",""trial"",""time""
""fullscreenenter"",""1"",""3878""
","
","","","","","","null","<div style=""font-size:60px;"">+</div>","null","","fixation","","",""
"memory-trial","223","455189","0.0-18.0-1.89","6271","approach_avoid_sv1","""event"",""trial"",""time""
""fullscreenenter"",""1"",""3878""
""blur"",""213"",""435320""
""focus"",""215"",""437602""
","""event"",""trial"",""time""
""blur"",""213"",""435320""
","""event"",""trial"",""time""
""focus"",""215"",""437602""
","""event"",""trial"",""time""
""fullscreenenter"",""1"",""3878""
","
","","","","","","1095.1000000089407","images/orange1.png","","","memory_trial","3","maybe_new",""
"html-keyboard-response","224","455692","0.0-18.0-0.90","6271","approach_avoid_sv1","""event"",""trial"",""time""
""fullscreenenter"",""1"",""3878""
""blur"",""213"",""435320""
""focus"",""215"",""437602""
","""event"",""trial"",""time""
""blur"",""213"",""435320""
","""event"",""trial"",""time""
""focus"",""215"",""437602""
","""event"",""trial"",""time""
""fullscreenenter"",""1"",""3878""
","
","","","","","","null","<div style=""font-size:60px;"">+</div>","null","","fixation","","",""
"memory-trial","225","458111","0.0-18.0-1.90","6271","approach_avoid_sv1","""event"",""trial"",""time""
""fullscreenenter"",""1"",""3878""
""blur"",""213"",""435320""
""focus"",""215"",""437602""
","""event"",""trial"",""time""
""blur"",""213"",""435320""
","""event"",""trial"",""time""
""focus"",""215"",""437602""
","""event"",""trial"",""time""
""fullscreenenter"",""1"",""3878""
","
","","","","","","1418","images/rabbit1.png","","","memory_trial","4","definitely_new",""
"html-keyboard-response","226","458625","0.0-18.0-0.91","6271","approach_avoid_sv1","""event"",""trial"",""time""
""fullscreenenter"",""1"",""3878""
""blur"",""213"",""435320""
""focus"",""215"",""437602""
","""event"",""trial"",""time""
""blur"",""213"",""435320""
","""event"",""trial"",""time""
""focus"",""215"",""437602""
","""event"",""trial"",""time""
""fullscreenenter"",""1"",""3878""
","
","","","","","","null","<div style=""font-size:60px;"">+</div>","null","","fixation","","",""
"memory-trial","227","460779","0.0-18.0-1.91","6271","approach_avoid_sv1","""event"",""trial"",""time""
""fullscreenenter"",""1"",""3878""
""blur"",""213"",""435320""
""focus"",""215"",""437602""
","""event"",""trial"",""time""
""blur"",""213"",""435320""
","""event"",""trial"",""time""
""focus"",""215"",""437602""
","""event"",""trial"",""time""
""fullscreenenter"",""1"",""3878""
","
","","","","","","1151.7999999970198","images/straw8.png","","","memory_trial","4","definitely_new",""
"html-button-response","228","463596","0.0-18.0-2.91-0.91","6271","approach_avoid_sv1","""event"",""trial"",""time""
""fullscreenenter"",""1"",""3878""
""blur"",""213"",""435320""
""focus"",""215"",""437602""
","""event"",""trial"",""time""
""blur"",""213"",""435320""
","""event"",""trial"",""time""
""focus"",""215"",""437602""
","""event"",""trial"",""time""
""fullscreenenter"",""1"",""3878""
","
","","","","","","2816","<p> Take a break! </p><p> Click the button to continue. </p>","0","","break","","",""
"html-keyboard-response","229","464096","0.0-18.0-0.92","6271","approach_avoid_sv1","""event"",""trial"",""time""
""fullscreenenter"",""1"",""3878""
""blur"",""213"",""435320""
""focus"",""215"",""437602""
","""event"",""trial"",""time""
""blur"",""213"",""435320""
","""event"",""trial"",""time""
""focus"",""215"",""437602""
","""event"",""trial"",""time""
""fullscreenenter"",""1"",""3878""
","
","","","","","","null","<div style=""font-size:60px;"">+</div>","null","","fixation","","",""
"memory-trial","230","466345","0.0-18.0-1.92","6271","approach_avoid_sv1","""event"",""trial"",""time""
""fullscreenenter"",""1"",""3878""
""blur"",""213"",""435320""
""focus"",""215"",""437602""
","""event"",""trial"",""time""
""blur"",""213"",""435320""
","""event"",""trial"",""time""
""focus"",""215"",""437602""
","""event"",""trial"",""time""
""fullscreenenter"",""1"",""3878""
","
","","","","","","1247","images/dog3.png","","","memory_trial","1","definitely_old",""
"html-keyboard-response","231","466846","0.0-18.0-0.93","6271","approach_avoid_sv1","""event"",""trial"",""time""
""fullscreenenter"",""1"",""3878""
""blur"",""213"",""435320""
""focus"",""215"",""437602""
","""event"",""trial"",""time""
""blur"",""213"",""435320""
","""event"",""trial"",""time""
""focus"",""215"",""437602""
","""event"",""trial"",""time""
""fullscreenenter"",""1"",""3878""
","
","","","","","","null","<div style=""font-size:60px;"">+</div>","null","","fixation","","",""
"memory-trial","232","469981","0.0-18.0-1.93","6271","approach_avoid_sv1","""event"",""trial"",""time""
""fullscreenenter"",""1"",""3878""
""blur"",""213"",""435320""
""focus"",""215"",""437602""
","""event"",""trial"",""time""
""blur"",""213"",""435320""
","""event"",""trial"",""time""
""focus"",""215"",""437602""
","""event"",""trial"",""time""
""fullscreenenter"",""1"",""3878""
","
","","","","","","2133.0999999940395","images/orange5.png","","","memory_trial","3","maybe_new",""
"html-keyboard-response","233","470483","0.0-18.0-0.94","6271","approach_avoid_sv1","""event"",""trial"",""time""
""fullscreenenter"",""1"",""3878""
""blur"",""213"",""435320""
""focus"",""215"",""437602""
","""event"",""trial"",""time""
""blur"",""213"",""435320""
","""event"",""trial"",""time""
""focus"",""215"",""437602""
","""event"",""trial"",""time""
""fullscreenenter"",""1"",""3878""
","
","","","","","","null","<div style=""font-size:60px;"">+</div>","null","","fixation","","",""
"memory-trial","234","473247","0.0-18.0-1.94","6271","approach_avoid_sv1","""event"",""trial"",""time""
""fullscreenenter"",""1"",""3878""
""blur"",""213"",""435320""
""focus"",""215"",""437602""
","""event"",""trial"",""time""
""blur"",""213"",""435320""
","""event"",""trial"",""time""
""focus"",""215"",""437602""
","""event"",""trial"",""time""
""fullscreenenter"",""1"",""3878""
","
","","","","","","1760.5","images/bush8.png","","","memory_trial","3","maybe_new",""
"html-keyboard-response","235","473748","0.0-18.0-0.95","6271","approach_avoid_sv1","""event"",""trial"",""time""
""fullscreenenter"",""1"",""3878""
""blur"",""213"",""435320""
""focus"",""215"",""437602""
","""event"",""trial"",""time""
""blur"",""213"",""435320""
","""event"",""trial"",""time""
""focus"",""215"",""437602""
","""event"",""trial"",""time""
""fullscreenenter"",""1"",""3878""
","
","","","","","","null","<div style=""font-size:60px;"">+</div>","null","","fixation","","",""
"memory-trial","236","475863","0.0-18.0-1.95","6271","approach_avoid_sv1","""event"",""trial"",""time""
""fullscreenenter"",""1"",""3878""
""blur"",""213"",""435320""
""focus"",""215"",""437602""
","""event"",""trial"",""time""
""blur"",""213"",""435320""
","""event"",""trial"",""time""
""focus"",""215"",""437602""
","""event"",""trial"",""time""
""fullscreenenter"",""1"",""3878""
","
","","","","","","1112.8999999910593","images/rabbit7.png","","","memory_trial","3","maybe_new",""
"html-keyboard-response","237","476365","0.0-18.0-0.96","6271","approach_avoid_sv1","""event"",""trial"",""time""
""fullscreenenter"",""1"",""3878""
""blur"",""213"",""435320""
""focus"",""215"",""437602""
","""event"",""trial"",""time""
""blur"",""213"",""435320""
","""event"",""trial"",""time""
""focus"",""215"",""437602""
","""event"",""trial"",""time""
""fullscreenenter"",""1"",""3878""
","
","","","","","","null","<div style=""font-size:60px;"">+</div>","null","","fixation","","",""
"memory-trial","238","479070","0.0-18.0-1.96","6271","approach_avoid_sv1","""event"",""trial"",""time""
""fullscreenenter"",""1"",""3878""
""blur"",""213"",""435320""
""focus"",""215"",""437602""
","""event"",""trial"",""time""
""blur"",""213"",""435320""
","""event"",""trial"",""time""
""focus"",""215"",""437602""
","""event"",""trial"",""time""
""fullscreenenter"",""1"",""3878""
","
","","","","","","1702.3999999910593","images/apple6.png","","","memory_trial","2","maybe_old",""
"html-keyboard-response","239","479572","0.0-18.0-0.97","6271","approach_avoid_sv1","""event"",""trial"",""time""
""fullscreenenter"",""1"",""3878""
""blur"",""213"",""435320""
""focus"",""215"",""437602""
","""event"",""trial"",""time""
""blur"",""213"",""435320""
","""event"",""trial"",""time""
""focus"",""215"",""437602""
","""event"",""trial"",""time""
""fullscreenenter"",""1"",""3878""
","
","","","","","","null","<div style=""font-size:60px;"">+</div>","null","","fixation","","",""
"memory-trial","240","481813","0.0-18.0-1.97","6271","approach_avoid_sv1","""event"",""trial"",""time""
""fullscreenenter"",""1"",""3878""
""blur"",""213"",""435320""
""focus"",""215"",""437602""
","""event"",""trial"",""time""
""blur"",""213"",""435320""
","""event"",""trial"",""time""
""focus"",""215"",""437602""
","""event"",""trial"",""time""
""fullscreenenter"",""1"",""3878""
","
","","","","","","1239.0999999940395","images/sheep4.png","","","memory_trial","2","maybe_old",""
"html-keyboard-response","241","482315","0.0-18.0-0.98","6271","approach_avoid_sv1","""event"",""trial"",""time""
""fullscreenenter"",""1"",""3878""
""blur"",""213"",""435320""
""focus"",""215"",""437602""
","""event"",""trial"",""time""
""blur"",""213"",""435320""
","""event"",""trial"",""time""
""focus"",""215"",""437602""
","""event"",""trial"",""time""
""fullscreenenter"",""1"",""3878""
","
","","","","","","null","<div style=""font-size:60px;"">+</div>","null","","fixation","","",""
"memory-trial","242","484400","0.0-18.0-1.98","6271","approach_avoid_sv1","""event"",""trial"",""time""
""fullscreenenter"",""1"",""3878""
""blur"",""213"",""435320""
""focus"",""215"",""437602""
","""event"",""trial"",""time""
""blur"",""213"",""435320""
","""event"",""trial"",""time""
""focus"",""215"",""437602""
","""event"",""trial"",""time""
""fullscreenenter"",""1"",""3878""
","
","","","","","","1082.4000000059605","images/flower8.png","","","memory_trial","2","maybe_old",""
"html-keyboard-response","243","484902","0.0-18.0-0.99","6271","approach_avoid_sv1","""event"",""trial"",""time""
""fullscreenenter"",""1"",""3878""
""blur"",""213"",""435320""
""focus"",""215"",""437602""
","""event"",""trial"",""time""
""blur"",""213"",""435320""
","""event"",""trial"",""time""
""focus"",""215"",""437602""
","""event"",""trial"",""time""
""fullscreenenter"",""1"",""3878""
","
","","","","","","null","<div style=""font-size:60px;"">+</div>","null","","fixation","","",""
"memory-trial","244","487102","0.0-18.0-1.99","6271","approach_avoid_sv1","""event"",""trial"",""time""
""fullscreenenter"",""1"",""3878""
""blur"",""213"",""435320""
""focus"",""215"",""437602""
","""event"",""trial"",""time""
""blur"",""213"",""435320""
","""event"",""trial"",""time""
""focus"",""215"",""437602""
","""event"",""trial"",""time""
""fullscreenenter"",""1"",""3878""
","
","","","","","","1198.199999988079","images/apple2.png","","","memory_trial","1","definitely_old",""
"html-keyboard-response","245","487604","0.0-18.0-0.100","6271","approach_avoid_sv1","""event"",""trial"",""time""
""fullscreenenter"",""1"",""3878""
""blur"",""213"",""435320""
""focus"",""215"",""437602""
","""event"",""trial"",""time""
""blur"",""213"",""435320""
","""event"",""trial"",""time""
""focus"",""215"",""437602""
","""event"",""trial"",""time""
""fullscreenenter"",""1"",""3878""
","
","","","","","","null","<div style=""font-size:60px;"">+</div>","null","","fixation","","",""
"memory-trial","246","489347","0.0-18.0-1.100","6271","approach_avoid_sv1","""event"",""trial"",""time""
""fullscreenenter"",""1"",""3878""
""blur"",""213"",""435320""
""focus"",""215"",""437602""
","""event"",""trial"",""time""
""blur"",""213"",""435320""
","""event"",""trial"",""time""
""focus"",""215"",""437602""
","""event"",""trial"",""time""
""fullscreenenter"",""1"",""3878""
","
","","","","","","741.2000000029802","images/straw4.png","","","memory_trial","1","definitely_old",""
"html-keyboard-response","247","489849","0.0-18.0-0.101","6271","approach_avoid_sv1","""event"",""trial"",""time""
""fullscreenenter"",""1"",""3878""
""blur"",""213"",""435320""
""focus"",""215"",""437602""
","""event"",""trial"",""time""
""blur"",""213"",""435320""
","""event"",""trial"",""time""
""focus"",""215"",""437602""
","""event"",""trial"",""time""
""fullscreenenter"",""1"",""3878""
","
","","","","","","null","<div style=""font-size:60px;"">+</div>","null","","fixation","","",""
"memory-trial","248","492297","0.0-18.0-1.101","6271","approach_avoid_sv1","""event"",""trial"",""time""
""fullscreenenter"",""1"",""3878""
""blur"",""213"",""435320""
""focus"",""215"",""437602""
","""event"",""trial"",""time""
""blur"",""213"",""435320""
","""event"",""trial"",""time""
""focus"",""215"",""437602""
","""event"",""trial"",""time""
""fullscreenenter"",""1"",""3878""
","
","","","","","","1445.2000000029802","images/plane1.png","","","memory_trial","4","definitely_new",""
"html-keyboard-response","249","492797","0.0-18.0-0.102","6271","approach_avoid_sv1","""event"",""trial"",""time""
""fullscreenenter"",""1"",""3878""
""blur"",""213"",""435320""
""focus"",""215"",""437602""
","""event"",""trial"",""time""
""blur"",""213"",""435320""
","""event"",""trial"",""time""
""focus"",""215"",""437602""
","""event"",""trial"",""time""
""fullscreenenter"",""1"",""3878""
","
","","","","","","null","<div style=""font-size:60px;"">+</div>","null","","fixation","","",""
"memory-trial","250","495090","0.0-18.0-1.102","6271","approach_avoid_sv1","""event"",""trial"",""time""
""fullscreenenter"",""1"",""3878""
""blur"",""213"",""435320""
""focus"",""215"",""437602""
","""event"",""trial"",""time""
""blur"",""213"",""435320""
","""event"",""trial"",""time""
""focus"",""215"",""437602""
","""event"",""trial"",""time""
""fullscreenenter"",""1"",""3878""
","
","","","","","","1289.2000000029802","images/dog2.png","","","memory_trial","3","maybe_new",""
"html-keyboard-response","251","495590","0.0-18.0-0.103","6271","approach_avoid_sv1","""event"",""trial"",""time""
""fullscreenenter"",""1"",""3878""
""blur"",""213"",""435320""
""focus"",""215"",""437602""
","""event"",""trial"",""time""
""blur"",""213"",""435320""
","""event"",""trial"",""time""
""focus"",""215"",""437602""
","""event"",""trial"",""time""
""fullscreenenter"",""1"",""3878""
","
","","","","","","null","<div style=""font-size:60px;"">+</div>","null","","fixation","","",""
"memory-trial","252","499423","0.0-18.0-1.103","6271","approach_avoid_sv1","""event"",""trial"",""time""
""fullscreenenter"",""1"",""3878""
""blur"",""213"",""435320""
""focus"",""215"",""437602""
","""event"",""trial"",""time""
""blur"",""213"",""435320""
","""event"",""trial"",""time""
""focus"",""215"",""437602""
","""event"",""trial"",""time""
""fullscreenenter"",""1"",""3878""
","
","","","","","","2830.7000000029802","images/apple7.png","","","memory_trial","2","maybe_old",""
"html-keyboard-response","253","499924","0.0-18.0-0.104","6271","approach_avoid_sv1","""event"",""trial"",""time""
""fullscreenenter"",""1"",""3878""
""blur"",""213"",""435320""
""focus"",""215"",""437602""
","""event"",""trial"",""time""
""blur"",""213"",""435320""
","""event"",""trial"",""time""
""focus"",""215"",""437602""
","""event"",""trial"",""time""
""fullscreenenter"",""1"",""3878""
","
","","","","","","null","<div style=""font-size:60px;"">+</div>","null","","fixation","","",""
"memory-trial","254","501714","0.0-18.0-1.104","6271","approach_avoid_sv1","""event"",""trial"",""time""
""fullscreenenter"",""1"",""3878""
""blur"",""213"",""435320""
""focus"",""215"",""437602""
","""event"",""trial"",""time""
""blur"",""213"",""435320""
","""event"",""trial"",""time""
""focus"",""215"",""437602""
","""event"",""trial"",""time""
""fullscreenenter"",""1"",""3878""
","
","","","","","","788.2000000029802","images/table2.png","","","memory_trial","2","maybe_old",""
"html-keyboard-response","255","502216","0.0-18.0-0.105","6271","approach_avoid_sv1","""event"",""trial"",""time""
""fullscreenenter"",""1"",""3878""
""blur"",""213"",""435320""
""focus"",""215"",""437602""
","""event"",""trial"",""time""
""blur"",""213"",""435320""
","""event"",""trial"",""time""
""focus"",""215"",""437602""
","""event"",""trial"",""time""
""fullscreenenter"",""1"",""3878""
","
","","","","","","null","<div style=""font-size:60px;"">+</div>","null","","fixation","","",""
"memory-trial","256","504020","0.0-18.0-1.105","6271","approach_avoid_sv1","""event"",""trial"",""time""
""fullscreenenter"",""1"",""3878""
""blur"",""213"",""435320""
""focus"",""215"",""437602""
","""event"",""trial"",""time""
""blur"",""213"",""435320""
","""event"",""trial"",""time""
""focus"",""215"",""437602""
","""event"",""trial"",""time""
""fullscreenenter"",""1"",""3878""
","
","","","","","","802.5","images/train3.png","","","memory_trial","1","definitely_old",""
"html-keyboard-response","257","504522","0.0-18.0-0.106","6271","approach_avoid_sv1","""event"",""trial"",""time""
""fullscreenenter"",""1"",""3878""
""blur"",""213"",""435320""
""focus"",""215"",""437602""
","""event"",""trial"",""time""
""blur"",""213"",""435320""
","""event"",""trial"",""time""
""focus"",""215"",""437602""
","""event"",""trial"",""time""
""fullscreenenter"",""1"",""3878""
","
","","","","","","null","<div style=""font-size:60px;"">+</div>","null","","fixation","","",""
"memory-trial","258","506836","0.0-18.0-1.106","6271","approach_avoid_sv1","""event"",""trial"",""time""
""fullscreenenter"",""1"",""3878""
""blur"",""213"",""435320""
""focus"",""215"",""437602""
","""event"",""trial"",""time""
""blur"",""213"",""435320""
","""event"",""trial"",""time""
""focus"",""215"",""437602""
","""event"",""trial"",""time""
""fullscreenenter"",""1"",""3878""
","
","","","","","","1311.7999999970198","images/rodent3.png","","","memory_trial","4","definitely_new",""
"html-keyboard-response","259","507337","0.0-18.0-0.107","6271","approach_avoid_sv1","""event"",""trial"",""time""
""fullscreenenter"",""1"",""3878""
""blur"",""213"",""435320""
""focus"",""215"",""437602""
","""event"",""trial"",""time""
""blur"",""213"",""435320""
","""event"",""trial"",""time""
""focus"",""215"",""437602""
","""event"",""trial"",""time""
""fullscreenenter"",""1"",""3878""
","
","","","","","","null","<div style=""font-size:60px;"">+</div>","null","","fixation","","",""
"memory-trial","260","511907","0.0-18.0-1.107","6271","approach_avoid_sv1","""event"",""trial"",""time""
""fullscreenenter"",""1"",""3878""
""blur"",""213"",""435320""
""focus"",""215"",""437602""
","""event"",""trial"",""time""
""blur"",""213"",""435320""
","""event"",""trial"",""time""
""focus"",""215"",""437602""
","""event"",""trial"",""time""
""fullscreenenter"",""1"",""3878""
","
","","","","","","3569.3999999910593","images/cow6.png","","","memory_trial","4","definitely_new",""
"html-keyboard-response","261","512408","0.0-18.0-0.108","6271","approach_avoid_sv1","""event"",""trial"",""time""
""fullscreenenter"",""1"",""3878""
""blur"",""213"",""435320""
""focus"",""215"",""437602""
","""event"",""trial"",""time""
""blur"",""213"",""435320""
","""event"",""trial"",""time""
""focus"",""215"",""437602""
","""event"",""trial"",""time""
""fullscreenenter"",""1"",""3878""
","
","","","","","","null","<div style=""font-size:60px;"">+</div>","null","","fixation","","",""
"memory-trial","262","514124","0.0-18.0-1.108","6271","approach_avoid_sv1","""event"",""trial"",""time""
""fullscreenenter"",""1"",""3878""
""blur"",""213"",""435320""
""focus"",""215"",""437602""
","""event"",""trial"",""time""
""blur"",""213"",""435320""
","""event"",""trial"",""time""
""focus"",""215"",""437602""
","""event"",""trial"",""time""
""fullscreenenter"",""1"",""3878""
","
","","","","","","713.1000000089407","images/plane4.png","","","memory_trial","4","definitely_new",""
"html-keyboard-response","263","514626","0.0-18.0-0.109","6271","approach_avoid_sv1","""event"",""trial"",""time""
""fullscreenenter"",""1"",""3878""
""blur"",""213"",""435320""
""focus"",""215"",""437602""
","""event"",""trial"",""time""
""blur"",""213"",""435320""
","""event"",""trial"",""time""
""focus"",""215"",""437602""
","""event"",""trial"",""time""
""fullscreenenter"",""1"",""3878""
","
","","","","","","null","<div style=""font-size:60px;"">+</div>","null","","fixation","","",""
"memory-trial","264","516505","0.0-18.0-1.109","6271","approach_avoid_sv1","""event"",""trial"",""time""
""fullscreenenter"",""1"",""3878""
""blur"",""213"",""435320""
""focus"",""215"",""437602""
","""event"",""trial"",""time""
""blur"",""213"",""435320""
","""event"",""trial"",""time""
""focus"",""215"",""437602""
","""event"",""trial"",""time""
""fullscreenenter"",""1"",""3878""
","
","","","","","","877.5","images/truck5.png","","","memory_trial","1","definitely_old",""
"html-keyboard-response","265","517007","0.0-18.0-0.110","6271","approach_avoid_sv1","""event"",""trial"",""time""
""fullscreenenter"",""1"",""3878""
""blur"",""213"",""435320""
""focus"",""215"",""437602""
","""event"",""trial"",""time""
""blur"",""213"",""435320""
","""event"",""trial"",""time""
""focus"",""215"",""437602""
","""event"",""trial"",""time""
""fullscreenenter"",""1"",""3878""
","
","","","","","","null","<div style=""font-size:60px;"">+</div>","null","","fixation","","",""
"memory-trial","266","519138","0.0-18.0-1.110","6271","approach_avoid_sv1","""event"",""trial"",""time""
""fullscreenenter"",""1"",""3878""
""blur"",""213"",""435320""
""focus"",""215"",""437602""
","""event"",""trial"",""time""
""blur"",""213"",""435320""
","""event"",""trial"",""time""
""focus"",""215"",""437602""
","""event"",""trial"",""time""
""fullscreenenter"",""1"",""3878""
","
","","","","","","1129.5","images/sofa4.png","","","memory_trial","3","maybe_new",""
"html-keyboard-response","267","519639","0.0-18.0-0.111","6271","approach_avoid_sv1","""event"",""trial"",""time""
""fullscreenenter"",""1"",""3878""
""blur"",""213"",""435320""
""focus"",""215"",""437602""
","""event"",""trial"",""time""
""blur"",""213"",""435320""
","""event"",""trial"",""time""
""focus"",""215"",""437602""
","""event"",""trial"",""time""
""fullscreenenter"",""1"",""3878""
","
","","","","","","null","<div style=""font-size:60px;"">+</div>","null","","fixation","","",""
"memory-trial","268","522211","0.0-18.0-1.111","6271","approach_avoid_sv1","""event"",""trial"",""time""
