"trial_type","trial_index","time_elapsed","internal_node_id","subject_id","task_version","interactions","blur_events","focus_events","fullscreenenter_events","fullscreenexit_events","success","timeout","failed_images","failed_audio","failed_video","rt","stimulus","response","button_pressed","task_part","key_press","answer","correct"
"pavlovia","0","9","0.0-0.0","5383","approach_avoid_sv1","""event"",""trial"",""time""
""fullscreenenter"",""1"",""9995""
","
","
","""event"",""trial"",""time""
""fullscreenenter"",""1"",""9995""
","
","","","","","","","","","","","","",""
"fullscreen","1","10982","0.0-1.0","5383","approach_avoid_sv1","""event"",""trial"",""time""
""fullscreenenter"",""1"",""9995""
","
","
","""event"",""trial"",""time""
""fullscreenenter"",""1"",""9995""
","
","true","","","","","","","","","","","",""
"preload","2","24674","0.0-2.0","5383","approach_avoid_sv1","""event"",""trial"",""time""
""fullscreenenter"",""1"",""9995""
","
","
","""event"",""trial"",""time""
""fullscreenenter"",""1"",""9995""
","
","true","false","[]","[]","[]","","","","","","","",""
"preload","3","39853","0.0-3.0","5383","approach_avoid_sv1","""event"",""trial"",""time""
""fullscreenenter"",""1"",""9995""
","
","
","""event"",""trial"",""time""
""fullscreenenter"",""1"",""9995""
","
","true","false","[]","[]","[]","","","","","","","",""
"preload","4","40659","0.0-4.0","5383","approach_avoid_sv1","""event"",""trial"",""time""
""fullscreenenter"",""1"",""9995""
","
","
","""event"",""trial"",""time""
""fullscreenenter"",""1"",""9995""
","
","true","false","[]","[]","[]","","","","","","","",""
"audio-keyboard-response","5","43413","0.0-5.0","5383","approach_avoid_sv1","""event"",""trial"",""time""
""fullscreenenter"",""1"",""9995""
","
","
","""event"",""trial"",""time""
""fullscreenenter"",""1"",""9995""
","
","","","","","","2751.5646258503402","audio/beep_loop.wav"," ","","","","",""
"audio-button-response","6","44951","0.0-6.0","5383","approach_avoid_sv1","""event"",""trial"",""time""
""fullscreenenter"",""1"",""9995""
","
","
","""event"",""trial"",""time""
""fullscreenenter"",""1"",""9995""
","
","","","","","","1538","audio/turtle.wav","3","","","","",""
"audio-button-response","7","47657","0.0-7.0","5383","approach_avoid_sv1","""event"",""trial"",""time""
""fullscreenenter"",""1"",""9995""
","
","
","""event"",""trial"",""time""
""fullscreenenter"",""1"",""9995""
","
","","","","","","1707","audio/shark.wav","2","","","","",""
"preload","8","69812","0.0-8.0","5383","approach_avoid_sv1","""event"",""trial"",""time""
""fullscreenenter"",""1"",""9995""
","
","
","""event"",""trial"",""time""
""fullscreenenter"",""1"",""9995""
","
","true","false","[]","[]","[]","","","","","","","",""
"learning-instructions","9","76803","0.0-9.0-0.0","5383","approach_avoid_sv1","""event"",""trial"",""time""
""fullscreenenter"",""1"",""9995""
","
","
","""event"",""trial"",""time""
""fullscreenenter"",""1"",""9995""
","
","","","","","","2511.9000000059605","<p> Welcome back! </p><p> Last week, you had to make choices about lots of different items.  </p>","","0","instructions","","",""
"learning-instructions","10","81833","0.0-9.0-0.1","5383","approach_avoid_sv1","""event"",""trial"",""time""
""fullscreenenter"",""1"",""9995""
","
","
","""event"",""trial"",""time""
""fullscreenenter"",""1"",""9995""
","
","","","","","","913.2999999970198","<p> Today, we are going to ask you to try to remember all the items. </p>","","0","instructions","","",""
"learning-instructions","11","92390","0.0-9.0-0.2","5383","approach_avoid_sv1","""event"",""trial"",""time""
""fullscreenenter"",""1"",""9995""
","
","
","""event"",""trial"",""time""
""fullscreenenter"",""1"",""9995""
","
","","","","","","423","<p> On every trial, you will see an image. </p><p> The image may be an OLD image you saw during the games last week or it may be a NEW image that was not presented. </p>","","0","instructions","","",""
"learning-instructions","12","101292","0.0-9.0-0.3","5383","approach_avoid_sv1","""event"",""trial"",""time""
""fullscreenenter"",""1"",""9995""
","
","
","""event"",""trial"",""time""
""fullscreenenter"",""1"",""9995""
","
","","","","","","402.1000000014901","<p> You need to select whether the image is:  </p><p>  'Definitely old', 'Maybe old', 'Maybe new', or 'Definitely new.'  </p><div class=""mem-choice-instructions-grid""><div class=""choice-option"" id=""choice-option-1"" ><img src=""images/definitely_old_1.png"" id=""choice-option-img-1"" class=""choice-option-img"" stage=""1""></div><div class=""choice-option"" id=""choice-option-2"" ><img src=""images/maybe_old_1.png"" id=""choice-option-img-2"" class=""choice-option-img"" stage=""1""></div><div class=""choice-option"" id=""choice-option-3"" ><img src=""images/maybe_new_1.png"" id=""choice-option-img-3"" class=""choice-option-img"" stage=""1""></div><div class=""choice-option"" id=""choice-option-4"" > <img src=""images/definitely_new_1.png"" id=""choice-option-img-4"" class=""choice-option-img"" stage=""1""></div></div>","","0","instructions","","",""
"learning-instructions","13","108270","0.0-9.0-0.4","5383","approach_avoid_sv1","""event"",""trial"",""time""
""fullscreenenter"",""1"",""9995""
","
","
","""event"",""trial"",""time""
""fullscreenenter"",""1"",""9995""
","
","","","","","","465.8999999985099","<p> You should use the 1, 2, 3, and 4 keys to make your responses.  </p><div class=""mem-choice-instructions-grid""><div class=""choice-option"" id=""choice-option-1"" ><img src=""images/definitely_old.png"" id=""choice-option-img-1"" class=""choice-option-img"" stage=""1""></div><div class=""choice-option"" id=""choice-option-2"" ><img src=""images/maybe_old.png"" id=""choice-option-img-2"" class=""choice-option-img"" stage=""1""></div><div class=""choice-option"" id=""choice-option-3"" ><img src=""images/maybe_new.png"" id=""choice-option-img-3"" class=""choice-option-img"" stage=""1""></div><div class=""choice-option"" id=""choice-option-4"" > <img src=""images/definitely_new.png"" id=""choice-option-img-4"" class=""choice-option-img"" stage=""1""></div></div>","","0","instructions","","",""
"learning-instructions","14","115321","0.0-9.0-0.5","5383","approach_avoid_sv1","""event"",""trial"",""time""
""fullscreenenter"",""1"",""9995""
","
","
","""event"",""trial"",""time""
""fullscreenenter"",""1"",""9995""
","
","","","","","","725.1000000014901","<p> You will have 10 seconds to make each response.  </p><p>  Make sure to respond before time runs out! </p>","","0","instructions","","",""
"learning-instructions","15","123442","0.0-9.0-0.6","5383","approach_avoid_sv1","""event"",""trial"",""time""
""fullscreenenter"",""1"",""9995""
","
","
","""event"",""trial"",""time""
""fullscreenenter"",""1"",""9995""
","
","","","","","","1049.6000000014901","<p> Today, you will see each image ONCE only.  </p><p>  That means none of the images will repeat. </p>","","0","instructions","","",""
"learning-instructions","16","137310","0.0-9.0-0.7","5383","approach_avoid_sv1","""event"",""trial"",""time""
""fullscreenenter"",""1"",""9995""
","
","
","""event"",""trial"",""time""
""fullscreenenter"",""1"",""9995""
","
","","","","","","1206.3000000044703","<p> Before you play the real game, it is time to practice. </p><p>  Just like in the real game, some of the images in the practice will be ones you have seen before. </p><p>  Others will be entirely new. </p>","","0","instructions","","",""
"html-button-response","17","141854","0.0-10.0","5383","approach_avoid_sv1","""event"",""trial"",""time""
""fullscreenenter"",""1"",""9995""
","
","
","""event"",""trial"",""time""
""fullscreenenter"",""1"",""9995""
","
","","","","","","4438.39999999851","<p> Ready to practice? </p><p> Remember, use the 1, 2, 3, and 4 keys to make your responses. </p>","0","","instructions","","",""
"html-keyboard-response","18","142463","0.0-11.0-0.0","5383","approach_avoid_sv1","""event"",""trial"",""time""
""fullscreenenter"",""1"",""9995""
","
","
","""event"",""trial"",""time""
""fullscreenenter"",""1"",""9995""
","
","","","","","","null","<div style=""font-size:60px;"">+</div>","null","","fixation","","",""
"memory-trial","19","145476","0.0-11.0-1.0","5383","approach_avoid_sv1","""event"",""trial"",""time""
""fullscreenenter"",""1"",""9995""
","
","
","""event"",""trial"",""time""
""fullscreenenter"",""1"",""9995""
","
","","","","","","2005.3999999985099","images/ball1.png","","","practice","4","definitely_new",""
"html-keyboard-response","20","145979","0.0-11.0-0.1","5383","approach_avoid_sv1","""event"",""trial"",""time""
""fullscreenenter"",""1"",""9995""
","
","
","""event"",""trial"",""time""
""fullscreenenter"",""1"",""9995""
","
","","","","","","null","<div style=""font-size:60px;"">+</div>","null","","fixation","","",""
"memory-trial","21","148752","0.0-11.0-1.1","5383","approach_avoid_sv1","""event"",""trial"",""time""
""fullscreenenter"",""1"",""9995""
","
","
","""event"",""trial"",""time""
""fullscreenenter"",""1"",""9995""
","
","","","","","","1770.7000000029802","images/racket3.png","","","practice","1","definitely_old",""
"html-keyboard-response","22","149254","0.0-11.0-0.2","5383","approach_avoid_sv1","""event"",""trial"",""time""
""fullscreenenter"",""1"",""9995""
","
","
","""event"",""trial"",""time""
""fullscreenenter"",""1"",""9995""
","
","","","","","","null","<div style=""font-size:60px;"">+</div>","null","","fixation","","",""
"memory-trial","23","151367","0.0-11.0-1.2","5383","approach_avoid_sv1","""event"",""trial"",""time""
""fullscreenenter"",""1"",""9995""
","
","
","""event"",""trial"",""time""
""fullscreenenter"",""1"",""9995""
","
","","","","","","1107.8999999985099","images/ball3.png","","","practice","1","definitely_old",""
"html-keyboard-response","24","151873","0.0-11.0-0.3","5383","approach_avoid_sv1","""event"",""trial"",""time""
""fullscreenenter"",""1"",""9995""
","
","
","""event"",""trial"",""time""
""fullscreenenter"",""1"",""9995""
","
","","","","","","null","<div style=""font-size:60px;"">+</div>","null","","fixation","","",""
"memory-trial","25","154315","0.0-11.0-1.3","5383","approach_avoid_sv1","""event"",""trial"",""time""
""fullscreenenter"",""1"",""9995""
","
","
","""event"",""trial"",""time""
""fullscreenenter"",""1"",""9995""
","
","","","","","","1437.3999999985099","images/racket5.png","","","practice","2","maybe_old",""
"html-keyboard-response","26","154819","0.0-11.0-0.4","5383","approach_avoid_sv1","""event"",""trial"",""time""
""fullscreenenter"",""1"",""9995""
","
","
","""event"",""trial"",""time""
""fullscreenenter"",""1"",""9995""
","
","","","","","","null","<div style=""font-size:60px;"">+</div>","null","","fixation","","",""
"memory-trial","27","157282","0.0-11.0-1.4","5383","approach_avoid_sv1","""event"",""trial"",""time""
""fullscreenenter"",""1"",""9995""
","
","
","""event"",""trial"",""time""
""fullscreenenter"",""1"",""9995""
","
","","","","","","1456.7999999970198","images/racket2.png","","","practice","2","maybe_old",""
"html-keyboard-response","28","157786","0.0-11.0-0.5","5383","approach_avoid_sv1","""event"",""trial"",""time""
""fullscreenenter"",""1"",""9995""
","
","
","""event"",""trial"",""time""
""fullscreenenter"",""1"",""9995""
","
","","","","","","null","<div style=""font-size:60px;"">+</div>","null","","fixation","","",""
"memory-trial","29","160580","0.0-11.0-1.5","5383","approach_avoid_sv1","""event"",""trial"",""time""
""fullscreenenter"",""1"",""9995""
","
","
","""event"",""trial"",""time""
""fullscreenenter"",""1"",""9995""
","
","","","","","","1788.5999999940395","images/racket1.png","","","practice","1","definitely_old",""
"html-keyboard-response","30","161081","0.0-11.0-0.6","5383","approach_avoid_sv1","""event"",""trial"",""time""
""fullscreenenter"",""1"",""9995""
","
","
","""event"",""trial"",""time""
""fullscreenenter"",""1"",""9995""
","
","","","","","","null","<div style=""font-size:60px;"">+</div>","null","","fixation","","",""
"memory-trial","31","163270","0.0-11.0-1.6","5383","approach_avoid_sv1","""event"",""trial"",""time""
""fullscreenenter"",""1"",""9995""
","
","
","""event"",""trial"",""time""
""fullscreenenter"",""1"",""9995""
","
","","","","","","1186.6999999955297","images/ball5.png","","","practice","1","definitely_old",""
"html-keyboard-response","32","163772","0.0-11.0-0.7","5383","approach_avoid_sv1","""event"",""trial"",""time""
""fullscreenenter"",""1"",""9995""
","
","
","""event"",""trial"",""time""
""fullscreenenter"",""1"",""9995""
","
","","","","","","null","<div style=""font-size:60px;"">+</div>","null","","fixation","","",""
"memory-trial","33","165546","0.0-11.0-1.7","5383","approach_avoid_sv1","""event"",""trial"",""time""
""fullscreenenter"",""1"",""9995""
","
","
","""event"",""trial"",""time""
""fullscreenenter"",""1"",""9995""
","
","","","","","","768.3999999985099","images/ball2.png","","","practice","1","definitely_old",""
"learning-instructions","34","174359","0.0-12.0-0.0","5383","approach_avoid_sv1","""event"",""trial"",""time""
""fullscreenenter"",""1"",""9995""
","
","
","""event"",""trial"",""time""
""fullscreenenter"",""1"",""9995""
","
","","","","","","1508.6000000014901","<p> Great! You have completed the practice. </p><p> Before you start, we're going to ask you a few questions about how the game works.  </p>","","0","instructions","","",""
"preload","35","185078","0.0-13.0","5383","approach_avoid_sv1","""event"",""trial"",""time""
""fullscreenenter"",""1"",""9995""
","
","
","""event"",""trial"",""time""
""fullscreenenter"",""1"",""9995""
","
","true","false","[]","[]","[]","","","","","","","",""
"comp-q","36","191839","0.0-14.0-0.0","5383","approach_avoid_sv1","""event"",""trial"",""time""
""fullscreenenter"",""1"",""9995""
","
","
","""event"",""trial"",""time""
""fullscreenenter"",""1"",""9995""
","
","","","","","","921.9000000059605","<p> <b> True or False? </b> </p><p> In this game, you will only see each image once. </p>","","0","comp_question","","","true"
"comp-q","37","200226","0.0-14.0-1.0","5383","approach_avoid_sv1","""event"",""trial"",""time""
""fullscreenenter"",""1"",""9995""
","
","
","""event"",""trial"",""time""
""fullscreenenter"",""1"",""9995""
","
","","","","","","2053.2999999970198","<p> <b> That's right! </b> You will see many different images <i> one time each </i> in this game. </p>","","0","comp_answer","","",""
"comp-q","38","205644","0.0-15.0-0.0","5383","approach_avoid_sv1","""event"",""trial"",""time""
""fullscreenenter"",""1"",""9995""
","
","
","""event"",""trial"",""time""
""fullscreenenter"",""1"",""9995""
","
","","","","","","406.3999999985099","<p> <b> True or False? </b> </p><p> You should use the mouse and click to make your response. </p>","","1","comp_question","","","true"
"comp-q","39","213078","0.0-15.0-1.0","5383","approach_avoid_sv1","""event"",""trial"",""time""
""fullscreenenter"",""1"",""9995""
","
","
","""event"",""trial"",""time""
""fullscreenenter"",""1"",""9995""
","
","","","","","","932.2000000029802","<p><b> That's right! </b> You should use the '1', '2', '3', and '4' keys to make your response. </p>","","0","comp_answer","","",""
"comp-q","40","219520","0.0-16.0-0.0","5383","approach_avoid_sv1","""event"",""trial"",""time""
""fullscreenenter"",""1"",""9995""
","
","
","""event"",""trial"",""time""
""fullscreenenter"",""1"",""9995""
","
","","","","","","767.5","<p> <b> True or False? </b> </p><p> You will have as much time as you want to make each choice. </p>","","1","comp_question","","","true"
"comp-q","41","225526","0.0-16.0-1.0","5383","approach_avoid_sv1","""event"",""trial"",""time""
""fullscreenenter"",""1"",""9995""
","
","
","""event"",""trial"",""time""
""fullscreenenter"",""1"",""9995""
","
","","","","","","1311.6000000014901","<p> <b> That's right! </b> You will only have 10 seconds to make each choice. </p>","","0","comp_answer","","",""
"learning-instructions","42","235451","0.0-17.0","5383","approach_avoid_sv1","""event"",""trial"",""time""
""fullscreenenter"",""1"",""9995""
","
","
","""event"",""trial"",""time""
""fullscreenenter"",""1"",""9995""
","
","","","","","","1249.6000000014901","<p> Great! You are now ready to begin the game. </p><p> Remember, use the 1, 2, 3, and 4 keys to make your responses. </p>","","0","instructions","","",""
"html-keyboard-response","43","236057","0.0-18.0-0.0","5383","approach_avoid_sv1","""event"",""trial"",""time""
""fullscreenenter"",""1"",""9995""
","
","
","""event"",""trial"",""time""
""fullscreenenter"",""1"",""9995""
","
","","","","","","null","<div style=""font-size:60px;"">+</div>","null","","fixation","","",""
"memory-trial","44","239341","0.0-18.0-1.0","5383","approach_avoid_sv1","""event"",""trial"",""time""
""fullscreenenter"",""1"",""9995""
","
","
","""event"",""trial"",""time""
""fullscreenenter"",""1"",""9995""
","
","","","","","","2278","images/table3.png","","","memory_trial","4","definitely_new",""
"html-keyboard-response","45","239843","0.0-18.0-0.1","5383","approach_avoid_sv1","""event"",""trial"",""time""
""fullscreenenter"",""1"",""9995""
","
","
","""event"",""trial"",""time""
""fullscreenenter"",""1"",""9995""
","
","","","","","","null","<div style=""font-size:60px;"">+</div>","null","","fixation","","",""
"memory-trial","46","242460","0.0-18.0-1.1","5383","approach_avoid_sv1","""event"",""trial"",""time""
""fullscreenenter"",""1"",""9995""
","
","
","""event"",""trial"",""time""
""fullscreenenter"",""1"",""9995""
","
","","","","","","1612.8999999985099","images/orange3.png","","","memory_trial","4","definitely_new",""
"html-keyboard-response","47","242964","0.0-18.0-0.2","5383","approach_avoid_sv1","""event"",""trial"",""time""
""fullscreenenter"",""1"",""9995""
","
","
","""event"",""trial"",""time""
""fullscreenenter"",""1"",""9995""
","
","","","","","","null","<div style=""font-size:60px;"">+</div>","null","","fixation","","",""
"memory-trial","48","244747","0.0-18.0-1.2","5383","approach_avoid_sv1","""event"",""trial"",""time""
""fullscreenenter"",""1"",""9995""
","
","
","""event"",""trial"",""time""
""fullscreenenter"",""1"",""9995""
","
","","","","","","778.3000000044703","images/flower6.png","","","memory_trial","4","definitely_new",""
"html-keyboard-response","49","245251","0.0-18.0-0.3","5383","approach_avoid_sv1","""event"",""trial"",""time""
""fullscreenenter"",""1"",""9995""
","
","
","""event"",""trial"",""time""
""fullscreenenter"",""1"",""9995""
","
","","","","","","null","<div style=""font-size:60px;"">+</div>","null","","fixation","","",""
"memory-trial","50","247632","0.0-18.0-1.3","5383","approach_avoid_sv1","""event"",""trial"",""time""
""fullscreenenter"",""1"",""9995""
","
","
","""event"",""trial"",""time""
""fullscreenenter"",""1"",""9995""
","
","","","","","","1375","images/truck2.png","","","memory_trial","1","definitely_old",""
"html-keyboard-response","51","248137","0.0-18.0-0.4","5383","approach_avoid_sv1","""event"",""trial"",""time""
""fullscreenenter"",""1"",""9995""
","
","
","""event"",""trial"",""time""
""fullscreenenter"",""1"",""9995""
","
","","","","","","null","<div style=""font-size:60px;"">+</div>","null","","fixation","","",""
"memory-trial","52","251201","0.0-18.0-1.4","5383","approach_avoid_sv1","""event"",""trial"",""time""
""fullscreenenter"",""1"",""9995""
","
","
","""event"",""trial"",""time""
""fullscreenenter"",""1"",""9995""
","
","","","","","","2057.2000000029802","images/chair8.png","","","memory_trial","4","definitely_new",""
"html-keyboard-response","53","251706","0.0-18.0-0.5","5383","approach_avoid_sv1","""event"",""trial"",""time""
""fullscreenenter"",""1"",""9995""
","
","
","""event"",""trial"",""time""
""fullscreenenter"",""1"",""9995""
","
","","","","","","null","<div style=""font-size:60px;"">+</div>","null","","fixation","","",""
"memory-trial","54","253414","0.0-18.0-1.5","5383","approach_avoid_sv1","""event"",""trial"",""time""
""fullscreenenter"",""1"",""9995""
","
","
","""event"",""trial"",""time""
""fullscreenenter"",""1"",""9995""
","
","","","","","","704.1000000014901","images/table8.png","","","memory_trial","4","definitely_new",""
"html-keyboard-response","55","253917","0.0-18.0-0.6","5383","approach_avoid_sv1","""event"",""trial"",""time""
""fullscreenenter"",""1"",""9995""
","
","
","""event"",""trial"",""time""
""fullscreenenter"",""1"",""9995""
","
","","","","","","null","<div style=""font-size:60px;"">+</div>","null","","fixation","","",""
"memory-trial","56","255802","0.0-18.0-1.6","5383","approach_avoid_sv1","""event"",""trial"",""time""
""fullscreenenter"",""1"",""9995""
","
","
","""event"",""trial"",""time""
""fullscreenenter"",""1"",""9995""
","
","","","","","","881.5","images/rabbit6.png","","","memory_trial","1","definitely_old",""
"html-keyboard-response","57","256306","0.0-18.0-0.7","5383","approach_avoid_sv1","""event"",""trial"",""time""
""fullscreenenter"",""1"",""9995""
","
","
","""event"",""trial"",""time""
""fullscreenenter"",""1"",""9995""
","
","","","","","","null","<div style=""font-size:60px;"">+</div>","null","","fixation","","",""
"memory-trial","58","258189","0.0-18.0-1.7","5383","approach_avoid_sv1","""event"",""trial"",""time""
""fullscreenenter"",""1"",""9995""
","
","
","""event"",""trial"",""time""
""fullscreenenter"",""1"",""9995""
","
","","","","","","881.2999999970198","images/cat5.png","","","memory_trial","1","definitely_old",""
"html-keyboard-response","59","258692","0.0-18.0-0.8","5383","approach_avoid_sv1","""event"",""trial"",""time""
""fullscreenenter"",""1"",""9995""
","
","
","""event"",""trial"",""time""
""fullscreenenter"",""1"",""9995""
","
","","","","","","null","<div style=""font-size:60px;"">+</div>","null","","fixation","","",""
"memory-trial","60","260570","0.0-18.0-1.8","5383","approach_avoid_sv1","""event"",""trial"",""time""
""fullscreenenter"",""1"",""9995""
","
","
","""event"",""trial"",""time""
""fullscreenenter"",""1"",""9995""
","
","","","","","","874.6000000014901","images/rabbit2.png","","","memory_trial","1","definitely_old",""
"html-keyboard-response","61","261073","0.0-18.0-0.9","5383","approach_avoid_sv1","""event"",""trial"",""time""
""fullscreenenter"",""1"",""9995""
","
","
","""event"",""trial"",""time""
""fullscreenenter"",""1"",""9995""
","
","","","","","","null","<div style=""font-size:60px;"">+</div>","null","","fixation","","",""
"memory-trial","62","263065","0.0-18.0-1.9","5383","approach_avoid_sv1","""event"",""trial"",""time""
""fullscreenenter"",""1"",""9995""
","
","
","""event"",""trial"",""time""
""fullscreenenter"",""1"",""9995""
","
","","","","","","987.8000000044703","images/goat4.png","","","memory_trial","4","definitely_new",""
"html-keyboard-response","63","263567","0.0-18.0-0.10","5383","approach_avoid_sv1","""event"",""trial"",""time""
""fullscreenenter"",""1"",""9995""
","
","
","""event"",""trial"",""time""
""fullscreenenter"",""1"",""9995""
","
","","","","","","null","<div style=""font-size:60px;"">+</div>","null","","fixation","","",""
"memory-trial","64","266484","0.0-18.0-1.10","5383","approach_avoid_sv1","""event"",""trial"",""time""
""fullscreenenter"",""1"",""9995""
","
","
","""event"",""trial"",""time""
""fullscreenenter"",""1"",""9995""
","
","","","","","","1913.1000000014901","images/rabbit1.png","","","memory_trial","1","definitely_old",""
"html-keyboard-response","65","266987","0.0-18.0-0.11","5383","approach_avoid_sv1","""event"",""trial"",""time""
""fullscreenenter"",""1"",""9995""
","
","
","""event"",""trial"",""time""
""fullscreenenter"",""1"",""9995""
","
","","","","","","null","<div style=""font-size:60px;"">+</div>","null","","fixation","","",""
"memory-trial","66","268840","0.0-18.0-1.11","5383","approach_avoid_sv1","""event"",""trial"",""time""
""fullscreenenter"",""1"",""9995""
","
","
","""event"",""trial"",""time""
""fullscreenenter"",""1"",""9995""
","
","","","","","","846.1999999955297","images/train2.png","","","memory_trial","1","definitely_old",""
"html-keyboard-response","67","269345","0.0-18.0-0.12","5383","approach_avoid_sv1","""event"",""trial"",""time""
""fullscreenenter"",""1"",""9995""
","
","
","""event"",""trial"",""time""
""fullscreenenter"",""1"",""9995""
","
","","","","","","null","<div style=""font-size:60px;"">+</div>","null","","fixation","","",""
"memory-trial","68","271372","0.0-18.0-1.12","5383","approach_avoid_sv1","""event"",""trial"",""time""
""fullscreenenter"",""1"",""9995""
","
","
","""event"",""trial"",""time""
""fullscreenenter"",""1"",""9995""
","
","","","","","","1023.7999999970198","images/bush2.png","","","memory_trial","4","definitely_new",""
"html-keyboard-response","69","271875","0.0-18.0-0.13","5383","approach_avoid_sv1","""event"",""trial"",""time""
""fullscreenenter"",""1"",""9995""
","
","
","""event"",""trial"",""time""
""fullscreenenter"",""1"",""9995""
","
","","","","","","null","<div style=""font-size:60px;"">+</div>","null","","fixation","","",""
"memory-trial","70","273928","0.0-18.0-1.13","5383","approach_avoid_sv1","""event"",""trial"",""time""
""fullscreenenter"",""1"",""9995""
","
","
","""event"",""trial"",""time""
""fullscreenenter"",""1"",""9995""
","
","","","","","","1047.3000000044703","images/plane1.png","","","memory_trial","4","definitely_new",""
"html-keyboard-response","71","274432","0.0-18.0-0.14","5383","approach_avoid_sv1","""event"",""trial"",""time""
""fullscreenenter"",""1"",""9995""
","
","
","""event"",""trial"",""time""
""fullscreenenter"",""1"",""9995""
","
","","","","","","null","<div style=""font-size:60px;"">+</div>","null","","fixation","","",""
"memory-trial","72","276278","0.0-18.0-1.14","5383","approach_avoid_sv1","""event"",""trial"",""time""
""fullscreenenter"",""1"",""9995""
","
","
","""event"",""trial"",""time""
""fullscreenenter"",""1"",""9995""
","
","","","","","","842.3999999985099","images/truck8.png","","","memory_trial","1","definitely_old",""
"html-keyboard-response","73","276783","0.0-18.0-0.15","5383","approach_avoid_sv1","""event"",""trial"",""time""
""fullscreenenter"",""1"",""9995""
","
","
","""event"",""trial"",""time""
""fullscreenenter"",""1"",""9995""
","
","","","","","","null","<div style=""font-size:60px;"">+</div>","null","","fixation","","",""
"memory-trial","74","278574","0.0-18.0-1.15","5383","approach_avoid_sv1","""event"",""trial"",""time""
""fullscreenenter"",""1"",""9995""
","
","
","""event"",""trial"",""time""
""fullscreenenter"",""1"",""9995""
","
","","","","","","785.8999999985099","images/apple6.png","","","memory_trial","4","definitely_new",""
"html-keyboard-response","75","279079","0.0-18.0-0.16","5383","approach_avoid_sv1","""event"",""trial"",""time""
""fullscreenenter"",""1"",""9995""
","
","
","""event"",""trial"",""time""
""fullscreenenter"",""1"",""9995""
","
","","","","","","null","<div style=""font-size:60px;"">+</div>","null","","fixation","","",""
"memory-trial","76","280660","0.0-18.0-1.16","5383","approach_avoid_sv1","""event"",""trial"",""time""
""fullscreenenter"",""1"",""9995""
","
","
","""event"",""trial"",""time""
""fullscreenenter"",""1"",""9995""
","
","","","","","","577.5999999940395","images/boat8.png","","","memory_trial","1","definitely_old",""
"html-keyboard-response","77","281166","0.0-18.0-0.17","5383","approach_avoid_sv1","""event"",""trial"",""time""
""fullscreenenter"",""1"",""9995""
","
","
","""event"",""trial"",""time""
""fullscreenenter"",""1"",""9995""
","
","","","","","","null","<div style=""font-size:60px;"">+</div>","null","","fixation","","",""
"memory-trial","78","282181","0.0-18.0-1.17","5383","approach_avoid_sv1","""event"",""trial"",""time""
""fullscreenenter"",""1"",""9995""
","
","
","""event"",""trial"",""time""
""fullscreenenter"",""1"",""9995""
","
","","","","","","9.100000001490116","images/cactus5.png","","","memory_trial","1","definitely_old",""
"html-keyboard-response","79","282684","0.0-18.0-0.18","5383","approach_avoid_sv1","""event"",""trial"",""time""
""fullscreenenter"",""1"",""9995""
","
","
","""event"",""trial"",""time""
""fullscreenenter"",""1"",""9995""
","
","","","","","","null","<div style=""font-size:60px;"">+</div>","null","","fixation","","",""
"memory-trial","80","283908","0.0-18.0-1.18","5383","approach_avoid_sv1","""event"",""trial"",""time""
""fullscreenenter"",""1"",""9995""
","
","
","""event"",""trial"",""time""
""fullscreenenter"",""1"",""9995""
","
","","","","","","217.5","images/sheep3.png","","","memory_trial","1","definitely_old",""
"html-keyboard-response","81","284413","0.0-18.0-0.19","5383","approach_avoid_sv1","""event"",""trial"",""time""
""fullscreenenter"",""1"",""9995""
","
","
","""event"",""trial"",""time""
""fullscreenenter"",""1"",""9995""
","
","","","","","","null","<div style=""font-size:60px;"">+</div>","null","","fixation","","",""
"memory-trial","82","285576","0.0-18.0-1.19","5383","approach_avoid_sv1","""event"",""trial"",""time""
""fullscreenenter"",""1"",""9995""
","
","
","""event"",""trial"",""time""
""fullscreenenter"",""1"",""9995""
","
","","","","","","156.39999999850988","images/apple4.png","","","memory_trial","1","definitely_old",""
"html-keyboard-response","83","286081","0.0-18.0-0.20","5383","approach_avoid_sv1","""event"",""trial"",""time""
""fullscreenenter"",""1"",""9995""
","
","
","""event"",""trial"",""time""
""fullscreenenter"",""1"",""9995""
","
","","","","","","null","<div style=""font-size:60px;"">+</div>","null","","fixation","","",""
"memory-trial","84","287700","0.0-18.0-1.20","5383","approach_avoid_sv1","""event"",""trial"",""time""
""fullscreenenter"",""1"",""9995""
","
","
","""event"",""trial"",""time""
""fullscreenenter"",""1"",""9995""
","
","","","","","","616.6000000014901","images/horse5.png","","","memory_trial","3","maybe_new",""
"html-keyboard-response","85","288205","0.0-18.0-0.21","5383","approach_avoid_sv1","""event"",""trial"",""time""
""fullscreenenter"",""1"",""9995""
","
","
","""event"",""trial"",""time""
""fullscreenenter"",""1"",""9995""
","
","","","","","","null","<div style=""font-size:60px;"">+</div>","null","","fixation","","",""
"memory-trial","86","289505","0.0-18.0-1.21","5383","approach_avoid_sv1","""event"",""trial"",""time""
""fullscreenenter"",""1"",""9995""
","
","
","""event"",""trial"",""time""
""fullscreenenter"",""1"",""9995""
","
","","","","","","298.29999999701977","images/cactus6.png","","","memory_trial","3","maybe_new",""
"html-keyboard-response","87","290011","0.0-18.0-0.22","5383","approach_avoid_sv1","""event"",""trial"",""time""
""fullscreenenter"",""1"",""9995""
","
","
","""event"",""trial"",""time""
""fullscreenenter"",""1"",""9995""
","
","","","","","","null","<div style=""font-size:60px;"">+</div>","null","","fixation","","",""
"memory-trial","88","291224","0.0-18.0-1.22","5383","approach_avoid_sv1","""event"",""trial"",""time""
""fullscreenenter"",""1"",""9995""
","
","
","""event"",""trial"",""time""
""fullscreenenter"",""1"",""9995""
","
","","","","","","206.89999999850988","images/sofa8.png","","","memory_trial","3","maybe_new",""
"html-keyboard-response","89","291729","0.0-18.0-0.23","5383","approach_avoid_sv1","""event"",""trial"",""time""
""fullscreenenter"",""1"",""9995""
","
","
","""event"",""trial"",""time""
""fullscreenenter"",""1"",""9995""
","
","","","","","","null","<div style=""font-size:60px;"">+</div>","null","","fixation","","",""
"memory-trial","90","292849","0.0-18.0-1.23","5383","approach_avoid_sv1","""event"",""trial"",""time""
""fullscreenenter"",""1"",""9995""
","
","
","""event"",""trial"",""time""
""fullscreenenter"",""1"",""9995""
","
","","","","","","113.89999999850988","images/orange5.png","","","memory_trial","1","definitely_old",""
"html-keyboard-response","91","293355","0.0-18.0-0.24","5383","approach_avoid_sv1","""event"",""trial"",""time""
""fullscreenenter"",""1"",""9995""
","
","
","""event"",""trial"",""time""
""fullscreenenter"",""1"",""9995""
","
","","","","","","null","<div style=""font-size:60px;"">+</div>","null","","fixation","","",""
"memory-trial","92","294458","0.0-18.0-1.24","5383","approach_avoid_sv1","""event"",""trial"",""time""
""fullscreenenter"",""1"",""9995""
","
","
","""event"",""trial"",""time""
""fullscreenenter"",""1"",""9995""
","
","","","","","","97.69999999552965","images/banana7.png","","","memory_trial","4","definitely_new",""
"html-keyboard-response","93","294962","0.0-18.0-0.25","5383","approach_avoid_sv1","""event"",""trial"",""time""
""fullscreenenter"",""1"",""9995""
","
","
","""event"",""trial"",""time""
""fullscreenenter"",""1"",""9995""
","
","","","","","","null","<div style=""font-size:60px;"">+</div>","null","","fixation","","",""
"memory-trial","94","296680","0.0-18.0-1.25","5383","approach_avoid_sv1","""event"",""trial"",""time""
""fullscreenenter"",""1"",""9995""
","
","
","""event"",""trial"",""time""
""fullscreenenter"",""1"",""9995""
","
","","","","","","712.1000000014901","images/sheep4.png","","","memory_trial","3","maybe_new",""
"html-keyboard-response","95","297183","0.0-18.0-0.26","5383","approach_avoid_sv1","""event"",""trial"",""time""
""fullscreenenter"",""1"",""9995""
","
","
","""event"",""trial"",""time""
""fullscreenenter"",""1"",""9995""
","
","","","","","","null","<div style=""font-size:60px;"">+</div>","null","","fixation","","",""
"memory-trial","96","298457","0.0-18.0-1.26","5383","approach_avoid_sv1","""event"",""trial"",""time""
""fullscreenenter"",""1"",""9995""
","
","
","""event"",""trial"",""time""
""fullscreenenter"",""1"",""9995""
","
","","","","","","270.5","images/sheep1.png","","","memory_trial","1","definitely_old",""
"html-keyboard-response","97","298962","0.0-18.0-0.27","5383","approach_avoid_sv1","""event"",""trial"",""time""
""fullscreenenter"",""1"",""9995""
","
","
","""event"",""trial"",""time""
""fullscreenenter"",""1"",""9995""
","
","","","","","","null","<div style=""font-size:60px;"">+</div>","null","","fixation","","",""
"memory-trial","98","300454","0.0-18.0-1.27","5383","approach_avoid_sv1","""event"",""trial"",""time""
""fullscreenenter"",""1"",""9995""
","
","
","""event"",""trial"",""time""
""fullscreenenter"",""1"",""9995""
","
","","","","","","485.6000000014901","images/banana8.png","","","memory_trial","1","definitely_old",""
"html-keyboard-response","99","300960","0.0-18.0-0.28","5383","approach_avoid_sv1","""event"",""trial"",""time""
""fullscreenenter"",""1"",""9995""
","
","
","""event"",""trial"",""time""
""fullscreenenter"",""1"",""9995""
","
","","","","","","null","<div style=""font-size:60px;"">+</div>","null","","fixation","","",""
"memory-trial","100","303003","0.0-18.0-1.28","5383","approach_avoid_sv1","""event"",""trial"",""time""
""fullscreenenter"",""1"",""9995""
","
","
","""event"",""trial"",""time""
""fullscreenenter"",""1"",""9995""
","
","","","","","","1037.7000000029802","images/boat7.png","","","memory_trial","3","maybe_new",""
"html-keyboard-response","101","303508","0.0-18.0-0.29","5383","approach_avoid_sv1","""event"",""trial"",""time""
""fullscreenenter"",""1"",""9995""
","
","
","""event"",""trial"",""time""
""fullscreenenter"",""1"",""9995""
","
","","","","","","null","<div style=""font-size:60px;"">+</div>","null","","fixation","","",""
"memory-trial","102","306747","0.0-18.0-1.29","5383","approach_avoid_sv1","""event"",""trial"",""time""
""fullscreenenter"",""1"",""9995""
","
","
","""event"",""trial"",""time""
""fullscreenenter"",""1"",""9995""
","
","","","","","","2235","images/flower5.png","","","memory_trial","4","definitely_new",""
"html-keyboard-response","103","307253","0.0-18.0-0.30","5383","approach_avoid_sv1","""event"",""trial"",""time""
""fullscreenenter"",""1"",""9995""
","
","
","""event"",""trial"",""time""
""fullscreenenter"",""1"",""9995""
","
","","","","","","null","<div style=""font-size:60px;"">+</div>","null","","fixation","","",""
"memory-trial","104","310097","0.0-18.0-1.30","5383","approach_avoid_sv1","""event"",""trial"",""time""
""fullscreenenter"",""1"",""9995""
","
","
","""event"",""trial"",""time""
""fullscreenenter"",""1"",""9995""
","
","","","","","","1838","images/dog1.png","","","memory_trial","3","maybe_new",""
"html-keyboard-response","105","310598","0.0-18.0-0.31","5383","approach_avoid_sv1","""event"",""trial"",""time""
""fullscreenenter"",""1"",""9995""
","
","
","""event"",""trial"",""time""
""fullscreenenter"",""1"",""9995""
","
","","","","","","null","<div style=""font-size:60px;"">+</div>","null","","fixation","","",""
"memory-trial","106","311751","0.0-18.0-1.31","5383","approach_avoid_sv1","""event"",""trial"",""time""
""fullscreenenter"",""1"",""9995""
","
","
","""event"",""trial"",""time""
""fullscreenenter"",""1"",""9995""
","
","","","","","","146.69999999552965","images/rodent2.png","","","memory_trial","2","maybe_old",""
"html-keyboard-response","107","312256","0.0-18.0-0.32","5383","approach_avoid_sv1","""event"",""trial"",""time""
""fullscreenenter"",""1"",""9995""
","
","
","""event"",""trial"",""time""
""fullscreenenter"",""1"",""9995""
","
","","","","","","null","<div style=""font-size:60px;"">+</div>","null","","fixation","","",""
"memory-trial","108","313320","0.0-18.0-1.32","5383","approach_avoid_sv1","""event"",""trial"",""time""
""fullscreenenter"",""1"",""9995""
","
","
","""event"",""trial"",""time""
""fullscreenenter"",""1"",""9995""
","
","","","","","","62.399999998509884","images/flower1.png","","","memory_trial","3","maybe_new",""
"html-keyboard-response","109","313825","0.0-18.0-0.33","5383","approach_avoid_sv1","""event"",""trial"",""time""
""fullscreenenter"",""1"",""9995""
","
","
","""event"",""trial"",""time""
""fullscreenenter"",""1"",""9995""
","
","","","","","","null","<div style=""font-size:60px;"">+</div>","null","","fixation","","",""
"memory-trial","110","315259","0.0-18.0-1.33","5383","approach_avoid_sv1","""event"",""trial"",""time""
""fullscreenenter"",""1"",""9995""
","
","
","""event"",""trial"",""time""
""fullscreenenter"",""1"",""9995""
","
","","","","","","427.6000000014901","images/tree5.png","","","memory_trial","4","definitely_new",""
"html-keyboard-response","111","315762","0.0-18.0-0.34","5383","approach_avoid_sv1","""event"",""trial"",""time""
""fullscreenenter"",""1"",""9995""
","
","
","""event"",""trial"",""time""
""fullscreenenter"",""1"",""9995""
","
","","","","","","null","<div style=""font-size:60px;"">+</div>","null","","fixation","","",""
"memory-trial","112","316911","0.0-18.0-1.34","5383","approach_avoid_sv1","""event"",""trial"",""time""
""fullscreenenter"",""1"",""9995""
","
","
","""event"",""trial"",""time""
""fullscreenenter"",""1"",""9995""
","
","","","","","","144","images/cat2.png","","","memory_trial","2","maybe_old",""
"html-keyboard-response","113","317415","0.0-18.0-0.35","5383","approach_avoid_sv1","""event"",""trial"",""time""
""fullscreenenter"",""1"",""9995""
","
","
","""event"",""trial"",""time""
""fullscreenenter"",""1"",""9995""
","
","","","","","","null","<div style=""font-size:60px;"">+</div>","null","","fixation","","",""
"memory-trial","114","318532","0.0-18.0-1.35","5383","approach_avoid_sv1","""event"",""trial"",""time""
""fullscreenenter"",""1"",""9995""
","
","
","""event"",""trial"",""time""
""fullscreenenter"",""1"",""9995""
","
","","","","","","111.10000000149012","images/straw7.png","","","memory_trial","2","maybe_old",""
"html-keyboard-response","115","319037","0.0-18.0-0.36","5383","approach_avoid_sv1","""event"",""trial"",""time""
""fullscreenenter"",""1"",""9995""
","
","
","""event"",""trial"",""time""
""fullscreenenter"",""1"",""9995""
","
","","","","","","null","<div style=""font-size:60px;"">+</div>","null","","fixation","","",""
"memory-trial","116","320070","0.0-18.0-1.36","5383","approach_avoid_sv1","""event"",""trial"",""time""
""fullscreenenter"",""1"",""9995""
","
","
","""event"",""trial"",""time""
""fullscreenenter"",""1"",""9995""
","
","","","","","","28.200000002980232","images/truck7.png","","","memory_trial","3","maybe_new",""
"html-keyboard-response","117","320575","0.0-18.0-0.37","5383","approach_avoid_sv1","""event"",""trial"",""time""
""fullscreenenter"",""1"",""9995""
","
","
","""event"",""trial"",""time""
""fullscreenenter"",""1"",""9995""
","
","","","","","","null","<div style=""font-size:60px;"">+</div>","null","","fixation","","",""
"memory-trial","118","321658","0.0-18.0-1.37","5383","approach_avoid_sv1","""event"",""trial"",""time""
""fullscreenenter"",""1"",""9995""
","
","
","""event"",""trial"",""time""
""fullscreenenter"",""1"",""9995""
","
","","","","","","79.5","images/rabbit7.png","","","memory_trial","1","definitely_old",""
"html-keyboard-response","119","322162","0.0-18.0-0.38","5383","approach_avoid_sv1","""event"",""trial"",""time""
""fullscreenenter"",""1"",""9995""
","
","
","""event"",""trial"",""time""
""fullscreenenter"",""1"",""9995""
","
","","","","","","null","<div style=""font-size:60px;"">+</div>","null","","fixation","","",""
"memory-trial","120","323210","0.0-18.0-1.38","5383","approach_avoid_sv1","""event"",""trial"",""time""
""fullscreenenter"",""1"",""9995""
","
","
","""event"",""trial"",""time""
""fullscreenenter"",""1"",""9995""
","
","","","","","","42.399999998509884","images/bed6.png","","","memory_trial","2","maybe_old",""
"html-keyboard-response","121","323716","0.0-18.0-0.39","5383","approach_avoid_sv1","""event"",""trial"",""time""
""fullscreenenter"",""1"",""9995""
","
","
","""event"",""trial"",""time""
""fullscreenenter"",""1"",""9995""
","
","","","","","","null","<div style=""font-size:60px;"">+</div>","null","","fixation","","",""
"memory-trial","122","324856","0.0-18.0-1.39","5383","approach_avoid_sv1","""event"",""trial"",""time""
""fullscreenenter"",""1"",""9995""
","
","
","""event"",""trial"",""time""
""fullscreenenter"",""1"",""9995""
","
","","","","","","135.29999999701977","images/orange6.png","","","memory_trial","3","maybe_new",""
"html-keyboard-response","123","325361","0.0-18.0-0.40","5383","approach_avoid_sv1","""event"",""trial"",""time""
""fullscreenenter"",""1"",""9995""
","
","
","""event"",""trial"",""time""
""fullscreenenter"",""1"",""9995""
","
","","","","","","null","<div style=""font-size:60px;"">+</div>","null","","fixation","","",""
"memory-trial","124","326369","0.0-18.0-1.40","5383","approach_avoid_sv1","""event"",""trial"",""time""
""fullscreenenter"",""1"",""9995""
","
","
","""event"",""trial"",""time""
""fullscreenenter"",""1"",""9995""
","
","","","","","","1.0999999940395355","images/bed1.png","","","memory_trial","4","definitely_new",""
"html-keyboard-response","125","326874","0.0-18.0-0.41","5383","approach_avoid_sv1","""event"",""trial"",""time""
""fullscreenenter"",""1"",""9995""
","
","
","""event"",""trial"",""time""
""fullscreenenter"",""1"",""9995""
","
","","","","","","null","<div style=""font-size:60px;"">+</div>","null","","fixation","","",""
"memory-trial","126","327919","0.0-18.0-1.41","5383","approach_avoid_sv1","""event"",""trial"",""time""
""fullscreenenter"",""1"",""9995""
","
","
","""event"",""trial"",""time""
""fullscreenenter"",""1"",""9995""
","
","","","","","","39.600000001490116","images/cat1.png","","","memory_trial","3","maybe_new",""
"html-button-response","127","336662","0.0-18.0-2.41-0.41","5383","approach_avoid_sv1","""event"",""trial"",""time""
""fullscreenenter"",""1"",""9995""
","
","
","""event"",""trial"",""time""
""fullscreenenter"",""1"",""9995""
","
","","","","","","8742.20000000298","<p> Take a break! </p><p> Click the button to continue. </p>","0","","break","","",""
"html-keyboard-response","128","337167","0.0-18.0-0.42","5383","approach_avoid_sv1","""event"",""trial"",""time""
""fullscreenenter"",""1"",""9995""
","
","
","""event"",""trial"",""time""
""fullscreenenter"",""1"",""9995""
","
","","","","","","null","<div style=""font-size:60px;"">+</div>","null","","fixation","","",""
"memory-trial","129","338990","0.0-18.0-1.42","5383","approach_avoid_sv1","""event"",""trial"",""time""
""fullscreenenter"",""1"",""9995""
","
","
","""event"",""trial"",""time""
""fullscreenenter"",""1"",""9995""
","
","","","","","","819.8000000044703","images/orange4.png","","","memory_trial","4","definitely_new",""
"html-keyboard-response","130","339494","0.0-18.0-0.43","5383","approach_avoid_sv1","""event"",""trial"",""time""
""fullscreenenter"",""1"",""9995""
","
","
","""event"",""trial"",""time""
""fullscreenenter"",""1"",""9995""
","
","","","","","","null","<div style=""font-size:60px;"">+</div>","null","","fixation","","",""
"memory-trial","131","340557","0.0-18.0-1.43","5383","approach_avoid_sv1","""event"",""trial"",""time""
""fullscreenenter"",""1"",""9995""
","
","
","""event"",""trial"",""time""
""fullscreenenter"",""1"",""9995""
","
","","","","","","60.5","images/sofa6.png","","","memory_trial","3","maybe_new",""
"html-keyboard-response","132","341061","0.0-18.0-0.44","5383","approach_avoid_sv1","""event"",""trial"",""time""
""fullscreenenter"",""1"",""9995""
","
","
","""event"",""trial"",""time""
""fullscreenenter"",""1"",""9995""
","
","","","","","","null","<div style=""font-size:60px;"">+</div>","null","","fixation","","",""
"memory-trial","133","342101","0.0-18.0-1.44","5383","approach_avoid_sv1","""event"",""trial"",""time""
""fullscreenenter"",""1"",""9995""
","
","
","""event"",""trial"",""time""
""fullscreenenter"",""1"",""9995""
","
","","","","","","33.70000000298023","images/bed8.png","","","memory_trial","2","maybe_old",""
"html-keyboard-response","134","342606","0.0-18.0-0.45","5383","approach_avoid_sv1","""event"",""trial"",""time""
""fullscreenenter"",""1"",""9995""
","
","
","""event"",""trial"",""time""
""fullscreenenter"",""1"",""9995""
","
","","","","","","null","<div style=""font-size:60px;"">+</div>","null","","fixation","","",""
"memory-trial","135","343744","0.0-18.0-1.45","5383","approach_avoid_sv1","""event"",""trial"",""time""
""fullscreenenter"",""1"",""9995""
","
","
","""event"",""trial"",""time""
""fullscreenenter"",""1"",""9995""
","
","","","","","","135","images/horse1.png","","","memory_trial","4","definitely_new",""
"html-keyboard-response","136","344248","0.0-18.0-0.46","5383","approach_avoid_sv1","""event"",""trial"",""time""
""fullscreenenter"",""1"",""9995""
","
","
","""event"",""trial"",""time""
""fullscreenenter"",""1"",""9995""
","
","","","","","","null","<div style=""font-size:60px;"">+</div>","null","","fixation","","",""
"memory-trial","137","345383","0.0-18.0-1.46","5383","approach_avoid_sv1","""event"",""trial"",""time""
""fullscreenenter"",""1"",""9995""
","
","
","""event"",""trial"",""time""
""fullscreenenter"",""1"",""9995""
","
","","","","","","129.79999999701977","images/bed3.png","","","memory_trial","4","definitely_new",""
"html-keyboard-response","138","345885","0.0-18.0-0.47","5383","approach_avoid_sv1","""event"",""trial"",""time""
""fullscreenenter"",""1"",""9995""
","
","
","""event"",""trial"",""time""
""fullscreenenter"",""1"",""9995""
","
","","","","","","null","<div style=""font-size:60px;"">+</div>","null","","fixation","","",""
"memory-trial","139","346924","0.0-18.0-1.47","5383","approach_avoid_sv1","""event"",""trial"",""time""
""fullscreenenter"",""1"",""9995""
","
","
","""event"",""trial"",""time""
""fullscreenenter"",""1"",""9995""
","
","","","","","","33.70000000298023","images/horse6.png","","","memory_trial","4","definitely_new",""
"html-keyboard-response","140","347426","0.0-18.0-0.48","5383","approach_avoid_sv1","""event"",""trial"",""time""
""fullscreenenter"",""1"",""9995""
","
","
","""event"",""trial"",""time""
""fullscreenenter"",""1"",""9995""
","
","","","","","","null","<div style=""font-size:60px;"">+</div>","null","","fixation","","",""
"memory-trial","141","348480","0.0-18.0-1.48","5383","approach_avoid_sv1","""event"",""trial"",""time""
""fullscreenenter"",""1"",""9995""
","
","
","""event"",""trial"",""time""
""fullscreenenter"",""1"",""9995""
","
","","","","","","52.100000001490116","images/tree2.png","","","memory_trial","2","maybe_old",""
"html-keyboard-response","142","348982","0.0-18.0-0.49","5383","approach_avoid_sv1","""event"",""trial"",""time""
""fullscreenenter"",""1"",""9995""
","
","
","""event"",""trial"",""time""
""fullscreenenter"",""1"",""9995""
","
","","","","","","null","<div style=""font-size:60px;"">+</div>","null","","fixation","","",""
"memory-trial","143","350001","0.0-18.0-1.49","5383","approach_avoid_sv1","""event"",""trial"",""time""
""fullscreenenter"",""1"",""9995""
","
","
","""event"",""trial"",""time""
""fullscreenenter"",""1"",""9995""
","
","","","","","","15.5","images/bush4.png","","","memory_trial","2","maybe_old",""
"html-keyboard-response","144","350506","0.0-18.0-0.50","5383","approach_avoid_sv1","""event"",""trial"",""time""
""fullscreenenter"",""1"",""9995""
","
","
","""event"",""trial"",""time""
""fullscreenenter"",""1"",""9995""
","
","","","","","","null","<div style=""font-size:60px;"">+</div>","null","","fixation","","",""
"memory-trial","145","351661","0.0-18.0-1.50","5383","approach_avoid_sv1","""event"",""trial"",""time""
""fullscreenenter"",""1"",""9995""
","
","
","""event"",""trial"",""time""
""fullscreenenter"",""1"",""9995""
","
","","","","","","150.19999999552965","images/rodent4.png","","","memory_trial","4","definitely_new",""
"html-keyboard-response","146","352165","0.0-18.0-0.51","5383","approach_avoid_sv1","""event"",""trial"",""time""
""fullscreenenter"",""1"",""9995""
","
","
","""event"",""trial"",""time""
""fullscreenenter"",""1"",""9995""
","
","","","","","","null","<div style=""font-size:60px;"">+</div>","null","","fixation","","",""
"memory-trial","147","353182","0.0-18.0-1.51","5383","approach_avoid_sv1","""event"",""trial"",""time""
""fullscreenenter"",""1"",""9995""
","
","
","""event"",""trial"",""time""
""fullscreenenter"",""1"",""9995""
","
","","","","","","11.200000002980232","images/train6.png","","","memory_trial","2","maybe_old",""
"html-keyboard-response","148","353687","0.0-18.0-0.52","5383","approach_avoid_sv1","""event"",""trial"",""time""
""fullscreenenter"",""1"",""9995""
","
","
","""event"",""trial"",""time""
""fullscreenenter"",""1"",""9995""
","
","","","","","","null","<div style=""font-size:60px;"">+</div>","null","","fixation","","",""
"memory-trial","149","354812","0.0-18.0-1.52","5383","approach_avoid_sv1","""event"",""trial"",""time""
""fullscreenenter"",""1"",""9995""
","
","
","""event"",""trial"",""time""
""fullscreenenter"",""1"",""9995""
","
","","","","","","119.79999999701977","images/chair4.png","","","memory_trial","2","maybe_old",""
"html-keyboard-response","150","355317","0.0-18.0-0.53","5383","approach_avoid_sv1","""event"",""trial"",""time""
""fullscreenenter"",""1"",""9995""
","
","
","""event"",""trial"",""time""
""fullscreenenter"",""1"",""9995""
","
","","","","","","null","<div style=""font-size:60px;"">+</div>","null","","fixation","","",""
"memory-trial","151","356526","0.0-18.0-1.53","5383","approach_avoid_sv1","""event"",""trial"",""time""
""fullscreenenter"",""1"",""9995""
","
","
","""event"",""trial"",""time""
""fullscreenenter"",""1"",""9995""
","
","","","","","","206.5","images/chair2.png","","","memory_trial","2","maybe_old",""
"html-keyboard-response","152","357032","0.0-18.0-0.54","5383","approach_avoid_sv1","""event"",""trial"",""time""
""fullscreenenter"",""1"",""9995""
","
","
","""event"",""trial"",""time""
""fullscreenenter"",""1"",""9995""
","
","","","","","","null","<div style=""font-size:60px;"">+</div>","null","","fixation","","",""
"memory-trial","153","358291","0.0-18.0-1.54","5383","approach_avoid_sv1","""event"",""trial"",""time""
""fullscreenenter"",""1"",""9995""
","
","
","""event"",""trial"",""time""
""fullscreenenter"",""1"",""9995""
","
","","","","","","254.70000000298023","images/chair6.png","","","memory_trial","4","definitely_new",""
"html-keyboard-response","154","358795","0.0-18.0-0.55","5383","approach_avoid_sv1","""event"",""trial"",""time""
""fullscreenenter"",""1"",""9995""
","
","
","""event"",""trial"",""time""
""fullscreenenter"",""1"",""9995""
","
","","","","","","null","<div style=""font-size:60px;"">+</div>","null","","fixation","","",""
"memory-trial","155","359852","0.0-18.0-1.55","5383","approach_avoid_sv1","""event"",""trial"",""time""
""fullscreenenter"",""1"",""9995""
","
","
","""event"",""trial"",""time""
""fullscreenenter"",""1"",""9995""
","
","","","","","","53.600000001490116","images/tree7.png","","","memory_trial","4","definitely_new",""
"html-keyboard-response","156","360353","0.0-18.0-0.56","5383","approach_avoid_sv1","""event"",""trial"",""time""
""fullscreenenter"",""1"",""9995""
","
","
","""event"",""trial"",""time""
""fullscreenenter"",""1"",""9995""
","
","","","","","","null","<div style=""font-size:60px;"">+</div>","null","","fixation","","",""
"memory-trial","157","361533","0.0-18.0-1.56","5383","approach_avoid_sv1","""event"",""trial"",""time""
""fullscreenenter"",""1"",""9995""
","
","
","""event"",""trial"",""time""
""fullscreenenter"",""1"",""9995""
","
","","","","","","172.70000000298023","images/dog3.png","","","memory_trial","4","definitely_new",""
"html-keyboard-response","158","362037","0.0-18.0-0.57","5383","approach_avoid_sv1","""event"",""trial"",""time""
""fullscreenenter"",""1"",""9995""
","
","
","""event"",""trial"",""time""
""fullscreenenter"",""1"",""9995""
","
","","","","","","null","<div style=""font-size:60px;"">+</div>","null","","fixation","","",""
"memory-trial","159","363290","0.0-18.0-1.57","5383","approach_avoid_sv1","""event"",""trial"",""time""
""fullscreenenter"",""1"",""9995""
","
","
","""event"",""trial"",""time""
""fullscreenenter"",""1"",""9995""
","
","","","","","","251.09999999403954","images/horse2.png","","","memory_trial","2","maybe_old",""
"html-keyboard-response","160","363794","0.0-18.0-0.58","5383","approach_avoid_sv1","""event"",""trial"",""time""
""fullscreenenter"",""1"",""9995""
","
","
","""event"",""trial"",""time""
""fullscreenenter"",""1"",""9995""
","
","","","","","","null","<div style=""font-size:60px;"">+</div>","null","","fixation","","",""
"memory-trial","161","364861","0.0-18.0-1.58","5383","approach_avoid_sv1","""event"",""trial"",""time""
""fullscreenenter"",""1"",""9995""
","
","
","""event"",""trial"",""time""
""fullscreenenter"",""1"",""9995""
","
","","","","","","64.5","images/banana2.png","","","memory_trial","3","maybe_new",""
"html-keyboard-response","162","365366","0.0-18.0-0.59","5383","approach_avoid_sv1","""event"",""trial"",""time""
""fullscreenenter"",""1"",""9995""
","
","
","""event"",""trial"",""time""
""fullscreenenter"",""1"",""9995""
","
","","","","","","null","<div style=""font-size:60px;"">+</div>","null","","fixation","","",""
"memory-trial","163","366389","0.0-18.0-1.59","5383","approach_avoid_sv1","""event"",""trial"",""time""
""fullscreenenter"",""1"",""9995""
","
","
","""event"",""trial"",""time""
""fullscreenenter"",""1"",""9995""
","
","","","","","","19.80000000447035","images/straw6.png","","","memory_trial","2","maybe_old",""
"html-keyboard-response","164","366894","0.0-18.0-0.60","5383","approach_avoid_sv1","""event"",""trial"",""time""
""fullscreenenter"",""1"",""9995""
","
","
","""event"",""trial"",""time""
""fullscreenenter"",""1"",""9995""
","
","","","","","","null","<div style=""font-size:60px;"">+</div>","null","","fixation","","",""
"memory-trial","165","368026","0.0-18.0-1.60","5383","approach_avoid_sv1","""event"",""trial"",""time""
""fullscreenenter"",""1"",""9995""
","
","
","""event"",""trial"",""time""
""fullscreenenter"",""1"",""9995""
","
","","","","","","128.5","images/apple3.png","","","memory_trial","4","definitely_new",""
"html-keyboard-response","166","368531","0.0-18.0-0.61","5383","approach_avoid_sv1","""event"",""trial"",""time""
""fullscreenenter"",""1"",""9995""
","
","
","""event"",""trial"",""time""
""fullscreenenter"",""1"",""9995""
","
","","","","","","null","<div style=""font-size:60px;"">+</div>","null","","fixation","","",""
"memory-trial","167","369549","0.0-18.0-1.61","5383","approach_avoid_sv1","""event"",""trial"",""time""
""fullscreenenter"",""1"",""9995""
","
","
","""event"",""trial"",""time""
""fullscreenenter"",""1"",""9995""
","
","","","","","","13.5","images/train7.png","","","memory_trial","3","maybe_new",""
"html-keyboard-response","168","370052","0.0-18.0-0.62","5383","approach_avoid_sv1","""event"",""trial"",""time""
""fullscreenenter"",""1"",""9995""
","
","
","""event"",""trial"",""time""
""fullscreenenter"",""1"",""9995""
","
","","","","","","null","<div style=""font-size:60px;"">+</div>","null","","fixation","","",""
"memory-trial","169","371346","0.0-18.0-1.62","5383","approach_avoid_sv1","""event"",""trial"",""time""
""fullscreenenter"",""1"",""9995""
","
","
","""event"",""trial"",""time""
""fullscreenenter"",""1"",""9995""
","
","","","","","","288.19999999552965","images/horse7.png","","","memory_trial","3","maybe_new",""
"html-keyboard-response","170","371851","0.0-18.0-0.63","5383","approach_avoid_sv1","""event"",""trial"",""time""
""fullscreenenter"",""1"",""9995""
","
","
","""event"",""trial"",""time""
""fullscreenenter"",""1"",""9995""
","
","","","","","","null","<div style=""font-size:60px;"">+</div>","null","","fixation","","",""
"memory-trial","171","372861","0.0-18.0-1.63","5383","approach_avoid_sv1","""event"",""trial"",""time""
""fullscreenenter"",""1"",""9995""
","
","
","""event"",""trial"",""time""
""fullscreenenter"",""1"",""9995""
","
","","","","","","4.800000004470348","images/banana6.png","","","memory_trial","2","maybe_old",""
"html-keyboard-response","172","373366","0.0-18.0-0.64","5383","approach_avoid_sv1","""event"",""trial"",""time""
""fullscreenenter"",""1"",""9995""
","
","
","""event"",""trial"",""time""
""fullscreenenter"",""1"",""9995""
","
","","","","","","null","<div style=""font-size:60px;"">+</div>","null","","fixation","","",""
"memory-trial","173","374406","0.0-18.0-1.64","5383","approach_avoid_sv1","""event"",""trial"",""time""
""fullscreenenter"",""1"",""9995""
","
","
","""event"",""trial"",""time""
""fullscreenenter"",""1"",""9995""
","
","","","","","","35","images/sheep7.png","","","memory_trial","4","definitely_new",""
"html-keyboard-response","174","374912","0.0-18.0-0.65","5383","approach_avoid_sv1","""event"",""trial"",""time""
""fullscreenenter"",""1"",""9995""
","
","
","""event"",""trial"",""time""
""fullscreenenter"",""1"",""9995""
","
","","","","","","null","<div style=""font-size:60px;"">+</div>","null","","fixation","","",""
"memory-trial","175","375956","0.0-18.0-1.65","5383","approach_avoid_sv1","""event"",""trial"",""time""
""fullscreenenter"",""1"",""9995""
","
","
","""event"",""trial"",""time""
""fullscreenenter"",""1"",""9995""
","
","","","","","","40.899999998509884","images/horse4.png","","","memory_trial","3","maybe_new",""
"html-keyboard-response","176","376459","0.0-18.0-0.66","5383","approach_avoid_sv1","""event"",""trial"",""time""
""fullscreenenter"",""1"",""9995""
","
","
","""event"",""trial"",""time""
""fullscreenenter"",""1"",""9995""
","
","","","","","","null","<div style=""font-size:60px;"">+</div>","null","","fixation","","",""
"memory-trial","177","377616","0.0-18.0-1.66","5383","approach_avoid_sv1","""event"",""trial"",""time""
""fullscreenenter"",""1"",""9995""
","
","
","""event"",""trial"",""time""
""fullscreenenter"",""1"",""9995""
","
","","","","","","152.60000000149012","images/bush8.png","","","memory_trial","4","definitely_new",""
"html-keyboard-response","178","378121","0.0-18.0-0.67","5383","approach_avoid_sv1","""event"",""trial"",""time""
""fullscreenenter"",""1"",""9995""
","
","
","""event"",""trial"",""time""
""fullscreenenter"",""1"",""9995""
","
","","","","","","null","<div style=""font-size:60px;"">+</div>","null","","fixation","","",""
"memory-trial","179","379166","0.0-18.0-1.67","5383","approach_avoid_sv1","""event"",""trial"",""time""
""fullscreenenter"",""1"",""9995""
","
","
","""event"",""trial"",""time""
""fullscreenenter"",""1"",""9995""
","
","","","","","","43.899999998509884","images/chair5.png","","","memory_trial","2","maybe_old",""
"html-keyboard-response","180","379671","0.0-18.0-0.68","5383","approach_avoid_sv1","""event"",""trial"",""time""
""fullscreenenter"",""1"",""9995""
","
","
","""event"",""trial"",""time""
""fullscreenenter"",""1"",""9995""
","
","","","","","","null","<div style=""font-size:60px;"">+</div>","null","","fixation","","",""
"memory-trial","181","381030","0.0-18.0-1.68","5383","approach_avoid_sv1","""event"",""trial"",""time""
""fullscreenenter"",""1"",""9995""
","
","
","""event"",""trial"",""time""
""fullscreenenter"",""1"",""9995""
","
","","","","","","355","images/straw5.png","","","memory_trial","4","definitely_new",""
"html-keyboard-response","182","381532","0.0-18.0-0.69","5383","approach_avoid_sv1","""event"",""trial"",""time""
""fullscreenenter"",""1"",""9995""
","
","
","""event"",""trial"",""time""
""fullscreenenter"",""1"",""9995""
","
","","","","","","null","<div style=""font-size:60px;"">+</div>","null","","fixation","","",""
"memory-trial","183","382560","0.0-18.0-1.69","5383","approach_avoid_sv1","""event"",""trial"",""time""
""fullscreenenter"",""1"",""9995""
","
","
","""event"",""trial"",""time""
""fullscreenenter"",""1"",""9995""
","
","","","","","","23.399999998509884","images/bed5.png","","","memory_trial","1","definitely_old",""
"html-keyboard-response","184","383061","0.0-18.0-0.70","5383","approach_avoid_sv1","""event"",""trial"",""time""
""fullscreenenter"",""1"",""9995""
","
","
","""event"",""trial"",""time""
""fullscreenenter"",""1"",""9995""
","
","","","","","","null","<div style=""font-size:60px;"">+</div>","null","","fixation","","",""
"memory-trial","185","385174","0.0-18.0-1.70","5383","approach_avoid_sv1","""event"",""trial"",""time""
""fullscreenenter"",""1"",""9995""
","
","
","""event"",""trial"",""time""
""fullscreenenter"",""1"",""9995""
","
","","","","","","1106.8999999985099","images/orange8.png","","","memory_trial","3","maybe_new",""
"html-keyboard-response","186","385676","0.0-18.0-0.71","5383","approach_avoid_sv1","""event"",""trial"",""time""
""fullscreenenter"",""1"",""9995""
","
","
","""event"",""trial"",""time""
""fullscreenenter"",""1"",""9995""
","
","","","","","","null","<div style=""font-size:60px;"">+</div>","null","","fixation","","",""
"memory-trial","187","389483","0.0-18.0-1.71","5383","approach_avoid_sv1","""event"",""trial"",""time""
""fullscreenenter"",""1"",""9995""
","
","
","""event"",""trial"",""time""
""fullscreenenter"",""1"",""9995""
","
","","","","","","2804.60000000149","images/apple7.png","","","memory_trial","2","maybe_old",""
"html-keyboard-response","188","389987","0.0-18.0-0.72","5383","approach_avoid_sv1","""event"",""trial"",""time""
""fullscreenenter"",""1"",""9995""
","
","
","""event"",""trial"",""time""
""fullscreenenter"",""1"",""9995""
","
","","","","","","null","<div style=""font-size:60px;"">+</div>","null","","fixation","","",""
"memory-trial","189","391160","0.0-18.0-1.72","5383","approach_avoid_sv1","""event"",""trial"",""time""
""fullscreenenter"",""1"",""9995""
","
","
","""event"",""trial"",""time""
""fullscreenenter"",""1"",""9995""
","
","","","","","","169.70000000298023","images/rabbit8.png","","","memory_trial","4","definitely_new",""
"html-keyboard-response","190","391665","0.0-18.0-0.73","5383","approach_avoid_sv1","""event"",""trial"",""time""
""fullscreenenter"",""1"",""9995""
","
","
","""event"",""trial"",""time""
""fullscreenenter"",""1"",""9995""
","
","","","","","","null","<div style=""font-size:60px;"">+</div>","null","","fixation","","",""
"memory-trial","191","392762","0.0-18.0-1.73","5383","approach_avoid_sv1","""event"",""trial"",""time""
""fullscreenenter"",""1"",""9995""
","
","
","""event"",""trial"",""time""
""fullscreenenter"",""1"",""9995""
","
","","","","","","94.29999999701977","images/boat5.png","","","memory_trial","3","maybe_new",""
"html-keyboard-response","192","393265","0.0-18.0-0.74","5383","approach_avoid_sv1","""event"",""trial"",""time""
""fullscreenenter"",""1"",""9995""
","
","
","""event"",""trial"",""time""
""fullscreenenter"",""1"",""9995""
","
","","","","","","null","<div style=""font-size:60px;"">+</div>","null","","fixation","","",""
"memory-trial","193","394301","0.0-18.0-1.74","5383","approach_avoid_sv1","""event"",""trial"",""time""
""fullscreenenter"",""1"",""9995""
","
","
","""event"",""trial"",""time""
""fullscreenenter"",""1"",""9995""
","
","","","","","","31.899999998509884","images/tree3.png","","","memory_trial","2","maybe_old",""
"html-keyboard-response","194","394805","0.0-18.0-0.75","5383","approach_avoid_sv1","""event"",""trial"",""time""
""fullscreenenter"",""1"",""9995""
","
","
","""event"",""trial"",""time""
""fullscreenenter"",""1"",""9995""
","
","","","","","","null","<div style=""font-size:60px;"">+</div>","null","","fixation","","",""
"memory-trial","195","395907","0.0-18.0-1.75","5383","approach_avoid_sv1","""event"",""trial"",""time""
""fullscreenenter"",""1"",""9995""
","
","
","""event"",""trial"",""time""
""fullscreenenter"",""1"",""9995""
","
","","","","","","97","images/cow3.png","","","memory_trial","3","maybe_new",""
"html-keyboard-response","196","396408","0.0-18.0-0.76","5383","approach_avoid_sv1","""event"",""trial"",""time""
""fullscreenenter"",""1"",""9995""
","
","
","""event"",""trial"",""time""
""fullscreenenter"",""1"",""9995""
","
","","","","","","null","<div style=""font-size:60px;"">+</div>","null","","fixation","","",""
"memory-trial","197","397433","0.0-18.0-1.76","5383","approach_avoid_sv1","""event"",""trial"",""time""
""fullscreenenter"",""1"",""9995""
","
","
","""event"",""trial"",""time""
""fullscreenenter"",""1"",""9995""
","
","","","","","","20.19999999552965","images/rodent1.png","","","memory_trial","2","maybe_old",""
"html-keyboard-response","198","397935","0.0-18.0-0.77","5383","approach_avoid_sv1","""event"",""trial"",""time""
""fullscreenenter"",""1"",""9995""
","
","
","""event"",""trial"",""time""
""fullscreenenter"",""1"",""9995""
","
","","","","","","null","<div style=""font-size:60px;"">+</div>","null","","fixation","","",""
"memory-trial","199","398987","0.0-18.0-1.77","5383","approach_avoid_sv1","""event"",""trial"",""time""
""fullscreenenter"",""1"",""9995""
","
","
","""event"",""trial"",""time""
""fullscreenenter"",""1"",""9995""
","
","","","","","","49.30000000447035","images/plane8.png","","","memory_trial","4","definitely_new",""
"html-keyboard-response","200","399491","0.0-18.0-0.78","5383","approach_avoid_sv1","""event"",""trial"",""time""
""fullscreenenter"",""1"",""9995""
","
","
","""event"",""trial"",""time""
""fullscreenenter"",""1"",""9995""
","
","","","","","","null","<div style=""font-size:60px;"">+</div>","null","","fixation","","",""
"memory-trial","201","400576","0.0-18.0-1.78","5383","approach_avoid_sv1","""event"",""trial"",""time""
""fullscreenenter"",""1"",""9995""
","
","
","""event"",""trial"",""time""
""fullscreenenter"",""1"",""9995""
","
","","","","","","81","images/boat1.png","","","memory_trial","3","maybe_new",""
"html-keyboard-response","202","401081","0.0-18.0-0.79","5383","approach_avoid_sv1","""event"",""trial"",""time""
""fullscreenenter"",""1"",""9995""
","
","
","""event"",""trial"",""time""
""fullscreenenter"",""1"",""9995""
","
","","","","","","null","<div style=""font-size:60px;"">+</div>","null","","fixation","","",""
"memory-trial","203","402100","0.0-18.0-1.79","5383","approach_avoid_sv1","""event"",""trial"",""time""
""fullscreenenter"",""1"",""9995""
","
","
","""event"",""trial"",""time""
""fullscreenenter"",""1"",""9995""
","
","","","","","","14.200000002980232","images/flower7.png","","","memory_trial","3","maybe_new",""
"html-keyboard-response","204","402602","0.0-18.0-0.80","5383","approach_avoid_sv1","""event"",""trial"",""time""
""fullscreenenter"",""1"",""9995""
","
","
","""event"",""trial"",""time""
""fullscreenenter"",""1"",""9995""
","
","","","","","","null","<div style=""font-size:60px;"">+</div>","null","","fixation","","",""
"memory-trial","205","404047","0.0-18.0-1.80","5383","approach_avoid_sv1","""event"",""trial"",""time""
""fullscreenenter"",""1"",""9995""
","
","
","""event"",""trial"",""time""
""fullscreenenter"",""1"",""9995""
","
","","","","","","441.20000000298023","images/cactus2.png","","","memory_trial","4","definitely_new",""
"html-keyboard-response","206","404548","0.0-18.0-0.81","5383","approach_avoid_sv1","""event"",""trial"",""time""
""fullscreenenter"",""1"",""9995""
","
","
","""event"",""trial"",""time""
""fullscreenenter"",""1"",""9995""
","
","","","","","","null","<div style=""font-size:60px;"">+</div>","null","","fixation","","",""
"memory-trial","207","405592","0.0-18.0-1.81","5383","approach_avoid_sv1","""event"",""trial"",""time""
""fullscreenenter"",""1"",""9995""
","
","
","""event"",""trial"",""time""
""fullscreenenter"",""1"",""9995""
","
","","","","","","38.100000001490116","images/cactus8.png","","","memory_trial","1","definitely_old",""
"html-keyboard-response","208","406095","0.0-18.0-0.82","5383","approach_avoid_sv1","""event"",""trial"",""time""
""fullscreenenter"",""1"",""9995""
","
","
","""event"",""trial"",""time""
""fullscreenenter"",""1"",""9995""
","
","","","","","","null","<div style=""font-size:60px;"">+</div>","null","","fixation","","",""
"memory-trial","209","407291","0.0-18.0-1.82","5383","approach_avoid_sv1","""event"",""trial"",""time""
""fullscreenenter"",""1"",""9995""
","
","
","""event"",""trial"",""time""
""fullscreenenter"",""1"",""9995""
","
","","","","","","190.69999999552965","images/table5.png","","","memory_trial","2","maybe_old",""
"html-keyboard-response","210","407792","0.0-18.0-0.83","5383","approach_avoid_sv1","""event"",""trial"",""time""
""fullscreenenter"",""1"",""9995""
","
","
","""event"",""trial"",""time""
""fullscreenenter"",""1"",""9995""
","
","","","","","","null","<div style=""font-size:60px;"">+</div>","null","","fixation","","",""
"memory-trial","211","409008","0.0-18.0-1.83","5383","approach_avoid_sv1","""event"",""trial"",""time""
""fullscreenenter"",""1"",""9995""
","
","
","""event"",""trial"",""time""
""fullscreenenter"",""1"",""9995""
","
","","","","","","210.80000000447035","images/cactus3.png","","","memory_trial","2","maybe_old",""
"html-keyboard-response","212","409510","0.0-18.0-0.84","5383","approach_avoid_sv1","""event"",""trial"",""time""
""fullscreenenter"",""1"",""9995""
","
","
","""event"",""trial"",""time""
""fullscreenenter"",""1"",""9995""
","
","","","","","","null","<div style=""font-size:60px;"">+</div>","null","","fixation","","",""
"memory-trial","213","410537","0.0-18.0-1.84","5383","approach_avoid_sv1","""event"",""trial"",""time""
""fullscreenenter"",""1"",""9995""
","
","
","""event"",""trial"",""time""
""fullscreenenter"",""1"",""9995""
","
","","","","","","20.600000001490116","images/rodent6.png","","","memory_trial","4","definitely_new",""
"html-keyboard-response","214","411040","0.0-18.0-0.85","5383","approach_avoid_sv1","""event"",""trial"",""time""
""fullscreenenter"",""1"",""9995""
","
","
","""event"",""trial"",""time""
""fullscreenenter"",""1"",""9995""
","
","","","","","","null","<div style=""font-size:60px;"">+</div>","null","","fixation","","",""
"memory-trial","215","412262","0.0-18.0-1.85","5383","approach_avoid_sv1","""event"",""trial"",""time""
""fullscreenenter"",""1"",""9995""
","
","
","""event"",""trial"",""time""
""fullscreenenter"",""1"",""9995""
","
","","","","","","219.69999999552965","images/flower2.png","","","memory_trial","2","maybe_old",""
"html-keyboard-response","216","412767","0.0-18.0-0.86","5383","approach_avoid_sv1","""event"",""trial"",""time""
""fullscreenenter"",""1"",""9995""
","
","
","""event"",""trial"",""time""
""fullscreenenter"",""1"",""9995""
","
","","","","","","null","<div style=""font-size:60px;"">+</div>","null","","fixation","","",""
"memory-trial","217","413953","0.0-18.0-1.86","5383","approach_avoid_sv1","""event"",""trial"",""time""
""fullscreenenter"",""1"",""9995""
","
","
","""event"",""trial"",""time""
""fullscreenenter"",""1"",""9995""
","
","","","","","","180.29999999701977","images/flower4.png","","","memory_trial","2","maybe_old",""
"html-keyboard-response","218","414455","0.0-18.0-0.87","5383","approach_avoid_sv1","""event"",""trial"",""time""
""fullscreenenter"",""1"",""9995""
","
","
","""event"",""trial"",""time""
""fullscreenenter"",""1"",""9995""
","
","","","","","","null","<div style=""font-size:60px;"">+</div>","null","","fixation","","",""
"memory-trial","219","415553","0.0-18.0-1.87","5383","approach_avoid_sv1","""event"",""trial"",""time""
""fullscreenenter"",""1"",""9995""
","
","
","""event"",""trial"",""time""
""fullscreenenter"",""1"",""9995""
","
","","","","","","93","images/goat8.png","","","memory_trial","3","maybe_new",""
"html-keyboard-response","220","416058","0.0-18.0-0.88","5383","approach_avoid_sv1","""event"",""trial"",""time""
""fullscreenenter"",""1"",""9995""
","
","
","""event"",""trial"",""time""
""fullscreenenter"",""1"",""9995""
","
","","","","","","null","<div style=""font-size:60px;"">+</div>","null","","fixation","","",""
"memory-trial","221","417260","0.0-18.0-1.88","5383","approach_avoid_sv1","""event"",""trial"",""time""
""fullscreenenter"",""1"",""9995""
","
","
","""event"",""trial"",""time""
""fullscreenenter"",""1"",""9995""
","
","","","","","","198.69999999552965","images/train1.png","","","memory_trial","2","maybe_old",""
"html-keyboard-response","222","417765","0.0-18.0-0.89","5383","approach_avoid_sv1","""event"",""trial"",""time""
""fullscreenenter"",""1"",""9995""
","
","
","""event"",""trial"",""time""
""fullscreenenter"",""1"",""9995""
","
","","","","","","null","<div style=""font-size:60px;"">+</div>","null","","fixation","","",""
"memory-trial","223","418833","0.0-18.0-1.89","5383","approach_avoid_sv1","""event"",""trial"",""time""
""fullscreenenter"",""1"",""9995""
","
","
","""event"",""trial"",""time""
""fullscreenenter"",""1"",""9995""
","
","","","","","","65.80000000447035","images/cat4.png","","","memory_trial","1","definitely_old",""
"html-keyboard-response","224","419338","0.0-18.0-0.90","5383","approach_avoid_sv1","""event"",""trial"",""time""
""fullscreenenter"",""1"",""9995""
","
","
","""event"",""trial"",""time""
""fullscreenenter"",""1"",""9995""
","
","","","","","","null","<div style=""font-size:60px;"">+</div>","null","","fixation","","",""
"memory-trial","225","421007","0.0-18.0-1.90","5383","approach_avoid_sv1","""event"",""trial"",""time""
""fullscreenenter"",""1"",""9995""
","
","
","""event"",""trial"",""time""
""fullscreenenter"",""1"",""9995""
","
","","","","","","665.7000000029802","images/orange7.png","","","memory_trial","3","maybe_new",""
"html-keyboard-response","226","421509","0.0-18.0-0.91","5383","approach_avoid_sv1","""event"",""trial"",""time""
""fullscreenenter"",""1"",""9995""
","
","
","""event"",""trial"",""time""
""fullscreenenter"",""1"",""9995""
","
","","","","","","null","<div style=""font-size:60px;"">+</div>","null","","fixation","","",""
"memory-trial","227","423019","0.0-18.0-1.91","5383","approach_avoid_sv1","""event"",""trial"",""time""
""fullscreenenter"",""1"",""9995""
","
","
","""event"",""trial"",""time""
""fullscreenenter"",""1"",""9995""
","
","","","","","","505.8999999985099","images/apple5.png","","","memory_trial","1","definitely_old",""
"html-button-response","228","433574","0.0-18.0-2.91-0.91","5383","approach_avoid_sv1","""event"",""trial"",""time""
""fullscreenenter"",""1"",""9995""
","
","
","""event"",""trial"",""time""
""fullscreenenter"",""1"",""9995""
","
","","","","","","10554","<p> Take a break! </p><p> Click the button to continue. </p>","0","","break","","",""
"html-keyboard-response","229","434078","0.0-18.0-0.92","5383","approach_avoid_sv1","""event"",""trial"",""time""
""fullscreenenter"",""1"",""9995""
","
","
","""event"",""trial"",""time""
""fullscreenenter"",""1"",""9995""
","
","","","","","","null","<div style=""font-size:60px;"">+</div>","null","","fixation","","",""
"memory-trial","230","435524","0.0-18.0-1.92","5383","approach_avoid_sv1","""event"",""trial"",""time""
""fullscreenenter"",""1"",""9995""
","
","
","""event"",""trial"",""time""
""fullscreenenter"",""1"",""9995""
","
","","","","","","440.69999999552965","images/cow8.png","","","memory_trial","4","definitely_new",""
"html-keyboard-response","231","436028","0.0-18.0-0.93","5383","approach_avoid_sv1","""event"",""trial"",""time""
""fullscreenenter"",""1"",""9995""
","
","
","""event"",""trial"",""time""
""fullscreenenter"",""1"",""9995""
","
","","","","","","null","<div style=""font-size:60px;"">+</div>","null","","fixation","","",""
"memory-trial","232","437232","0.0-18.0-1.93","5383","approach_avoid_sv1","""event"",""trial"",""time""
""fullscreenenter"",""1"",""9995""
","
","
","""event"",""trial"",""time""
""fullscreenenter"",""1"",""9995""
","
","","","","","","198.5","images/dog8.png","","","memory_trial","2","maybe_old",""
"html-keyboard-response","233","437735","0.0-18.0-0.94","5383","approach_avoid_sv1","""event"",""trial"",""time""
""fullscreenenter"",""1"",""9995""
","
","
","""event"",""trial"",""time""
""fullscreenenter"",""1"",""9995""
","
","","","","","","null","<div style=""font-size:60px;"">+</div>","null","","fixation","","",""
"memory-trial","234","438773","0.0-18.0-1.94","5383","approach_avoid_sv1","""event"",""trial"",""time""
""fullscreenenter"",""1"",""9995""
","
","
","""event"",""trial"",""time""
""fullscreenenter"",""1"",""9995""
","
","","","","","","35.600000001490116","images/plane3.png","","","memory_trial","1","definitely_old",""
"html-keyboard-response","235","439279","0.0-18.0-0.95","5383","approach_avoid_sv1","""event"",""trial"",""time""
""fullscreenenter"",""1"",""9995""
","
","
","""event"",""trial"",""time""
""fullscreenenter"",""1"",""9995""
","
","","","","","","null","<div style=""font-size:60px;"">+</div>","null","","fixation","","",""
"memory-trial","236","440492","0.0-18.0-1.95","5383","approach_avoid_sv1","""event"",""trial"",""time""
""fullscreenenter"",""1"",""9995""
","
","
","""event"",""trial"",""time""
""fullscreenenter"",""1"",""9995""
","
","","","","","","211","images/rodent5.png","","","memory_trial","2","maybe_old",""
"html-keyboard-response","237","440993","0.0-18.0-0.96","5383","approach_avoid_sv1","""event"",""trial"",""time""
""fullscreenenter"",""1"",""9995""
","
","
","""event"",""trial"",""time""
""fullscreenenter"",""1"",""9995""
","
","","","","","","null","<div style=""font-size:60px;"">+</div>","null","","fixation","","",""
"memory-trial","238","442059","0.0-18.0-1.96","5383","approach_avoid_sv1","""event"",""trial"",""time""
""fullscreenenter"",""1"",""9995""
","
","
","""event"",""trial"",""time""
""fullscreenenter"",""1"",""9995""
","
","","","","","","60.79999999701977","images/straw3.png","","","memory_trial","2","maybe_old",""
"html-keyboard-response","239","442564","0.0-18.0-0.97","5383","approach_avoid_sv1","""event"",""trial"",""time""
""fullscreenenter"",""1"",""9995""
","
","
","""event"",""trial"",""time""
""fullscreenenter"",""1"",""9995""
","
","","","","","","null","<div style=""font-size:60px;"">+</div>","null","","fixation","","",""
"memory-trial","240","443884","0.0-18.0-1.97","5383","approach_avoid_sv1","""event"",""trial"",""time""
""fullscreenenter"",""1"",""9995""
","
","
","""event"",""trial"",""time""
""fullscreenenter"",""1"",""9995""
","
","","","","","","317.19999999552965","images/dog7.png","","","memory_trial","2","maybe_old",""
"html-keyboard-response","241","444387","0.0-18.0-0.98","5383","approach_avoid_sv1","""event"",""trial"",""time""
""fullscreenenter"",""1"",""9995""
","
","
","""event"",""trial"",""time""
""fullscreenenter"",""1"",""9995""
","
","","","","","","null","<div style=""font-size:60px;"">+</div>","null","","fixation","","",""
"memory-trial","242","446129","0.0-18.0-1.98","5383","approach_avoid_sv1","""event"",""trial"",""time""
""fullscreenenter"",""1"",""9995""
","
","
","""event"",""trial"",""time""
""fullscreenenter"",""1"",""9995""
","
","","","","","","736.7000000029802","images/bush6.png","","","memory_trial","4","definitely_new",""
"html-keyboard-response","243","446634","0.0-18.0-0.99","5383","approach_avoid_sv1","""event"",""trial"",""time""
""fullscreenenter"",""1"",""9995""
","
","
","""event"",""trial"",""time""
""fullscreenenter"",""1"",""9995""
","
","","","","","","null","<div style=""font-size:60px;"">+</div>","null","","fixation","","",""
"memory-trial","244","448000","0.0-18.0-1.99","5383","approach_avoid_sv1","""event"",""trial"",""time""
""fullscreenenter"",""1"",""9995""
","
","
","""event"",""trial"",""time""
""fullscreenenter"",""1"",""9995""
","
","","","","","","360.79999999701977","images/goat6.png","","","memory_trial","2","maybe_old",""
"html-keyboard-response","245","448503","0.0-18.0-0.100","5383","approach_avoid_sv1","""event"",""trial"",""time""
""fullscreenenter"",""1"",""9995""
","
","
","""event"",""trial"",""time""
""fullscreenenter"",""1"",""9995""
","
","","","","","","null","<div style=""font-size:60px;"">+</div>","null","","fixation","","",""
"memory-trial","246","449757","0.0-18.0-1.100","5383","approach_avoid_sv1","""event"",""trial"",""time""
""fullscreenenter"",""1"",""9995""
","
","
","""event"",""trial"",""time""
""fullscreenenter"",""1"",""9995""
","
","","","","","","251.39999999850988","images/banana4.png","","","memory_trial","2","maybe_old",""
"html-keyboard-response","247","450262","0.0-18.0-0.101","5383","approach_avoid_sv1","""event"",""trial"",""time""
""fullscreenenter"",""1"",""9995""
","
","
","""event"",""trial"",""time""
""fullscreenenter"",""1"",""9995""
","
","","","","","","null","<div style=""font-size:60px;"">+</div>","null","","fixation","","",""
"memory-trial","248","451470","0.0-18.0-1.101","5383","approach_avoid_sv1","""event"",""trial"",""time""
""fullscreenenter"",""1"",""9995""
","
","
","""event"",""trial"",""time""
""fullscreenenter"",""1"",""9995""
","
","","","","","","202.19999999552965","images/cow2.png","","","memory_trial","3","maybe_new",""
"html-keyboard-response","249","451975","0.0-18.0-0.102","5383","approach_avoid_sv1","""event"",""trial"",""time""
""fullscreenenter"",""1"",""9995""
","
","
","""event"",""trial"",""time""
""fullscreenenter"",""1"",""9995""
","
","","","","","","null","<div style=""font-size:60px;"">+</div>","null","","fixation","","",""
"memory-trial","250","453141","0.0-18.0-1.102","5383","approach_avoid_sv1","""event"",""trial"",""time""
""fullscreenenter"",""1"",""9995""
","
","
","""event"",""trial"",""time""
""fullscreenenter"",""1"",""9995""
","
","","","","","","164.29999999701977","images/table6.png","","","memory_trial","3","maybe_new",""
"html-keyboard-response","251","453646","0.0-18.0-0.103","5383","approach_avoid_sv1","""event"",""trial"",""time""
""fullscreenenter"",""1"",""9995""
","
","
","""event"",""trial"",""time""
""fullscreenenter"",""1"",""9995""
","
","","","","","","null","<div style=""font-size:60px;"">+</div>","null","","fixation","","",""
"memory-trial","252","454668","0.0-18.0-1.103","5383","approach_avoid_sv1","""event"",""trial"",""time""
""fullscreenenter"",""1"",""9995""
","
","
","""event"",""trial"",""time""
""fullscreenenter"",""1"",""9995""
","
","","","","","","19.399999998509884","images/dog6.png","","","memory_trial","4","definitely_new",""
"html-keyboard-response","253","455173","0.0-18.0-0.104","5383","approach_avoid_sv1","""event"",""trial"",""time""
""fullscreenenter"",""1"",""9995""
","
","
","""event"",""trial"",""time""
""fullscreenenter"",""1"",""9995""
","
","","","","","","null","<div style=""font-size:60px;"">+</div>","null","","fixation","","",""
"memory-trial","254","456589","0.0-18.0-1.104","5383","approach_avoid_sv1","""event"",""trial"",""time""
""fullscreenenter"",""1"",""9995""
","
","
","""event"",""trial"",""time""
""fullscreenenter"",""1"",""9995""
","
","","","","","","411.1000000014901","images/plane4.png","","","memory_trial","4","definitely_new",""
"html-keyboard-response","255","457095","0.0-18.0-0.105","5383","approach_avoid_sv1","""event"",""trial"",""time""
""fullscreenenter"",""1"",""9995""
","
","
","""event"",""trial"",""time""
""fullscreenenter"",""1"",""9995""
","
","","","","","","null","<div style=""font-size:60px;"">+</div>","null","","fixation","","",""
"memory-trial","256","458105","0.0-18.0-1.105","5383","approach_avoid_sv1","""event"",""trial"",""time""
""fullscreenenter"",""1"",""9995""
","
","
","""event"",""trial"",""time""
""fullscreenenter"",""1"",""9995""
","
","","","","","","6.200000002980232","images/apple1.png","","","memory_trial","2","maybe_old",""
"html-keyboard-response","257","458606","0.0-18.0-0.106","5383","approach_avoid_sv1","""event"",""trial"",""time""
""fullscreenenter"",""1"",""9995""
","
","
","""event"",""trial"",""time""
""fullscreenenter"",""1"",""9995""
","
","","","","","","null","<div style=""font-size:60px;"">+</div>","null","","fixation","","",""
"memory-trial","258","459678","0.0-18.0-1.106","5383","approach_avoid_sv1","""event"",""trial"",""time""
""fullscreenenter"",""1"",""9995""
","
","
","""event"",""trial"",""time""
""fullscreenenter"",""1"",""9995""
","
","","","","","","66.10000000149012","images/banana1.png","","","memory_trial","4","definitely_new",""
"html-keyboard-response","259","460183","0.0-18.0-0.107","5383","approach_avoid_sv1","""event"",""trial"",""time""
""fullscreenenter"",""1"",""9995""
","
","
","""event"",""trial"",""time""
""fullscreenenter"",""1"",""9995""
","
","","","","","","null","<div style=""font-size:60px;"">+</div>","null","","fixation","","",""
"memory-trial","260","461217","0.0-18.0-1.107","5383","approach_avoid_sv1","""event"",""trial"",""time""
""fullscreenenter"",""1"",""9995""
","
","
","""event"",""trial"",""time""
""fullscreenenter"",""1"",""9995""
","
","","","","","","28.69999999552965","images/dog4.png","","","memory_trial","3","maybe_new",""
"html-keyboard-response","261","461722","0.0-18.0-0.108","5383","approach_avoid_sv1","""event"",""trial"",""time""
""fullscreenenter"",""1"",""9995""
","
","
","""event"",""trial"",""time""
""fullscreenenter"",""1"",""9995""
","
","","","","","","null","<div style=""font-size:60px;"">+</div>","null","","fixation","","",""
"memory-trial","262","462790","0.0-18.0-1.108","5383","approach_avoid_sv1","""event"",""trial"",""time""
""fullscreenenter"",""1"",""9995""
","
","
","""event"",""trial"",""time""
""fullscreenenter"",""1"",""9995""
","
","","","","","","65.80000000447035","images/straw8.png","","","memory_trial","1","definitely_old",""
"html-keyboard-response","263","463294","0.0-18.0-0.109","5383","approach_avoid_sv1","""event"",""trial"",""time""
""fullscreenenter"",""1"",""9995""
","
","
","""event"",""trial"",""time""
""fullscreenenter"",""1"",""9995""
","
","","","","","","null","<div style=""font-size:60px;"">+</div>","null","","fixation","","",""
"memory-trial","264","464446","0.0-18.0-1.109","5383","approach_avoid_sv1","""event"",""trial"",""time""
""fullscreenenter"",""1"",""9995""
","
","
","""event"",""trial"",""time""
""fullscreenenter"",""1"",""9995""
","
","","","","","","149.80000000447035","images/truck3.png","","","memory_trial","2","maybe_old",""
"html-keyboard-response","265","464951","0.0-18.0-0.110","5383","approach_avoid_sv1","""event"",""trial"",""time""
""fullscreenenter"",""1"",""9995""
","
","
","""event"",""trial"",""time""
""fullscreenenter"",""1"",""9995""
","
","","","","","","null","<div style=""font-size:60px;"">+</div>","null","","fixation","","",""
"memory-trial","266","466581","0.0-18.0-1.110","5383","approach_avoid_sv1","""event"",""trial"",""time""
""fullscreenenter"",""1"",""9995""
","
","
","""event"",""trial"",""time""
""fullscreenenter"",""1"",""9995""
","
","","","","","","626.0999999940395","images/dog5.png","","","memory_trial","2","maybe_old",""
"html-keyboard-response","267","467085","0.0-18.0-0.111","5383","approach_avoid_sv1","""event"",""trial"",""time""
""fullscreenenter"",""1"",""9995""
","
","
","""event"",""trial"",""time""
""fullscreenenter"",""1"",""9995""
","
","","","","","","null","<div style=""font-size:60px;"">+</div>","null","","fixation","","",""
"memory-trial","268","468213","0.0-18.0-1.111","5383","approach_avoid_sv1","""event"",""trial"",""time""
""fullscreenenter"",""1"",""9995""
","
","
","""event"",""trial"",""time""
""fullscreenenter"",""1"",""9995""
","
","","","","","","125.60000000149012","images/cow7.png","","","memory_trial","2","maybe_old",""
"html-keyboard-response","269","468718","0.0-18.0-0.112","5383","approach_avoid_sv1","""event"",""trial"",""time""
""fullscreenenter"",""1"",""9995""
","
","
","""event"",""trial"",""time""
""fullscreenenter"",""1"",""9995""
","
","","","","","","null","<div style=""font-size:60px;"">+</div>","null","","fixation","","",""
"memory-trial","270","470191","0.0-18.0-1.112","5383","approach_avoid_sv1","""event"",""trial"",""time""
""fullscreenenter"",""1"",""9995""
","
","
","""event"",""trial"",""time""
""fullscreenenter"",""1"",""9995""
","
","","","","","","470.8999999985099","images/boat3.png","","","memory_trial","3","maybe_new",""
"html-keyboard-response","271","470694","0.0-18.0-0.113","5383","approach_avoid_sv1","""event"",""trial"",""time""
""fullscreenenter"",""1"",""9995""
","
","
","""event"",""trial"",""time""
""fullscreenenter"",""1"",""9995""
","
","","","","","","null","<div style=""font-size:60px;"">+</div>","null","","fixation","","",""
"memory-trial","272","471795","0.0-18.0-1.113","5383","approach_avoid_sv1","""event"",""trial"",""time""
""fullscreenenter"",""1"",""9995""
","
","
","""event"",""trial"",""time""
""fullscreenenter"",""1"",""9995""
","
","","","","","","97.29999999701977","images/horse3.png","","","memory_trial","3","maybe_new",""
"html-keyboard-response","273","472298","0.0-18.0-0.114","5383","approach_avoid_sv1","""event"",""trial"",""time""
""fullscreenenter"",""1"",""9995""
","
","
","""event"",""trial"",""time""
""fullscreenenter"",""1"",""9995""
","
","","","","","","null","<div style=""font-size:60px;"">+</div>","null","","fixation","","",""
"memory-trial","274","473602","0.0-18.0-1.114","5383","approach_avoid_sv1","""event"",""trial"",""time""
""fullscreenenter"",""1"",""9995""
","
","
","""event"",""trial"",""time""
""fullscreenenter"",""1"",""9995""
","
","","","","","","299.1000000014901","images/train5.png","","","memory_trial","2","maybe_old",""
"html-keyboard-response","275","474104","0.0-18.0-0.115","5383","approach_avoid_sv1","""event"",""trial"",""time""
""fullscreenenter"",""1"",""9995""
","
","
","""event"",""trial"",""time""
""fullscreenenter"",""1"",""9995""
","
","","","","","","null","<div style=""font-size:60px;"">+</div>","null","","fixation","","",""
"memory-trial","276","475488","0.0-18.0-1.115","5383","approach_avoid_sv1","""event"",""trial"",""time""
""fullscreenenter"",""1"",""9995""
","
","
","""event"",""trial"",""time""
""fullscreenenter"",""1"",""9995""
","
","","","","","","380.20000000298023","images/bed2.png","","","memory_trial","2","maybe_old",""
"html-keyboard-response","277","475992","0.0-18.0-0.116","5383","approach_avoid_sv1","""event"",""trial"",""time""
""fullscreenenter"",""1"",""9995""
","
","
","""event"",""trial"",""time""
""fullscreenenter"",""1"",""9995""
","
","","","","","","null","<div style=""font-size:60px;"">+</div>","null","","fixation","","",""
"memory-trial","278","477273","0.0-18.0-1.116","5383","approach_avoid_sv1","""event"",""trial"",""time""
""fullscreenenter"",""1"",""9995""
","
","
","""event"",""trial"",""time""
""fullscreenenter"",""1"",""9995""
","
","","","","","","278.20000000298023","images/sheep8.png","","","memory_trial","2","maybe_old",""
"html-keyboard-response","279","477779","0.0-18.0-0.117","5383","approach_avoid_sv1","""event"",""trial"",""time""
""fullscreenenter"",""1"",""9995""
","
","
","""event"",""trial"",""time""
""fullscreenenter"",""1"",""9995""
","
","","","","","","null","<div style=""font-size:60px;"">+</div>","null","","fixation","","",""
"memory-trial","280","478984","0.0-18.0-1.117","5383","approach_avoid_sv1","""event"",""trial"",""time""
""fullscreenenter"",""1"",""9995""
","
","
","""event"",""trial"",""time""
""fullscreenenter"",""1"",""9995""
","
","","","","","","202.70000000298023","images/tree1.png","","","memory_trial","4","definitely_new",""
"html-keyboard-response","281","479486","0.0-18.0-0.118","5383","approach_avoid_sv1","""event"",""trial"",""time""
""fullscreenenter"",""1"",""9995""
","
","
","""event"",""trial"",""time""
""fullscreenenter"",""1"",""9995""
","
","","","","","","null","<div style=""font-size:60px;"">+</div>","null","","fixation","","",""
"memory-trial","282","480513","0.0-18.0-1.118","5383","approach_avoid_sv1","""event"",""trial"",""time""
""fullscreenenter"",""1"",""9995""
","
","
","""event"",""trial"",""time""
""fullscreenenter"",""1"",""9995""
","
","","","","","","23.200000002980232","images/goat7.png","","","memory_trial","4","definitely_new",""
"html-keyboard-response","283","481018","0.0-18.0-0.119","5383","approach_avoid_sv1","""event"",""trial"",""time""
""fullscreenenter"",""1"",""9995""
","
","
","""event"",""trial"",""time""
""fullscreenenter"",""1"",""9995""
","
","","","","","","null","<div style=""font-size:60px;"">+</div>","null","","fixation","","",""
"memory-trial","284","482376","0.0-18.0-1.119","5383","approach_avoid_sv1","""event"",""trial"",""time""
""fullscreenenter"",""1"",""9995""
","
","
","""event"",""trial"",""time""
""fullscreenenter"",""1"",""9995""
","
","","","","","","353.6000000014901","images/cow4.png","","","memory_trial","2","maybe_old",""
"html-keyboard-response","285","482881","0.0-18.0-0.120","5383","approach_avoid_sv1","""event"",""trial"",""time""
""fullscreenenter"",""1"",""9995""
","
","
","""event"",""trial"",""time""
""fullscreenenter"",""1"",""9995""
","
","","","","","","null","<div style=""font-size:60px;"">+</div>","null","","fixation","","",""
"memory-trial","286","483909","0.0-18.0-1.120","5383","approach_avoid_sv1","""event"",""trial"",""time""
""fullscreenenter"",""1"",""9995""
","
","
","""event"",""trial"",""time""
""fullscreenenter"",""1"",""9995""
","
","","","","","","25.400000005960464","images/tree8.png","","","memory_trial","2","maybe_old",""
"html-keyboard-response","287","484415","0.0-18.0-0.121","5383","approach_avoid_sv1","""event"",""trial"",""time""
""fullscreenenter"",""1"",""9995""
","
","
","""event"",""trial"",""time""
""fullscreenenter"",""1"",""9995""
","
","","","","","","null","<div style=""font-size:60px;"">+</div>","null","","fixation","","",""
"memory-trial","288","485717","0.0-18.0-1.121","5383","approach_avoid_sv1","""event"",""trial"",""time""
""fullscreenenter"",""1"",""9995""
","
","
","""event"",""trial"",""time""
""fullscreenenter"",""1"",""9995""
","
","","","","","","295.5","images/sofa2.png","","","memory_trial","2","maybe_old",""
"html-keyboard-response","289","486222","0.0-18.0-0.122","5383","approach_avoid_sv1","""event"",""trial"",""time""
""fullscreenenter"",""1"",""9995""
","
","
","""event"",""trial"",""time""
""fullscreenenter"",""1"",""9995""
","
","","","","","","null","<div style=""font-size:60px;"">+</div>","null","","fixation","","",""
"memory-trial","290","487316","0.0-18.0-1.122","5383","approach_avoid_sv1","""event"",""trial"",""time""
""fullscreenenter"",""1"",""9995""
","
","
","""event"",""trial"",""time""
""fullscreenenter"",""1"",""9995""
","
","","","","","","88.60000000149012","images/train8.png","","","memory_trial","2","maybe_old",""
"html-keyboard-response","291","487819","0.0-18.0-0.123","5383","approach_avoid_sv1","""event"",""trial"",""time""
""fullscreenenter"",""1"",""9995""
","
","
","""event"",""trial"",""time""
""fullscreenenter"",""1"",""9995""
","
","","","","","","null","<div style=""font-size:60px;"">+</div>","null","","fixation","","",""
"memory-trial","292","489230","0.0-18.0-1.123","5383","approach_avoid_sv1","""event"",""trial"",""time""
""fullscreenenter"",""1"",""9995""
","
","
","""event"",""trial"",""time""
""fullscreenenter"",""1"",""9995""
","
","","","","","","404.5","images/sofa7.png","","","memory_trial","3","maybe_new",""
"html-keyboard-response","293","489735","0.0-18.0-0.124","5383","approach_avoid_sv1","""event"",""trial"",""time""
""fullscreenenter"",""1"",""9995""
","
","
","""event"",""trial"",""time""
""fullscreenenter"",""1"",""9995""
","
","","","","","","null","<div style=""font-size:60px;"">+</div>","null","","fixation","","",""
"memory-trial","294","491411","0.0-18.0-1.124","5383","approach_avoid_sv1","""event"",""trial"",""time""
""fullscreenenter"",""1"",""9995""
","
","
","""event"",""trial"",""time""
""fullscreenenter"",""1"",""9995""
","
","","","","","","674.7000000029802","images/flower3.png","","","memory_trial","3","maybe_new",""
"html-keyboard-response","295","491914","0.0-18.0-0.125","5383","approach_avoid_sv1","""event"",""trial"",""time""
""fullscreenenter"",""1"",""9995""
","
","
","""event"",""trial"",""time""
""fullscreenenter"",""1"",""9995""
","
","","","","","","null","<div style=""font-size:60px;"">+</div>","null","","fixation","","",""
"memory-trial","296","493522","0.0-18.0-1.125","5383","approach_avoid_sv1","""event"",""trial"",""time""
""fullscreenenter"",""1"",""9995""
","
","
","""event"",""trial"",""time""
""fullscreenenter"",""1"",""9995""
","
","","","","","","602.7000000029802","images/bush3.png","","","memory_trial","3","maybe_new",""
"html-keyboard-response","297","494027","0.0-18.0-0.126","5383","approach_avoid_sv1","""event"",""trial"",""time""
""fullscreenenter"",""1"",""9995""
","
","
","""event"",""trial"",""time""
""fullscreenenter"",""1"",""9995""
","
