"trial_type","trial_index","time_elapsed","internal_node_id","subject_id","task_version","interactions","blur_events","focus_events","fullscreenenter_events","fullscreenexit_events","success","timeout","failed_images","failed_audio","failed_video","rt","stimulus","response","button_pressed","task_part","key_press","answer","correct"
"pavlovia","0","6","0.0-0.0","4131","approach_avoid_sv1","""event"",""trial"",""time""
""fullscreenenter"",""1"",""8356""
","
","
","""event"",""trial"",""time""
""fullscreenenter"",""1"",""8356""
","
","","","","","","","","","","","","",""
"fullscreen","1","9352","0.0-1.0","4131","approach_avoid_sv1","""event"",""trial"",""time""
""fullscreenenter"",""1"",""8356""
","
","
","""event"",""trial"",""time""
""fullscreenenter"",""1"",""8356""
","
","true","","","","","","","","","","","",""
"preload","2","58147","0.0-2.0","4131","approach_avoid_sv1","""event"",""trial"",""time""
""fullscreenenter"",""1"",""8356""
","
","
","""event"",""trial"",""time""
""fullscreenenter"",""1"",""8356""
","
","true","false","[]","[]","[]","","","","","","","",""
"preload","3","101265","0.0-3.0","4131","approach_avoid_sv1","""event"",""trial"",""time""
""fullscreenenter"",""1"",""8356""
","
","
","""event"",""trial"",""time""
""fullscreenenter"",""1"",""8356""
","
","true","false","[]","[]","[]","","","","","","","",""
"preload","4","105405","0.0-4.0","4131","approach_avoid_sv1","""event"",""trial"",""time""
""fullscreenenter"",""1"",""8356""
","
","
","""event"",""trial"",""time""
""fullscreenenter"",""1"",""8356""
","
","true","false","[]","[]","[]","","","","","","","",""
"audio-keyboard-response","5","108140","0.0-5.0","4131","approach_avoid_sv1","""event"",""trial"",""time""
""fullscreenenter"",""1"",""8356""
","
","
","""event"",""trial"",""time""
""fullscreenenter"",""1"",""8356""
","
","","","","","","2730.6666666666665","audio/beep_loop.wav"," ","","","","",""
"audio-button-response","6","109529","0.0-6.0","4131","approach_avoid_sv1","""event"",""trial"",""time""
""fullscreenenter"",""1"",""8356""
","
","
","""event"",""trial"",""time""
""fullscreenenter"",""1"",""8356""
","
","","","","","","1387","audio/turtle.wav","3","","","","",""
"audio-button-response","7","112260","0.0-7.0","4131","approach_avoid_sv1","""event"",""trial"",""time""
""fullscreenenter"",""1"",""8356""
","
","
","""event"",""trial"",""time""
""fullscreenenter"",""1"",""8356""
","
","","","","","","1723","audio/shark.wav","2","","","","",""
"preload","8","181885","0.0-8.0","4131","approach_avoid_sv1","""event"",""trial"",""time""
""fullscreenenter"",""1"",""8356""
","
","
","""event"",""trial"",""time""
""fullscreenenter"",""1"",""8356""
","
","true","false","[]","[]","[]","","","","","","","",""
"learning-instructions","9","189638","0.0-9.0-0.0","4131","approach_avoid_sv1","""event"",""trial"",""time""
""fullscreenenter"",""1"",""8356""
","
","
","""event"",""trial"",""time""
""fullscreenenter"",""1"",""8356""
","
","","","","","","2614.5","<p> Welcome back! </p><p> Last week, you had to make choices about lots of different items.  </p>","","0","instructions","","",""
"learning-instructions","10","197196","0.0-9.0-0.1","4131","approach_avoid_sv1","""event"",""trial"",""time""
""fullscreenenter"",""1"",""8356""
","
","
","""event"",""trial"",""time""
""fullscreenenter"",""1"",""8356""
","
","","","","","","3437.7000000476837","<p> Today, we are going to ask you to try to remember all the items. </p>","","0","instructions","","",""
"learning-instructions","11","207713","0.0-9.0-0.2","4131","approach_avoid_sv1","""event"",""trial"",""time""
""fullscreenenter"",""1"",""8356""
","
","
","""event"",""trial"",""time""
""fullscreenenter"",""1"",""8356""
","
","","","","","","381.7999999523163","<p> On every trial, you will see an image. </p><p> The image may be an OLD image you saw during the games last week or it may be a NEW image that was not presented. </p>","","0","instructions","","",""
"learning-instructions","12","217037","0.0-9.0-0.3","4131","approach_avoid_sv1","""event"",""trial"",""time""
""fullscreenenter"",""1"",""8356""
","
","
","""event"",""trial"",""time""
""fullscreenenter"",""1"",""8356""
","
","","","","","","824.9000000953674","<p> You need to select whether the image is:  </p><p>  'Definitely old', 'Maybe old', 'Maybe new', or 'Definitely new.'  </p><div class=""mem-choice-instructions-grid""><div class=""choice-option"" id=""choice-option-1"" ><img src=""images/definitely_old_1.png"" id=""choice-option-img-1"" class=""choice-option-img"" stage=""1""></div><div class=""choice-option"" id=""choice-option-2"" ><img src=""images/maybe_old_1.png"" id=""choice-option-img-2"" class=""choice-option-img"" stage=""1""></div><div class=""choice-option"" id=""choice-option-3"" ><img src=""images/maybe_new_1.png"" id=""choice-option-img-3"" class=""choice-option-img"" stage=""1""></div><div class=""choice-option"" id=""choice-option-4"" > <img src=""images/definitely_new_1.png"" id=""choice-option-img-4"" class=""choice-option-img"" stage=""1""></div></div>","","0","instructions","","",""
"learning-instructions","13","224014","0.0-9.0-0.4","4131","approach_avoid_sv1","""event"",""trial"",""time""
""fullscreenenter"",""1"",""8356""
","
","
","""event"",""trial"",""time""
""fullscreenenter"",""1"",""8356""
","
","","","","","","453.2999999523163","<p> You should use the 1, 2, 3, and 4 keys to make your responses.  </p><div class=""mem-choice-instructions-grid""><div class=""choice-option"" id=""choice-option-1"" ><img src=""images/definitely_old.png"" id=""choice-option-img-1"" class=""choice-option-img"" stage=""1""></div><div class=""choice-option"" id=""choice-option-2"" ><img src=""images/maybe_old.png"" id=""choice-option-img-2"" class=""choice-option-img"" stage=""1""></div><div class=""choice-option"" id=""choice-option-3"" ><img src=""images/maybe_new.png"" id=""choice-option-img-3"" class=""choice-option-img"" stage=""1""></div><div class=""choice-option"" id=""choice-option-4"" > <img src=""images/definitely_new.png"" id=""choice-option-img-4"" class=""choice-option-img"" stage=""1""></div></div>","","0","instructions","","",""
"learning-instructions","14","235740","0.0-9.0-0.5","4131","approach_avoid_sv1","""event"",""trial"",""time""
""fullscreenenter"",""1"",""8356""
","
","
","""event"",""trial"",""time""
""fullscreenenter"",""1"",""8356""
","
","","","","","","5391","<p> You will have 10 seconds to make each response.  </p><p>  Make sure to respond before time runs out! </p>","","0","instructions","","",""
"learning-instructions","15","243267","0.0-9.0-0.6","4131","approach_avoid_sv1","""event"",""trial"",""time""
""fullscreenenter"",""1"",""8356""
","
","
","""event"",""trial"",""time""
""fullscreenenter"",""1"",""8356""
","
","","","","","","449.40000009536743","<p> Today, you will see each image ONCE only.  </p><p>  That means none of the images will repeat. </p>","","0","instructions","","",""
"learning-instructions","16","256645","0.0-9.0-0.7","4131","approach_avoid_sv1","""event"",""trial"",""time""
""fullscreenenter"",""1"",""8356""
","
","
","""event"",""trial"",""time""
""fullscreenenter"",""1"",""8356""
","
","","","","","","702.4000000953674","<p> Before you play the real game, it is time to practice. </p><p>  Just like in the real game, some of the images in the practice will be ones you have seen before. </p><p>  Others will be entirely new. </p>","","0","instructions","","",""
"html-button-response","17","261438","0.0-10.0","4131","approach_avoid_sv1","""event"",""trial"",""time""
""fullscreenenter"",""1"",""8356""
","
","
","""event"",""trial"",""time""
""fullscreenenter"",""1"",""8356""
","
","","","","","","4682.799999952316","<p> Ready to practice? </p><p> Remember, use the 1, 2, 3, and 4 keys to make your responses. </p>","0","","instructions","","",""
"html-keyboard-response","18","262048","0.0-11.0-0.0","4131","approach_avoid_sv1","""event"",""trial"",""time""
""fullscreenenter"",""1"",""8356""
","
","
","""event"",""trial"",""time""
""fullscreenenter"",""1"",""8356""
","
","","","","","","null","<div style=""font-size:60px;"">+</div>","null","","fixation","","",""
"memory-trial","19","266342","0.0-11.0-1.0","4131","approach_avoid_sv1","""event"",""trial"",""time""
""fullscreenenter"",""1"",""8356""
","
","
","""event"",""trial"",""time""
""fullscreenenter"",""1"",""8356""
","
","","","","","","3282.5999999046326","images/ball5.png","","","practice","4","definitely_new",""
"html-keyboard-response","20","266848","0.0-11.0-0.1","4131","approach_avoid_sv1","""event"",""trial"",""time""
""fullscreenenter"",""1"",""8356""
","
","
","""event"",""trial"",""time""
""fullscreenenter"",""1"",""8356""
","
","","","","","","null","<div style=""font-size:60px;"">+</div>","null","","fixation","","",""
"memory-trial","21","269936","0.0-11.0-1.1","4131","approach_avoid_sv1","""event"",""trial"",""time""
""fullscreenenter"",""1"",""8356""
","
","
","""event"",""trial"",""time""
""fullscreenenter"",""1"",""8356""
","
","","","","","","2078.5999999046326","images/racket2.png","","","practice","1","definitely_old",""
"html-keyboard-response","22","270448","0.0-11.0-0.2","4131","approach_avoid_sv1","""event"",""trial"",""time""
""fullscreenenter"",""1"",""8356""
","
","
","""event"",""trial"",""time""
""fullscreenenter"",""1"",""8356""
","
","","","","","","null","<div style=""font-size:60px;"">+</div>","null","","fixation","","",""
"memory-trial","23","272512","0.0-11.0-1.2","4131","approach_avoid_sv1","""event"",""trial"",""time""
""fullscreenenter"",""1"",""8356""
","
","
","""event"",""trial"",""time""
""fullscreenenter"",""1"",""8356""
","
","","","","","","1050.4000000953674","images/racket3.png","","","practice","1","definitely_old",""
"html-keyboard-response","24","273024","0.0-11.0-0.3","4131","approach_avoid_sv1","""event"",""trial"",""time""
""fullscreenenter"",""1"",""8356""
","
","
","""event"",""trial"",""time""
""fullscreenenter"",""1"",""8356""
","
","","","","","","null","<div style=""font-size:60px;"">+</div>","null","","fixation","","",""
"memory-trial","25","277397","0.0-11.0-1.3","4131","approach_avoid_sv1","""event"",""trial"",""time""
""fullscreenenter"",""1"",""8356""
","
","
","""event"",""trial"",""time""
""fullscreenenter"",""1"",""8356""
","
","","","","","","3363.7999999523163","images/racket5.png","","","practice","3","maybe_new",""
"html-keyboard-response","26","277905","0.0-11.0-0.4","4131","approach_avoid_sv1","""event"",""trial"",""time""
""fullscreenenter"",""1"",""8356""
","
","
","""event"",""trial"",""time""
""fullscreenenter"",""1"",""8356""
","
","","","","","","null","<div style=""font-size:60px;"">+</div>","null","","fixation","","",""
"memory-trial","27","280832","0.0-11.0-1.4","4131","approach_avoid_sv1","""event"",""trial"",""time""
""fullscreenenter"",""1"",""8356""
","
","
","""event"",""trial"",""time""
""fullscreenenter"",""1"",""8356""
","
","","","","","","1916.5","images/ball2.png","","","practice","4","definitely_new",""
"html-keyboard-response","28","281344","0.0-11.0-0.5","4131","approach_avoid_sv1","""event"",""trial"",""time""
""fullscreenenter"",""1"",""8356""
","
","
","""event"",""trial"",""time""
""fullscreenenter"",""1"",""8356""
","
","","","","","","null","<div style=""font-size:60px;"">+</div>","null","","fixation","","",""
"memory-trial","29","285241","0.0-11.0-1.5","4131","approach_avoid_sv1","""event"",""trial"",""time""
""fullscreenenter"",""1"",""8356""
","
","
","""event"",""trial"",""time""
""fullscreenenter"",""1"",""8356""
","
","","","","","","2889.2000000476837","images/racket1.png","","","practice","2","maybe_old",""
"html-keyboard-response","30","285753","0.0-11.0-0.6","4131","approach_avoid_sv1","""event"",""trial"",""time""
""fullscreenenter"",""1"",""8356""
","
","
","""event"",""trial"",""time""
""fullscreenenter"",""1"",""8356""
","
","","","","","","null","<div style=""font-size:60px;"">+</div>","null","","fixation","","",""
"memory-trial","31","289662","0.0-11.0-1.6","4131","approach_avoid_sv1","""event"",""trial"",""time""
""fullscreenenter"",""1"",""8356""
","
","
","""event"",""trial"",""time""
""fullscreenenter"",""1"",""8356""
","
","","","","","","2902.699999809265","images/ball3.png","","","practice","3","maybe_new",""
"html-keyboard-response","32","290165","0.0-11.0-0.7","4131","approach_avoid_sv1","""event"",""trial"",""time""
""fullscreenenter"",""1"",""8356""
","
","
","""event"",""trial"",""time""
""fullscreenenter"",""1"",""8356""
","
","","","","","","null","<div style=""font-size:60px;"">+</div>","null","","fixation","","",""
"memory-trial","33","292749","0.0-11.0-1.7","4131","approach_avoid_sv1","""event"",""trial"",""time""
""fullscreenenter"",""1"",""8356""
","
","
","""event"",""trial"",""time""
""fullscreenenter"",""1"",""8356""
","
","","","","","","1578.7999999523163","images/ball1.png","","","practice","3","maybe_new",""
"learning-instructions","34","301543","0.0-12.0-0.0","4131","approach_avoid_sv1","""event"",""trial"",""time""
""fullscreenenter"",""1"",""8356""
","
","
","""event"",""trial"",""time""
""fullscreenenter"",""1"",""8356""
","
","","","","","","1069.3999998569489","<p> Great! You have completed the practice. </p><p> Before you start, we're going to ask you a few questions about how the game works.  </p>","","0","instructions","","",""
"preload","35","339877","0.0-13.0","4131","approach_avoid_sv1","""event"",""trial"",""time""
""fullscreenenter"",""1"",""8356""
","
","
","""event"",""trial"",""time""
""fullscreenenter"",""1"",""8356""
","
","true","false","[]","[]","[]","","","","","","","",""
"comp-q","36","349655","0.0-14.0-0.0","4131","approach_avoid_sv1","""event"",""trial"",""time""
""fullscreenenter"",""1"",""8356""
","
","
","""event"",""trial"",""time""
""fullscreenenter"",""1"",""8356""
","
","","","","","","3468.2999999523163","<p> <b> True or False? </b> </p><p> In this game, you will only see each image once. </p>","","0","comp_question","","","true"
"comp-q","37","361103","0.0-14.0-1.0","4131","approach_avoid_sv1","""event"",""trial"",""time""
""fullscreenenter"",""1"",""8356""
","
","
","""event"",""trial"",""time""
""fullscreenenter"",""1"",""8356""
","
","","","","","","5103.900000095367","<p> <b> That's right! </b> You will see many different images <i> one time each </i> in this game. </p>","","0","comp_answer","","",""
"comp-q","38","366737","0.0-15.0-0.0","4131","approach_avoid_sv1","""event"",""trial"",""time""
""fullscreenenter"",""1"",""8356""
","
","
","""event"",""trial"",""time""
""fullscreenenter"",""1"",""8356""
","
","","","","","","626.0999999046326","<p> <b> True or False? </b> </p><p> You should use the mouse and click to make your response. </p>","","1","comp_question","","","true"
"comp-q","39","374251","0.0-15.0-1.0","4131","approach_avoid_sv1","""event"",""trial"",""time""
""fullscreenenter"",""1"",""8356""
","
","
","""event"",""trial"",""time""
""fullscreenenter"",""1"",""8356""
","
","","","","","","1004.5","<p><b> That's right! </b> You should use the '1', '2', '3', and '4' keys to make your response. </p>","","0","comp_answer","","",""
"comp-q","40","380348","0.0-16.0-0.0","4131","approach_avoid_sv1","""event"",""trial"",""time""
""fullscreenenter"",""1"",""8356""
","
","
","""event"",""trial"",""time""
""fullscreenenter"",""1"",""8356""
","
","","","","","","419.2000000476837","<p> <b> True or False? </b> </p><p> You will have as much time as you want to make each choice. </p>","","1","comp_question","","","true"
"comp-q","41","386823","0.0-16.0-1.0","4131","approach_avoid_sv1","""event"",""trial"",""time""
""fullscreenenter"",""1"",""8356""
","
","
","""event"",""trial"",""time""
""fullscreenenter"",""1"",""8356""
","
","","","","","","1779","<p> <b> That's right! </b> You will only have 10 seconds to make each choice. </p>","","0","comp_answer","","",""
"learning-instructions","42","400050","0.0-17.0","4131","approach_avoid_sv1","""event"",""trial"",""time""
""fullscreenenter"",""1"",""8356""
","
","
","""event"",""trial"",""time""
""fullscreenenter"",""1"",""8356""
","
","","","","","","4553","<p> Great! You are now ready to begin the game. </p><p> Remember, use the 1, 2, 3, and 4 keys to make your responses. </p>","","0","instructions","","",""
"html-keyboard-response","43","400665","0.0-18.0-0.0","4131","approach_avoid_sv1","""event"",""trial"",""time""
""fullscreenenter"",""1"",""8356""
","
","
","""event"",""trial"",""time""
""fullscreenenter"",""1"",""8356""
","
","","","","","","null","<div style=""font-size:60px;"">+</div>","null","","fixation","","",""
"memory-trial","44","403545","0.0-18.0-1.0","4131","approach_avoid_sv1","""event"",""trial"",""time""
""fullscreenenter"",""1"",""8356""
","
","
","""event"",""trial"",""time""
""fullscreenenter"",""1"",""8356""
","
","","","","","","1866.9000000953674","images/cat7.png","","","memory_trial","1","definitely_old",""
"html-keyboard-response","45","404049","0.0-18.0-0.1","4131","approach_avoid_sv1","""event"",""trial"",""time""
""fullscreenenter"",""1"",""8356""
","
","
","""event"",""trial"",""time""
""fullscreenenter"",""1"",""8356""
","
","","","","","","null","<div style=""font-size:60px;"">+</div>","null","","fixation","","",""
"memory-trial","46","408637","0.0-18.0-1.1","4131","approach_avoid_sv1","""event"",""trial"",""time""
""fullscreenenter"",""1"",""8356""
","
","
","""event"",""trial"",""time""
""fullscreenenter"",""1"",""8356""
","
","","","","","","3579.7999999523163","images/bed4.png","","","memory_trial","4","definitely_new",""
"html-keyboard-response","47","409148","0.0-18.0-0.2","4131","approach_avoid_sv1","""event"",""trial"",""time""
""fullscreenenter"",""1"",""8356""
","
","
","""event"",""trial"",""time""
""fullscreenenter"",""1"",""8356""
","
","","","","","","null","<div style=""font-size:60px;"">+</div>","null","","fixation","","",""
"memory-trial","48","411537","0.0-18.0-1.2","4131","approach_avoid_sv1","""event"",""trial"",""time""
""fullscreenenter"",""1"",""8356""
","
","
","""event"",""trial"",""time""
""fullscreenenter"",""1"",""8356""
","
","","","","","","1378.4000000953674","images/goat2.png","","","memory_trial","1","definitely_old",""
"html-keyboard-response","49","412041","0.0-18.0-0.3","4131","approach_avoid_sv1","""event"",""trial"",""time""
""fullscreenenter"",""1"",""8356""
","
","
","""event"",""trial"",""time""
""fullscreenenter"",""1"",""8356""
","
","","","","","","null","<div style=""font-size:60px;"">+</div>","null","","fixation","","",""
"memory-trial","50","415771","0.0-18.0-1.3","4131","approach_avoid_sv1","""event"",""trial"",""time""
""fullscreenenter"",""1"",""8356""
","
","
","""event"",""trial"",""time""
""fullscreenenter"",""1"",""8356""
","
","","","","","","2720.7000000476837","images/chair6.png","","","memory_trial","3","maybe_new",""
"html-keyboard-response","51","416284","0.0-18.0-0.4","4131","approach_avoid_sv1","""event"",""trial"",""time""
""fullscreenenter"",""1"",""8356""
","
","
","""event"",""trial"",""time""
""fullscreenenter"",""1"",""8356""
","
","","","","","","null","<div style=""font-size:60px;"">+</div>","null","","fixation","","",""
"memory-trial","52","421388","0.0-18.0-1.4","4131","approach_avoid_sv1","""event"",""trial"",""time""
""fullscreenenter"",""1"",""8356""
","
","
","""event"",""trial"",""time""
""fullscreenenter"",""1"",""8356""
","
","","","","","","4094.0999999046326","images/sofa7.png","","","memory_trial","1","definitely_old",""
"html-keyboard-response","53","421900","0.0-18.0-0.5","4131","approach_avoid_sv1","""event"",""trial"",""time""
""fullscreenenter"",""1"",""8356""
","
","
","""event"",""trial"",""time""
""fullscreenenter"",""1"",""8356""
","
","","","","","","null","<div style=""font-size:60px;"">+</div>","null","","fixation","","",""
"memory-trial","54","423969","0.0-18.0-1.5","4131","approach_avoid_sv1","""event"",""trial"",""time""
""fullscreenenter"",""1"",""8356""
","
","
","""event"",""trial"",""time""
""fullscreenenter"",""1"",""8356""
","
","","","","","","1061.2000000476837","images/sheep3.png","","","memory_trial","1","definitely_old",""
"html-keyboard-response","55","424472","0.0-18.0-0.6","4131","approach_avoid_sv1","""event"",""trial"",""time""
""fullscreenenter"",""1"",""8356""
","
","
","""event"",""trial"",""time""
""fullscreenenter"",""1"",""8356""
","
","","","","","","null","<div style=""font-size:60px;"">+</div>","null","","fixation","","",""
"memory-trial","56","427712","0.0-18.0-1.6","4131","approach_avoid_sv1","""event"",""trial"",""time""
""fullscreenenter"",""1"",""8356""
","
","
","""event"",""trial"",""time""
""fullscreenenter"",""1"",""8356""
","
","","","","","","2235.7999999523163","images/cactus1.png","","","memory_trial","1","definitely_old",""
"html-keyboard-response","57","428217","0.0-18.0-0.7","4131","approach_avoid_sv1","""event"",""trial"",""time""
""fullscreenenter"",""1"",""8356""
","
","
","""event"",""trial"",""time""
""fullscreenenter"",""1"",""8356""
","
","","","","","","null","<div style=""font-size:60px;"">+</div>","null","","fixation","","",""
"memory-trial","58","430984","0.0-18.0-1.7","4131","approach_avoid_sv1","""event"",""trial"",""time""
""fullscreenenter"",""1"",""8356""
","
","
","""event"",""trial"",""time""
""fullscreenenter"",""1"",""8356""
","
","","","","","","1758.6000001430511","images/chair8.png","","","memory_trial","1","definitely_old",""
"html-keyboard-response","59","431490","0.0-18.0-0.8","4131","approach_avoid_sv1","""event"",""trial"",""time""
""fullscreenenter"",""1"",""8356""
","
","
","""event"",""trial"",""time""
""fullscreenenter"",""1"",""8356""
","
","","","","","","null","<div style=""font-size:60px;"">+</div>","null","","fixation","","",""
"memory-trial","60","433944","0.0-18.0-1.8","4131","approach_avoid_sv1","""event"",""trial"",""time""
""fullscreenenter"",""1"",""8356""
","
","
","""event"",""trial"",""time""
""fullscreenenter"",""1"",""8356""
","
","","","","","","1442.5","images/boat4.png","","","memory_trial","4","definitely_new",""
"html-keyboard-response","61","434448","0.0-18.0-0.9","4131","approach_avoid_sv1","""event"",""trial"",""time""
""fullscreenenter"",""1"",""8356""
","
","
","""event"",""trial"",""time""
""fullscreenenter"",""1"",""8356""
","
","","","","","","null","<div style=""font-size:60px;"">+</div>","null","","fixation","","",""
"memory-trial","62","436927","0.0-18.0-1.9","4131","approach_avoid_sv1","""event"",""trial"",""time""
""fullscreenenter"",""1"",""8356""
","
","
","""event"",""trial"",""time""
""fullscreenenter"",""1"",""8356""
","
","","","","","","1476.3000001907349","images/table8.png","","","memory_trial","1","definitely_old",""
"html-keyboard-response","63","437432","0.0-18.0-0.10","4131","approach_avoid_sv1","""event"",""trial"",""time""
""fullscreenenter"",""1"",""8356""
","
","
","""event"",""trial"",""time""
""fullscreenenter"",""1"",""8356""
","
","","","","","","null","<div style=""font-size:60px;"">+</div>","null","","fixation","","",""
"memory-trial","64","440440","0.0-18.0-1.10","4131","approach_avoid_sv1","""event"",""trial"",""time""
""fullscreenenter"",""1"",""8356""
","
","
","""event"",""trial"",""time""
""fullscreenenter"",""1"",""8356""
","
","","","","","","2001.0999999046326","images/chair5.png","","","memory_trial","2","maybe_old",""
"html-keyboard-response","65","440944","0.0-18.0-0.11","4131","approach_avoid_sv1","""event"",""trial"",""time""
""fullscreenenter"",""1"",""8356""
","
","
","""event"",""trial"",""time""
""fullscreenenter"",""1"",""8356""
","
","","","","","","null","<div style=""font-size:60px;"">+</div>","null","","fixation","","",""
"memory-trial","66","444272","0.0-18.0-1.11","4131","approach_avoid_sv1","""event"",""trial"",""time""
""fullscreenenter"",""1"",""8356""
","
","
","""event"",""trial"",""time""
""fullscreenenter"",""1"",""8356""
","
","","","","","","2318.100000143051","images/sofa8.png","","","memory_trial","4","definitely_new",""
"html-keyboard-response","67","444778","0.0-18.0-0.12","4131","approach_avoid_sv1","""event"",""trial"",""time""
""fullscreenenter"",""1"",""8356""
","
","
","""event"",""trial"",""time""
""fullscreenenter"",""1"",""8356""
","
","","","","","","null","<div style=""font-size:60px;"">+</div>","null","","fixation","","",""
"memory-trial","68","447392","0.0-18.0-1.12","4131","approach_avoid_sv1","""event"",""trial"",""time""
""fullscreenenter"",""1"",""8356""
","
","
","""event"",""trial"",""time""
""fullscreenenter"",""1"",""8356""
","
","","","","","","1608","images/flower1.png","","","memory_trial","4","definitely_new",""
"html-keyboard-response","69","447896","0.0-18.0-0.13","4131","approach_avoid_sv1","""event"",""trial"",""time""
""fullscreenenter"",""1"",""8356""
","
","
","""event"",""trial"",""time""
""fullscreenenter"",""1"",""8356""
","
","","","","","","null","<div style=""font-size:60px;"">+</div>","null","","fixation","","",""
"memory-trial","70","450519","0.0-18.0-1.13","4131","approach_avoid_sv1","""event"",""trial"",""time""
""fullscreenenter"",""1"",""8356""
","
","
","""event"",""trial"",""time""
""fullscreenenter"",""1"",""8356""
","
","","","","","","1618.7999999523163","images/banana3.png","","","memory_trial","4","definitely_new",""
"html-keyboard-response","71","451026","0.0-18.0-0.14","4131","approach_avoid_sv1","""event"",""trial"",""time""
""fullscreenenter"",""1"",""8356""
","
","
","""event"",""trial"",""time""
""fullscreenenter"",""1"",""8356""
","
","","","","","","null","<div style=""font-size:60px;"">+</div>","null","","fixation","","",""
"memory-trial","72","455834","0.0-18.0-1.14","4131","approach_avoid_sv1","""event"",""trial"",""time""
""fullscreenenter"",""1"",""8356""
","
","
","""event"",""trial"",""time""
""fullscreenenter"",""1"",""8356""
","
","","","","","","3799.9000000953674","images/train4.png","","","memory_trial","1","definitely_old",""
"html-keyboard-response","73","456343","0.0-18.0-0.15","4131","approach_avoid_sv1","""event"",""trial"",""time""
""fullscreenenter"",""1"",""8356""
","
","
","""event"",""trial"",""time""
""fullscreenenter"",""1"",""8356""
","
","","","","","","null","<div style=""font-size:60px;"">+</div>","null","","fixation","","",""
"memory-trial","74","459103","0.0-18.0-1.15","4131","approach_avoid_sv1","""event"",""trial"",""time""
""fullscreenenter"",""1"",""8356""
","
","
","""event"",""trial"",""time""
""fullscreenenter"",""1"",""8356""
","
","","","","","","1754.7000000476837","images/table7.png","","","memory_trial","2","maybe_old",""
"html-keyboard-response","75","459609","0.0-18.0-0.16","4131","approach_avoid_sv1","""event"",""trial"",""time""
""fullscreenenter"",""1"",""8356""
","
","
","""event"",""trial"",""time""
""fullscreenenter"",""1"",""8356""
","
","","","","","","null","<div style=""font-size:60px;"">+</div>","null","","fixation","","",""
"memory-trial","76","463079","0.0-18.0-1.16","4131","approach_avoid_sv1","""event"",""trial"",""time""
""fullscreenenter"",""1"",""8356""
","
","
","""event"",""trial"",""time""
""fullscreenenter"",""1"",""8356""
","
","","","","","","2462.5999999046326","images/flower7.png","","","memory_trial","4","definitely_new",""
"html-keyboard-response","77","463583","0.0-18.0-0.17","4131","approach_avoid_sv1","""event"",""trial"",""time""
""fullscreenenter"",""1"",""8356""
","
","
","""event"",""trial"",""time""
""fullscreenenter"",""1"",""8356""
","
","","","","","","null","<div style=""font-size:60px;"">+</div>","null","","fixation","","",""
"memory-trial","78","465831","0.0-18.0-1.17","4131","approach_avoid_sv1","""event"",""trial"",""time""
""fullscreenenter"",""1"",""8356""
","
","
","""event"",""trial"",""time""
""fullscreenenter"",""1"",""8356""
","
","","","","","","1236.4000000953674","images/sheep6.png","","","memory_trial","1","definitely_old",""
"html-keyboard-response","79","466335","0.0-18.0-0.18","4131","approach_avoid_sv1","""event"",""trial"",""time""
""fullscreenenter"",""1"",""8356""
","
","
","""event"",""trial"",""time""
""fullscreenenter"",""1"",""8356""
","
","","","","","","null","<div style=""font-size:60px;"">+</div>","null","","fixation","","",""
"memory-trial","80","470345","0.0-18.0-1.18","4131","approach_avoid_sv1","""event"",""trial"",""time""
""fullscreenenter"",""1"",""8356""
","
","
","""event"",""trial"",""time""
""fullscreenenter"",""1"",""8356""
","
","","","","","","2998.2999999523163","images/rabbit3.png","","","memory_trial","1","definitely_old",""
"html-keyboard-response","81","470854","0.0-18.0-0.19","4131","approach_avoid_sv1","""event"",""trial"",""time""
""fullscreenenter"",""1"",""8356""
","
","
","""event"",""trial"",""time""
""fullscreenenter"",""1"",""8356""
","
","","","","","","null","<div style=""font-size:60px;"">+</div>","null","","fixation","","",""
"memory-trial","82","473602","0.0-18.0-1.19","4131","approach_avoid_sv1","""event"",""trial"",""time""
""fullscreenenter"",""1"",""8356""
","
","
","""event"",""trial"",""time""
""fullscreenenter"",""1"",""8356""
","
","","","","","","1736.6000001430511","images/orange1.png","","","memory_trial","1","definitely_old",""
"html-keyboard-response","83","474111","0.0-18.0-0.20","4131","approach_avoid_sv1","""event"",""trial"",""time""
""fullscreenenter"",""1"",""8356""
","
","
","""event"",""trial"",""time""
""fullscreenenter"",""1"",""8356""
","
","","","","","","null","<div style=""font-size:60px;"">+</div>","null","","fixation","","",""
"memory-trial","84","479543","0.0-18.0-1.20","4131","approach_avoid_sv1","""event"",""trial"",""time""
""fullscreenenter"",""1"",""8356""
","
","
","""event"",""trial"",""time""
""fullscreenenter"",""1"",""8356""
","
","","","","","","4426","images/flower8.png","","","memory_trial","3","maybe_new",""
"html-keyboard-response","85","480046","0.0-18.0-0.21","4131","approach_avoid_sv1","""event"",""trial"",""time""
""fullscreenenter"",""1"",""8356""
","
","
","""event"",""trial"",""time""
""fullscreenenter"",""1"",""8356""
","
","","","","","","null","<div style=""font-size:60px;"">+</div>","null","","fixation","","",""
"memory-trial","86","483743","0.0-18.0-1.21","4131","approach_avoid_sv1","""event"",""trial"",""time""
""fullscreenenter"",""1"",""8356""
","
","
","""event"",""trial"",""time""
""fullscreenenter"",""1"",""8356""
","
","","","","","","2689.899999856949","images/sheep1.png","","","memory_trial","1","definitely_old",""
"html-keyboard-response","87","484248","0.0-18.0-0.22","4131","approach_avoid_sv1","""event"",""trial"",""time""
""fullscreenenter"",""1"",""8356""
","
","
","""event"",""trial"",""time""
""fullscreenenter"",""1"",""8356""
","
","","","","","","null","<div style=""font-size:60px;"">+</div>","null","","fixation","","",""
"memory-trial","88","489713","0.0-18.0-1.22","4131","approach_avoid_sv1","""event"",""trial"",""time""
""fullscreenenter"",""1"",""8356""
","
","
","""event"",""trial"",""time""
""fullscreenenter"",""1"",""8356""
","
","","","","","","4450","images/bush7.png","","","memory_trial","2","maybe_old",""
"html-keyboard-response","89","490222","0.0-18.0-0.23","4131","approach_avoid_sv1","""event"",""trial"",""time""
""fullscreenenter"",""1"",""8356""
","
","
","""event"",""trial"",""time""
""fullscreenenter"",""1"",""8356""
","
","","","","","","null","<div style=""font-size:60px;"">+</div>","null","","fixation","","",""
"memory-trial","90","492838","0.0-18.0-1.23","4131","approach_avoid_sv1","""event"",""trial"",""time""
""fullscreenenter"",""1"",""8356""
","
","
","""event"",""trial"",""time""
""fullscreenenter"",""1"",""8356""
","
","","","","","","1605.1999998092651","images/cactus3.png","","","memory_trial","3","maybe_new",""
"html-keyboard-response","91","493342","0.0-18.0-0.24","4131","approach_avoid_sv1","""event"",""trial"",""time""
""fullscreenenter"",""1"",""8356""
","
","
","""event"",""trial"",""time""
""fullscreenenter"",""1"",""8356""
","
","","","","","","null","<div style=""font-size:60px;"">+</div>","null","","fixation","","",""
"memory-trial","92","495543","0.0-18.0-1.24","4131","approach_avoid_sv1","""event"",""trial"",""time""
""fullscreenenter"",""1"",""8356""
","
","
","""event"",""trial"",""time""
""fullscreenenter"",""1"",""8356""
","
","","","","","","1189.7000000476837","images/chair2.png","","","memory_trial","1","definitely_old",""
"html-keyboard-response","93","496048","0.0-18.0-0.25","4131","approach_avoid_sv1","""event"",""trial"",""time""
""fullscreenenter"",""1"",""8356""
","
","
","""event"",""trial"",""time""
""fullscreenenter"",""1"",""8356""
","
","","","","","","null","<div style=""font-size:60px;"">+</div>","null","","fixation","","",""
"memory-trial","94","500702","0.0-18.0-1.25","4131","approach_avoid_sv1","""event"",""trial"",""time""
""fullscreenenter"",""1"",""8356""
","
","
","""event"",""trial"",""time""
""fullscreenenter"",""1"",""8356""
","
","","","","","","3650.2000000476837","images/sofa6.png","","","memory_trial","1","definitely_old",""
"html-keyboard-response","95","501206","0.0-18.0-0.26","4131","approach_avoid_sv1","""event"",""trial"",""time""
""fullscreenenter"",""1"",""8356""
","
","
","""event"",""trial"",""time""
""fullscreenenter"",""1"",""8356""
","
","","","","","","null","<div style=""font-size:60px;"">+</div>","null","","fixation","","",""
"memory-trial","96","504837","0.0-18.0-1.26","4131","approach_avoid_sv1","""event"",""trial"",""time""
""fullscreenenter"",""1"",""8356""
","
","
","""event"",""trial"",""time""
""fullscreenenter"",""1"",""8356""
","
","","","","","","2622.5","images/apple4.png","","","memory_trial","4","definitely_new",""
"html-keyboard-response","97","505341","0.0-18.0-0.27","4131","approach_avoid_sv1","""event"",""trial"",""time""
""fullscreenenter"",""1"",""8356""
","
","
","""event"",""trial"",""time""
""fullscreenenter"",""1"",""8356""
","
","","","","","","null","<div style=""font-size:60px;"">+</div>","null","","fixation","","",""
"memory-trial","98","507718","0.0-18.0-1.27","4131","approach_avoid_sv1","""event"",""trial"",""time""
""fullscreenenter"",""1"",""8356""
","
","
","""event"",""trial"",""time""
""fullscreenenter"",""1"",""8356""
","
","","","","","","1364.4000000953674","images/banana2.png","","","memory_trial","3","maybe_new",""
"html-keyboard-response","99","508221","0.0-18.0-0.28","4131","approach_avoid_sv1","""event"",""trial"",""time""
""fullscreenenter"",""1"",""8356""
","
","
","""event"",""trial"",""time""
""fullscreenenter"",""1"",""8356""
","
","","","","","","null","<div style=""font-size:60px;"">+</div>","null","","fixation","","",""
"memory-trial","100","511045","0.0-18.0-1.28","4131","approach_avoid_sv1","""event"",""trial"",""time""
""fullscreenenter"",""1"",""8356""
","
","
","""event"",""trial"",""time""
""fullscreenenter"",""1"",""8356""
","
","","","","","","1817.2999999523163","images/sheep5.png","","","memory_trial","3","maybe_new",""
"html-keyboard-response","101","511551","0.0-18.0-0.29","4131","approach_avoid_sv1","""event"",""trial"",""time""
""fullscreenenter"",""1"",""8356""
","
","
","""event"",""trial"",""time""
""fullscreenenter"",""1"",""8356""
","
","","","","","","null","<div style=""font-size:60px;"">+</div>","null","","fixation","","",""
"memory-trial","102","514317","0.0-18.0-1.29","4131","approach_avoid_sv1","""event"",""trial"",""time""
""fullscreenenter"",""1"",""8356""
","
","
","""event"",""trial"",""time""
""fullscreenenter"",""1"",""8356""
","
","","","","","","1753.5999999046326","images/goat1.png","","","memory_trial","3","maybe_new",""
"html-keyboard-response","103","514823","0.0-18.0-0.30","4131","approach_avoid_sv1","""event"",""trial"",""time""
""fullscreenenter"",""1"",""8356""
","
","
","""event"",""trial"",""time""
""fullscreenenter"",""1"",""8356""
","
","","","","","","null","<div style=""font-size:60px;"">+</div>","null","","fixation","","",""
"memory-trial","104","518701","0.0-18.0-1.30","4131","approach_avoid_sv1","""event"",""trial"",""time""
""fullscreenenter"",""1"",""8356""
","
","
","""event"",""trial"",""time""
""fullscreenenter"",""1"",""8356""
","
","","","","","","2872.0999999046326","images/dog1.png","","","memory_trial","2","maybe_old",""
"html-keyboard-response","105","519205","0.0-18.0-0.31","4131","approach_avoid_sv1","""event"",""trial"",""time""
""fullscreenenter"",""1"",""8356""
","
","
","""event"",""trial"",""time""
""fullscreenenter"",""1"",""8356""
","
","","","","","","null","<div style=""font-size:60px;"">+</div>","null","","fixation","","",""
"memory-trial","106","521501","0.0-18.0-1.31","4131","approach_avoid_sv1","""event"",""trial"",""time""
""fullscreenenter"",""1"",""8356""
","
","
","""event"",""trial"",""time""
""fullscreenenter"",""1"",""8356""
","
","","","","","","1284","images/bed5.png","","","memory_trial","4","definitely_new",""
"html-keyboard-response","107","522006","0.0-18.0-0.32","4131","approach_avoid_sv1","""event"",""trial"",""time""
""fullscreenenter"",""1"",""8356""
","
","
","""event"",""trial"",""time""
""fullscreenenter"",""1"",""8356""
","
","","","","","","null","<div style=""font-size:60px;"">+</div>","null","","fixation","","",""
"memory-trial","108","524221","0.0-18.0-1.32","4131","approach_avoid_sv1","""event"",""trial"",""time""
""fullscreenenter"",""1"",""8356""
","
","
","""event"",""trial"",""time""
""fullscreenenter"",""1"",""8356""
","
","","","","","","1204.7000000476837","images/orange3.png","","","memory_trial","1","definitely_old",""
"html-keyboard-response","109","524727","0.0-18.0-0.33","4131","approach_avoid_sv1","""event"",""trial"",""time""
""fullscreenenter"",""1"",""8356""
","
","
","""event"",""trial"",""time""
""fullscreenenter"",""1"",""8356""
","
","","","","","","null","<div style=""font-size:60px;"">+</div>","null","","fixation","","",""
"memory-trial","110","527581","0.0-18.0-1.33","4131","approach_avoid_sv1","""event"",""trial"",""time""
""fullscreenenter"",""1"",""8356""
","
","
","""event"",""trial"",""time""
""fullscreenenter"",""1"",""8356""
","
","","","","","","1845.6999998092651","images/cactus8.png","","","memory_trial","3","maybe_new",""
"html-keyboard-response","111","528087","0.0-18.0-0.34","4131","approach_avoid_sv1","""event"",""trial"",""time""
""fullscreenenter"",""1"",""8356""
","
","
","""event"",""trial"",""time""
""fullscreenenter"",""1"",""8356""
","
","","","","","","null","<div style=""font-size:60px;"">+</div>","null","","fixation","","",""
"memory-trial","112","530900","0.0-18.0-1.34","4131","approach_avoid_sv1","""event"",""trial"",""time""
""fullscreenenter"",""1"",""8356""
","
","
","""event"",""trial"",""time""
""fullscreenenter"",""1"",""8356""
","
","","","","","","1808.5","images/tree7.png","","","memory_trial","1","definitely_old",""
"html-keyboard-response","113","531405","0.0-18.0-0.35","4131","approach_avoid_sv1","""event"",""trial"",""time""
""fullscreenenter"",""1"",""8356""
","
","
","""event"",""trial"",""time""
""fullscreenenter"",""1"",""8356""
","
","","","","","","null","<div style=""font-size:60px;"">+</div>","null","","fixation","","",""
"memory-trial","114","535732","0.0-18.0-1.35","4131","approach_avoid_sv1","""event"",""trial"",""time""
""fullscreenenter"",""1"",""8356""
","
","
","""event"",""trial"",""time""
""fullscreenenter"",""1"",""8356""
","
","","","","","","3322.4000000953674","images/bush3.png","","","memory_trial","3","maybe_new",""
"html-keyboard-response","115","536236","0.0-18.0-0.36","4131","approach_avoid_sv1","""event"",""trial"",""time""
""fullscreenenter"",""1"",""8356""
","
","
","""event"",""trial"",""time""
""fullscreenenter"",""1"",""8356""
","
","","","","","","null","<div style=""font-size:60px;"">+</div>","null","","fixation","","",""
"memory-trial","116","541260","0.0-18.0-1.36","4131","approach_avoid_sv1","""event"",""trial"",""time""
""fullscreenenter"",""1"",""8356""
","
","
","""event"",""trial"",""time""
""fullscreenenter"",""1"",""8356""
","
","","","","","","4015.7999999523163","images/cat6.png","","","memory_trial","4","definitely_new",""
"html-keyboard-response","117","541764","0.0-18.0-0.37","4131","approach_avoid_sv1","""event"",""trial"",""time""
""fullscreenenter"",""1"",""8356""
","
","
","""event"",""trial"",""time""
""fullscreenenter"",""1"",""8356""
","
","","","","","","null","<div style=""font-size:60px;"">+</div>","null","","fixation","","",""
"memory-trial","118","545556","0.0-18.0-1.37","4131","approach_avoid_sv1","""event"",""trial"",""time""
""fullscreenenter"",""1"",""8356""
","
","
","""event"",""trial"",""time""
""fullscreenenter"",""1"",""8356""
","
","","","","","","2786.100000143051","images/bed8.png","","","memory_trial","1","definitely_old",""
"html-keyboard-response","119","546060","0.0-18.0-0.38","4131","approach_avoid_sv1","""event"",""trial"",""time""
""fullscreenenter"",""1"",""8356""
","
","
","""event"",""trial"",""time""
""fullscreenenter"",""1"",""8356""
","
","","","","","","null","<div style=""font-size:60px;"">+</div>","null","","fixation","","",""
"memory-trial","120","548395","0.0-18.0-1.38","4131","approach_avoid_sv1","""event"",""trial"",""time""
""fullscreenenter"",""1"",""8356""
","
","
","""event"",""trial"",""time""
""fullscreenenter"",""1"",""8356""
","
","","","","","","1330.2999999523163","images/rodent7.png","","","memory_trial","4","definitely_new",""
"html-keyboard-response","121","548900","0.0-18.0-0.39","4131","approach_avoid_sv1","""event"",""trial"",""time""
""fullscreenenter"",""1"",""8356""
","
","
","""event"",""trial"",""time""
""fullscreenenter"",""1"",""8356""
","
","","","","","","null","<div style=""font-size:60px;"">+</div>","null","","fixation","","",""
"memory-trial","122","552814","0.0-18.0-1.39","4131","approach_avoid_sv1","""event"",""trial"",""time""
""fullscreenenter"",""1"",""8356""
","
","
","""event"",""trial"",""time""
""fullscreenenter"",""1"",""8356""
","
","","","","","","2905.2000000476837","images/sofa1.png","","","memory_trial","2","maybe_old",""
"html-keyboard-response","123","553324","0.0-18.0-0.40","4131","approach_avoid_sv1","""event"",""trial"",""time""
""fullscreenenter"",""1"",""8356""
","
","
","""event"",""trial"",""time""
""fullscreenenter"",""1"",""8356""
","
","","","","","","null","<div style=""font-size:60px;"">+</div>","null","","fixation","","",""
"memory-trial","124","555892","0.0-18.0-1.40","4131","approach_avoid_sv1","""event"",""trial"",""time""
""fullscreenenter"",""1"",""8356""
","
","
","""event"",""trial"",""time""
""fullscreenenter"",""1"",""8356""
","
","","","","","","1560.2999999523163","images/apple1.png","","","memory_trial","1","definitely_old",""
"html-keyboard-response","125","556396","0.0-18.0-0.41","4131","approach_avoid_sv1","""event"",""trial"",""time""
""fullscreenenter"",""1"",""8356""
","
","
","""event"",""trial"",""time""
""fullscreenenter"",""1"",""8356""
","
","","","","","","null","<div style=""font-size:60px;"">+</div>","null","","fixation","","",""
"memory-trial","126","558803","0.0-18.0-1.41","4131","approach_avoid_sv1","""event"",""trial"",""time""
""fullscreenenter"",""1"",""8356""
","
","
","""event"",""trial"",""time""
""fullscreenenter"",""1"",""8356""
","
","","","","","","1400.2000000476837","images/plane3.png","","","memory_trial","2","maybe_old",""
"html-button-response","127","562039","0.0-18.0-2.41-0.41","4131","approach_avoid_sv1","""event"",""trial"",""time""
""fullscreenenter"",""1"",""8356""
","
","
","""event"",""trial"",""time""
""fullscreenenter"",""1"",""8356""
","
","","","","","","3233.5","<p> Take a break! </p><p> Click the button to continue. </p>","0","","break","","",""
"html-keyboard-response","128","562542","0.0-18.0-0.42","4131","approach_avoid_sv1","""event"",""trial"",""time""
""fullscreenenter"",""1"",""8356""
","
","
","""event"",""trial"",""time""
""fullscreenenter"",""1"",""8356""
","
","","","","","","null","<div style=""font-size:60px;"">+</div>","null","","fixation","","",""
"memory-trial","129","564796","0.0-18.0-1.42","4131","approach_avoid_sv1","""event"",""trial"",""time""
""fullscreenenter"",""1"",""8356""
","
","
","""event"",""trial"",""time""
""fullscreenenter"",""1"",""8356""
","
","","","","","","1248.2000000476837","images/boat8.png","","","memory_trial","3","maybe_new",""
"html-keyboard-response","130","565300","0.0-18.0-0.43","4131","approach_avoid_sv1","""event"",""trial"",""time""
""fullscreenenter"",""1"",""8356""
","
","
","""event"",""trial"",""time""
""fullscreenenter"",""1"",""8356""
","
","","","","","","null","<div style=""font-size:60px;"">+</div>","null","","fixation","","",""
"memory-trial","131","567284","0.0-18.0-1.43","4131","approach_avoid_sv1","""event"",""trial"",""time""
""fullscreenenter"",""1"",""8356""
","
","
","""event"",""trial"",""time""
""fullscreenenter"",""1"",""8356""
","
","","","","","","976.8999998569489","images/sheep2.png","","","memory_trial","1","definitely_old",""
"html-keyboard-response","132","567787","0.0-18.0-0.44","4131","approach_avoid_sv1","""event"",""trial"",""time""
""fullscreenenter"",""1"",""8356""
","
","
","""event"",""trial"",""time""
""fullscreenenter"",""1"",""8356""
","
","","","","","","null","<div style=""font-size:60px;"">+</div>","null","","fixation","","",""
"memory-trial","133","570140","0.0-18.0-1.44","4131","approach_avoid_sv1","""event"",""trial"",""time""
""fullscreenenter"",""1"",""8356""
","
","
","""event"",""trial"",""time""
""fullscreenenter"",""1"",""8356""
","
","","","","","","1340.2000000476837","images/bed7.png","","","memory_trial","3","maybe_new",""
"html-keyboard-response","134","570643","0.0-18.0-0.45","4131","approach_avoid_sv1","""event"",""trial"",""time""
""fullscreenenter"",""1"",""8356""
","
","
","""event"",""trial"",""time""
""fullscreenenter"",""1"",""8356""
","
","","","","","","null","<div style=""font-size:60px;"">+</div>","null","","fixation","","",""
"memory-trial","135","573211","0.0-18.0-1.45","4131","approach_avoid_sv1","""event"",""trial"",""time""
""fullscreenenter"",""1"",""8356""
","
","
","""event"",""trial"",""time""
""fullscreenenter"",""1"",""8356""
","
","","","","","","1562.5","images/sofa2.png","","","memory_trial","1","definitely_old",""
"html-keyboard-response","136","573717","0.0-18.0-0.46","4131","approach_avoid_sv1","""event"",""trial"",""time""
""fullscreenenter"",""1"",""8356""
","
","
","""event"",""trial"",""time""
""fullscreenenter"",""1"",""8356""
","
","","","","","","null","<div style=""font-size:60px;"">+</div>","null","","fixation","","",""
"memory-trial","137","576563","0.0-18.0-1.46","4131","approach_avoid_sv1","""event"",""trial"",""time""
""fullscreenenter"",""1"",""8356""
","
","
","""event"",""trial"",""time""
""fullscreenenter"",""1"",""8356""
","
","","","","","","1837.5","images/orange7.png","","","memory_trial","4","definitely_new",""
"html-keyboard-response","138","577067","0.0-18.0-0.47","4131","approach_avoid_sv1","""event"",""trial"",""time""
""fullscreenenter"",""1"",""8356""
","
","
","""event"",""trial"",""time""
""fullscreenenter"",""1"",""8356""
","
","","","","","","null","<div style=""font-size:60px;"">+</div>","null","","fixation","","",""
"memory-trial","139","582155","0.0-18.0-1.47","4131","approach_avoid_sv1","""event"",""trial"",""time""
""fullscreenenter"",""1"",""8356""
","
","
","""event"",""trial"",""time""
""fullscreenenter"",""1"",""8356""
","
","","","","","","4082","images/chair4.png","","","memory_trial","2","maybe_old",""
"html-keyboard-response","140","582659","0.0-18.0-0.48","4131","approach_avoid_sv1","""event"",""trial"",""time""
""fullscreenenter"",""1"",""8356""
","
","
","""event"",""trial"",""time""
""fullscreenenter"",""1"",""8356""
","
","","","","","","null","<div style=""font-size:60px;"">+</div>","null","","fixation","","",""
"memory-trial","141","589027","0.0-18.0-1.48","4131","approach_avoid_sv1","""event"",""trial"",""time""
""fullscreenenter"",""1"",""8356""
","
","
","""event"",""trial"",""time""
""fullscreenenter"",""1"",""8356""
","
","","","","","","5359.799999952316","images/cow6.png","","","memory_trial","1","definitely_old",""
"html-keyboard-response","142","589530","0.0-18.0-0.49","4131","approach_avoid_sv1","""event"",""trial"",""time""
""fullscreenenter"",""1"",""8356""
","
","
","""event"",""trial"",""time""
""fullscreenenter"",""1"",""8356""
","
","","","","","","null","<div style=""font-size:60px;"">+</div>","null","","fixation","","",""
"memory-trial","143","593026","0.0-18.0-1.49","4131","approach_avoid_sv1","""event"",""trial"",""time""
""fullscreenenter"",""1"",""8356""
","
","
","""event"",""trial"",""time""
""fullscreenenter"",""1"",""8356""
","
","","","","","","2485","images/boat5.png","","","memory_trial","1","definitely_old",""
"html-keyboard-response","144","593530","0.0-18.0-0.50","4131","approach_avoid_sv1","""event"",""trial"",""time""
""fullscreenenter"",""1"",""8356""
","
","
","""event"",""trial"",""time""
""fullscreenenter"",""1"",""8356""
","
","","","","","","null","<div style=""font-size:60px;"">+</div>","null","","fixation","","",""
"memory-trial","145","600130","0.0-18.0-1.50","4131","approach_avoid_sv1","""event"",""trial"",""time""
""fullscreenenter"",""1"",""8356""
","
","
","""event"",""trial"",""time""
""fullscreenenter"",""1"",""8356""
","
","","","","","","5588.900000095367","images/cow3.png","","","memory_trial","1","definitely_old",""
"html-keyboard-response","146","600634","0.0-18.0-0.51","4131","approach_avoid_sv1","""event"",""trial"",""time""
""fullscreenenter"",""1"",""8356""
","
","
","""event"",""trial"",""time""
""fullscreenenter"",""1"",""8356""
","
","","","","","","null","<div style=""font-size:60px;"">+</div>","null","","fixation","","",""
"memory-trial","147","602946","0.0-18.0-1.51","4131","approach_avoid_sv1","""event"",""trial"",""time""
""fullscreenenter"",""1"",""8356""
","
","
","""event"",""trial"",""time""
""fullscreenenter"",""1"",""8356""
","
","","","","","","1302.5","images/horse3.png","","","memory_trial","4","definitely_new",""
"html-keyboard-response","148","603452","0.0-18.0-0.52","4131","approach_avoid_sv1","""event"",""trial"",""time""
""fullscreenenter"",""1"",""8356""
","
","
","""event"",""trial"",""time""
""fullscreenenter"",""1"",""8356""
","
","","","","","","null","<div style=""font-size:60px;"">+</div>","null","","fixation","","",""
"memory-trial","149","610786","0.0-18.0-1.52","4131","approach_avoid_sv1","""event"",""trial"",""time""
""fullscreenenter"",""1"",""8356""
","
","
","""event"",""trial"",""time""
""fullscreenenter"",""1"",""8356""
","
","","","","","","6324.199999809265","images/bed2.png","","","memory_trial","2","maybe_old",""
"html-keyboard-response","150","611292","0.0-18.0-0.53","4131","approach_avoid_sv1","""event"",""trial"",""time""
""fullscreenenter"",""1"",""8356""
","
","
","""event"",""trial"",""time""
""fullscreenenter"",""1"",""8356""
","
","","","","","","null","<div style=""font-size:60px;"">+</div>","null","","fixation","","",""
"memory-trial","151","615034","0.0-18.0-1.53","4131","approach_avoid_sv1","""event"",""trial"",""time""
""fullscreenenter"",""1"",""8356""
","
","
","""event"",""trial"",""time""
""fullscreenenter"",""1"",""8356""
","
","","","","","","2735.4000000953674","images/tree2.png","","","memory_trial","3","maybe_new",""
"html-keyboard-response","152","615540","0.0-18.0-0.54","4131","approach_avoid_sv1","""event"",""trial"",""time""
""fullscreenenter"",""1"",""8356""
","
","
","""event"",""trial"",""time""
""fullscreenenter"",""1"",""8356""
","
","","","","","","null","<div style=""font-size:60px;"">+</div>","null","","fixation","","",""
"memory-trial","153","620298","0.0-18.0-1.54","4131","approach_avoid_sv1","""event"",""trial"",""time""
""fullscreenenter"",""1"",""8356""
","
","
","""event"",""trial"",""time""
""fullscreenenter"",""1"",""8356""
","
","","","","","","3752.2000000476837","images/horse7.png","","","memory_trial","4","definitely_new",""
"html-keyboard-response","154","620801","0.0-18.0-0.55","4131","approach_avoid_sv1","""event"",""trial"",""time""
""fullscreenenter"",""1"",""8356""
","
","
","""event"",""trial"",""time""
""fullscreenenter"",""1"",""8356""
","
","","","","","","null","<div style=""font-size:60px;"">+</div>","null","","fixation","","",""
"memory-trial","155","623426","0.0-18.0-1.55","4131","approach_avoid_sv1","""event"",""trial"",""time""
""fullscreenenter"",""1"",""8356""
","
","
","""event"",""trial"",""time""
""fullscreenenter"",""1"",""8356""
","
","","","","","","1613.7000000476837","images/bed1.png","","","memory_trial","2","maybe_old",""
"html-keyboard-response","156","623929","0.0-18.0-0.56","4131","approach_avoid_sv1","""event"",""trial"",""time""
""fullscreenenter"",""1"",""8356""
","
","
","""event"",""trial"",""time""
""fullscreenenter"",""1"",""8356""
","
","","","","","","null","<div style=""font-size:60px;"">+</div>","null","","fixation","","",""
"memory-trial","157","628913","0.0-18.0-1.56","4131","approach_avoid_sv1","""event"",""trial"",""time""
""fullscreenenter"",""1"",""8356""
","
","
","""event"",""trial"",""time""
""fullscreenenter"",""1"",""8356""
","
","","","","","","3971.600000143051","images/rabbit4.png","","","memory_trial","2","maybe_old",""
"html-keyboard-response","158","629417","0.0-18.0-0.57","4131","approach_avoid_sv1","""event"",""trial"",""time""
""fullscreenenter"",""1"",""8356""
","
","
","""event"",""trial"",""time""
""fullscreenenter"",""1"",""8356""
","
","","","","","","null","<div style=""font-size:60px;"">+</div>","null","","fixation","","",""
"memory-trial","159","632001","0.0-18.0-1.57","4131","approach_avoid_sv1","""event"",""trial"",""time""
""fullscreenenter"",""1"",""8356""
","
","
","""event"",""trial"",""time""
""fullscreenenter"",""1"",""8356""
","
","","","","","","1578.0999999046326","images/rabbit6.png","","","memory_trial","1","definitely_old",""
"html-keyboard-response","160","632507","0.0-18.0-0.58","4131","approach_avoid_sv1","""event"",""trial"",""time""
""fullscreenenter"",""1"",""8356""
","
","
","""event"",""trial"",""time""
""fullscreenenter"",""1"",""8356""
","
","","","","","","null","<div style=""font-size:60px;"">+</div>","null","","fixation","","",""
"memory-trial","161","636849","0.0-18.0-1.58","4131","approach_avoid_sv1","""event"",""trial"",""time""
""fullscreenenter"",""1"",""8356""
","
","
","""event"",""trial"",""time""
""fullscreenenter"",""1"",""8356""
","
","","","","","","3336.2999999523163","images/straw3.png","","","memory_trial","3","maybe_new",""
"html-keyboard-response","162","637355","0.0-18.0-0.59","4131","approach_avoid_sv1","""event"",""trial"",""time""
""fullscreenenter"",""1"",""8356""
","
","
","""event"",""trial"",""time""
""fullscreenenter"",""1"",""8356""
","
","","","","","","null","<div style=""font-size:60px;"">+</div>","null","","fixation","","",""
"memory-trial","163","641081","0.0-18.0-1.59","4131","approach_avoid_sv1","""event"",""trial"",""time""
""fullscreenenter"",""1"",""8356""
","
","
","""event"",""trial"",""time""
""fullscreenenter"",""1"",""8356""
","
","","","","","","2715.5","images/dog4.png","","","memory_trial","4","definitely_new",""
"html-keyboard-response","164","641585","0.0-18.0-0.60","4131","approach_avoid_sv1","""event"",""trial"",""time""
""fullscreenenter"",""1"",""8356""
","
","
","""event"",""trial"",""time""
""fullscreenenter"",""1"",""8356""
","
","","","","","","null","<div style=""font-size:60px;"">+</div>","null","","fixation","","",""
"memory-trial","165","645593","0.0-18.0-1.60","4131","approach_avoid_sv1","""event"",""trial"",""time""
""fullscreenenter"",""1"",""8356""
","
","
","""event"",""trial"",""time""
""fullscreenenter"",""1"",""8356""
","
","","","","","","2997","images/banana4.png","","","memory_trial","4","definitely_new",""
"html-keyboard-response","166","646098","0.0-18.0-0.61","4131","approach_avoid_sv1","""event"",""trial"",""time""
""fullscreenenter"",""1"",""8356""
","
","
","""event"",""trial"",""time""
""fullscreenenter"",""1"",""8356""
","
","","","","","","null","<div style=""font-size:60px;"">+</div>","null","","fixation","","",""
"memory-trial","167","648633","0.0-18.0-1.61","4131","approach_avoid_sv1","""event"",""trial"",""time""
""fullscreenenter"",""1"",""8356""
","
","
","""event"",""trial"",""time""
""fullscreenenter"",""1"",""8356""
","
","","","","","","1522.7000000476837","images/cow1.png","","","memory_trial","3","maybe_new",""
"html-keyboard-response","168","649137","0.0-18.0-0.62","4131","approach_avoid_sv1","""event"",""trial"",""time""
""fullscreenenter"",""1"",""8356""
","
","
","""event"",""trial"",""time""
""fullscreenenter"",""1"",""8356""
","
","","","","","","null","<div style=""font-size:60px;"">+</div>","null","","fixation","","",""
"memory-trial","169","651233","0.0-18.0-1.62","4131","approach_avoid_sv1","""event"",""trial"",""time""
""fullscreenenter"",""1"",""8356""
","
","
","""event"",""trial"",""time""
""fullscreenenter"",""1"",""8356""
","
","","","","","","1086.4000000953674","images/straw1.png","","","memory_trial","1","definitely_old",""
"html-keyboard-response","170","651736","0.0-18.0-0.63","4131","approach_avoid_sv1","""event"",""trial"",""time""
""fullscreenenter"",""1"",""8356""
","
","
","""event"",""trial"",""time""
""fullscreenenter"",""1"",""8356""
","
","","","","","","null","<div style=""font-size:60px;"">+</div>","null","","fixation","","",""
"memory-trial","171","654232","0.0-18.0-1.63","4131","approach_avoid_sv1","""event"",""trial"",""time""
""fullscreenenter"",""1"",""8356""
","
","
","""event"",""trial"",""time""
""fullscreenenter"",""1"",""8356""
","
","","","","","","1488","images/goat6.png","","","memory_trial","4","definitely_new",""
"html-keyboard-response","172","654736","0.0-18.0-0.64","4131","approach_avoid_sv1","""event"",""trial"",""time""
""fullscreenenter"",""1"",""8356""
","
","
","""event"",""trial"",""time""
""fullscreenenter"",""1"",""8356""
","
","","","","","","null","<div style=""font-size:60px;"">+</div>","null","","fixation","","",""
"memory-trial","173","656792","0.0-18.0-1.64","4131","approach_avoid_sv1","""event"",""trial"",""time""
""fullscreenenter"",""1"",""8356""
","
","
","""event"",""trial"",""time""
""fullscreenenter"",""1"",""8356""
","
","","","","","","1047","images/table6.png","","","memory_trial","1","definitely_old",""
"html-keyboard-response","174","657296","0.0-18.0-0.65","4131","approach_avoid_sv1","""event"",""trial"",""time""
""fullscreenenter"",""1"",""8356""
","
","
","""event"",""trial"",""time""
""fullscreenenter"",""1"",""8356""
","
","","","","","","null","<div style=""font-size:60px;"">+</div>","null","","fixation","","",""
"memory-trial","175","661706","0.0-18.0-1.65","4131","approach_avoid_sv1","""event"",""trial"",""time""
""fullscreenenter"",""1"",""8356""
","
","
","""event"",""trial"",""time""
""fullscreenenter"",""1"",""8356""
","
","","","","","","3399","images/banana5.png","","","memory_trial","2","maybe_old",""
"html-keyboard-response","176","662210","0.0-18.0-0.66","4131","approach_avoid_sv1","""event"",""trial"",""time""
""fullscreenenter"",""1"",""8356""
","
","
","""event"",""trial"",""time""
""fullscreenenter"",""1"",""8356""
","
","","","","","","null","<div style=""font-size:60px;"">+</div>","null","","fixation","","",""
"memory-trial","177","664480","0.0-18.0-1.66","4131","approach_avoid_sv1","""event"",""trial"",""time""
""fullscreenenter"",""1"",""8356""
","
","
","""event"",""trial"",""time""
""fullscreenenter"",""1"",""8356""
","
","","","","","","1259.3000001907349","images/bed3.png","","","memory_trial","2","maybe_old",""
"html-keyboard-response","178","664984","0.0-18.0-0.67","4131","approach_avoid_sv1","""event"",""trial"",""time""
""fullscreenenter"",""1"",""8356""
","
","
","""event"",""trial"",""time""
""fullscreenenter"",""1"",""8356""
","
","","","","","","null","<div style=""font-size:60px;"">+</div>","null","","fixation","","",""
"memory-trial","179","667104","0.0-18.0-1.67","4131","approach_avoid_sv1","""event"",""trial"",""time""
""fullscreenenter"",""1"",""8356""
","
","
","""event"",""trial"",""time""
""fullscreenenter"",""1"",""8356""
","
","","","","","","1110.3999998569489","images/bush4.png","","","memory_trial","1","definitely_old",""
"html-keyboard-response","180","667610","0.0-18.0-0.68","4131","approach_avoid_sv1","""event"",""trial"",""time""
""fullscreenenter"",""1"",""8356""
","
","
","""event"",""trial"",""time""
""fullscreenenter"",""1"",""8356""
","
","","","","","","null","<div style=""font-size:60px;"">+</div>","null","","fixation","","",""
"memory-trial","181","670328","0.0-18.0-1.68","4131","approach_avoid_sv1","""event"",""trial"",""time""
""fullscreenenter"",""1"",""8356""
","
","
","""event"",""trial"",""time""
""fullscreenenter"",""1"",""8356""
","
","","","","","","1711","images/straw5.png","","","memory_trial","1","definitely_old",""
"html-keyboard-response","182","670834","0.0-18.0-0.69","4131","approach_avoid_sv1","""event"",""trial"",""time""
""fullscreenenter"",""1"",""8356""
","
","
","""event"",""trial"",""time""
""fullscreenenter"",""1"",""8356""
","
","","","","","","null","<div style=""font-size:60px;"">+</div>","null","","fixation","","",""
"memory-trial","183","673128","0.0-18.0-1.69","4131","approach_avoid_sv1","""event"",""trial"",""time""
""fullscreenenter"",""1"",""8356""
","
","
","""event"",""trial"",""time""
""fullscreenenter"",""1"",""8356""
","
","","","","","","1284.3999998569489","images/sofa5.png","","","memory_trial","2","maybe_old",""
"html-keyboard-response","184","673631","0.0-18.0-0.70","4131","approach_avoid_sv1","""event"",""trial"",""time""
""fullscreenenter"",""1"",""8356""
","
","
","""event"",""trial"",""time""
""fullscreenenter"",""1"",""8356""
","
","","","","","","null","<div style=""font-size:60px;"">+</div>","null","","fixation","","",""
"memory-trial","185","676065","0.0-18.0-1.70","4131","approach_avoid_sv1","""event"",""trial"",""time""
""fullscreenenter"",""1"",""8356""
","
","
","""event"",""trial"",""time""
""fullscreenenter"",""1"",""8356""
","
","","","","","","1428","images/bed6.png","","","memory_trial","4","definitely_new",""
"html-keyboard-response","186","676576","0.0-18.0-0.71","4131","approach_avoid_sv1","""event"",""trial"",""time""
""fullscreenenter"",""1"",""8356""
","
","
","""event"",""trial"",""time""
""fullscreenenter"",""1"",""8356""
","
","","","","","","null","<div style=""font-size:60px;"">+</div>","null","","fixation","","",""
"memory-trial","187","679040","0.0-18.0-1.71","4131","approach_avoid_sv1","""event"",""trial"",""time""
""fullscreenenter"",""1"",""8356""
","
","
","""event"",""trial"",""time""
""fullscreenenter"",""1"",""8356""
","
","","","","","","1451.9000000953674","images/flower3.png","","","memory_trial","4","definitely_new",""
"html-keyboard-response","188","679545","0.0-18.0-0.72","4131","approach_avoid_sv1","""event"",""trial"",""time""
""fullscreenenter"",""1"",""8356""
","
","
","""event"",""trial"",""time""
""fullscreenenter"",""1"",""8356""
","
","","","","","","null","<div style=""font-size:60px;"">+</div>","null","","fixation","","",""
"memory-trial","189","682456","0.0-18.0-1.72","4131","approach_avoid_sv1","""event"",""trial"",""time""
""fullscreenenter"",""1"",""8356""
","
","
","""event"",""trial"",""time""
""fullscreenenter"",""1"",""8356""
","
","","","","","","1905.4000000953674","images/train1.png","","","memory_trial","1","definitely_old",""
"html-keyboard-response","190","682959","0.0-18.0-0.73","4131","approach_avoid_sv1","""event"",""trial"",""time""
""fullscreenenter"",""1"",""8356""
","
","
","""event"",""trial"",""time""
""fullscreenenter"",""1"",""8356""
","
","","","","","","null","<div style=""font-size:60px;"">+</div>","null","","fixation","","",""
"memory-trial","191","685664","0.0-18.0-1.73","4131","approach_avoid_sv1","""event"",""trial"",""time""
""fullscreenenter"",""1"",""8356""
","
","
","""event"",""trial"",""time""
""fullscreenenter"",""1"",""8356""
","
","","","","","","1696.2000000476837","images/cat2.png","","","memory_trial","2","maybe_old",""
"html-keyboard-response","192","686167","0.0-18.0-0.74","4131","approach_avoid_sv1","""event"",""trial"",""time""
""fullscreenenter"",""1"",""8356""
","
","
","""event"",""trial"",""time""
""fullscreenenter"",""1"",""8356""
","
","","","","","","null","<div style=""font-size:60px;"">+</div>","null","","fixation","","",""
"memory-trial","193","689783","0.0-18.0-1.74","4131","approach_avoid_sv1","""event"",""trial"",""time""
""fullscreenenter"",""1"",""8356""
","
","
","""event"",""trial"",""time""
""fullscreenenter"",""1"",""8356""
","
","","","","","","2607.5999999046326","images/chair1.png","","","memory_trial","1","definitely_old",""
"html-keyboard-response","194","690287","0.0-18.0-0.75","4131","approach_avoid_sv1","""event"",""trial"",""time""
""fullscreenenter"",""1"",""8356""
","
","
","""event"",""trial"",""time""
""fullscreenenter"",""1"",""8356""
","
","","","","","","null","<div style=""font-size:60px;"">+</div>","null","","fixation","","",""
"memory-trial","195","695607","0.0-18.0-1.75","4131","approach_avoid_sv1","""event"",""trial"",""time""
""fullscreenenter"",""1"",""8356""
","
","
","""event"",""trial"",""time""
""fullscreenenter"",""1"",""8356""
","
","","","","","","4314.900000095367","images/chair3.png","","","memory_trial","3","maybe_new",""
"html-keyboard-response","196","696111","0.0-18.0-0.76","4131","approach_avoid_sv1","""event"",""trial"",""time""
""fullscreenenter"",""1"",""8356""
","
","
","""event"",""trial"",""time""
""fullscreenenter"",""1"",""8356""
","
","","","","","","null","<div style=""font-size:60px;"">+</div>","null","","fixation","","",""
"memory-trial","197","698510","0.0-18.0-1.76","4131","approach_avoid_sv1","""event"",""trial"",""time""
""fullscreenenter"",""1"",""8356""
","
","
","""event"",""trial"",""time""
""fullscreenenter"",""1"",""8356""
","
","","","","","","1389.2000000476837","images/rodent4.png","","","memory_trial","4","definitely_new",""
"html-keyboard-response","198","699015","0.0-18.0-0.77","4131","approach_avoid_sv1","""event"",""trial"",""time""
""fullscreenenter"",""1"",""8356""
","
","
","""event"",""trial"",""time""
""fullscreenenter"",""1"",""8356""
","
","","","","","","null","<div style=""font-size:60px;"">+</div>","null","","fixation","","",""
"memory-trial","199","705615","0.0-18.0-1.77","4131","approach_avoid_sv1","""event"",""trial"",""time""
""fullscreenenter"",""1"",""8356""
","
","
","""event"",""trial"",""time""
""fullscreenenter"",""1"",""8356""
","
","","","","","","5595.299999952316","images/truck3.png","","","memory_trial","4","definitely_new",""
"html-keyboard-response","200","706119","0.0-18.0-0.78","4131","approach_avoid_sv1","""event"",""trial"",""time""
""fullscreenenter"",""1"",""8356""
","
","
","""event"",""trial"",""time""
""fullscreenenter"",""1"",""8356""
","
","","","","","","null","<div style=""font-size:60px;"">+</div>","null","","fixation","","",""
"memory-trial","201","708838","0.0-18.0-1.78","4131","approach_avoid_sv1","""event"",""trial"",""time""
""fullscreenenter"",""1"",""8356""
","
","
","""event"",""trial"",""time""
""fullscreenenter"",""1"",""8356""
","
","","","","","","1712.9000000953674","images/train7.png","","","memory_trial","2","maybe_old",""
"html-keyboard-response","202","709342","0.0-18.0-0.79","4131","approach_avoid_sv1","""event"",""trial"",""time""
""fullscreenenter"",""1"",""8356""
","
","
","""event"",""trial"",""time""
""fullscreenenter"",""1"",""8356""
","
","","","","","","null","<div style=""font-size:60px;"">+</div>","null","","fixation","","",""
"memory-trial","203","711583","0.0-18.0-1.79","4131","approach_avoid_sv1","""event"",""trial"",""time""
""fullscreenenter"",""1"",""8356""
","
","
","""event"",""trial"",""time""
""fullscreenenter"",""1"",""8356""
","
","","","","","","1236.0999999046326","images/flower5.png","","","memory_trial","3","maybe_new",""
"html-keyboard-response","204","712086","0.0-18.0-0.80","4131","approach_avoid_sv1","""event"",""trial"",""time""
""fullscreenenter"",""1"",""8356""
","
","
","""event"",""trial"",""time""
""fullscreenenter"",""1"",""8356""
","
","","","","","","null","<div style=""font-size:60px;"">+</div>","null","","fixation","","",""
"memory-trial","205","715757","0.0-18.0-1.80","4131","approach_avoid_sv1","""event"",""trial"",""time""
""fullscreenenter"",""1"",""8356""
","
","
","""event"",""trial"",""time""
""fullscreenenter"",""1"",""8356""
","
","","","","","","2664.7999999523163","images/cow5.png","","","memory_trial","2","maybe_old",""
"html-keyboard-response","206","716262","0.0-18.0-0.81","4131","approach_avoid_sv1","""event"",""trial"",""time""
""fullscreenenter"",""1"",""8356""
","
","
","""event"",""trial"",""time""
""fullscreenenter"",""1"",""8356""
","
","","","","","","null","<div style=""font-size:60px;"">+</div>","null","","fixation","","",""
"memory-trial","207","718534","0.0-18.0-1.81","4131","approach_avoid_sv1","""event"",""trial"",""time""
""fullscreenenter"",""1"",""8356""
","
","
","""event"",""trial"",""time""
""fullscreenenter"",""1"",""8356""
","
","","","","","","1265.5","images/sofa4.png","","","memory_trial","2","maybe_old",""
"html-keyboard-response","208","719040","0.0-18.0-0.82","4131","approach_avoid_sv1","""event"",""trial"",""time""
""fullscreenenter"",""1"",""8356""
","
","
","""event"",""trial"",""time""
""fullscreenenter"",""1"",""8356""
","
","","","","","","null","<div style=""font-size:60px;"">+</div>","null","","fixation","","",""
"memory-trial","209","721062","0.0-18.0-1.82","4131","approach_avoid_sv1","""event"",""trial"",""time""
""fullscreenenter"",""1"",""8356""
","
","
","""event"",""trial"",""time""
""fullscreenenter"",""1"",""8356""
","
","","","","","","1018.1000001430511","images/cat3.png","","","memory_trial","2","maybe_old",""
"html-keyboard-response","210","721566","0.0-18.0-0.83","4131","approach_avoid_sv1","""event"",""trial"",""time""
""fullscreenenter"",""1"",""8356""
","
","
","""event"",""trial"",""time""
""fullscreenenter"",""1"",""8356""
","
","","","","","","null","<div style=""font-size:60px;"">+</div>","null","","fixation","","",""
"memory-trial","211","723702","0.0-18.0-1.83","4131","approach_avoid_sv1","""event"",""trial"",""time""
""fullscreenenter"",""1"",""8356""
","
","
","""event"",""trial"",""time""
""fullscreenenter"",""1"",""8356""
","
","","","","","","1130.5","images/rabbit7.png","","","memory_trial","1","definitely_old",""
"html-keyboard-response","212","724206","0.0-18.0-0.84","4131","approach_avoid_sv1","""event"",""trial"",""time""
""fullscreenenter"",""1"",""8356""
","
","
","""event"",""trial"",""time""
""fullscreenenter"",""1"",""8356""
","
","","","","","","null","<div style=""font-size:60px;"">+</div>","null","","fixation","","",""
"memory-trial","213","726541","0.0-18.0-1.84","4131","approach_avoid_sv1","""event"",""trial"",""time""
""fullscreenenter"",""1"",""8356""
","
","
","""event"",""trial"",""time""
""fullscreenenter"",""1"",""8356""
","
","","","","","","1325.2000000476837","images/dog8.png","","","memory_trial","4","definitely_new",""
"html-keyboard-response","214","727045","0.0-18.0-0.85","4131","approach_avoid_sv1","""event"",""trial"",""time""
""fullscreenenter"",""1"",""8356""
","
","
","""event"",""trial"",""time""
""fullscreenenter"",""1"",""8356""
","
","","","","","","null","<div style=""font-size:60px;"">+</div>","null","","fixation","","",""
"memory-trial","215","729734","0.0-18.0-1.85","4131","approach_avoid_sv1","""event"",""trial"",""time""
""fullscreenenter"",""1"",""8356""
","
","
","""event"",""trial"",""time""
""fullscreenenter"",""1"",""8356""
","
","","","","","","1679.6000001430511","images/plane1.png","","","memory_trial","1","definitely_old",""
"html-keyboard-response","216","730240","0.0-18.0-0.86","4131","approach_avoid_sv1","""event"",""trial"",""time""
""fullscreenenter"",""1"",""8356""
","
","
","""event"",""trial"",""time""
""fullscreenenter"",""1"",""8356""
","
","","","","","","null","<div style=""font-size:60px;"">+</div>","null","","fixation","","",""
"memory-trial","217","733293","0.0-18.0-1.86","4131","approach_avoid_sv1","""event"",""trial"",""time""
""fullscreenenter"",""1"",""8356""
","
","
","""event"",""trial"",""time""
""fullscreenenter"",""1"",""8356""
","
","","","","","","2044.5","images/rodent2.png","","","memory_trial","3","maybe_new",""
"html-keyboard-response","218","733798","0.0-18.0-0.87","4131","approach_avoid_sv1","""event"",""trial"",""time""
""fullscreenenter"",""1"",""8356""
","
","
","""event"",""trial"",""time""
""fullscreenenter"",""1"",""8356""
","
","","","","","","null","<div style=""font-size:60px;"">+</div>","null","","fixation","","",""
"memory-trial","219","737869","0.0-18.0-1.87","4131","approach_avoid_sv1","""event"",""trial"",""time""
""fullscreenenter"",""1"",""8356""
","
","
","""event"",""trial"",""time""
""fullscreenenter"",""1"",""8356""
","
","","","","","","3064.2000000476837","images/plane4.png","","","memory_trial","4","definitely_new",""
"html-keyboard-response","220","738374","0.0-18.0-0.88","4131","approach_avoid_sv1","""event"",""trial"",""time""
""fullscreenenter"",""1"",""8356""
","
","
","""event"",""trial"",""time""
""fullscreenenter"",""1"",""8356""
","
","","","","","","null","<div style=""font-size:60px;"">+</div>","null","","fixation","","",""
"memory-trial","221","741733","0.0-18.0-1.88","4131","approach_avoid_sv1","""event"",""trial"",""time""
""fullscreenenter"",""1"",""8356""
","
","
","""event"",""trial"",""time""
""fullscreenenter"",""1"",""8356""
","
","","","","","","2353","images/plane2.png","","","memory_trial","1","definitely_old",""
"html-keyboard-response","222","742237","0.0-18.0-0.89","4131","approach_avoid_sv1","""event"",""trial"",""time""
""fullscreenenter"",""1"",""8356""
","
","
","""event"",""trial"",""time""
""fullscreenenter"",""1"",""8356""
","
","","","","","","null","<div style=""font-size:60px;"">+</div>","null","","fixation","","",""
"memory-trial","223","746309","0.0-18.0-1.89","4131","approach_avoid_sv1","""event"",""trial"",""time""
""fullscreenenter"",""1"",""8356""
","
","
","""event"",""trial"",""time""
""fullscreenenter"",""1"",""8356""
","
","","","","","","3064.7000000476837","images/tree1.png","","","memory_trial","3","maybe_new",""
"html-keyboard-response","224","746813","0.0-18.0-0.90","4131","approach_avoid_sv1","""event"",""trial"",""time""
""fullscreenenter"",""1"",""8356""
","
","
","""event"",""trial"",""time""
""fullscreenenter"",""1"",""8356""
","
","","","","","","null","<div style=""font-size:60px;"">+</div>","null","","fixation","","",""
"memory-trial","225","749301","0.0-18.0-1.90","4131","approach_avoid_sv1","""event"",""trial"",""time""
""fullscreenenter"",""1"",""8356""
","
","
","""event"",""trial"",""time""
""fullscreenenter"",""1"",""8356""
","
","","","","","","1478.9000000953674","images/table3.png","","","memory_trial","3","maybe_new",""
"html-keyboard-response","226","749804","0.0-18.0-0.91","4131","approach_avoid_sv1","""event"",""trial"",""time""
""fullscreenenter"",""1"",""8356""
","
","
","""event"",""trial"",""time""
""fullscreenenter"",""1"",""8356""
","
","","","","","","null","<div style=""font-size:60px;"">+</div>","null","","fixation","","",""
"memory-trial","227","752546","0.0-18.0-1.91","4131","approach_avoid_sv1","""event"",""trial"",""time""
""fullscreenenter"",""1"",""8356""
","
","
","""event"",""trial"",""time""
""fullscreenenter"",""1"",""8356""
","
","","","","","","1727.2000000476837","images/cat1.png","","","memory_trial","4","definitely_new",""
"html-button-response","228","756865","0.0-18.0-2.91-0.91","4131","approach_avoid_sv1","""event"",""trial"",""time""
""fullscreenenter"",""1"",""8356""
","
","
","""event"",""trial"",""time""
""fullscreenenter"",""1"",""8356""
","
","","","","","","4308.699999809265","<p> Take a break! </p><p> Click the button to continue. </p>","0","","break","","",""
"html-keyboard-response","229","757371","0.0-18.0-0.92","4131","approach_avoid_sv1","""event"",""trial"",""time""
""fullscreenenter"",""1"",""8356""
","
","
","""event"",""trial"",""time""
""fullscreenenter"",""1"",""8356""
","
","","","","","","null","<div style=""font-size:60px;"">+</div>","null","","fixation","","",""
"memory-trial","230","759511","0.0-18.0-1.92","4131","approach_avoid_sv1","""event"",""trial"",""time""
""fullscreenenter"",""1"",""8356""
","
","
","""event"",""trial"",""time""
""fullscreenenter"",""1"",""8356""
","
","","","","","","1126.4000000953674","images/rabbit8.png","","","memory_trial","3","maybe_new",""
"html-keyboard-response","231","760016","0.0-18.0-0.93","4131","approach_avoid_sv1","""event"",""trial"",""time""
""fullscreenenter"",""1"",""8356""
","
","
","""event"",""trial"",""time""
""fullscreenenter"",""1"",""8356""
","
","","","","","","null","<div style=""font-size:60px;"">+</div>","null","","fixation","","",""
"memory-trial","232","762036","0.0-18.0-1.93","4131","approach_avoid_sv1","""event"",""trial"",""time""
""fullscreenenter"",""1"",""8356""
","
","
","""event"",""trial"",""time""
""fullscreenenter"",""1"",""8356""
","
","","","","","","1005","images/truck7.png","","","memory_trial","3","maybe_new",""
"html-keyboard-response","233","762541","0.0-18.0-0.94","4131","approach_avoid_sv1","""event"",""trial"",""time""
""fullscreenenter"",""1"",""8356""
","
","
","""event"",""trial"",""time""
""fullscreenenter"",""1"",""8356""
","
","","","","","","null","<div style=""font-size:60px;"">+</div>","null","","fixation","","",""
"memory-trial","234","765359","0.0-18.0-1.94","4131","approach_avoid_sv1","""event"",""trial"",""time""
""fullscreenenter"",""1"",""8356""
","
","
","""event"",""trial"",""time""
""fullscreenenter"",""1"",""8356""
","
","","","","","","1807","images/orange2.png","","","memory_trial","2","maybe_old",""
"html-keyboard-response","235","765863","0.0-18.0-0.95","4131","approach_avoid_sv1","""event"",""trial"",""time""
""fullscreenenter"",""1"",""8356""
","
","
","""event"",""trial"",""time""
""fullscreenenter"",""1"",""8356""
","
","","","","","","null","<div style=""font-size:60px;"">+</div>","null","","fixation","","",""
"memory-trial","236","768481","0.0-18.0-1.95","4131","approach_avoid_sv1","""event"",""trial"",""time""
""fullscreenenter"",""1"",""8356""
","
","
","""event"",""trial"",""time""
""fullscreenenter"",""1"",""8356""
","
","","","","","","1609.2000000476837","images/cat4.png","","","memory_trial","3","maybe_new",""
"html-keyboard-response","237","768988","0.0-18.0-0.96","4131","approach_avoid_sv1","""event"",""trial"",""time""
""fullscreenenter"",""1"",""8356""
","
","
","""event"",""trial"",""time""
""fullscreenenter"",""1"",""8356""
","
","","","","","","null","<div style=""font-size:60px;"">+</div>","null","","fixation","","",""
"memory-trial","238","771275","0.0-18.0-1.96","4131","approach_avoid_sv1","""event"",""trial"",""time""
""fullscreenenter"",""1"",""8356""
","
","
","""event"",""trial"",""time""
""fullscreenenter"",""1"",""8356""
","
","","","","","","1273.9000000953674","images/goat3.png","","","memory_trial","2","maybe_old",""
"html-keyboard-response","239","771779","0.0-18.0-0.97","4131","approach_avoid_sv1","""event"",""trial"",""time""
""fullscreenenter"",""1"",""8356""
","
","
","""event"",""trial"",""time""
""fullscreenenter"",""1"",""8356""
","
","","","","","","null","<div style=""font-size:60px;"">+</div>","null","","fixation","","",""
"memory-trial","240","774432","0.0-18.0-1.97","4131","approach_avoid_sv1","""event"",""trial"",""time""
""fullscreenenter"",""1"",""8356""
","
","
","""event"",""trial"",""time""
""fullscreenenter"",""1"",""8356""
","
","","","","","","1644.3000001907349","images/rodent6.png","","","memory_trial","4","definitely_new",""
"html-keyboard-response","241","774941","0.0-18.0-0.98","4131","approach_avoid_sv1","""event"",""trial"",""time""
""fullscreenenter"",""1"",""8356""
","
","
","""event"",""trial"",""time""
""fullscreenenter"",""1"",""8356""
","
","","","","","","null","<div style=""font-size:60px;"">+</div>","null","","fixation","","",""
"memory-trial","242","777510","0.0-18.0-1.98","4131","approach_avoid_sv1","""event"",""trial"",""time""
""fullscreenenter"",""1"",""8356""
","
","
","""event"",""trial"",""time""
""fullscreenenter"",""1"",""8356""
","
","","","","","","1559.1999998092651","images/bush8.png","","","memory_trial","2","maybe_old",""
"html-keyboard-response","243","778014","0.0-18.0-0.99","4131","approach_avoid_sv1","""event"",""trial"",""time""
""fullscreenenter"",""1"",""8356""
","
","
","""event"",""trial"",""time""
""fullscreenenter"",""1"",""8356""
","
","","","","","","null","<div style=""font-size:60px;"">+</div>","null","","fixation","","",""
"memory-trial","244","780312","0.0-18.0-1.99","4131","approach_avoid_sv1","""event"",""trial"",""time""
""fullscreenenter"",""1"",""8356""
","
","
","""event"",""trial"",""time""
""fullscreenenter"",""1"",""8356""
","
","","","","","","1286.7999999523163","images/flower2.png","","","memory_trial","2","maybe_old",""
"html-keyboard-response","245","780816","0.0-18.0-0.100","4131","approach_avoid_sv1","""event"",""trial"",""time""
""fullscreenenter"",""1"",""8356""
","
","
","""event"",""trial"",""time""
""fullscreenenter"",""1"",""8356""
","
","","","","","","null","<div style=""font-size:60px;"">+</div>","null","","fixation","","",""
"memory-trial","246","783681","0.0-18.0-1.100","4131","approach_avoid_sv1","""event"",""trial"",""time""
""fullscreenenter"",""1"",""8356""
","
","
","""event"",""trial"",""time""
""fullscreenenter"",""1"",""8356""
","
","","","","","","1859.0999999046326","images/horse4.png","","","memory_trial","2","maybe_old",""
"html-keyboard-response","247","784185","0.0-18.0-0.101","4131","approach_avoid_sv1","""event"",""trial"",""time""
""fullscreenenter"",""1"",""8356""
","
","
","""event"",""trial"",""time""
""fullscreenenter"",""1"",""8356""
","
","","","","","","null","<div style=""font-size:60px;"">+</div>","null","","fixation","","",""
"memory-trial","248","786458","0.0-18.0-1.101","4131","approach_avoid_sv1","""event"",""trial"",""time""
""fullscreenenter"",""1"",""8356""
","
","
","""event"",""trial"",""time""
""fullscreenenter"",""1"",""8356""
","
","","","","","","1265.7999999523163","images/boat3.png","","","memory_trial","1","definitely_old",""
"html-keyboard-response","249","786962","0.0-18.0-0.102","4131","approach_avoid_sv1","""event"",""trial"",""time""
""fullscreenenter"",""1"",""8356""
","
","
","""event"",""trial"",""time""
""fullscreenenter"",""1"",""8356""
","
","","","","","","null","<div style=""font-size:60px;"">+</div>","null","","fixation","","",""
"memory-trial","250","790107","0.0-18.0-1.102","4131","approach_avoid_sv1","""event"",""trial"",""time""
""fullscreenenter"",""1"",""8356""
","
","
","""event"",""trial"",""time""
""fullscreenenter"",""1"",""8356""
","
","","","","","","2140.2999999523163","images/horse5.png","","","memory_trial","3","maybe_new",""
"html-keyboard-response","251","790611","0.0-18.0-0.103","4131","approach_avoid_sv1","""event"",""trial"",""time""
""fullscreenenter"",""1"",""8356""
","
","
","""event"",""trial"",""time""
""fullscreenenter"",""1"",""8356""
","
","","","","","","null","<div style=""font-size:60px;"">+</div>","null","","fixation","","",""
"memory-trial","252","793275","0.0-18.0-1.103","4131","approach_avoid_sv1","""event"",""trial"",""time""
""fullscreenenter"",""1"",""8356""
","
","
","""event"",""trial"",""time""
""fullscreenenter"",""1"",""8356""
","
","","","","","","1656.5999999046326","images/boat6.png","","","memory_trial","2","maybe_old",""
"html-keyboard-response","253","793779","0.0-18.0-0.104","4131","approach_avoid_sv1","""event"",""trial"",""time""
""fullscreenenter"",""1"",""8356""
","
","
","""event"",""trial"",""time""
""fullscreenenter"",""1"",""8356""
","
","","","","","","null","<div style=""font-size:60px;"">+</div>","null","","fixation","","",""
"memory-trial","254","796492","0.0-18.0-1.104","4131","approach_avoid_sv1","""event"",""trial"",""time""
""fullscreenenter"",""1"",""8356""
","
","
","""event"",""trial"",""time""
""fullscreenenter"",""1"",""8356""
","
","","","","","","1702.1000001430511","images/cow8.png","","","memory_trial","2","maybe_old",""
"html-keyboard-response","255","796995","0.0-18.0-0.105","4131","approach_avoid_sv1","""event"",""trial"",""time""
""fullscreenenter"",""1"",""8356""
","
","
","""event"",""trial"",""time""
""fullscreenenter"",""1"",""8356""
","
","","","","","","null","<div style=""font-size:60px;"">+</div>","null","","fixation","","",""
"memory-trial","256","800940","0.0-18.0-1.105","4131","approach_avoid_sv1","""event"",""trial"",""time""
""fullscreenenter"",""1"",""8356""
","
","
","""event"",""trial"",""time""
""fullscreenenter"",""1"",""8356""
","
","","","","","","2938.899999856949","images/goat7.png","","","memory_trial","2","maybe_old",""
"html-keyboard-response","257","801445","0.0-18.0-0.106","4131","approach_avoid_sv1","""event"",""trial"",""time""
""fullscreenenter"",""1"",""8356""
","
","
","""event"",""trial"",""time""
""fullscreenenter"",""1"",""8356""
","
","","","","","","null","<div style=""font-size:60px;"">+</div>","null","","fixation","","",""
"memory-trial","258","803780","0.0-18.0-1.106","4131","approach_avoid_sv1","""event"",""trial"",""time""
""fullscreenenter"",""1"",""8356""
","
","
","""event"",""trial"",""time""
""fullscreenenter"",""1"",""8356""
","
","","","","","","1323.6000001430511","images/cow2.png","","","memory_trial","1","definitely_old",""
"html-keyboard-response","259","804284","0.0-18.0-0.107","4131","approach_avoid_sv1","""event"",""trial"",""time""
""fullscreenenter"",""1"",""8356""
","
","
","""event"",""trial"",""time""
""fullscreenenter"",""1"",""8356""
","
","","","","","","null","<div style=""font-size:60px;"">+</div>","null","","fixation","","",""
"memory-trial","260","807877","0.0-18.0-1.107","4131","approach_avoid_sv1","""event"",""trial"",""time""
""fullscreenenter"",""1"",""8356""
","
","
","""event"",""trial"",""time""
""fullscreenenter"",""1"",""8356""
","
","","","","","","2582.7999999523163","images/cat8.png","","","memory_trial","2","maybe_old",""
"html-keyboard-response","261","808380","0.0-18.0-0.108","4131","approach_avoid_sv1","""event"",""trial"",""time""
""fullscreenenter"",""1"",""8356""
","
","
","""event"",""trial"",""time""
""fullscreenenter"",""1"",""8356""
","
","","","","","","null","<div style=""font-size:60px;"">+</div>","null","","fixation","","",""
"memory-trial","262","810501","0.0-18.0-1.108","4131","approach_avoid_sv1","""event"",""trial"",""time""
""fullscreenenter"",""1"",""8356""
","
","
","""event"",""trial"",""time""
""fullscreenenter"",""1"",""8356""
","
","","","","","","1108.9000000953674","images/boat7.png","","","memory_trial","2","maybe_old",""
"html-keyboard-response","263","811005","0.0-18.0-0.109","4131","approach_avoid_sv1","""event"",""trial"",""time""
""fullscreenenter"",""1"",""8356""
","
","
","""event"",""trial"",""time""
""fullscreenenter"",""1"",""8356""
","
","","","","","","null","<div style=""font-size:60px;"">+</div>","null","","fixation","","",""
"memory-trial","264","814221","0.0-18.0-1.109","4131","approach_avoid_sv1","""event"",""trial"",""time""
""fullscreenenter"",""1"",""8356""
","
","
","""event"",""trial"",""time""
""fullscreenenter"",""1"",""8356""
","
","","","","","","2209","images/apple2.png","","","memory_trial","1","definitely_old",""
"html-keyboard-response","265","814725","0.0-18.0-0.110","4131","approach_avoid_sv1","""event"",""trial"",""time""
""fullscreenenter"",""1"",""8356""
","
","
","""event"",""trial"",""time""
""fullscreenenter"",""1"",""8356""
","
","","","","","","null","<div style=""font-size:60px;"">+</div>","null","","fixation","","",""
"memory-trial","266","819397","0.0-18.0-1.110","4131","approach_avoid_sv1","""event"",""trial"",""time""
""fullscreenenter"",""1"",""8356""
","
","
","""event"",""trial"",""time""
""fullscreenenter"",""1"",""8356""
","
","","","","","","3663.100000143051","images/truck6.png","","","memory_trial","4","definitely_new",""
"html-keyboard-response","267","819901","0.0-18.0-0.111","4131","approach_avoid_sv1","""event"",""trial"",""time""
""fullscreenenter"",""1"",""8356""
","
","
","""event"",""trial"",""time""
""fullscreenenter"",""1"",""8356""
","
","","","","","","null","<div style=""font-size:60px;"">+</div>","null","","fixation","","",""
"memory-trial","268","822756","0.0-18.0-1.111","4131","approach_avoid_sv1","""event"",""trial"",""time""
""fullscreenenter"",""1"",""8356""
","
","
","""event"",""trial"",""time""
""fullscreenenter"",""1"",""8356""
","
","","","","","","1843.5","images/banana8.png","","","memory_trial","4","definitely_new",""
"html-keyboard-response","269","823264","0.0-18.0-0.112","4131","approach_avoid_sv1","""event"",""trial"",""time""
""fullscreenenter"",""1"",""8356""
","
","
","""event"",""trial"",""time""
""fullscreenenter"",""1"",""8356""
","
","","","","","","null","<div style=""font-size:60px;"">+</div>","null","","fixation","","",""
"memory-trial","270","825909","0.0-18.0-1.112","4131","approach_avoid_sv1","""event"",""trial"",""time""
""fullscreenenter"",""1"",""8356""
","
","
","""event"",""trial"",""time""
""fullscreenenter"",""1"",""8356""
","
","","","","","","1638.2000000476837","images/train8.png","","","memory_trial","1","definitely_old",""
"html-keyboard-response","271","826412","0.0-18.0-0.113","4131","approach_avoid_sv1","""event"",""trial"",""time""
""fullscreenenter"",""1"",""8356""
","
","
","""event"",""trial"",""time""
""fullscreenenter"",""1"",""8356""
","
","","","","","","null","<div style=""font-size:60px;"">+</div>","null","","fixation","","",""
"memory-trial","272","828636","0.0-18.0-1.113","4131","approach_avoid_sv1","""event"",""trial"",""time""
""fullscreenenter"",""1"",""8356""
","
","
","""event"",""trial"",""time""
""fullscreenenter"",""1"",""8356""
","
","","","","","","1215","images/cactus4.png","","","memory_trial","2","maybe_old",""
"html-keyboard-response","273","829140","0.0-18.0-0.114","4131","approach_avoid_sv1","""event"",""trial"",""time""
""fullscreenenter"",""1"",""8356""
","
","
","""event"",""trial"",""time""
""fullscreenenter"",""1"",""8356""
","
","","","","","","null","<div style=""font-size:60px;"">+</div>","null","","fixation","","",""
"memory-trial","274","831524","0.0-18.0-1.114","4131","approach_avoid_sv1","""event"",""trial"",""time""
""fullscreenenter"",""1"",""8356""
","
","
","""event"",""trial"",""time""
""fullscreenenter"",""1"",""8356""
","
","","","","","","1373.9000000953674","images/table1.png","","","memory_trial","2","maybe_old",""
"html-keyboard-response","275","832028","0.0-18.0-0.115","4131","approach_avoid_sv1","""event"",""trial"",""time""
""fullscreenenter"",""1"",""8356""
","
","
","""event"",""trial"",""time""
""fullscreenenter"",""1"",""8356""
","
","","","","","","null","<div style=""font-size:60px;"">+</div>","null","","fixation","","",""
"memory-trial","276","834357","0.0-18.0-1.115","4131","approach_avoid_sv1","""event"",""trial"",""time""
""fullscreenenter"",""1"",""8356""
","
","
","""event"",""trial"",""time""
""fullscreenenter"",""1"",""8356""
","
","","","","","","1322.7999999523163","images/boat2.png","","","memory_trial","2","maybe_old",""
"html-keyboard-response","277","834860","0.0-18.0-0.116","4131","approach_avoid_sv1","""event"",""trial"",""time""
""fullscreenenter"",""1"",""8356""
","
","
","""event"",""trial"",""time""
""fullscreenenter"",""1"",""8356""
","
","","","","","","null","<div style=""font-size:60px;"">+</div>","null","","fixation","","",""
"memory-trial","278","839164","0.0-18.0-1.116","4131","approach_avoid_sv1","""event"",""trial"",""time""
""fullscreenenter"",""1"",""8356""
","
","
","""event"",""trial"",""time""
""fullscreenenter"",""1"",""8356""
","
","","","","","","3296","images/apple6.png","","","memory_trial","1","definitely_old",""
"html-keyboard-response","279","839670","0.0-18.0-0.117","4131","approach_avoid_sv1","""event"",""trial"",""time""
""fullscreenenter"",""1"",""8356""
","
","
","""event"",""trial"",""time""
""fullscreenenter"",""1"",""8356""
","
","","","","","","null","<div style=""font-size:60px;"">+</div>","null","","fixation","","",""
"memory-trial","280","841996","0.0-18.0-1.117","4131","approach_avoid_sv1","""event"",""trial"",""time""
""fullscreenenter"",""1"",""8356""
","
","
","""event"",""trial"",""time""
""fullscreenenter"",""1"",""8356""
","
","","","","","","1315.0999999046326","images/rodent3.png","","","memory_trial","4","definitely_new",""
"html-keyboard-response","281","842500","0.0-18.0-0.118","4131","approach_avoid_sv1","""event"",""trial"",""time""
""fullscreenenter"",""1"",""8356""
","
","
","""event"",""trial"",""time""
""fullscreenenter"",""1"",""8356""
","
","","","","","","null","<div style=""font-size:60px;"">+</div>","null","","fixation","","",""
"memory-trial","282","844788","0.0-18.0-1.118","4131","approach_avoid_sv1","""event"",""trial"",""time""
""fullscreenenter"",""1"",""8356""
","
","
","""event"",""trial"",""time""
""fullscreenenter"",""1"",""8356""
","
","","","","","","1275.7000000476837","images/straw8.png","","","memory_trial","4","definitely_new",""
"html-keyboard-response","283","845294","0.0-18.0-0.119","4131","approach_avoid_sv1","""event"",""trial"",""time""
""fullscreenenter"",""1"",""8356""
","
","
","""event"",""trial"",""time""
""fullscreenenter"",""1"",""8356""
","
","","","","","","null","<div style=""font-size:60px;"">+</div>","null","","fixation","","",""
"memory-trial","284","847396","0.0-18.0-1.119","4131","approach_avoid_sv1","""event"",""trial"",""time""
""fullscreenenter"",""1"",""8356""
","
","
","""event"",""trial"",""time""
""fullscreenenter"",""1"",""8356""
","
","","","","","","1096.1999998092651","images/bush6.png","","","memory_trial","1","definitely_old",""
"html-keyboard-response","285","847899","0.0-18.0-0.120","4131","approach_avoid_sv1","""event"",""trial"",""time""
""fullscreenenter"",""1"",""8356""
","
","
","""event"",""trial"",""time""
""fullscreenenter"",""1"",""8356""
","
","","","","","","null","<div style=""font-size:60px;"">+</div>","null","","fixation","","",""
"memory-trial","286","850019","0.0-18.0-1.120","4131","approach_avoid_sv1","""event"",""trial"",""time""
""fullscreenenter"",""1"",""8356""
","
","
","""event"",""trial"",""time""
""fullscreenenter"",""1"",""8356""
","
","","","","","","1116.5","images/cactus7.png","","","memory_trial","2","maybe_old",""
"html-keyboard-response","287","850526","0.0-18.0-0.121","4131","approach_avoid_sv1","""event"",""trial"",""time""
""fullscreenenter"",""1"",""8356""
","
","
","""event"",""trial"",""time""
""fullscreenenter"",""1"",""8356""
","
","","","","","","null","<div style=""font-size:60px;"">+</div>","null","","fixation","","",""
"memory-trial","288","854795","0.0-18.0-1.121","4131","approach_avoid_sv1","""event"",""trial"",""time""
""fullscreenenter"",""1"",""8356""
","
","
","""event"",""trial"",""time""
""fullscreenenter"",""1"",""8356""
","
","","","","","","3260.2999999523163","images/table4.png","","","memory_trial","3","maybe_new",""
"html-keyboard-response","289","855301","0.0-18.0-0.122","4131","approach_avoid_sv1","""event"",""trial"",""time""
""fullscreenenter"",""1"",""8356""
","
","
","""event"",""trial"",""time""
""fullscreenenter"",""1"",""8356""
","
","","","","","","null","<div style=""font-size:60px;"">+</div>","null","","fixation","","",""
"memory-trial","290","859692","0.0-18.0-1.122","4131","approach_avoid_sv1","""event"",""trial"",""time""
""fullscreenenter"",""1"",""8356""
","
","
","""event"",""trial"",""time""
""fullscreenenter"",""1"",""8356""
","
","","","","","","3379.4000000953674","images/dog6.png","","","memory_trial","3","maybe_new",""
"html-keyboard-response","291","860195","0.0-18.0-0.123","4131","approach_avoid_sv1","""event"",""trial"",""time""
""fullscreenenter"",""1"",""8356""
","
","
","""event"",""trial"",""time""
""fullscreenenter"",""1"",""8356""
","
","","","","","","null","<div style=""font-size:60px;"">+</div>","null","","fixation","","",""
"memory-trial","292","863988","0.0-18.0-1.123","4131","approach_avoid_sv1","""event"",""trial"",""time""
""fullscreenenter"",""1"",""8356""
","
","
","""event"",""trial"",""time""
""fullscreenenter"",""1"",""8356""
","
","","","","","","2785.5","images/boat1.png","","","memory_trial","2","maybe_old",""
"html-keyboard-response","293","864494","0.0-18.0-0.124","4131","approach_avoid_sv1","""event"",""trial"",""time""
""fullscreenenter"",""1"",""8356""
","
","
","""event"",""trial"",""time""
""fullscreenenter"",""1"",""8356""
","
","","","","","","null","<div style=""font-size:60px;"">+</div>","null","","fixation","","",""
"memory-trial","294","867787","0.0-18.0-1.124","4131","approach_avoid_sv1","""event"",""trial"",""time""
""fullscreenenter"",""1"",""8356""
","
","
","""event"",""trial"",""time""
""fullscreenenter"",""1"",""8356""
","
","","","","","","2281.600000143051","images/horse6.png","","","memory_trial","3","maybe_new",""
"html-keyboard-response","295","868292","0.0-18.0-0.125","4131","approach_avoid_sv1","""event"",""trial"",""time""
""fullscreenenter"",""1"",""8356""
","
","
","""event"",""trial"",""time""
""fullscreenenter"",""1"",""8356""
","
","","","","","","null","<div style=""font-size:60px;"">+</div>","null","","fixation","","",""
"memory-trial","296","870627","0.0-18.0-1.125","4131","approach_avoid_sv1","""event"",""trial"",""time""
""fullscreenenter"",""1"",""8356""
","
","
","""event"",""trial"",""time""
""fullscreenenter"",""1"",""8356""
","
","","","","","","1327.7000000476837","images/plane7.png","","","memory_trial","3","maybe_new",""
"html-keyboard-response","297","871132","0.0-18.0-0.126","4131","approach_avoid_sv1","""event"",""trial"",""time""
""fullscreenenter"",""1"",""8356""
","
","
","""event"",""trial"",""time""
""fullscreenenter"",""1"",""8356""
","
","","","","","","null","<div style=""font-size:60px;"">+</div>","null","","fixation","","",""
