"trial_type","trial_index","time_elapsed","internal_node_id","subject_id","task_version","interactions","blur_events","focus_events","fullscreenenter_events","fullscreenexit_events","success","timeout","failed_images","failed_audio","failed_video","rt","stimulus","response","button_pressed","task_part","key_press","answer","correct"
"pavlovia","0","5","0.0-0.0","8063","approach_avoid_sv1","""event"",""trial"",""time""
""fullscreenenter"",""1"",""3575""
","
","
","""event"",""trial"",""time""
""fullscreenenter"",""1"",""3575""
","
","","","","","","","","","","","","",""
"fullscreen","1","4508","0.0-1.0","8063","approach_avoid_sv1","""event"",""trial"",""time""
""fullscreenenter"",""1"",""3575""
","
","
","""event"",""trial"",""time""
""fullscreenenter"",""1"",""3575""
","
","true","","","","","","","","","","","",""
"preload","2","9577","0.0-2.0","8063","approach_avoid_sv1","""event"",""trial"",""time""
""fullscreenenter"",""1"",""3575""
","
","
","""event"",""trial"",""time""
""fullscreenenter"",""1"",""3575""
","
","true","false","[]","[]","[]","","","","","","","",""
"preload","3","11487","0.0-3.0","8063","approach_avoid_sv1","""event"",""trial"",""time""
""fullscreenenter"",""1"",""3575""
","
","
","""event"",""trial"",""time""
""fullscreenenter"",""1"",""3575""
","
","true","false","[]","[]","[]","","","","","","","",""
"preload","4","11720","0.0-4.0","8063","approach_avoid_sv1","""event"",""trial"",""time""
""fullscreenenter"",""1"",""3575""
","
","
","""event"",""trial"",""time""
""fullscreenenter"",""1"",""3575""
","
","true","false","[]","[]","[]","","","","","","","",""
"audio-keyboard-response","5","16135","0.0-5.0","8063","approach_avoid_sv1","""event"",""trial"",""time""
""fullscreenenter"",""1"",""3575""
","
","
","""event"",""trial"",""time""
""fullscreenenter"",""1"",""3575""
","
","","","","","","4234.666666666667","audio/beep_loop.wav"," ","","","","",""
"audio-button-response","6","18238","0.0-6.0","8063","approach_avoid_sv1","""event"",""trial"",""time""
""fullscreenenter"",""1"",""3575""
","
","
","""event"",""trial"",""time""
""fullscreenenter"",""1"",""3575""
","
","","","","","","2101","audio/turtle.wav","3","","","","",""
"audio-button-response","7","20385","0.0-7.0","8063","approach_avoid_sv1","""event"",""trial"",""time""
""fullscreenenter"",""1"",""3575""
","
","
","""event"",""trial"",""time""
""fullscreenenter"",""1"",""3575""
","
","","","","","","1141","audio/shark.wav","2","","","","",""
"preload","8","23956","0.0-8.0","8063","approach_avoid_sv1","""event"",""trial"",""time""
""fullscreenenter"",""1"",""3575""
","
","
","""event"",""trial"",""time""
""fullscreenenter"",""1"",""3575""
","
","true","false","[]","[]","[]","","","","","","","",""
"learning-instructions","9","31201","0.0-9.0-0.0","8063","approach_avoid_sv1","""event"",""trial"",""time""
""fullscreenenter"",""1"",""3575""
","
","
","""event"",""trial"",""time""
""fullscreenenter"",""1"",""3575""
","
","","","","","","2768.2000000476837","<p> Welcome back! </p><p> Last week, you had to make choices about lots of different items.  </p>","","0","instructions","","",""
"learning-instructions","10","46939","0.0-9.0-0.1","8063","approach_avoid_sv1","""event"",""trial"",""time""
""fullscreenenter"",""1"",""3575""
","
","
","""event"",""trial"",""time""
""fullscreenenter"",""1"",""3575""
","
","","","","","","11627.700000047684","<p> Today, we are going to ask you to try to remember all the items. </p>","","0","instructions","","",""
"learning-instructions","11","60867","0.0-9.0-0.2","8063","approach_avoid_sv1","""event"",""trial"",""time""
""fullscreenenter"",""1"",""3575""
","
","
","""event"",""trial"",""time""
""fullscreenenter"",""1"",""3575""
","
","","","","","","3774.399999856949","<p> On every trial, you will see an image. </p><p> The image may be an OLD image you saw during the games last week or it may be a NEW image that was not presented. </p>","","0","instructions","","",""
"learning-instructions","12","71083","0.0-9.0-0.3","8063","approach_avoid_sv1","""event"",""trial"",""time""
""fullscreenenter"",""1"",""3575""
","
","
","""event"",""trial"",""time""
""fullscreenenter"",""1"",""3575""
","
","","","","","","1711.7999999523163","<p> You need to select whether the image is:  </p><p>  'Definitely old', 'Maybe old', 'Maybe new', or 'Definitely new.'  </p><div class=""mem-choice-instructions-grid""><div class=""choice-option"" id=""choice-option-1"" ><img src=""images/definitely_old_1.png"" id=""choice-option-img-1"" class=""choice-option-img"" stage=""1""></div><div class=""choice-option"" id=""choice-option-2"" ><img src=""images/maybe_old_1.png"" id=""choice-option-img-2"" class=""choice-option-img"" stage=""1""></div><div class=""choice-option"" id=""choice-option-3"" ><img src=""images/maybe_new_1.png"" id=""choice-option-img-3"" class=""choice-option-img"" stage=""1""></div><div class=""choice-option"" id=""choice-option-4"" > <img src=""images/definitely_new_1.png"" id=""choice-option-img-4"" class=""choice-option-img"" stage=""1""></div></div>","","0","instructions","","",""
"learning-instructions","13","78696","0.0-9.0-0.4","8063","approach_avoid_sv1","""event"",""trial"",""time""
""fullscreenenter"",""1"",""3575""
","
","
","""event"",""trial"",""time""
""fullscreenenter"",""1"",""3575""
","
","","","","","","1101.5999999046326","<p> You should use the 1, 2, 3, and 4 keys to make your responses.  </p><div class=""mem-choice-instructions-grid""><div class=""choice-option"" id=""choice-option-1"" ><img src=""images/definitely_old.png"" id=""choice-option-img-1"" class=""choice-option-img"" stage=""1""></div><div class=""choice-option"" id=""choice-option-2"" ><img src=""images/maybe_old.png"" id=""choice-option-img-2"" class=""choice-option-img"" stage=""1""></div><div class=""choice-option"" id=""choice-option-3"" ><img src=""images/maybe_new.png"" id=""choice-option-img-3"" class=""choice-option-img"" stage=""1""></div><div class=""choice-option"" id=""choice-option-4"" > <img src=""images/definitely_new.png"" id=""choice-option-img-4"" class=""choice-option-img"" stage=""1""></div></div>","","0","instructions","","",""
"learning-instructions","14","85805","0.0-9.0-0.5","8063","approach_avoid_sv1","""event"",""trial"",""time""
""fullscreenenter"",""1"",""3575""
","
","
","""event"",""trial"",""time""
""fullscreenenter"",""1"",""3575""
","
","","","","","","764.8000001907349","<p> You will have 10 seconds to make each response.  </p><p>  Make sure to respond before time runs out! </p>","","0","instructions","","",""
"learning-instructions","15","93834","0.0-9.0-0.6","8063","approach_avoid_sv1","""event"",""trial"",""time""
""fullscreenenter"",""1"",""3575""
","
","
","""event"",""trial"",""time""
""fullscreenenter"",""1"",""3575""
","
","","","","","","954.1000001430511","<p> Today, you will see each image ONCE only.  </p><p>  That means none of the images will repeat. </p>","","0","instructions","","",""
"learning-instructions","16","107649","0.0-9.0-0.7","8063","approach_avoid_sv1","""event"",""trial"",""time""
""fullscreenenter"",""1"",""3575""
","
","
","""event"",""trial"",""time""
""fullscreenenter"",""1"",""3575""
","
","","","","","","1147.7999999523163","<p> Before you play the real game, it is time to practice. </p><p>  Just like in the real game, some of the images in the practice will be ones you have seen before. </p><p>  Others will be entirely new. </p>","","0","instructions","","",""
"html-button-response","17","111191","0.0-10.0","8063","approach_avoid_sv1","""event"",""trial"",""time""
""fullscreenenter"",""1"",""3575""
","
","
","""event"",""trial"",""time""
""fullscreenenter"",""1"",""3575""
","
","","","","","","3429.7000000476837","<p> Ready to practice? </p><p> Remember, use the 1, 2, 3, and 4 keys to make your responses. </p>","0","","instructions","","",""
"html-keyboard-response","18","111812","0.0-11.0-0.0","8063","approach_avoid_sv1","""event"",""trial"",""time""
""fullscreenenter"",""1"",""3575""
","
","
","""event"",""trial"",""time""
""fullscreenenter"",""1"",""3575""
","
","","","","","","null","<div style=""font-size:60px;"">+</div>","null","","fixation","","",""
"memory-trial","19","115869","0.0-11.0-1.0","8063","approach_avoid_sv1","""event"",""trial"",""time""
""fullscreenenter"",""1"",""3575""
","
","
","""event"",""trial"",""time""
""fullscreenenter"",""1"",""3575""
","
","","","","","","3049.7000000476837","images/racket5.png","","","practice","1","definitely_old",""
"html-keyboard-response","20","116382","0.0-11.0-0.1","8063","approach_avoid_sv1","""event"",""trial"",""time""
""fullscreenenter"",""1"",""3575""
","
","
","""event"",""trial"",""time""
""fullscreenenter"",""1"",""3575""
","
","","","","","","null","<div style=""font-size:60px;"">+</div>","null","","fixation","","",""
"memory-trial","21","119720","0.0-11.0-1.1","8063","approach_avoid_sv1","""event"",""trial"",""time""
""fullscreenenter"",""1"",""3575""
","
","
","""event"",""trial"",""time""
""fullscreenenter"",""1"",""3575""
","
","","","","","","2332.5999999046326","images/ball2.png","","","practice","2","maybe_old",""
"html-keyboard-response","22","120227","0.0-11.0-0.2","8063","approach_avoid_sv1","""event"",""trial"",""time""
""fullscreenenter"",""1"",""3575""
","
","
","""event"",""trial"",""time""
""fullscreenenter"",""1"",""3575""
","
","","","","","","null","<div style=""font-size:60px;"">+</div>","null","","fixation","","",""
"memory-trial","23","123187","0.0-11.0-1.2","8063","approach_avoid_sv1","""event"",""trial"",""time""
""fullscreenenter"",""1"",""3575""
","
","
","""event"",""trial"",""time""
""fullscreenenter"",""1"",""3575""
","
","","","","","","1939.7999999523163","images/racket3.png","","","practice","1","definitely_old",""
"html-keyboard-response","24","123700","0.0-11.0-0.3","8063","approach_avoid_sv1","""event"",""trial"",""time""
""fullscreenenter"",""1"",""3575""
","
","
","""event"",""trial"",""time""
""fullscreenenter"",""1"",""3575""
","
","","","","","","null","<div style=""font-size:60px;"">+</div>","null","","fixation","","",""
"memory-trial","25","126494","0.0-11.0-1.3","8063","approach_avoid_sv1","""event"",""trial"",""time""
""fullscreenenter"",""1"",""3575""
","
","
","""event"",""trial"",""time""
""fullscreenenter"",""1"",""3575""
","
","","","","","","1789.5999999046326","images/racket2.png","","","practice","4","definitely_new",""
"html-keyboard-response","26","126996","0.0-11.0-0.4","8063","approach_avoid_sv1","""event"",""trial"",""time""
""fullscreenenter"",""1"",""3575""
","
","
","""event"",""trial"",""time""
""fullscreenenter"",""1"",""3575""
","
","","","","","","null","<div style=""font-size:60px;"">+</div>","null","","fixation","","",""
"memory-trial","27","129204","0.0-11.0-1.4","8063","approach_avoid_sv1","""event"",""trial"",""time""
""fullscreenenter"",""1"",""3575""
","
","
","""event"",""trial"",""time""
""fullscreenenter"",""1"",""3575""
","
","","","","","","1190.4000000953674","images/ball3.png","","","practice","4","definitely_new",""
"html-keyboard-response","28","129711","0.0-11.0-0.5","8063","approach_avoid_sv1","""event"",""trial"",""time""
""fullscreenenter"",""1"",""3575""
","
","
","""event"",""trial"",""time""
""fullscreenenter"",""1"",""3575""
","
","","","","","","null","<div style=""font-size:60px;"">+</div>","null","","fixation","","",""
"memory-trial","29","132756","0.0-11.0-1.5","8063","approach_avoid_sv1","""event"",""trial"",""time""
""fullscreenenter"",""1"",""3575""
","
","
","""event"",""trial"",""time""
""fullscreenenter"",""1"",""3575""
","
","","","","","","2032","images/racket1.png","","","practice","3","maybe_new",""
"html-keyboard-response","30","133264","0.0-11.0-0.6","8063","approach_avoid_sv1","""event"",""trial"",""time""
""fullscreenenter"",""1"",""3575""
","
","
","""event"",""trial"",""time""
""fullscreenenter"",""1"",""3575""
","
","","","","","","null","<div style=""font-size:60px;"">+</div>","null","","fixation","","",""
"memory-trial","31","136598","0.0-11.0-1.6","8063","approach_avoid_sv1","""event"",""trial"",""time""
""fullscreenenter"",""1"",""3575""
","
","
","""event"",""trial"",""time""
""fullscreenenter"",""1"",""3575""
","
","","","","","","2329.399999856949","images/ball1.png","","","practice","4","definitely_new",""
"html-keyboard-response","32","137099","0.0-11.0-0.7","8063","approach_avoid_sv1","""event"",""trial"",""time""
""fullscreenenter"",""1"",""3575""
","
","
","""event"",""trial"",""time""
""fullscreenenter"",""1"",""3575""
","
","","","","","","null","<div style=""font-size:60px;"">+</div>","null","","fixation","","",""
"memory-trial","33","139648","0.0-11.0-1.7","8063","approach_avoid_sv1","""event"",""trial"",""time""
""fullscreenenter"",""1"",""3575""
","
","
","""event"",""trial"",""time""
""fullscreenenter"",""1"",""3575""
","
","","","","","","1545","images/ball5.png","","","practice","2","maybe_old",""
"learning-instructions","34","147829","0.0-12.0-0.0","8063","approach_avoid_sv1","""event"",""trial"",""time""
""fullscreenenter"",""1"",""3575""
","
","
","""event"",""trial"",""time""
""fullscreenenter"",""1"",""3575""
","
","","","","","","897","<p> Great! You have completed the practice. </p><p> Before you start, we're going to ask you a few questions about how the game works.  </p>","","0","instructions","","",""
"preload","35","149709","0.0-13.0","8063","approach_avoid_sv1","""event"",""trial"",""time""
""fullscreenenter"",""1"",""3575""
","
","
","""event"",""trial"",""time""
""fullscreenenter"",""1"",""3575""
","
","true","false","[]","[]","[]","","","","","","","",""
"comp-q","36","157653","0.0-14.0-0.0","8063","approach_avoid_sv1","""event"",""trial"",""time""
""fullscreenenter"",""1"",""3575""
","
","
","""event"",""trial"",""time""
""fullscreenenter"",""1"",""3575""
","
","","","","","","2112.4000000953674","<p> <b> True or False? </b> </p><p> In this game, you will only see each image once. </p>","","0","comp_question","","","true"
"comp-q","37","165575","0.0-14.0-1.0","8063","approach_avoid_sv1","""event"",""trial"",""time""
""fullscreenenter"",""1"",""3575""
","
","
","""event"",""trial"",""time""
""fullscreenenter"",""1"",""3575""
","
","","","","","","1565.0999999046326","<p> <b> That's right! </b> You will see many different images <i> one time each </i> in this game. </p>","","0","comp_answer","","",""
"comp-q","38","171459","0.0-15.0-0.0","8063","approach_avoid_sv1","""event"",""trial"",""time""
""fullscreenenter"",""1"",""3575""
","
","
","""event"",""trial"",""time""
""fullscreenenter"",""1"",""3575""
","
","","","","","","867.7000000476837","<p> <b> True or False? </b> </p><p> You should use the mouse and click to make your response. </p>","","1","comp_question","","","true"
"comp-q","39","179435","0.0-15.0-1.0","8063","approach_avoid_sv1","""event"",""trial"",""time""
""fullscreenenter"",""1"",""3575""
","
","
","""event"",""trial"",""time""
""fullscreenenter"",""1"",""3575""
","
","","","","","","1473.4000000953674","<p><b> That's right! </b> You should use the '1', '2', '3', and '4' keys to make your response. </p>","","0","comp_answer","","",""
"comp-q","40","186122","0.0-16.0-0.0","8063","approach_avoid_sv1","""event"",""trial"",""time""
""fullscreenenter"",""1"",""3575""
","
","
","""event"",""trial"",""time""
""fullscreenenter"",""1"",""3575""
","
","","","","","","993.2999999523163","<p> <b> True or False? </b> </p><p> You will have as much time as you want to make each choice. </p>","","1","comp_question","","","true"
"comp-q","41","192063","0.0-16.0-1.0","8063","approach_avoid_sv1","""event"",""trial"",""time""
""fullscreenenter"",""1"",""3575""
","
","
","""event"",""trial"",""time""
""fullscreenenter"",""1"",""3575""
","
","","","","","","1238.1000001430511","<p> <b> That's right! </b> You will only have 10 seconds to make each choice. </p>","","0","comp_answer","","",""
"learning-instructions","42","201794","0.0-17.0","8063","approach_avoid_sv1","""event"",""trial"",""time""
""fullscreenenter"",""1"",""3575""
","
","
","""event"",""trial"",""time""
""fullscreenenter"",""1"",""3575""
","
","","","","","","1059.6000001430511","<p> Great! You are now ready to begin the game. </p><p> Remember, use the 1, 2, 3, and 4 keys to make your responses. </p>","","0","instructions","","",""
"html-keyboard-response","43","202412","0.0-18.0-0.0","8063","approach_avoid_sv1","""event"",""trial"",""time""
""fullscreenenter"",""1"",""3575""
","
","
","""event"",""trial"",""time""
""fullscreenenter"",""1"",""3575""
","
","","","","","","null","<div style=""font-size:60px;"">+</div>","null","","fixation","","",""
"memory-trial","44","205465","0.0-18.0-1.0","8063","approach_avoid_sv1","""event"",""trial"",""time""
""fullscreenenter"",""1"",""3575""
","
","
","""event"",""trial"",""time""
""fullscreenenter"",""1"",""3575""
","
","","","","","","2036.7999999523163","images/cactus4.png","","","memory_trial","2","maybe_old",""
"html-keyboard-response","45","205980","0.0-18.0-0.1","8063","approach_avoid_sv1","""event"",""trial"",""time""
""fullscreenenter"",""1"",""3575""
","
","
","""event"",""trial"",""time""
""fullscreenenter"",""1"",""3575""
","
","","","","","","null","<div style=""font-size:60px;"">+</div>","null","","fixation","","",""
"memory-trial","46","209265","0.0-18.0-1.1","8063","approach_avoid_sv1","""event"",""trial"",""time""
""fullscreenenter"",""1"",""3575""
","
","
","""event"",""trial"",""time""
""fullscreenenter"",""1"",""3575""
","
","","","","","","2279.5999999046326","images/plane7.png","","","memory_trial","3","maybe_new",""
"html-keyboard-response","47","209768","0.0-18.0-0.2","8063","approach_avoid_sv1","""event"",""trial"",""time""
""fullscreenenter"",""1"",""3575""
","
","
","""event"",""trial"",""time""
""fullscreenenter"",""1"",""3575""
","
","","","","","","null","<div style=""font-size:60px;"">+</div>","null","","fixation","","",""
"memory-trial","48","212264","0.0-18.0-1.2","8063","approach_avoid_sv1","""event"",""trial"",""time""
""fullscreenenter"",""1"",""3575""
","
","
","""event"",""trial"",""time""
""fullscreenenter"",""1"",""3575""
","
","","","","","","1482.8999998569489","images/plane1.png","","","memory_trial","3","maybe_new",""
"html-keyboard-response","49","212771","0.0-18.0-0.3","8063","approach_avoid_sv1","""event"",""trial"",""time""
""fullscreenenter"",""1"",""3575""
","
","
","""event"",""trial"",""time""
""fullscreenenter"",""1"",""3575""
","
","","","","","","null","<div style=""font-size:60px;"">+</div>","null","","fixation","","",""
"memory-trial","50","215998","0.0-18.0-1.3","8063","approach_avoid_sv1","""event"",""trial"",""time""
""fullscreenenter"",""1"",""3575""
","
","
","""event"",""trial"",""time""
""fullscreenenter"",""1"",""3575""
","
","","","","","","2216.100000143051","images/banana5.png","","","memory_trial","4","definitely_new",""
"html-keyboard-response","51","216514","0.0-18.0-0.4","8063","approach_avoid_sv1","""event"",""trial"",""time""
""fullscreenenter"",""1"",""3575""
","
","
","""event"",""trial"",""time""
""fullscreenenter"",""1"",""3575""
","
","","","","","","null","<div style=""font-size:60px;"">+</div>","null","","fixation","","",""
"memory-trial","52","219875","0.0-18.0-1.4","8063","approach_avoid_sv1","""event"",""trial"",""time""
""fullscreenenter"",""1"",""3575""
","
","
","""event"",""trial"",""time""
""fullscreenenter"",""1"",""3575""
","
","","","","","","2352.899999856949","images/apple3.png","","","memory_trial","3","maybe_new",""
"html-keyboard-response","53","220387","0.0-18.0-0.5","8063","approach_avoid_sv1","""event"",""trial"",""time""
""fullscreenenter"",""1"",""3575""
","
","
","""event"",""trial"",""time""
""fullscreenenter"",""1"",""3575""
","
","","","","","","null","<div style=""font-size:60px;"">+</div>","null","","fixation","","",""
"memory-trial","54","222610","0.0-18.0-1.5","8063","approach_avoid_sv1","""event"",""trial"",""time""
""fullscreenenter"",""1"",""3575""
","
","
","""event"",""trial"",""time""
""fullscreenenter"",""1"",""3575""
","
","","","","","","1213.1999998092651","images/bush5.png","","","memory_trial","4","definitely_new",""
"html-keyboard-response","55","223117","0.0-18.0-0.6","8063","approach_avoid_sv1","""event"",""trial"",""time""
""fullscreenenter"",""1"",""3575""
","
","
","""event"",""trial"",""time""
""fullscreenenter"",""1"",""3575""
","
","","","","","","null","<div style=""font-size:60px;"">+</div>","null","","fixation","","",""
"memory-trial","56","225236","0.0-18.0-1.6","8063","approach_avoid_sv1","""event"",""trial"",""time""
""fullscreenenter"",""1"",""3575""
","
","
","""event"",""trial"",""time""
""fullscreenenter"",""1"",""3575""
","
","","","","","","1104.2000000476837","images/goat1.png","","","memory_trial","4","definitely_new",""
"html-keyboard-response","57","225752","0.0-18.0-0.7","8063","approach_avoid_sv1","""event"",""trial"",""time""
""fullscreenenter"",""1"",""3575""
","
","
","""event"",""trial"",""time""
""fullscreenenter"",""1"",""3575""
","
","","","","","","null","<div style=""font-size:60px;"">+</div>","null","","fixation","","",""
"memory-trial","58","227864","0.0-18.0-1.7","8063","approach_avoid_sv1","""event"",""trial"",""time""
""fullscreenenter"",""1"",""3575""
","
","
","""event"",""trial"",""time""
""fullscreenenter"",""1"",""3575""
","
","","","","","","1103.5","images/chair5.png","","","memory_trial","1","definitely_old",""
"html-keyboard-response","59","228371","0.0-18.0-0.8","8063","approach_avoid_sv1","""event"",""trial"",""time""
""fullscreenenter"",""1"",""3575""
","
","
","""event"",""trial"",""time""
""fullscreenenter"",""1"",""3575""
","
","","","","","","null","<div style=""font-size:60px;"">+</div>","null","","fixation","","",""
"memory-trial","60","230317","0.0-18.0-1.8","8063","approach_avoid_sv1","""event"",""trial"",""time""
""fullscreenenter"",""1"",""3575""
","
","
","""event"",""trial"",""time""
""fullscreenenter"",""1"",""3575""
","
","","","","","","939.6999998092651","images/flower6.png","","","memory_trial","1","definitely_old",""
"html-keyboard-response","61","230818","0.0-18.0-0.9","8063","approach_avoid_sv1","""event"",""trial"",""time""
""fullscreenenter"",""1"",""3575""
","
","
","""event"",""trial"",""time""
""fullscreenenter"",""1"",""3575""
","
","","","","","","null","<div style=""font-size:60px;"">+</div>","null","","fixation","","",""
"memory-trial","62","233780","0.0-18.0-1.9","8063","approach_avoid_sv1","""event"",""trial"",""time""
""fullscreenenter"",""1"",""3575""
","
","
","""event"",""trial"",""time""
""fullscreenenter"",""1"",""3575""
","
","","","","","","1958.5999999046326","images/rabbit3.png","","","memory_trial","3","maybe_new",""
"html-keyboard-response","63","234283","0.0-18.0-0.10","8063","approach_avoid_sv1","""event"",""trial"",""time""
""fullscreenenter"",""1"",""3575""
","
","
","""event"",""trial"",""time""
""fullscreenenter"",""1"",""3575""
","
","","","","","","null","<div style=""font-size:60px;"">+</div>","null","","fixation","","",""
"memory-trial","64","236853","0.0-18.0-1.10","8063","approach_avoid_sv1","""event"",""trial"",""time""
""fullscreenenter"",""1"",""3575""
","
","
","""event"",""trial"",""time""
""fullscreenenter"",""1"",""3575""
","
","","","","","","1568.0999999046326","images/train2.png","","","memory_trial","3","maybe_new",""
"html-keyboard-response","65","237355","0.0-18.0-0.11","8063","approach_avoid_sv1","""event"",""trial"",""time""
""fullscreenenter"",""1"",""3575""
","
","
","""event"",""trial"",""time""
""fullscreenenter"",""1"",""3575""
","
","","","","","","null","<div style=""font-size:60px;"">+</div>","null","","fixation","","",""
"memory-trial","66","239542","0.0-18.0-1.11","8063","approach_avoid_sv1","""event"",""trial"",""time""
""fullscreenenter"",""1"",""3575""
","
","
","""event"",""trial"",""time""
""fullscreenenter"",""1"",""3575""
","
","","","","","","1181.4000000953674","images/rabbit1.png","","","memory_trial","2","maybe_old",""
"html-keyboard-response","67","240043","0.0-18.0-0.12","8063","approach_avoid_sv1","""event"",""trial"",""time""
""fullscreenenter"",""1"",""3575""
","
","
","""event"",""trial"",""time""
""fullscreenenter"",""1"",""3575""
","
","","","","","","null","<div style=""font-size:60px;"">+</div>","null","","fixation","","",""
"memory-trial","68","242382","0.0-18.0-1.12","8063","approach_avoid_sv1","""event"",""trial"",""time""
""fullscreenenter"",""1"",""3575""
","
","
","""event"",""trial"",""time""
""fullscreenenter"",""1"",""3575""
","
","","","","","","1336.3999998569489","images/goat4.png","","","memory_trial","3","maybe_new",""
"html-keyboard-response","69","242883","0.0-18.0-0.13","8063","approach_avoid_sv1","""event"",""trial"",""time""
""fullscreenenter"",""1"",""3575""
","
","
","""event"",""trial"",""time""
""fullscreenenter"",""1"",""3575""
","
","","","","","","null","<div style=""font-size:60px;"">+</div>","null","","fixation","","",""
"memory-trial","70","245230","0.0-18.0-1.13","8063","approach_avoid_sv1","""event"",""trial"",""time""
""fullscreenenter"",""1"",""3575""
","
","
","""event"",""trial"",""time""
""fullscreenenter"",""1"",""3575""
","
","","","","","","1341.8999998569489","images/tree7.png","","","memory_trial","1","definitely_old",""
"html-keyboard-response","71","245732","0.0-18.0-0.14","8063","approach_avoid_sv1","""event"",""trial"",""time""
""fullscreenenter"",""1"",""3575""
","
","
","""event"",""trial"",""time""
""fullscreenenter"",""1"",""3575""
","
","","","","","","null","<div style=""font-size:60px;"">+</div>","null","","fixation","","",""
"memory-trial","72","248329","0.0-18.0-1.14","8063","approach_avoid_sv1","""event"",""trial"",""time""
""fullscreenenter"",""1"",""3575""
","
","
","""event"",""trial"",""time""
""fullscreenenter"",""1"",""3575""
","
","","","","","","1594.7999999523163","images/cactus1.png","","","memory_trial","1","definitely_old",""
"html-keyboard-response","73","248831","0.0-18.0-0.15","8063","approach_avoid_sv1","""event"",""trial"",""time""
""fullscreenenter"",""1"",""3575""
","
","
","""event"",""trial"",""time""
""fullscreenenter"",""1"",""3575""
","
","","","","","","null","<div style=""font-size:60px;"">+</div>","null","","fixation","","",""
"memory-trial","74","251327","0.0-18.0-1.15","8063","approach_avoid_sv1","""event"",""trial"",""time""
""fullscreenenter"",""1"",""3575""
","
","
","""event"",""trial"",""time""
""fullscreenenter"",""1"",""3575""
","
","","","","","","1491.7000000476837","images/sofa4.png","","","memory_trial","3","maybe_new",""
"html-keyboard-response","75","251829","0.0-18.0-0.16","8063","approach_avoid_sv1","""event"",""trial"",""time""
""fullscreenenter"",""1"",""3575""
","
","
","""event"",""trial"",""time""
""fullscreenenter"",""1"",""3575""
","
","","","","","","null","<div style=""font-size:60px;"">+</div>","null","","fixation","","",""
"memory-trial","76","253743","0.0-18.0-1.16","8063","approach_avoid_sv1","""event"",""trial"",""time""
""fullscreenenter"",""1"",""3575""
","
","
","""event"",""trial"",""time""
""fullscreenenter"",""1"",""3575""
","
","","","","","","911.8999998569489","images/chair6.png","","","memory_trial","4","definitely_new",""
"html-keyboard-response","77","254245","0.0-18.0-0.17","8063","approach_avoid_sv1","""event"",""trial"",""time""
""fullscreenenter"",""1"",""3575""
","
","
","""event"",""trial"",""time""
""fullscreenenter"",""1"",""3575""
","
","","","","","","null","<div style=""font-size:60px;"">+</div>","null","","fixation","","",""
"memory-trial","78","256296","0.0-18.0-1.17","8063","approach_avoid_sv1","""event"",""trial"",""time""
""fullscreenenter"",""1"",""3575""
","
","
","""event"",""trial"",""time""
""fullscreenenter"",""1"",""3575""
","
","","","","","","1047.5","images/tree4.png","","","memory_trial","4","definitely_new",""
"html-keyboard-response","79","256798","0.0-18.0-0.18","8063","approach_avoid_sv1","""event"",""trial"",""time""
""fullscreenenter"",""1"",""3575""
","
","
","""event"",""trial"",""time""
""fullscreenenter"",""1"",""3575""
","
","","","","","","null","<div style=""font-size:60px;"">+</div>","null","","fixation","","",""
"memory-trial","80","258982","0.0-18.0-1.18","8063","approach_avoid_sv1","""event"",""trial"",""time""
""fullscreenenter"",""1"",""3575""
","
","
","""event"",""trial"",""time""
""fullscreenenter"",""1"",""3575""
","
","","","","","","1181.2000000476837","images/rodent5.png","","","memory_trial","4","definitely_new",""
"html-keyboard-response","81","259484","0.0-18.0-0.19","8063","approach_avoid_sv1","""event"",""trial"",""time""
""fullscreenenter"",""1"",""3575""
","
","
","""event"",""trial"",""time""
""fullscreenenter"",""1"",""3575""
","
","","","","","","null","<div style=""font-size:60px;"">+</div>","null","","fixation","","",""
"memory-trial","82","261761","0.0-18.0-1.19","8063","approach_avoid_sv1","""event"",""trial"",""time""
""fullscreenenter"",""1"",""3575""
","
","
","""event"",""trial"",""time""
""fullscreenenter"",""1"",""3575""
","
","","","","","","1273.6000001430511","images/train6.png","","","memory_trial","4","definitely_new",""
"html-keyboard-response","83","262262","0.0-18.0-0.20","8063","approach_avoid_sv1","""event"",""trial"",""time""
""fullscreenenter"",""1"",""3575""
","
","
","""event"",""trial"",""time""
""fullscreenenter"",""1"",""3575""
","
","","","","","","null","<div style=""font-size:60px;"">+</div>","null","","fixation","","",""
"memory-trial","84","264916","0.0-18.0-1.20","8063","approach_avoid_sv1","""event"",""trial"",""time""
""fullscreenenter"",""1"",""3575""
","
","
","""event"",""trial"",""time""
""fullscreenenter"",""1"",""3575""
","
","","","","","","1651.2999999523163","images/straw2.png","","","memory_trial","3","maybe_new",""
"html-keyboard-response","85","265419","0.0-18.0-0.21","8063","approach_avoid_sv1","""event"",""trial"",""time""
""fullscreenenter"",""1"",""3575""
","
","
","""event"",""trial"",""time""
""fullscreenenter"",""1"",""3575""
","
","","","","","","null","<div style=""font-size:60px;"">+</div>","null","","fixation","","",""
"memory-trial","86","267693","0.0-18.0-1.21","8063","approach_avoid_sv1","""event"",""trial"",""time""
""fullscreenenter"",""1"",""3575""
","
","
","""event"",""trial"",""time""
""fullscreenenter"",""1"",""3575""
","
","","","","","","1270.8000001907349","images/orange6.png","","","memory_trial","4","definitely_new",""
"html-keyboard-response","87","268194","0.0-18.0-0.22","8063","approach_avoid_sv1","""event"",""trial"",""time""
""fullscreenenter"",""1"",""3575""
","
","
","""event"",""trial"",""time""
""fullscreenenter"",""1"",""3575""
","
","","","","","","null","<div style=""font-size:60px;"">+</div>","null","","fixation","","",""
"memory-trial","88","271573","0.0-18.0-1.22","8063","approach_avoid_sv1","""event"",""trial"",""time""
""fullscreenenter"",""1"",""3575""
","
","
","""event"",""trial"",""time""
""fullscreenenter"",""1"",""3575""
","
","","","","","","2377","images/straw7.png","","","memory_trial","2","maybe_old",""
"html-keyboard-response","89","272075","0.0-18.0-0.23","8063","approach_avoid_sv1","""event"",""trial"",""time""
""fullscreenenter"",""1"",""3575""
","
","
","""event"",""trial"",""time""
""fullscreenenter"",""1"",""3575""
","
","","","","","","null","<div style=""font-size:60px;"">+</div>","null","","fixation","","",""
"memory-trial","90","274611","0.0-18.0-1.23","8063","approach_avoid_sv1","""event"",""trial"",""time""
""fullscreenenter"",""1"",""3575""
","
","
","""event"",""trial"",""time""
""fullscreenenter"",""1"",""3575""
","
","","","","","","1532.0999999046326","images/bed6.png","","","memory_trial","4","definitely_new",""
"html-keyboard-response","91","275112","0.0-18.0-0.24","8063","approach_avoid_sv1","""event"",""trial"",""time""
""fullscreenenter"",""1"",""3575""
","
","
","""event"",""trial"",""time""
""fullscreenenter"",""1"",""3575""
","
","","","","","","null","<div style=""font-size:60px;"">+</div>","null","","fixation","","",""
"memory-trial","92","277557","0.0-18.0-1.24","8063","approach_avoid_sv1","""event"",""trial"",""time""
""fullscreenenter"",""1"",""3575""
","
","
","""event"",""trial"",""time""
""fullscreenenter"",""1"",""3575""
","
","","","","","","1441.4000000953674","images/plane4.png","","","memory_trial","1","definitely_old",""
"html-keyboard-response","93","278059","0.0-18.0-0.25","8063","approach_avoid_sv1","""event"",""trial"",""time""
""fullscreenenter"",""1"",""3575""
","
","
","""event"",""trial"",""time""
""fullscreenenter"",""1"",""3575""
","
","","","","","","null","<div style=""font-size:60px;"">+</div>","null","","fixation","","",""
"memory-trial","94","281069","0.0-18.0-1.25","8063","approach_avoid_sv1","""event"",""trial"",""time""
""fullscreenenter"",""1"",""3575""
","
","
","""event"",""trial"",""time""
""fullscreenenter"",""1"",""3575""
","
","","","","","","2006.7999999523163","images/apple6.png","","","memory_trial","4","definitely_new",""
"html-keyboard-response","95","281571","0.0-18.0-0.26","8063","approach_avoid_sv1","""event"",""trial"",""time""
""fullscreenenter"",""1"",""3575""
","
","
","""event"",""trial"",""time""
""fullscreenenter"",""1"",""3575""
","
","","","","","","null","<div style=""font-size:60px;"">+</div>","null","","fixation","","",""
"memory-trial","96","283676","0.0-18.0-1.26","8063","approach_avoid_sv1","""event"",""trial"",""time""
""fullscreenenter"",""1"",""3575""
","
","
","""event"",""trial"",""time""
""fullscreenenter"",""1"",""3575""
","
","","","","","","1100.7000000476837","images/sofa5.png","","","memory_trial","3","maybe_new",""
"html-keyboard-response","97","284186","0.0-18.0-0.27","8063","approach_avoid_sv1","""event"",""trial"",""time""
""fullscreenenter"",""1"",""3575""
","
","
","""event"",""trial"",""time""
""fullscreenenter"",""1"",""3575""
","
","","","","","","null","<div style=""font-size:60px;"">+</div>","null","","fixation","","",""
"memory-trial","98","286639","0.0-18.0-1.27","8063","approach_avoid_sv1","""event"",""trial"",""time""
""fullscreenenter"",""1"",""3575""
","
","
","""event"",""trial"",""time""
""fullscreenenter"",""1"",""3575""
","
","","","","","","1449.7000000476837","images/boat1.png","","","memory_trial","1","definitely_old",""
"html-keyboard-response","99","287141","0.0-18.0-0.28","8063","approach_avoid_sv1","""event"",""trial"",""time""
""fullscreenenter"",""1"",""3575""
","
","
","""event"",""trial"",""time""
""fullscreenenter"",""1"",""3575""
","
","","","","","","null","<div style=""font-size:60px;"">+</div>","null","","fixation","","",""
"memory-trial","100","289301","0.0-18.0-1.28","8063","approach_avoid_sv1","""event"",""trial"",""time""
""fullscreenenter"",""1"",""3575""
","
","
","""event"",""trial"",""time""
""fullscreenenter"",""1"",""3575""
","
","","","","","","1156.5999999046326","images/truck4.png","","","memory_trial","3","maybe_new",""
"html-keyboard-response","101","289803","0.0-18.0-0.29","8063","approach_avoid_sv1","""event"",""trial"",""time""
""fullscreenenter"",""1"",""3575""
","
","
","""event"",""trial"",""time""
""fullscreenenter"",""1"",""3575""
","
","","","","","","null","<div style=""font-size:60px;"">+</div>","null","","fixation","","",""
"memory-trial","102","293126","0.0-18.0-1.29","8063","approach_avoid_sv1","""event"",""trial"",""time""
""fullscreenenter"",""1"",""3575""
","
","
","""event"",""trial"",""time""
""fullscreenenter"",""1"",""3575""
","
","","","","","","2320.399999856949","images/cow5.png","","","memory_trial","4","definitely_new",""
"html-keyboard-response","103","293628","0.0-18.0-0.30","8063","approach_avoid_sv1","""event"",""trial"",""time""
""fullscreenenter"",""1"",""3575""
","
","
","""event"",""trial"",""time""
""fullscreenenter"",""1"",""3575""
","
","","","","","","null","<div style=""font-size:60px;"">+</div>","null","","fixation","","",""
"memory-trial","104","295748","0.0-18.0-1.30","8063","approach_avoid_sv1","""event"",""trial"",""time""
""fullscreenenter"",""1"",""3575""
","
","
","""event"",""trial"",""time""
""fullscreenenter"",""1"",""3575""
","
","","","","","","1115.8999998569489","images/flower3.png","","","memory_trial","1","definitely_old",""
"html-keyboard-response","105","296249","0.0-18.0-0.31","8063","approach_avoid_sv1","""event"",""trial"",""time""
""fullscreenenter"",""1"",""3575""
","
","
","""event"",""trial"",""time""
""fullscreenenter"",""1"",""3575""
","
","","","","","","null","<div style=""font-size:60px;"">+</div>","null","","fixation","","",""
"memory-trial","106","298136","0.0-18.0-1.31","8063","approach_avoid_sv1","""event"",""trial"",""time""
""fullscreenenter"",""1"",""3575""
","
","
","""event"",""trial"",""time""
""fullscreenenter"",""1"",""3575""
","
","","","","","","883.7999999523163","images/flower2.png","","","memory_trial","1","definitely_old",""
"html-keyboard-response","107","298637","0.0-18.0-0.32","8063","approach_avoid_sv1","""event"",""trial"",""time""
""fullscreenenter"",""1"",""3575""
","
","
","""event"",""trial"",""time""
""fullscreenenter"",""1"",""3575""
","
","","","","","","null","<div style=""font-size:60px;"">+</div>","null","","fixation","","",""
"memory-trial","108","300714","0.0-18.0-1.32","8063","approach_avoid_sv1","""event"",""trial"",""time""
""fullscreenenter"",""1"",""3575""
","
","
","""event"",""trial"",""time""
""fullscreenenter"",""1"",""3575""
","
","","","","","","1073.3999998569489","images/bush6.png","","","memory_trial","4","definitely_new",""
"html-keyboard-response","109","301216","0.0-18.0-0.33","8063","approach_avoid_sv1","""event"",""trial"",""time""
""fullscreenenter"",""1"",""3575""
","
","
","""event"",""trial"",""time""
""fullscreenenter"",""1"",""3575""
","
","","","","","","null","<div style=""font-size:60px;"">+</div>","null","","fixation","","",""
"memory-trial","110","303111","0.0-18.0-1.33","8063","approach_avoid_sv1","""event"",""trial"",""time""
""fullscreenenter"",""1"",""3575""
","
","
","""event"",""trial"",""time""
""fullscreenenter"",""1"",""3575""
","
","","","","","","892.2999999523163","images/sofa2.png","","","memory_trial","4","definitely_new",""
"html-keyboard-response","111","303612","0.0-18.0-0.34","8063","approach_avoid_sv1","""event"",""trial"",""time""
""fullscreenenter"",""1"",""3575""
","
","
","""event"",""trial"",""time""
""fullscreenenter"",""1"",""3575""
","
","","","","","","null","<div style=""font-size:60px;"">+</div>","null","","fixation","","",""
"memory-trial","112","305853","0.0-18.0-1.34","8063","approach_avoid_sv1","""event"",""trial"",""time""
""fullscreenenter"",""1"",""3575""
","
","
","""event"",""trial"",""time""
""fullscreenenter"",""1"",""3575""
","
","","","","","","1237.1999998092651","images/orange7.png","","","memory_trial","3","maybe_new",""
"html-keyboard-response","113","306354","0.0-18.0-0.35","8063","approach_avoid_sv1","""event"",""trial"",""time""
""fullscreenenter"",""1"",""3575""
","
","
","""event"",""trial"",""time""
""fullscreenenter"",""1"",""3575""
","
","","","","","","null","<div style=""font-size:60px;"">+</div>","null","","fixation","","",""
"memory-trial","114","308852","0.0-18.0-1.35","8063","approach_avoid_sv1","""event"",""trial"",""time""
""fullscreenenter"",""1"",""3575""
","
","
","""event"",""trial"",""time""
""fullscreenenter"",""1"",""3575""
","
","","","","","","1493.3999998569489","images/cow1.png","","","memory_trial","2","maybe_old",""
"html-keyboard-response","115","309353","0.0-18.0-0.36","8063","approach_avoid_sv1","""event"",""trial"",""time""
""fullscreenenter"",""1"",""3575""
","
","
","""event"",""trial"",""time""
""fullscreenenter"",""1"",""3575""
","
","","","","","","null","<div style=""font-size:60px;"">+</div>","null","","fixation","","",""
"memory-trial","116","311506","0.0-18.0-1.36","8063","approach_avoid_sv1","""event"",""trial"",""time""
""fullscreenenter"",""1"",""3575""
","
","
","""event"",""trial"",""time""
""fullscreenenter"",""1"",""3575""
","
","","","","","","1149.2000000476837","images/cat4.png","","","memory_trial","1","definitely_old",""
"html-keyboard-response","117","312008","0.0-18.0-0.37","8063","approach_avoid_sv1","""event"",""trial"",""time""
""fullscreenenter"",""1"",""3575""
","
","
","""event"",""trial"",""time""
""fullscreenenter"",""1"",""3575""
","
","","","","","","null","<div style=""font-size:60px;"">+</div>","null","","fixation","","",""
"memory-trial","118","314134","0.0-18.0-1.37","8063","approach_avoid_sv1","""event"",""trial"",""time""
""fullscreenenter"",""1"",""3575""
","
","
","""event"",""trial"",""time""
""fullscreenenter"",""1"",""3575""
","
","","","","","","1122.5","images/straw8.png","","","memory_trial","3","maybe_new",""
"html-keyboard-response","119","314636","0.0-18.0-0.38","8063","approach_avoid_sv1","""event"",""trial"",""time""
""fullscreenenter"",""1"",""3575""
","
","
","""event"",""trial"",""time""
""fullscreenenter"",""1"",""3575""
","
","","","","","","null","<div style=""font-size:60px;"">+</div>","null","","fixation","","",""
"memory-trial","120","316736","0.0-18.0-1.38","8063","approach_avoid_sv1","""event"",""trial"",""time""
""fullscreenenter"",""1"",""3575""
","
","
","""event"",""trial"",""time""
""fullscreenenter"",""1"",""3575""
","
","","","","","","1097.7000000476837","images/tree6.png","","","memory_trial","3","maybe_new",""
"html-keyboard-response","121","317239","0.0-18.0-0.39","8063","approach_avoid_sv1","""event"",""trial"",""time""
""fullscreenenter"",""1"",""3575""
","
","
","""event"",""trial"",""time""
""fullscreenenter"",""1"",""3575""
","
","","","","","","null","<div style=""font-size:60px;"">+</div>","null","","fixation","","",""
"memory-trial","122","319314","0.0-18.0-1.39","8063","approach_avoid_sv1","""event"",""trial"",""time""
""fullscreenenter"",""1"",""3575""
","
","
","""event"",""trial"",""time""
""fullscreenenter"",""1"",""3575""
","
","","","","","","1071.7000000476837","images/cactus6.png","","","memory_trial","2","maybe_old",""
"html-keyboard-response","123","319816","0.0-18.0-0.40","8063","approach_avoid_sv1","""event"",""trial"",""time""
""fullscreenenter"",""1"",""3575""
","
","
","""event"",""trial"",""time""
""fullscreenenter"",""1"",""3575""
","
","","","","","","null","<div style=""font-size:60px;"">+</div>","null","","fixation","","",""
"memory-trial","124","322390","0.0-18.0-1.40","8063","approach_avoid_sv1","""event"",""trial"",""time""
""fullscreenenter"",""1"",""3575""
","
","
","""event"",""trial"",""time""
""fullscreenenter"",""1"",""3575""
","
","","","","","","1571.2999999523163","images/rabbit2.png","","","memory_trial","3","maybe_new",""
"html-keyboard-response","125","322892","0.0-18.0-0.41","8063","approach_avoid_sv1","""event"",""trial"",""time""
""fullscreenenter"",""1"",""3575""
","
","
","""event"",""trial"",""time""
""fullscreenenter"",""1"",""3575""
","
","","","","","","null","<div style=""font-size:60px;"">+</div>","null","","fixation","","",""
"memory-trial","126","325177","0.0-18.0-1.41","8063","approach_avoid_sv1","""event"",""trial"",""time""
""fullscreenenter"",""1"",""3575""
","
","
","""event"",""trial"",""time""
""fullscreenenter"",""1"",""3575""
","
","","","","","","1281.1999998092651","images/horse3.png","","","memory_trial","2","maybe_old",""
"html-button-response","127","361348","0.0-18.0-2.41-0.41","8063","approach_avoid_sv1","""event"",""trial"",""time""
""fullscreenenter"",""1"",""3575""
","
","
","""event"",""trial"",""time""
""fullscreenenter"",""1"",""3575""
","
","","","","","","36170.10000014305","<p> Take a break! </p><p> Click the button to continue. </p>","0","","break","","",""
"html-keyboard-response","128","361850","0.0-18.0-0.42","8063","approach_avoid_sv1","""event"",""trial"",""time""
""fullscreenenter"",""1"",""3575""
","
","
","""event"",""trial"",""time""
""fullscreenenter"",""1"",""3575""
","
","","","","","","null","<div style=""font-size:60px;"">+</div>","null","","fixation","","",""
"memory-trial","129","364616","0.0-18.0-1.42","8063","approach_avoid_sv1","""event"",""trial"",""time""
""fullscreenenter"",""1"",""3575""
","
","
","""event"",""trial"",""time""
""fullscreenenter"",""1"",""3575""
","
","","","","","","1762","images/straw5.png","","","memory_trial","1","definitely_old",""
"html-keyboard-response","130","365118","0.0-18.0-0.43","8063","approach_avoid_sv1","""event"",""trial"",""time""
""fullscreenenter"",""1"",""3575""
","
","
","""event"",""trial"",""time""
""fullscreenenter"",""1"",""3575""
","
","","","","","","null","<div style=""font-size:60px;"">+</div>","null","","fixation","","",""
"memory-trial","131","367053","0.0-18.0-1.43","8063","approach_avoid_sv1","""event"",""trial"",""time""
""fullscreenenter"",""1"",""3575""
","
","
","""event"",""trial"",""time""
""fullscreenenter"",""1"",""3575""
","
","","","","","","931.9000000953674","images/chair3.png","","","memory_trial","2","maybe_old",""
"html-keyboard-response","132","367555","0.0-18.0-0.44","8063","approach_avoid_sv1","""event"",""trial"",""time""
""fullscreenenter"",""1"",""3575""
","
","
","""event"",""trial"",""time""
""fullscreenenter"",""1"",""3575""
","
","","","","","","null","<div style=""font-size:60px;"">+</div>","null","","fixation","","",""
"memory-trial","133","370160","0.0-18.0-1.44","8063","approach_avoid_sv1","""event"",""trial"",""time""
""fullscreenenter"",""1"",""3575""
","
","
","""event"",""trial"",""time""
""fullscreenenter"",""1"",""3575""
","
","","","","","","1602.1000001430511","images/chair2.png","","","memory_trial","1","definitely_old",""
"html-keyboard-response","134","370662","0.0-18.0-0.45","8063","approach_avoid_sv1","""event"",""trial"",""time""
""fullscreenenter"",""1"",""3575""
","
","
","""event"",""trial"",""time""
""fullscreenenter"",""1"",""3575""
","
","","","","","","null","<div style=""font-size:60px;"">+</div>","null","","fixation","","",""
"memory-trial","135","372807","0.0-18.0-1.45","8063","approach_avoid_sv1","""event"",""trial"",""time""
""fullscreenenter"",""1"",""3575""
","
","
","""event"",""trial"",""time""
""fullscreenenter"",""1"",""3575""
","
","","","","","","1141.2000000476837","images/dog6.png","","","memory_trial","3","maybe_new",""
"html-keyboard-response","136","373309","0.0-18.0-0.46","8063","approach_avoid_sv1","""event"",""trial"",""time""
""fullscreenenter"",""1"",""3575""
","
","
","""event"",""trial"",""time""
""fullscreenenter"",""1"",""3575""
","
","","","","","","null","<div style=""font-size:60px;"">+</div>","null","","fixation","","",""
"memory-trial","137","375254","0.0-18.0-1.46","8063","approach_avoid_sv1","""event"",""trial"",""time""
""fullscreenenter"",""1"",""3575""
","
","
","""event"",""trial"",""time""
""fullscreenenter"",""1"",""3575""
","
","","","","","","941.3999998569489","images/rodent4.png","","","memory_trial","4","definitely_new",""
"html-keyboard-response","138","375755","0.0-18.0-0.47","8063","approach_avoid_sv1","""event"",""trial"",""time""
""fullscreenenter"",""1"",""3575""
","
","
","""event"",""trial"",""time""
""fullscreenenter"",""1"",""3575""
","
","","","","","","null","<div style=""font-size:60px;"">+</div>","null","","fixation","","",""
"memory-trial","139","377887","0.0-18.0-1.47","8063","approach_avoid_sv1","""event"",""trial"",""time""
""fullscreenenter"",""1"",""3575""
","
","
","""event"",""trial"",""time""
""fullscreenenter"",""1"",""3575""
","
","","","","","","1128.5","images/boat3.png","","","memory_trial","2","maybe_old",""
"html-keyboard-response","140","378388","0.0-18.0-0.48","8063","approach_avoid_sv1","""event"",""trial"",""time""
""fullscreenenter"",""1"",""3575""
","
","
","""event"",""trial"",""time""
""fullscreenenter"",""1"",""3575""
","
","","","","","","null","<div style=""font-size:60px;"">+</div>","null","","fixation","","",""
"memory-trial","141","380678","0.0-18.0-1.48","8063","approach_avoid_sv1","""event"",""trial"",""time""
""fullscreenenter"",""1"",""3575""
","
","
","""event"",""trial"",""time""
""fullscreenenter"",""1"",""3575""
","
","","","","","","1285.7000000476837","images/horse7.png","","","memory_trial","3","maybe_new",""
"html-keyboard-response","142","381179","0.0-18.0-0.49","8063","approach_avoid_sv1","""event"",""trial"",""time""
""fullscreenenter"",""1"",""3575""
","
","
","""event"",""trial"",""time""
""fullscreenenter"",""1"",""3575""
","
","","","","","","null","<div style=""font-size:60px;"">+</div>","null","","fixation","","",""
"memory-trial","143","383345","0.0-18.0-1.49","8063","approach_avoid_sv1","""event"",""trial"",""time""
""fullscreenenter"",""1"",""3575""
","
","
","""event"",""trial"",""time""
""fullscreenenter"",""1"",""3575""
","
","","","","","","1163.2999999523163","images/bed2.png","","","memory_trial","3","maybe_new",""
"html-keyboard-response","144","383847","0.0-18.0-0.50","8063","approach_avoid_sv1","""event"",""trial"",""time""
""fullscreenenter"",""1"",""3575""
","
","
","""event"",""trial"",""time""
""fullscreenenter"",""1"",""3575""
","
","","","","","","null","<div style=""font-size:60px;"">+</div>","null","","fixation","","",""
"memory-trial","145","385947","0.0-18.0-1.50","8063","approach_avoid_sv1","""event"",""trial"",""time""
""fullscreenenter"",""1"",""3575""
","
","
","""event"",""trial"",""time""
""fullscreenenter"",""1"",""3575""
","
","","","","","","1096.7999999523163","images/horse2.png","","","memory_trial","1","definitely_old",""
"html-keyboard-response","146","386448","0.0-18.0-0.51","8063","approach_avoid_sv1","""event"",""trial"",""time""
""fullscreenenter"",""1"",""3575""
","
","
","""event"",""trial"",""time""
""fullscreenenter"",""1"",""3575""
","
","","","","","","null","<div style=""font-size:60px;"">+</div>","null","","fixation","","",""
"memory-trial","147","388580","0.0-18.0-1.51","8063","approach_avoid_sv1","""event"",""trial"",""time""
""fullscreenenter"",""1"",""3575""
","
","
","""event"",""trial"",""time""
""fullscreenenter"",""1"",""3575""
","
","","","","","","1126.7000000476837","images/rabbit5.png","","","memory_trial","3","maybe_new",""
"html-keyboard-response","148","389081","0.0-18.0-0.52","8063","approach_avoid_sv1","""event"",""trial"",""time""
""fullscreenenter"",""1"",""3575""
","
","
","""event"",""trial"",""time""
""fullscreenenter"",""1"",""3575""
","
","","","","","","null","<div style=""font-size:60px;"">+</div>","null","","fixation","","",""
"memory-trial","149","391596","0.0-18.0-1.52","8063","approach_avoid_sv1","""event"",""trial"",""time""
""fullscreenenter"",""1"",""3575""
","
","
","""event"",""trial"",""time""
""fullscreenenter"",""1"",""3575""
","
","","","","","","1512","images/apple1.png","","","memory_trial","4","definitely_new",""
"html-keyboard-response","150","392098","0.0-18.0-0.53","8063","approach_avoid_sv1","""event"",""trial"",""time""
""fullscreenenter"",""1"",""3575""
","
","
","""event"",""trial"",""time""
""fullscreenenter"",""1"",""3575""
","
","","","","","","null","<div style=""font-size:60px;"">+</div>","null","","fixation","","",""
"memory-trial","151","393743","0.0-18.0-1.53","8063","approach_avoid_sv1","""event"",""trial"",""time""
""fullscreenenter"",""1"",""3575""
","
","
","""event"",""trial"",""time""
""fullscreenenter"",""1"",""3575""
","
","","","","","","639.5","images/bush8.png","","","memory_trial","4","definitely_new",""
"html-keyboard-response","152","394245","0.0-18.0-0.54","8063","approach_avoid_sv1","""event"",""trial"",""time""
""fullscreenenter"",""1"",""3575""
","
","
","""event"",""trial"",""time""
""fullscreenenter"",""1"",""3575""
","
","","","","","","null","<div style=""font-size:60px;"">+</div>","null","","fixation","","",""
"memory-trial","153","396322","0.0-18.0-1.54","8063","approach_avoid_sv1","""event"",""trial"",""time""
""fullscreenenter"",""1"",""3575""
","
","
","""event"",""trial"",""time""
""fullscreenenter"",""1"",""3575""
","
","","","","","","1074","images/chair8.png","","","memory_trial","2","maybe_old",""
"html-keyboard-response","154","396824","0.0-18.0-0.55","8063","approach_avoid_sv1","""event"",""trial"",""time""
""fullscreenenter"",""1"",""3575""
","
","
","""event"",""trial"",""time""
""fullscreenenter"",""1"",""3575""
","
","","","","","","null","<div style=""font-size:60px;"">+</div>","null","","fixation","","",""
"memory-trial","155","399098","0.0-18.0-1.55","8063","approach_avoid_sv1","""event"",""trial"",""time""
""fullscreenenter"",""1"",""3575""
","
","
","""event"",""trial"",""time""
""fullscreenenter"",""1"",""3575""
","
","","","","","","1271.2999999523163","images/straw3.png","","","memory_trial","3","maybe_new",""
"html-keyboard-response","156","399599","0.0-18.0-0.56","8063","approach_avoid_sv1","""event"",""trial"",""time""
""fullscreenenter"",""1"",""3575""
","
","
","""event"",""trial"",""time""
""fullscreenenter"",""1"",""3575""
","
","","","","","","null","<div style=""font-size:60px;"">+</div>","null","","fixation","","",""
"memory-trial","157","401475","0.0-18.0-1.56","8063","approach_avoid_sv1","""event"",""trial"",""time""
""fullscreenenter"",""1"",""3575""
","
","
","""event"",""trial"",""time""
""fullscreenenter"",""1"",""3575""
","
","","","","","","872.5","images/train4.png","","","memory_trial","3","maybe_new",""
"html-keyboard-response","158","401981","0.0-18.0-0.57","8063","approach_avoid_sv1","""event"",""trial"",""time""
""fullscreenenter"",""1"",""3575""
","
","
","""event"",""trial"",""time""
""fullscreenenter"",""1"",""3575""
","
","","","","","","null","<div style=""font-size:60px;"">+</div>","null","","fixation","","",""
"memory-trial","159","404344","0.0-18.0-1.57","8063","approach_avoid_sv1","""event"",""trial"",""time""
""fullscreenenter"",""1"",""3575""
","
","
","""event"",""trial"",""time""
""fullscreenenter"",""1"",""3575""
","
","","","","","","1360.0999999046326","images/rodent2.png","","","memory_trial","4","definitely_new",""
"html-keyboard-response","160","404846","0.0-18.0-0.58","8063","approach_avoid_sv1","""event"",""trial"",""time""
""fullscreenenter"",""1"",""3575""
","
","
","""event"",""trial"",""time""
""fullscreenenter"",""1"",""3575""
","
","","","","","","null","<div style=""font-size:60px;"">+</div>","null","","fixation","","",""
"memory-trial","161","407194","0.0-18.0-1.58","8063","approach_avoid_sv1","""event"",""trial"",""time""
""fullscreenenter"",""1"",""3575""
","
","
","""event"",""trial"",""time""
""fullscreenenter"",""1"",""3575""
","
","","","","","","1345.2000000476837","images/banana7.png","","","memory_trial","4","definitely_new",""
"html-keyboard-response","162","407696","0.0-18.0-0.59","8063","approach_avoid_sv1","""event"",""trial"",""time""
""fullscreenenter"",""1"",""3575""
","
","
","""event"",""trial"",""time""
""fullscreenenter"",""1"",""3575""
","
","","","","","","null","<div style=""font-size:60px;"">+</div>","null","","fixation","","",""
"memory-trial","163","409742","0.0-18.0-1.59","8063","approach_avoid_sv1","""event"",""trial"",""time""
""fullscreenenter"",""1"",""3575""
","
","
","""event"",""trial"",""time""
""fullscreenenter"",""1"",""3575""
","
","","","","","","1042.5","images/dog7.png","","","memory_trial","3","maybe_new",""
"html-keyboard-response","164","410244","0.0-18.0-0.60","8063","approach_avoid_sv1","""event"",""trial"",""time""
""fullscreenenter"",""1"",""3575""
","
","
","""event"",""trial"",""time""
""fullscreenenter"",""1"",""3575""
","
","","","","","","null","<div style=""font-size:60px;"">+</div>","null","","fixation","","",""
"memory-trial","165","412203","0.0-18.0-1.60","8063","approach_avoid_sv1","""event"",""trial"",""time""
""fullscreenenter"",""1"",""3575""
","
","
","""event"",""trial"",""time""
""fullscreenenter"",""1"",""3575""
","
","","","","","","955.5999999046326","images/boat6.png","","","memory_trial","2","maybe_old",""
"html-keyboard-response","166","412704","0.0-18.0-0.61","8063","approach_avoid_sv1","""event"",""trial"",""time""
""fullscreenenter"",""1"",""3575""
","
","
","""event"",""trial"",""time""
""fullscreenenter"",""1"",""3575""
","
","","","","","","null","<div style=""font-size:60px;"">+</div>","null","","fixation","","",""
"memory-trial","167","414850","0.0-18.0-1.61","8063","approach_avoid_sv1","""event"",""trial"",""time""
""fullscreenenter"",""1"",""3575""
","
","
","""event"",""trial"",""time""
""fullscreenenter"",""1"",""3575""
","
","","","","","","1144.5","images/dog1.png","","","memory_trial","1","definitely_old",""
"html-keyboard-response","168","415352","0.0-18.0-0.62","8063","approach_avoid_sv1","""event"",""trial"",""time""
""fullscreenenter"",""1"",""3575""
","
","
","""event"",""trial"",""time""
""fullscreenenter"",""1"",""3575""
","
","","","","","","null","<div style=""font-size:60px;"">+</div>","null","","fixation","","",""
"memory-trial","169","417737","0.0-18.0-1.62","8063","approach_avoid_sv1","""event"",""trial"",""time""
""fullscreenenter"",""1"",""3575""
","
","
","""event"",""trial"",""time""
""fullscreenenter"",""1"",""3575""
","
","","","","","","1382.7000000476837","images/dog5.png","","","memory_trial","1","definitely_old",""
"html-keyboard-response","170","418238","0.0-18.0-0.63","8063","approach_avoid_sv1","""event"",""trial"",""time""
""fullscreenenter"",""1"",""3575""
","
","
","""event"",""trial"",""time""
""fullscreenenter"",""1"",""3575""
","
","","","","","","null","<div style=""font-size:60px;"">+</div>","null","","fixation","","",""
"memory-trial","171","421014","0.0-18.0-1.63","8063","approach_avoid_sv1","""event"",""trial"",""time""
""fullscreenenter"",""1"",""3575""
","
","
","""event"",""trial"",""time""
""fullscreenenter"",""1"",""3575""
","
","","","","","","1772.1999998092651","images/tree1.png","","","memory_trial","2","maybe_old",""
"html-keyboard-response","172","421515","0.0-18.0-0.64","8063","approach_avoid_sv1","""event"",""trial"",""time""
""fullscreenenter"",""1"",""3575""
","
","
","""event"",""trial"",""time""
""fullscreenenter"",""1"",""3575""
","
","","","","","","null","<div style=""font-size:60px;"">+</div>","null","","fixation","","",""
"memory-trial","173","424440","0.0-18.0-1.64","8063","approach_avoid_sv1","""event"",""trial"",""time""
""fullscreenenter"",""1"",""3575""
","
","
","""event"",""trial"",""time""
""fullscreenenter"",""1"",""3575""
","
","","","","","","1921.8000001907349","images/rodent3.png","","","memory_trial","3","maybe_new",""
"html-keyboard-response","174","424942","0.0-18.0-0.65","8063","approach_avoid_sv1","""event"",""trial"",""time""
""fullscreenenter"",""1"",""3575""
","
","
","""event"",""trial"",""time""
""fullscreenenter"",""1"",""3575""
","
","","","","","","null","<div style=""font-size:60px;"">+</div>","null","","fixation","","",""
"memory-trial","175","426824","0.0-18.0-1.65","8063","approach_avoid_sv1","""event"",""trial"",""time""
""fullscreenenter"",""1"",""3575""
","
","
","""event"",""trial"",""time""
""fullscreenenter"",""1"",""3575""
","
","","","","","","878.9000000953674","images/bed4.png","","","memory_trial","3","maybe_new",""
"html-keyboard-response","176","427325","0.0-18.0-0.66","8063","approach_avoid_sv1","""event"",""trial"",""time""
""fullscreenenter"",""1"",""3575""
","
","
","""event"",""trial"",""time""
""fullscreenenter"",""1"",""3575""
","
","","","","","","null","<div style=""font-size:60px;"">+</div>","null","","fixation","","",""
"memory-trial","177","429490","0.0-18.0-1.66","8063","approach_avoid_sv1","""event"",""trial"",""time""
""fullscreenenter"",""1"",""3575""
","
","
","""event"",""trial"",""time""
""fullscreenenter"",""1"",""3575""
","
","","","","","","1162","images/boat8.png","","","memory_trial","3","maybe_new",""
"html-keyboard-response","178","429992","0.0-18.0-0.67","8063","approach_avoid_sv1","""event"",""trial"",""time""
""fullscreenenter"",""1"",""3575""
","
","
","""event"",""trial"",""time""
""fullscreenenter"",""1"",""3575""
","
","","","","","","null","<div style=""font-size:60px;"">+</div>","null","","fixation","","",""
"memory-trial","179","432695","0.0-18.0-1.67","8063","approach_avoid_sv1","""event"",""trial"",""time""
""fullscreenenter"",""1"",""3575""
","
","
","""event"",""trial"",""time""
""fullscreenenter"",""1"",""3575""
","
","","","","","","1699.2999999523163","images/apple5.png","","","memory_trial","3","maybe_new",""
"html-keyboard-response","180","433197","0.0-18.0-0.68","8063","approach_avoid_sv1","""event"",""trial"",""time""
""fullscreenenter"",""1"",""3575""
","
","
","""event"",""trial"",""time""
""fullscreenenter"",""1"",""3575""
","
","","","","","","null","<div style=""font-size:60px;"">+</div>","null","","fixation","","",""
"memory-trial","181","435282","0.0-18.0-1.68","8063","approach_avoid_sv1","""event"",""trial"",""time""
""fullscreenenter"",""1"",""3575""
","
","
","""event"",""trial"",""time""
""fullscreenenter"",""1"",""3575""
","
","","","","","","1083.5999999046326","images/train5.png","","","memory_trial","3","maybe_new",""
"html-keyboard-response","182","435784","0.0-18.0-0.69","8063","approach_avoid_sv1","""event"",""trial"",""time""
""fullscreenenter"",""1"",""3575""
","
","
","""event"",""trial"",""time""
""fullscreenenter"",""1"",""3575""
","
","","","","","","null","<div style=""font-size:60px;"">+</div>","null","","fixation","","",""
"memory-trial","183","438182","0.0-18.0-1.69","8063","approach_avoid_sv1","""event"",""trial"",""time""
""fullscreenenter"",""1"",""3575""
","
","
","""event"",""trial"",""time""
""fullscreenenter"",""1"",""3575""
","
","","","","","","1394.2999999523163","images/horse1.png","","","memory_trial","2","maybe_old",""
"html-keyboard-response","184","438684","0.0-18.0-0.70","8063","approach_avoid_sv1","""event"",""trial"",""time""
""fullscreenenter"",""1"",""3575""
","
","
","""event"",""trial"",""time""
""fullscreenenter"",""1"",""3575""
","
","","","","","","null","<div style=""font-size:60px;"">+</div>","null","","fixation","","",""
"memory-trial","185","440762","0.0-18.0-1.70","8063","approach_avoid_sv1","""event"",""trial"",""time""
""fullscreenenter"",""1"",""3575""
","
","
","""event"",""trial"",""time""
""fullscreenenter"",""1"",""3575""
","
","","","","","","1076.1999998092651","images/sheep4.png","","","memory_trial","1","definitely_old",""
"html-keyboard-response","186","441263","0.0-18.0-0.71","8063","approach_avoid_sv1","""event"",""trial"",""time""
""fullscreenenter"",""1"",""3575""
","
","
","""event"",""trial"",""time""
""fullscreenenter"",""1"",""3575""
","
","","","","","","null","<div style=""font-size:60px;"">+</div>","null","","fixation","","",""
"memory-trial","187","443165","0.0-18.0-1.71","8063","approach_avoid_sv1","""event"",""trial"",""time""
""fullscreenenter"",""1"",""3575""
","
","
","""event"",""trial"",""time""
""fullscreenenter"",""1"",""3575""
","
","","","","","","899.3999998569489","images/chair1.png","","","memory_trial","4","definitely_new",""
"html-keyboard-response","188","443667","0.0-18.0-0.72","8063","approach_avoid_sv1","""event"",""trial"",""time""
""fullscreenenter"",""1"",""3575""
","
","
","""event"",""trial"",""time""
""fullscreenenter"",""1"",""3575""
","
","","","","","","null","<div style=""font-size:60px;"">+</div>","null","","fixation","","",""
"memory-trial","189","445542","0.0-18.0-1.72","8063","approach_avoid_sv1","""event"",""trial"",""time""
""fullscreenenter"",""1"",""3575""
","
","
","""event"",""trial"",""time""
""fullscreenenter"",""1"",""3575""
","
","","","","","","867.7000000476837","images/tree8.png","","","memory_trial","3","maybe_new",""
"html-keyboard-response","190","446044","0.0-18.0-0.73","8063","approach_avoid_sv1","""event"",""trial"",""time""
""fullscreenenter"",""1"",""3575""
","
","
","""event"",""trial"",""time""
""fullscreenenter"",""1"",""3575""
","
","","","","","","null","<div style=""font-size:60px;"">+</div>","null","","fixation","","",""
"memory-trial","191","448515","0.0-18.0-1.73","8063","approach_avoid_sv1","""event"",""trial"",""time""
""fullscreenenter"",""1"",""3575""
","
","
","""event"",""trial"",""time""
""fullscreenenter"",""1"",""3575""
","
","","","","","","1469","images/plane3.png","","","memory_trial","3","maybe_new",""
"html-keyboard-response","192","449017","0.0-18.0-0.74","8063","approach_avoid_sv1","""event"",""trial"",""time""
""fullscreenenter"",""1"",""3575""
","
","
","""event"",""trial"",""time""
""fullscreenenter"",""1"",""3575""
","
","","","","","","null","<div style=""font-size:60px;"">+</div>","null","","fixation","","",""
"memory-trial","193","451248","0.0-18.0-1.74","8063","approach_avoid_sv1","""event"",""trial"",""time""
""fullscreenenter"",""1"",""3575""
","
","
","""event"",""trial"",""time""
""fullscreenenter"",""1"",""3575""
","
","","","","","","1228.5","images/train7.png","","","memory_trial","1","definitely_old",""
"html-keyboard-response","194","451751","0.0-18.0-0.75","8063","approach_avoid_sv1","""event"",""trial"",""time""
""fullscreenenter"",""1"",""3575""
","
","
","""event"",""trial"",""time""
""fullscreenenter"",""1"",""3575""
","
","","","","","","null","<div style=""font-size:60px;"">+</div>","null","","fixation","","",""
"memory-trial","195","454174","0.0-18.0-1.75","8063","approach_avoid_sv1","""event"",""trial"",""time""
""fullscreenenter"",""1"",""3575""
","
","
","""event"",""trial"",""time""
""fullscreenenter"",""1"",""3575""
","
","","","","","","1419.7999999523163","images/goat8.png","","","memory_trial","3","maybe_new",""
"html-keyboard-response","196","454676","0.0-18.0-0.76","8063","approach_avoid_sv1","""event"",""trial"",""time""
""fullscreenenter"",""1"",""3575""
","
","
","""event"",""trial"",""time""
""fullscreenenter"",""1"",""3575""
","
","","","","","","null","<div style=""font-size:60px;"">+</div>","null","","fixation","","",""
"memory-trial","197","456666","0.0-18.0-1.76","8063","approach_avoid_sv1","""event"",""trial"",""time""
""fullscreenenter"",""1"",""3575""
","
","
","""event"",""trial"",""time""
""fullscreenenter"",""1"",""3575""
","
","","","","","","986.2000000476837","images/boat5.png","","","memory_trial","2","maybe_old",""
"html-keyboard-response","198","457168","0.0-18.0-0.77","8063","approach_avoid_sv1","""event"",""trial"",""time""
""fullscreenenter"",""1"",""3575""
","
","
","""event"",""trial"",""time""
""fullscreenenter"",""1"",""3575""
","
","","","","","","null","<div style=""font-size:60px;"">+</div>","null","","fixation","","",""
"memory-trial","199","459121","0.0-18.0-1.77","8063","approach_avoid_sv1","""event"",""trial"",""time""
""fullscreenenter"",""1"",""3575""
","
","
","""event"",""trial"",""time""
""fullscreenenter"",""1"",""3575""
","
","","","","","","950","images/sheep1.png","","","memory_trial","1","definitely_old",""
"html-keyboard-response","200","459624","0.0-18.0-0.78","8063","approach_avoid_sv1","""event"",""trial"",""time""
""fullscreenenter"",""1"",""3575""
","
","
","""event"",""trial"",""time""
""fullscreenenter"",""1"",""3575""
","
","","","","","","null","<div style=""font-size:60px;"">+</div>","null","","fixation","","",""
"memory-trial","201","461901","0.0-18.0-1.78","8063","approach_avoid_sv1","""event"",""trial"",""time""
""fullscreenenter"",""1"",""3575""
","
","
","""event"",""trial"",""time""
""fullscreenenter"",""1"",""3575""
","
","","","","","","1274.4000000953674","images/cow2.png","","","memory_trial","3","maybe_new",""
"html-keyboard-response","202","462402","0.0-18.0-0.79","8063","approach_avoid_sv1","""event"",""trial"",""time""
""fullscreenenter"",""1"",""3575""
","
","
","""event"",""trial"",""time""
""fullscreenenter"",""1"",""3575""
","
","","","","","","null","<div style=""font-size:60px;"">+</div>","null","","fixation","","",""
"memory-trial","203","464193","0.0-18.0-1.79","8063","approach_avoid_sv1","""event"",""trial"",""time""
""fullscreenenter"",""1"",""3575""
","
","
","""event"",""trial"",""time""
""fullscreenenter"",""1"",""3575""
","
","","","","","","787.7000000476837","images/rodent6.png","","","memory_trial","4","definitely_new",""
"html-keyboard-response","204","464694","0.0-18.0-0.80","8063","approach_avoid_sv1","""event"",""trial"",""time""
""fullscreenenter"",""1"",""3575""
","
","
","""event"",""trial"",""time""
""fullscreenenter"",""1"",""3575""
","
","","","","","","null","<div style=""font-size:60px;"">+</div>","null","","fixation","","",""
"memory-trial","205","466527","0.0-18.0-1.80","8063","approach_avoid_sv1","""event"",""trial"",""time""
""fullscreenenter"",""1"",""3575""
","
","
","""event"",""trial"",""time""
""fullscreenenter"",""1"",""3575""
","
","","","","","","829.2000000476837","images/rodent8.png","","","memory_trial","4","definitely_new",""
"html-keyboard-response","206","467029","0.0-18.0-0.81","8063","approach_avoid_sv1","""event"",""trial"",""time""
""fullscreenenter"",""1"",""3575""
","
","
","""event"",""trial"",""time""
""fullscreenenter"",""1"",""3575""
","
","","","","","","null","<div style=""font-size:60px;"">+</div>","null","","fixation","","",""
"memory-trial","207","468914","0.0-18.0-1.81","8063","approach_avoid_sv1","""event"",""trial"",""time""
""fullscreenenter"",""1"",""3575""
","
","
","""event"",""trial"",""time""
""fullscreenenter"",""1"",""3575""
","
","","","","","","881.4000000953674","images/orange5.png","","","memory_trial","3","maybe_new",""
"html-keyboard-response","208","469415","0.0-18.0-0.82","8063","approach_avoid_sv1","""event"",""trial"",""time""
""fullscreenenter"",""1"",""3575""
","
","
","""event"",""trial"",""time""
""fullscreenenter"",""1"",""3575""
","
","","","","","","null","<div style=""font-size:60px;"">+</div>","null","","fixation","","",""
"memory-trial","209","471423","0.0-18.0-1.82","8063","approach_avoid_sv1","""event"",""trial"",""time""
""fullscreenenter"",""1"",""3575""
","
","
","""event"",""trial"",""time""
""fullscreenenter"",""1"",""3575""
","
","","","","","","1004.4000000953674","images/cactus8.png","","","memory_trial","3","maybe_new",""
"html-keyboard-response","210","471924","0.0-18.0-0.83","8063","approach_avoid_sv1","""event"",""trial"",""time""
""fullscreenenter"",""1"",""3575""
","
","
","""event"",""trial"",""time""
""fullscreenenter"",""1"",""3575""
","
","","","","","","null","<div style=""font-size:60px;"">+</div>","null","","fixation","","",""
"memory-trial","211","474079","0.0-18.0-1.83","8063","approach_avoid_sv1","""event"",""trial"",""time""
""fullscreenenter"",""1"",""3575""
","
","
","""event"",""trial"",""time""
""fullscreenenter"",""1"",""3575""
","
","","","","","","1151.5999999046326","images/bed5.png","","","memory_trial","1","definitely_old",""
"html-keyboard-response","212","474581","0.0-18.0-0.84","8063","approach_avoid_sv1","""event"",""trial"",""time""
""fullscreenenter"",""1"",""3575""
","
","
","""event"",""trial"",""time""
""fullscreenenter"",""1"",""3575""
","
","","","","","","null","<div style=""font-size:60px;"">+</div>","null","","fixation","","",""
"memory-trial","213","476945","0.0-18.0-1.84","8063","approach_avoid_sv1","""event"",""trial"",""time""
""fullscreenenter"",""1"",""3575""
","
","
","""event"",""trial"",""time""
""fullscreenenter"",""1"",""3575""
","
","","","","","","1362","images/plane2.png","","","memory_trial","2","maybe_old",""
"html-keyboard-response","214","477447","0.0-18.0-0.85","8063","approach_avoid_sv1","""event"",""trial"",""time""
""fullscreenenter"",""1"",""3575""
","
","
","""event"",""trial"",""time""
""fullscreenenter"",""1"",""3575""
","
","","","","","","null","<div style=""font-size:60px;"">+</div>","null","","fixation","","",""
"memory-trial","215","479303","0.0-18.0-1.85","8063","approach_avoid_sv1","""event"",""trial"",""time""
""fullscreenenter"",""1"",""3575""
","
","
","""event"",""trial"",""time""
""fullscreenenter"",""1"",""3575""
","
","","","","","","854","images/truck7.png","","","memory_trial","4","definitely_new",""
"html-keyboard-response","216","479805","0.0-18.0-0.86","8063","approach_avoid_sv1","""event"",""trial"",""time""
""fullscreenenter"",""1"",""3575""
","
","
","""event"",""trial"",""time""
""fullscreenenter"",""1"",""3575""
","
","","","","","","null","<div style=""font-size:60px;"">+</div>","null","","fixation","","",""
"memory-trial","217","481803","0.0-18.0-1.86","8063","approach_avoid_sv1","""event"",""trial"",""time""
""fullscreenenter"",""1"",""3575""
","
","
","""event"",""trial"",""time""
""fullscreenenter"",""1"",""3575""
","
","","","","","","995.6000001430511","images/banana6.png","","","memory_trial","4","definitely_new",""
"html-keyboard-response","218","482305","0.0-18.0-0.87","8063","approach_avoid_sv1","""event"",""trial"",""time""
""fullscreenenter"",""1"",""3575""
","
","
","""event"",""trial"",""time""
""fullscreenenter"",""1"",""3575""
","
","","","","","","null","<div style=""font-size:60px;"">+</div>","null","","fixation","","",""
"memory-trial","219","484059","0.0-18.0-1.87","8063","approach_avoid_sv1","""event"",""trial"",""time""
""fullscreenenter"",""1"",""3575""
","
","
","""event"",""trial"",""time""
""fullscreenenter"",""1"",""3575""
","
","","","","","","750.6999998092651","images/orange8.png","","","memory_trial","3","maybe_new",""
"html-keyboard-response","220","484562","0.0-18.0-0.88","8063","approach_avoid_sv1","""event"",""trial"",""time""
""fullscreenenter"",""1"",""3575""
","
","
","""event"",""trial"",""time""
""fullscreenenter"",""1"",""3575""
","
","","","","","","null","<div style=""font-size:60px;"">+</div>","null","","fixation","","",""
"memory-trial","221","486437","0.0-18.0-1.88","8063","approach_avoid_sv1","""event"",""trial"",""time""
""fullscreenenter"",""1"",""3575""
","
","
","""event"",""trial"",""time""
""fullscreenenter"",""1"",""3575""
","
","","","","","","861.3999998569489","images/apple7.png","","","memory_trial","3","maybe_new",""
"html-keyboard-response","222","486938","0.0-18.0-0.89","8063","approach_avoid_sv1","""event"",""trial"",""time""
""fullscreenenter"",""1"",""3575""
","
","
","""event"",""trial"",""time""
""fullscreenenter"",""1"",""3575""
","
","","","","","","null","<div style=""font-size:60px;"">+</div>","null","","fixation","","",""
"memory-trial","223","488679","0.0-18.0-1.89","8063","approach_avoid_sv1","""event"",""trial"",""time""
""fullscreenenter"",""1"",""3575""
","
","
","""event"",""trial"",""time""
""fullscreenenter"",""1"",""3575""
","
","","","","","","737.2000000476837","images/sofa7.png","","","memory_trial","1","definitely_old",""
"html-keyboard-response","224","489181","0.0-18.0-0.90","8063","approach_avoid_sv1","""event"",""trial"",""time""
""fullscreenenter"",""1"",""3575""
","
","
","""event"",""trial"",""time""
""fullscreenenter"",""1"",""3575""
","
","","","","","","null","<div style=""font-size:60px;"">+</div>","null","","fixation","","",""
"memory-trial","225","491122","0.0-18.0-1.90","8063","approach_avoid_sv1","""event"",""trial"",""time""
""fullscreenenter"",""1"",""3575""
","
","
","""event"",""trial"",""time""
""fullscreenenter"",""1"",""3575""
","
","","","","","","937.7999999523163","images/goat5.png","","","memory_trial","3","maybe_new",""
"html-keyboard-response","226","491624","0.0-18.0-0.91","8063","approach_avoid_sv1","""event"",""trial"",""time""
""fullscreenenter"",""1"",""3575""
","
","
","""event"",""trial"",""time""
""fullscreenenter"",""1"",""3575""
","
","","","","","","null","<div style=""font-size:60px;"">+</div>","null","","fixation","","",""
"memory-trial","227","493519","0.0-18.0-1.91","8063","approach_avoid_sv1","""event"",""trial"",""time""
""fullscreenenter"",""1"",""3575""
","
","
","""event"",""trial"",""time""
""fullscreenenter"",""1"",""3575""
","
","","","","","","892.1000001430511","images/chair7.png","","","memory_trial","3","maybe_new",""
"html-button-response","228","535212","0.0-18.0-2.91-0.91","8063","approach_avoid_sv1","""event"",""trial"",""time""
""fullscreenenter"",""1"",""3575""
","
","
","""event"",""trial"",""time""
""fullscreenenter"",""1"",""3575""
","
","","","","","","41692.799999952316","<p> Take a break! </p><p> Click the button to continue. </p>","0","","break","","",""
"html-keyboard-response","229","535714","0.0-18.0-0.92","8063","approach_avoid_sv1","""event"",""trial"",""time""
""fullscreenenter"",""1"",""3575""
","
","
","""event"",""trial"",""time""
""fullscreenenter"",""1"",""3575""
","
","","","","","","null","<div style=""font-size:60px;"">+</div>","null","","fixation","","",""
"memory-trial","230","537740","0.0-18.0-1.92","8063","approach_avoid_sv1","""event"",""trial"",""time""
""fullscreenenter"",""1"",""3575""
","
","
","""event"",""trial"",""time""
""fullscreenenter"",""1"",""3575""
","
","","","","","","1021.2000000476837","images/table4.png","","","memory_trial","3","maybe_new",""
"html-keyboard-response","231","538241","0.0-18.0-0.93","8063","approach_avoid_sv1","""event"",""trial"",""time""
""fullscreenenter"",""1"",""3575""
","
","
","""event"",""trial"",""time""
""fullscreenenter"",""1"",""3575""
","
","","","","","","null","<div style=""font-size:60px;"">+</div>","null","","fixation","","",""
"memory-trial","232","540011","0.0-18.0-1.93","8063","approach_avoid_sv1","""event"",""trial"",""time""
""fullscreenenter"",""1"",""3575""
","
","
","""event"",""trial"",""time""
""fullscreenenter"",""1"",""3575""
","
","","","","","","766.0999999046326","images/table8.png","","","memory_trial","2","maybe_old",""
"html-keyboard-response","233","540513","0.0-18.0-0.94","8063","approach_avoid_sv1","""event"",""trial"",""time""
""fullscreenenter"",""1"",""3575""
","
","
","""event"",""trial"",""time""
""fullscreenenter"",""1"",""3575""
","
","","","","","","null","<div style=""font-size:60px;"">+</div>","null","","fixation","","",""
"memory-trial","234","542868","0.0-18.0-1.94","8063","approach_avoid_sv1","""event"",""trial"",""time""
""fullscreenenter"",""1"",""3575""
","
","
","""event"",""trial"",""time""
""fullscreenenter"",""1"",""3575""
","
","","","","","","1351.7999999523163","images/bed3.png","","","memory_trial","2","maybe_old",""
"html-keyboard-response","235","543370","0.0-18.0-0.95","8063","approach_avoid_sv1","""event"",""trial"",""time""
""fullscreenenter"",""1"",""3575""
","
","
","""event"",""trial"",""time""
""fullscreenenter"",""1"",""3575""
","
","","","","","","null","<div style=""font-size:60px;"">+</div>","null","","fixation","","",""
"memory-trial","236","545242","0.0-18.0-1.95","8063","approach_avoid_sv1","""event"",""trial"",""time""
""fullscreenenter"",""1"",""3575""
","
","
","""event"",""trial"",""time""
""fullscreenenter"",""1"",""3575""
","
","","","","","","868.6000001430511","images/banana3.png","","","memory_trial","3","maybe_new",""
"html-keyboard-response","237","545744","0.0-18.0-0.96","8063","approach_avoid_sv1","""event"",""trial"",""time""
""fullscreenenter"",""1"",""3575""
","
","
","""event"",""trial"",""time""
""fullscreenenter"",""1"",""3575""
","
","","","","","","null","<div style=""font-size:60px;"">+</div>","null","","fixation","","",""
"memory-trial","238","547658","0.0-18.0-1.96","8063","approach_avoid_sv1","""event"",""trial"",""time""
""fullscreenenter"",""1"",""3575""
","
","
","""event"",""trial"",""time""
""fullscreenenter"",""1"",""3575""
","
","","","","","","911","images/horse6.png","","","memory_trial","2","maybe_old",""
"html-keyboard-response","239","548160","0.0-18.0-0.97","8063","approach_avoid_sv1","""event"",""trial"",""time""
""fullscreenenter"",""1"",""3575""
","
","
","""event"",""trial"",""time""
""fullscreenenter"",""1"",""3575""
","
","","","","","","null","<div style=""font-size:60px;"">+</div>","null","","fixation","","",""
"memory-trial","240","549860","0.0-18.0-1.97","8063","approach_avoid_sv1","""event"",""trial"",""time""
""fullscreenenter"",""1"",""3575""
","
","
","""event"",""trial"",""time""
""fullscreenenter"",""1"",""3575""
","
","","","","","","697.0999999046326","images/table5.png","","","memory_trial","3","maybe_new",""
"html-keyboard-response","241","550362","0.0-18.0-0.98","8063","approach_avoid_sv1","""event"",""trial"",""time""
""fullscreenenter"",""1"",""3575""
","
","
","""event"",""trial"",""time""
""fullscreenenter"",""1"",""3575""
","
","","","","","","null","<div style=""font-size:60px;"">+</div>","null","","fixation","","",""
"memory-trial","242","552417","0.0-18.0-1.98","8063","approach_avoid_sv1","""event"",""trial"",""time""
""fullscreenenter"",""1"",""3575""
","
","
","""event"",""trial"",""time""
""fullscreenenter"",""1"",""3575""
","
","","","","","","1051.6000001430511","images/cat2.png","","","memory_trial","2","maybe_old",""
"html-keyboard-response","243","552918","0.0-18.0-0.99","8063","approach_avoid_sv1","""event"",""trial"",""time""
""fullscreenenter"",""1"",""3575""
","
","
","""event"",""trial"",""time""
""fullscreenenter"",""1"",""3575""
","
","","","","","","null","<div style=""font-size:60px;"">+</div>","null","","fixation","","",""
"memory-trial","244","554861","0.0-18.0-1.99","8063","approach_avoid_sv1","""event"",""trial"",""time""
""fullscreenenter"",""1"",""3575""
","
","
","""event"",""trial"",""time""
""fullscreenenter"",""1"",""3575""
","
","","","","","","938.5","images/sheep8.png","","","memory_trial","2","maybe_old",""
"html-keyboard-response","245","555363","0.0-18.0-0.100","8063","approach_avoid_sv1","""event"",""trial"",""time""
""fullscreenenter"",""1"",""3575""
","
","
","""event"",""trial"",""time""
""fullscreenenter"",""1"",""3575""
","
","","","","","","null","<div style=""font-size:60px;"">+</div>","null","","fixation","","",""
"memory-trial","246","558076","0.0-18.0-1.100","8063","approach_avoid_sv1","""event"",""trial"",""time""
""fullscreenenter"",""1"",""3575""
","
","
","""event"",""trial"",""time""
""fullscreenenter"",""1"",""3575""
","
","","","","","","1709.7000000476837","images/apple2.png","","","memory_trial","1","definitely_old",""
"html-keyboard-response","247","558578","0.0-18.0-0.101","8063","approach_avoid_sv1","""event"",""trial"",""time""
""fullscreenenter"",""1"",""3575""
","
","
","""event"",""trial"",""time""
""fullscreenenter"",""1"",""3575""
","
","","","","","","null","<div style=""font-size:60px;"">+</div>","null","","fixation","","",""
"memory-trial","248","560543","0.0-18.0-1.101","8063","approach_avoid_sv1","""event"",""trial"",""time""
""fullscreenenter"",""1"",""3575""
","
","
","""event"",""trial"",""time""
""fullscreenenter"",""1"",""3575""
","
","","","","","","960.2999999523163","images/cow6.png","","","memory_trial","3","maybe_new",""
"html-keyboard-response","249","561045","0.0-18.0-0.102","8063","approach_avoid_sv1","""event"",""trial"",""time""
""fullscreenenter"",""1"",""3575""
","
","
","""event"",""trial"",""time""
""fullscreenenter"",""1"",""3575""
","
","","","","","","null","<div style=""font-size:60px;"">+</div>","null","","fixation","","",""
"memory-trial","250","563439","0.0-18.0-1.102","8063","approach_avoid_sv1","""event"",""trial"",""time""
""fullscreenenter"",""1"",""3575""
","
","
","""event"",""trial"",""time""
""fullscreenenter"",""1"",""3575""
","
","","","","","","1391.5","images/straw6.png","","","memory_trial","3","maybe_new",""
"html-keyboard-response","251","563941","0.0-18.0-0.103","8063","approach_avoid_sv1","""event"",""trial"",""time""
""fullscreenenter"",""1"",""3575""
","
","
","""event"",""trial"",""time""
""fullscreenenter"",""1"",""3575""
","
","","","","","","null","<div style=""font-size:60px;"">+</div>","null","","fixation","","",""
"memory-trial","252","566227","0.0-18.0-1.103","8063","approach_avoid_sv1","""event"",""trial"",""time""
""fullscreenenter"",""1"",""3575""
","
","
","""event"",""trial"",""time""
""fullscreenenter"",""1"",""3575""
","
","","","","","","1282.5","images/tree5.png","","","memory_trial","1","definitely_old",""
"html-keyboard-response","253","566741","0.0-18.0-0.104","8063","approach_avoid_sv1","""event"",""trial"",""time""
""fullscreenenter"",""1"",""3575""
","
","
","""event"",""trial"",""time""
""fullscreenenter"",""1"",""3575""
","
","","","","","","null","<div style=""font-size:60px;"">+</div>","null","","fixation","","",""
"memory-trial","254","568703","0.0-18.0-1.104","8063","approach_avoid_sv1","""event"",""trial"",""time""
""fullscreenenter"",""1"",""3575""
","
","
","""event"",""trial"",""time""
""fullscreenenter"",""1"",""3575""
","
","","","","","","959.7000000476837","images/tree2.png","","","memory_trial","4","definitely_new",""
"html-keyboard-response","255","569204","0.0-18.0-0.105","8063","approach_avoid_sv1","""event"",""trial"",""time""
""fullscreenenter"",""1"",""3575""
","
","
","""event"",""trial"",""time""
""fullscreenenter"",""1"",""3575""
","
","","","","","","null","<div style=""font-size:60px;"">+</div>","null","","fixation","","",""
"memory-trial","256","571199","0.0-18.0-1.105","8063","approach_avoid_sv1","""event"",""trial"",""time""
""fullscreenenter"",""1"",""3575""
","
","
","""event"",""trial"",""time""
""fullscreenenter"",""1"",""3575""
","
","","","","","","993.0999999046326","images/apple8.png","","","memory_trial","1","definitely_old",""
"html-keyboard-response","257","571711","0.0-18.0-0.106","8063","approach_avoid_sv1","""event"",""trial"",""time""
""fullscreenenter"",""1"",""3575""
","
","
","""event"",""trial"",""time""
""fullscreenenter"",""1"",""3575""
","
","","","","","","null","<div style=""font-size:60px;"">+</div>","null","","fixation","","",""
"memory-trial","258","573858","0.0-18.0-1.106","8063","approach_avoid_sv1","""event"",""trial"",""time""
""fullscreenenter"",""1"",""3575""
","
","
","""event"",""trial"",""time""
""fullscreenenter"",""1"",""3575""
","
","","","","","","1144.6999998092651","images/cow8.png","","","memory_trial","3","maybe_new",""
"html-keyboard-response","259","574360","0.0-18.0-0.107","8063","approach_avoid_sv1","""event"",""trial"",""time""
""fullscreenenter"",""1"",""3575""
","
","
","""event"",""trial"",""time""
""fullscreenenter"",""1"",""3575""
","
","","","","","","null","<div style=""font-size:60px;"">+</div>","null","","fixation","","",""
"memory-trial","260","578239","0.0-18.0-1.107","8063","approach_avoid_sv1","""event"",""trial"",""time""
""fullscreenenter"",""1"",""3575""
","
","
","""event"",""trial"",""time""
""fullscreenenter"",""1"",""3575""
","
","","","","","","2875.600000143051","images/plane6.png","","","memory_trial","4","definitely_new",""
"html-keyboard-response","261","578741","0.0-18.0-0.108","8063","approach_avoid_sv1","""event"",""trial"",""time""
""fullscreenenter"",""1"",""3575""
","
","
","""event"",""trial"",""time""
""fullscreenenter"",""1"",""3575""
","
","","","","","","null","<div style=""font-size:60px;"">+</div>","null","","fixation","","",""
"memory-trial","262","581090","0.0-18.0-1.108","8063","approach_avoid_sv1","""event"",""trial"",""time""
""fullscreenenter"",""1"",""3575""
","
","
","""event"",""trial"",""time""
""fullscreenenter"",""1"",""3575""
","
","","","","","","1346.2999999523163","images/dog3.png","","","memory_trial","3","maybe_new",""
"html-keyboard-response","263","581601","0.0-18.0-0.109","8063","approach_avoid_sv1","""event"",""trial"",""time""
""fullscreenenter"",""1"",""3575""
","
","
","""event"",""trial"",""time""
""fullscreenenter"",""1"",""3575""
","
","","","","","","null","<div style=""font-size:60px;"">+</div>","null","","fixation","","",""
"memory-trial","264","583809","0.0-18.0-1.109","8063","approach_avoid_sv1","""event"",""trial"",""time""
""fullscreenenter"",""1"",""3575""
","
","
","""event"",""trial"",""time""
""fullscreenenter"",""1"",""3575""
","
","","","","","","1204","images/straw4.png","","","memory_trial","1","definitely_old",""
"html-keyboard-response","265","584310","0.0-18.0-0.110","8063","approach_avoid_sv1","""event"",""trial"",""time""
""fullscreenenter"",""1"",""3575""
","
","
","""event"",""trial"",""time""
""fullscreenenter"",""1"",""3575""
","
","","","","","","null","<div style=""font-size:60px;"">+</div>","null","","fixation","","",""
"memory-trial","266","586080","0.0-18.0-1.110","8063","approach_avoid_sv1","""event"",""trial"",""time""
""fullscreenenter"",""1"",""3575""
","
","
","""event"",""trial"",""time""
""fullscreenenter"",""1"",""3575""
","
","","","","","","766.2000000476837","images/flower8.png","","","memory_trial","1","definitely_old",""
"html-keyboard-response","267","586581","0.0-18.0-0.111","8063","approach_avoid_sv1","""event"",""trial"",""time""
""fullscreenenter"",""1"",""3575""
","
","
","""event"",""trial"",""time""
""fullscreenenter"",""1"",""3575""
","
","","","","","","null","<div style=""font-size:60px;"">+</div>","null","","fixation","","",""
"memory-trial","268","590488","0.0-18.0-1.111","8063","approach_avoid_sv1","""event"",""trial"",""time""
""fullscreenenter"",""1"",""3575""
","
","
","""event"",""trial"",""time""
""fullscreenenter"",""1"",""3575""
","
","","","","","","2896.2000000476837","images/table1.png","","","memory_trial","1","definitely_old",""
"html-keyboard-response","269","590995","0.0-18.0-0.112","8063","approach_avoid_sv1","""event"",""trial"",""time""
""fullscreenenter"",""1"",""3575""
","
","
","""event"",""trial"",""time""
""fullscreenenter"",""1"",""3575""
","
","","","","","","null","<div style=""font-size:60px;"">+</div>","null","","fixation","","",""
"memory-trial","270","592996","0.0-18.0-1.112","8063","approach_avoid_sv1","""event"",""trial"",""time""
""fullscreenenter"",""1"",""3575""
","
","
","""event"",""trial"",""time""
""fullscreenenter"",""1"",""3575""
","
","","","","","","997.2999999523163","images/sheep5.png","","","memory_trial","2","maybe_old",""
"html-keyboard-response","271","593497","0.0-18.0-0.113","8063","approach_avoid_sv1","""event"",""trial"",""time""
""fullscreenenter"",""1"",""3575""
","
","
","""event"",""trial"",""time""
""fullscreenenter"",""1"",""3575""
","
","","","","","","null","<div style=""font-size:60px;"">+</div>","null","","fixation","","",""
"memory-trial","272","595873","0.0-18.0-1.113","8063","approach_avoid_sv1","""event"",""trial"",""time""
""fullscreenenter"",""1"",""3575""
","
","
","""event"",""trial"",""time""
""fullscreenenter"",""1"",""3575""
","
","","","","","","1355","images/rodent1.png","","","memory_trial","3","maybe_new",""
"html-keyboard-response","273","596377","0.0-18.0-0.114","8063","approach_avoid_sv1","""event"",""trial"",""time""
""fullscreenenter"",""1"",""3575""
","
","
","""event"",""trial"",""time""
""fullscreenenter"",""1"",""3575""
","
","","","","","","null","<div style=""font-size:60px;"">+</div>","null","","fixation","","",""
"memory-trial","274","598483","0.0-18.0-1.114","8063","approach_avoid_sv1","""event"",""trial"",""time""
""fullscreenenter"",""1"",""3575""
","
","
","""event"",""trial"",""time""
""fullscreenenter"",""1"",""3575""
","
","","","","","","1103.7999999523163","images/train1.png","","","memory_trial","4","definitely_new",""
"html-keyboard-response","275","598984","0.0-18.0-0.115","8063","approach_avoid_sv1","""event"",""trial"",""time""
""fullscreenenter"",""1"",""3575""
","
","
","""event"",""trial"",""time""
""fullscreenenter"",""1"",""3575""
","
","","","","","","null","<div style=""font-size:60px;"">+</div>","null","","fixation","","",""
"memory-trial","276","600821","0.0-18.0-1.115","8063","approach_avoid_sv1","""event"",""trial"",""time""
""fullscreenenter"",""1"",""3575""
","
","
","""event"",""trial"",""time""
""fullscreenenter"",""1"",""3575""
","
","","","","","","833.2999999523163","images/banana2.png","","","memory_trial","3","maybe_new",""
"html-keyboard-response","277","601323","0.0-18.0-0.116","8063","approach_avoid_sv1","""event"",""trial"",""time""
""fullscreenenter"",""1"",""3575""
","
","
","""event"",""trial"",""time""
""fullscreenenter"",""1"",""3575""
","
","","","","","","null","<div style=""font-size:60px;"">+</div>","null","","fixation","","",""
"memory-trial","278","603628","0.0-18.0-1.116","8063","approach_avoid_sv1","""event"",""trial"",""time""
""fullscreenenter"",""1"",""3575""
","
","
","""event"",""trial"",""time""
""fullscreenenter"",""1"",""3575""
","
","","","","","","1302.2999999523163","images/banana8.png","","","memory_trial","1","definitely_old",""
"html-keyboard-response","279","604129","0.0-18.0-0.117","8063","approach_avoid_sv1","""event"",""trial"",""time""
""fullscreenenter"",""1"",""3575""
","
","
","""event"",""trial"",""time""
""fullscreenenter"",""1"",""3575""
","
","","","","","","null","<div style=""font-size:60px;"">+</div>","null","","fixation","","",""
"memory-trial","280","606141","0.0-18.0-1.117","8063","approach_avoid_sv1","""event"",""trial"",""time""
""fullscreenenter"",""1"",""3575""
","
","
","""event"",""trial"",""time""
""fullscreenenter"",""1"",""3575""
","
","","","","","","1006.5","images/banana1.png","","","memory_trial","3","maybe_new",""
"html-keyboard-response","281","606642","0.0-18.0-0.118","8063","approach_avoid_sv1","""event"",""trial"",""time""
""fullscreenenter"",""1"",""3575""
","
","
","""event"",""trial"",""time""
""fullscreenenter"",""1"",""3575""
","
","","","","","","null","<div style=""font-size:60px;"">+</div>","null","","fixation","","",""
"memory-trial","282","608697","0.0-18.0-1.118","8063","approach_avoid_sv1","""event"",""trial"",""time""
""fullscreenenter"",""1"",""3575""
","
","
","""event"",""trial"",""time""
""fullscreenenter"",""1"",""3575""
","
","","","","","","1051.6000001430511","images/cactus3.png","","","memory_trial","2","maybe_old",""
"html-keyboard-response","283","609199","0.0-18.0-0.119","8063","approach_avoid_sv1","""event"",""trial"",""time""
""fullscreenenter"",""1"",""3575""
","
","
","""event"",""trial"",""time""
""fullscreenenter"",""1"",""3575""
","
","","","","","","null","<div style=""font-size:60px;"">+</div>","null","","fixation","","",""
"memory-trial","284","611209","0.0-18.0-1.119","8063","approach_avoid_sv1","""event"",""trial"",""time""
""fullscreenenter"",""1"",""3575""
","
","
","""event"",""trial"",""time""
""fullscreenenter"",""1"",""3575""
","
","","","","","","1007.1999998092651","images/flower7.png","","","memory_trial","1","definitely_old",""
"html-keyboard-response","285","611711","0.0-18.0-0.120","8063","approach_avoid_sv1","""event"",""trial"",""time""
""fullscreenenter"",""1"",""3575""
","
","
","""event"",""trial"",""time""
""fullscreenenter"",""1"",""3575""
","
","","","","","","null","<div style=""font-size:60px;"">+</div>","null","","fixation","","",""
"memory-trial","286","613013","0.0-18.0-1.120","8063","approach_avoid_sv1","""event"",""trial"",""time""
""fullscreenenter"",""1"",""3575""
","
","
","""event"",""trial"",""time""
""fullscreenenter"",""1"",""3575""
","
","","","","","","298.5","images/cow3.png","","","memory_trial","3","maybe_new",""
"html-keyboard-response","287","613515","0.0-18.0-0.121","8063","approach_avoid_sv1","""event"",""trial"",""time""
""fullscreenenter"",""1"",""3575""
","
","
","""event"",""trial"",""time""
""fullscreenenter"",""1"",""3575""
","
","","","","","","null","<div style=""font-size:60px;"">+</div>","null","","fixation","","",""
"memory-trial","288","615261","0.0-18.0-1.121","8063","approach_avoid_sv1","""event"",""trial"",""time""
""fullscreenenter"",""1"",""3575""
","
","
","""event"",""trial"",""time""
""fullscreenenter"",""1"",""3575""
","
","","","","","","743.6000001430511","images/orange1.png","","","memory_trial","3","maybe_new",""
"html-keyboard-response","289","615763","0.0-18.0-0.122","8063","approach_avoid_sv1","""event"",""trial"",""time""
""fullscreenenter"",""1"",""3575""
","
","
","""event"",""trial"",""time""
""fullscreenenter"",""1"",""3575""
","
","","","","","","null","<div style=""font-size:60px;"">+</div>","null","","fixation","","",""
"memory-trial","290","617638","0.0-18.0-1.122","8063","approach_avoid_sv1","""event"",""trial"",""time""
""fullscreenenter"",""1"",""3575""
","
","
","""event"",""trial"",""time""
""fullscreenenter"",""1"",""3575""
","
","","","","","","872","images/flower4.png","","","memory_trial","1","definitely_old",""
"html-keyboard-response","291","618141","0.0-18.0-0.123","8063","approach_avoid_sv1","""event"",""trial"",""time""
""fullscreenenter"",""1"",""3575""
","
","
","""event"",""trial"",""time""
""fullscreenenter"",""1"",""3575""
","
","","","","","","null","<div style=""font-size:60px;"">+</div>","null","","fixation","","",""
"memory-trial","292","620982","0.0-18.0-1.123","8063","approach_avoid_sv1","""event"",""trial"",""time""
""fullscreenenter"",""1"",""3575""
","
","
","""event"",""trial"",""time""
""fullscreenenter"",""1"",""3575""
","
","","","","","","1837","images/boat7.png","","","memory_trial","3","maybe_new",""
"html-keyboard-response","293","621483","0.0-18.0-0.124","8063","approach_avoid_sv1","""event"",""trial"",""time""
""fullscreenenter"",""1"",""3575""
","
","
","""event"",""trial"",""time""
""fullscreenenter"",""1"",""3575""
","
","","","","","","null","<div style=""font-size:60px;"">+</div>","null","","fixation","","",""
"memory-trial","294","623728","0.0-18.0-1.124","8063","approach_avoid_sv1","""event"",""trial"",""time""
""fullscreenenter"",""1"",""3575""
","
","
","""event"",""trial"",""time""
""fullscreenenter"",""1"",""3575""
","
","","","","","","1240.3999998569489","images/truck5.png","","","memory_trial","4","definitely_new",""
"html-keyboard-response","295","624230","0.0-18.0-0.125","8063","approach_avoid_sv1","""event"",""trial"",""time""
""fullscreenenter"",""1"",""3575""
","
","
","""event"",""trial"",""time""
""fullscreenenter"",""1"",""3575""
","
","","","","","","null","<div style=""font-size:60px;"">+</div>","null","","fixation","","",""
"memory-trial","296","626056","0.0-18.0-1.125","8063","approach_avoid_sv1","""event"",""trial"",""time""
""fullscreenenter"",""1"",""3575""
","
","
","""event"",""trial"",""time""
""fullscreenenter"",""1"",""3575""
","
","","","","","","821.8999998569489","images/truck2.png","","","memory_trial","4","definitely_new",""
"html-keyboard-response","297","626557","0.0-18.0-0.126","8063","approach_avoid_sv1","""event"",""trial"",""time""
""fullscreenenter"",""1"",""3575""
","
","
","""event"",""trial"",""time""
""fullscreenenter"",""1"",""3575""
","
