"trial_type","trial_index","time_elapsed","internal_node_id","subject_id","task_version","interactions","blur_events","focus_events","fullscreenenter_events","fullscreenexit_events","success","timeout","failed_images","failed_audio","failed_video","rt","stimulus","response","button_pressed","task_part","key_press","answer","correct"
"pavlovia","0","4","0.0-0.0","5374","approach_avoid_sv1","""event"",""trial"",""time""
""fullscreenenter"",""1"",""2038""
","
","
","""event"",""trial"",""time""
""fullscreenenter"",""1"",""2038""
","
","","","","","","","","","","","","",""
"fullscreen","1","3029","0.0-1.0","5374","approach_avoid_sv1","""event"",""trial"",""time""
""fullscreenenter"",""1"",""2038""
","
","
","""event"",""trial"",""time""
""fullscreenenter"",""1"",""2038""
","
","true","","","","","","","","","","","",""
"preload","2","22991","0.0-2.0","5374","approach_avoid_sv1","""event"",""trial"",""time""
""fullscreenenter"",""1"",""2038""
","
","
","""event"",""trial"",""time""
""fullscreenenter"",""1"",""2038""
","
","true","false","[]","[]","[]","","","","","","","",""
"preload","3","43298","0.0-3.0","5374","approach_avoid_sv1","""event"",""trial"",""time""
""fullscreenenter"",""1"",""2038""
","
","
","""event"",""trial"",""time""
""fullscreenenter"",""1"",""2038""
","
","true","false","[]","[]","[]","","","","","","","",""
"preload","4","44219","0.0-4.0","5374","approach_avoid_sv1","""event"",""trial"",""time""
""fullscreenenter"",""1"",""2038""
","
","
","""event"",""trial"",""time""
""fullscreenenter"",""1"",""2038""
","
","true","false","[]","[]","[]","","","","","","","",""
"audio-keyboard-response","5","53590","0.0-5.0","5374","approach_avoid_sv1","""event"",""trial"",""time""
""fullscreenenter"",""1"",""2038""
","
","
","""event"",""trial"",""time""
""fullscreenenter"",""1"",""2038""
","
","","","","","","8690.666666666666","audio/beep_loop.wav"," ","","","","",""
"audio-button-response","6","55445","0.0-6.0","5374","approach_avoid_sv1","""event"",""trial"",""time""
""fullscreenenter"",""1"",""2038""
","
","
","""event"",""trial"",""time""
""fullscreenenter"",""1"",""2038""
","
","","","","","","1848","audio/turtle.wav","3","","","","",""
"audio-button-response","7","59190","0.0-7.0","5374","approach_avoid_sv1","""event"",""trial"",""time""
""fullscreenenter"",""1"",""2038""
","
","
","""event"",""trial"",""time""
""fullscreenenter"",""1"",""2038""
","
","","","","","","2731","audio/shark.wav","2","","","","",""
"preload","8","86071","0.0-8.0","5374","approach_avoid_sv1","""event"",""trial"",""time""
""fullscreenenter"",""1"",""2038""
","
","
","""event"",""trial"",""time""
""fullscreenenter"",""1"",""2038""
","
","true","false","[]","[]","[]","","","","","","","",""
"learning-instructions","9","91452","0.0-9.0-0.0","5374","approach_avoid_sv1","""event"",""trial"",""time""
""fullscreenenter"",""1"",""2038""
","
","
","""event"",""trial"",""time""
""fullscreenenter"",""1"",""2038""
","
","","","","","","904.5","<p> Welcome back! </p><p> Last week, you had to make choices about lots of different items.  </p>","","0","instructions","","",""
"learning-instructions","10","96841","0.0-9.0-0.1","5374","approach_avoid_sv1","""event"",""trial"",""time""
""fullscreenenter"",""1"",""2038""
","
","
","""event"",""trial"",""time""
""fullscreenenter"",""1"",""2038""
","
","","","","","","1261.0999999940395","<p> Today, we are going to ask you to try to remember all the items. </p>","","0","instructions","","",""
"learning-instructions","11","107409","0.0-9.0-0.2","5374","approach_avoid_sv1","""event"",""trial"",""time""
""fullscreenenter"",""1"",""2038""
","
","
","""event"",""trial"",""time""
""fullscreenenter"",""1"",""2038""
","
","","","","","","428","<p> On every trial, you will see an image. </p><p> The image may be an OLD image you saw during the games last week or it may be a NEW image that was not presented. </p>","","0","instructions","","",""
"learning-instructions","12","116639","0.0-9.0-0.3","5374","approach_avoid_sv1","""event"",""trial"",""time""
""fullscreenenter"",""1"",""2038""
","
","
","""event"",""trial"",""time""
""fullscreenenter"",""1"",""2038""
","
","","","","","","715.3000000119209","<p> You need to select whether the image is:  </p><p>  'Definitely old', 'Maybe old', 'Maybe new', or 'Definitely new.'  </p><div class=""mem-choice-instructions-grid""><div class=""choice-option"" id=""choice-option-1"" ><img src=""images/definitely_old_1.png"" id=""choice-option-img-1"" class=""choice-option-img"" stage=""1""></div><div class=""choice-option"" id=""choice-option-2"" ><img src=""images/maybe_old_1.png"" id=""choice-option-img-2"" class=""choice-option-img"" stage=""1""></div><div class=""choice-option"" id=""choice-option-3"" ><img src=""images/maybe_new_1.png"" id=""choice-option-img-3"" class=""choice-option-img"" stage=""1""></div><div class=""choice-option"" id=""choice-option-4"" > <img src=""images/definitely_new_1.png"" id=""choice-option-img-4"" class=""choice-option-img"" stage=""1""></div></div>","","0","instructions","","",""
"learning-instructions","13","124574","0.0-9.0-0.4","5374","approach_avoid_sv1","""event"",""trial"",""time""
""fullscreenenter"",""1"",""2038""
","
","
","""event"",""trial"",""time""
""fullscreenenter"",""1"",""2038""
","
","","","","","","1408.5999999940395","<p> You should use the 1, 2, 3, and 4 keys to make your responses.  </p><div class=""mem-choice-instructions-grid""><div class=""choice-option"" id=""choice-option-1"" ><img src=""images/definitely_old.png"" id=""choice-option-img-1"" class=""choice-option-img"" stage=""1""></div><div class=""choice-option"" id=""choice-option-2"" ><img src=""images/maybe_old.png"" id=""choice-option-img-2"" class=""choice-option-img"" stage=""1""></div><div class=""choice-option"" id=""choice-option-3"" ><img src=""images/maybe_new.png"" id=""choice-option-img-3"" class=""choice-option-img"" stage=""1""></div><div class=""choice-option"" id=""choice-option-4"" > <img src=""images/definitely_new.png"" id=""choice-option-img-4"" class=""choice-option-img"" stage=""1""></div></div>","","0","instructions","","",""
"learning-instructions","14","131644","0.0-9.0-0.5","5374","approach_avoid_sv1","""event"",""trial"",""time""
""fullscreenenter"",""1"",""2038""
","
","
","""event"",""trial"",""time""
""fullscreenenter"",""1"",""2038""
","
","","","","","","729.4000000059605","<p> You will have 10 seconds to make each response.  </p><p>  Make sure to respond before time runs out! </p>","","0","instructions","","",""
"learning-instructions","15","139148","0.0-9.0-0.6","5374","approach_avoid_sv1","""event"",""trial"",""time""
""fullscreenenter"",""1"",""2038""
","
","
","""event"",""trial"",""time""
""fullscreenenter"",""1"",""2038""
","
","","","","","","420.30000001192093","<p> Today, you will see each image ONCE only.  </p><p>  That means none of the images will repeat. </p>","","0","instructions","","",""
"learning-instructions","16","152666","0.0-9.0-0.7","5374","approach_avoid_sv1","""event"",""trial"",""time""
""fullscreenenter"",""1"",""2038""
","
","
","""event"",""trial"",""time""
""fullscreenenter"",""1"",""2038""
","
","","","","","","836.3000000119209","<p> Before you play the real game, it is time to practice. </p><p>  Just like in the real game, some of the images in the practice will be ones you have seen before. </p><p>  Others will be entirely new. </p>","","0","instructions","","",""
"html-button-response","17","157758","0.0-10.0","5374","approach_avoid_sv1","""event"",""trial"",""time""
""fullscreenenter"",""1"",""2038""
","
","
","""event"",""trial"",""time""
""fullscreenenter"",""1"",""2038""
","
","","","","","","4973.299999982119","<p> Ready to practice? </p><p> Remember, use the 1, 2, 3, and 4 keys to make your responses. </p>","0","","instructions","","",""
"html-keyboard-response","18","158392","0.0-11.0-0.0","5374","approach_avoid_sv1","""event"",""trial"",""time""
""fullscreenenter"",""1"",""2038""
","
","
","""event"",""trial"",""time""
""fullscreenenter"",""1"",""2038""
","
","","","","","","null","<div style=""font-size:60px;"">+</div>","null","","fixation","","",""
"memory-trial","19","160942","0.0-11.0-1.0","5374","approach_avoid_sv1","""event"",""trial"",""time""
""fullscreenenter"",""1"",""2038""
","
","
","""event"",""trial"",""time""
""fullscreenenter"",""1"",""2038""
","
","","","","","","1527.9000000059605","images/ball5.png","","","practice","2","maybe_old",""
"html-keyboard-response","20","161459","0.0-11.0-0.1","5374","approach_avoid_sv1","""event"",""trial"",""time""
""fullscreenenter"",""1"",""2038""
","
","
","""event"",""trial"",""time""
""fullscreenenter"",""1"",""2038""
","
","","","","","","null","<div style=""font-size:60px;"">+</div>","null","","fixation","","",""
"memory-trial","21","163977","0.0-11.0-1.1","5374","approach_avoid_sv1","""event"",""trial"",""time""
""fullscreenenter"",""1"",""2038""
","
","
","""event"",""trial"",""time""
""fullscreenenter"",""1"",""2038""
","
","","","","","","1505.9000000059605","images/racket5.png","","","practice","3","maybe_new",""
"html-keyboard-response","22","164488","0.0-11.0-0.2","5374","approach_avoid_sv1","""event"",""trial"",""time""
""fullscreenenter"",""1"",""2038""
","
","
","""event"",""trial"",""time""
""fullscreenenter"",""1"",""2038""
","
","","","","","","null","<div style=""font-size:60px;"">+</div>","null","","fixation","","",""
"memory-trial","23","166507","0.0-11.0-1.2","5374","approach_avoid_sv1","""event"",""trial"",""time""
""fullscreenenter"",""1"",""2038""
","
","
","""event"",""trial"",""time""
""fullscreenenter"",""1"",""2038""
","
","","","","","","1002.8000000119209","images/ball2.png","","","practice","2","maybe_old",""
"html-keyboard-response","24","167021","0.0-11.0-0.3","5374","approach_avoid_sv1","""event"",""trial"",""time""
""fullscreenenter"",""1"",""2038""
","
","
","""event"",""trial"",""time""
""fullscreenenter"",""1"",""2038""
","
","","","","","","null","<div style=""font-size:60px;"">+</div>","null","","fixation","","",""
"memory-trial","25","169833","0.0-11.0-1.3","5374","approach_avoid_sv1","""event"",""trial"",""time""
""fullscreenenter"",""1"",""2038""
","
","
","""event"",""trial"",""time""
""fullscreenenter"",""1"",""2038""
","
","","","","","","1799.2000000178814","images/racket2.png","","","practice","1","definitely_old",""
"html-keyboard-response","26","170349","0.0-11.0-0.4","5374","approach_avoid_sv1","""event"",""trial"",""time""
""fullscreenenter"",""1"",""2038""
","
","
","""event"",""trial"",""time""
""fullscreenenter"",""1"",""2038""
","
","","","","","","null","<div style=""font-size:60px;"">+</div>","null","","fixation","","",""
"memory-trial","27","172269","0.0-11.0-1.4","5374","approach_avoid_sv1","""event"",""trial"",""time""
""fullscreenenter"",""1"",""2038""
","
","
","""event"",""trial"",""time""
""fullscreenenter"",""1"",""2038""
","
","","","","","","912.7999999821186","images/ball1.png","","","practice","1","definitely_old",""
"html-keyboard-response","28","172784","0.0-11.0-0.5","5374","approach_avoid_sv1","""event"",""trial"",""time""
""fullscreenenter"",""1"",""2038""
","
","
","""event"",""trial"",""time""
""fullscreenenter"",""1"",""2038""
","
","","","","","","null","<div style=""font-size:60px;"">+</div>","null","","fixation","","",""
"memory-trial","29","175220","0.0-11.0-1.5","5374","approach_avoid_sv1","""event"",""trial"",""time""
""fullscreenenter"",""1"",""2038""
","
","
","""event"",""trial"",""time""
""fullscreenenter"",""1"",""2038""
","
","","","","","","1419.300000011921","images/ball3.png","","","practice","1","definitely_old",""
"html-keyboard-response","30","175733","0.0-11.0-0.6","5374","approach_avoid_sv1","""event"",""trial"",""time""
""fullscreenenter"",""1"",""2038""
","
","
","""event"",""trial"",""time""
""fullscreenenter"",""1"",""2038""
","
","","","","","","null","<div style=""font-size:60px;"">+</div>","null","","fixation","","",""
"memory-trial","31","177915","0.0-11.0-1.6","5374","approach_avoid_sv1","""event"",""trial"",""time""
""fullscreenenter"",""1"",""2038""
","
","
","""event"",""trial"",""time""
""fullscreenenter"",""1"",""2038""
","
","","","","","","1169.5","images/racket3.png","","","practice","2","maybe_old",""
"html-keyboard-response","32","178427","0.0-11.0-0.7","5374","approach_avoid_sv1","""event"",""trial"",""time""
""fullscreenenter"",""1"",""2038""
","
","
","""event"",""trial"",""time""
""fullscreenenter"",""1"",""2038""
","
","","","","","","null","<div style=""font-size:60px;"">+</div>","null","","fixation","","",""
"memory-trial","33","181206","0.0-11.0-1.7","5374","approach_avoid_sv1","""event"",""trial"",""time""
""fullscreenenter"",""1"",""2038""
","
","
","""event"",""trial"",""time""
""fullscreenenter"",""1"",""2038""
","
","","","","","","1762.1000000238419","images/racket1.png","","","practice","3","maybe_new",""
"learning-instructions","34","189593","0.0-12.0-0.0","5374","approach_avoid_sv1","""event"",""trial"",""time""
""fullscreenenter"",""1"",""2038""
","
","
","""event"",""trial"",""time""
""fullscreenenter"",""1"",""2038""
","
","","","","","","1075.800000011921","<p> Great! You have completed the practice. </p><p> Before you start, we're going to ask you a few questions about how the game works.  </p>","","0","instructions","","",""
"preload","35","206807","0.0-13.0","5374","approach_avoid_sv1","""event"",""trial"",""time""
""fullscreenenter"",""1"",""2038""
","
","
","""event"",""trial"",""time""
""fullscreenenter"",""1"",""2038""
","
","true","false","[]","[]","[]","","","","","","","",""
"comp-q","36","213408","0.0-14.0-0.0","5374","approach_avoid_sv1","""event"",""trial"",""time""
""fullscreenenter"",""1"",""2038""
","
","
","""event"",""trial"",""time""
""fullscreenenter"",""1"",""2038""
","
","","","","","","774.7999999821186","<p> <b> True or False? </b> </p><p> In this game, you will only see each image once. </p>","","0","comp_question","","","true"
"comp-q","37","221124","0.0-14.0-1.0","5374","approach_avoid_sv1","""event"",""trial"",""time""
""fullscreenenter"",""1"",""2038""
","
","
","""event"",""trial"",""time""
""fullscreenenter"",""1"",""2038""
","
","","","","","","1379.699999988079","<p> <b> That's right! </b> You will see many different images <i> one time each </i> in this game. </p>","","0","comp_answer","","",""
"comp-q","38","226923","0.0-15.0-0.0","5374","approach_avoid_sv1","""event"",""trial"",""time""
""fullscreenenter"",""1"",""2038""
","
","
","""event"",""trial"",""time""
""fullscreenenter"",""1"",""2038""
","
","","","","","","786.5999999940395","<p> <b> True or False? </b> </p><p> You should use the mouse and click to make your response. </p>","","1","comp_question","","","true"
"comp-q","39","235437","0.0-15.0-1.0","5374","approach_avoid_sv1","""event"",""trial"",""time""
""fullscreenenter"",""1"",""2038""
","
","
","""event"",""trial"",""time""
""fullscreenenter"",""1"",""2038""
","
","","","","","","1998.800000011921","<p><b> That's right! </b> You should use the '1', '2', '3', and '4' keys to make your response. </p>","","0","comp_answer","","",""
"comp-q","40","241934","0.0-16.0-0.0","5374","approach_avoid_sv1","""event"",""trial"",""time""
""fullscreenenter"",""1"",""2038""
","
","
","""event"",""trial"",""time""
""fullscreenenter"",""1"",""2038""
","
","","","","","","825.6999999880791","<p> <b> True or False? </b> </p><p> You will have as much time as you want to make each choice. </p>","","1","comp_question","","","true"
"comp-q","41","247732","0.0-16.0-1.0","5374","approach_avoid_sv1","""event"",""trial"",""time""
""fullscreenenter"",""1"",""2038""
","
","
","""event"",""trial"",""time""
""fullscreenenter"",""1"",""2038""
","
","","","","","","1082.9000000059605","<p> <b> That's right! </b> You will only have 10 seconds to make each choice. </p>","","0","comp_answer","","",""
"learning-instructions","42","258631","0.0-17.0","5374","approach_avoid_sv1","""event"",""trial"",""time""
""fullscreenenter"",""1"",""2038""
","
","
","""event"",""trial"",""time""
""fullscreenenter"",""1"",""2038""
","
","","","","","","2219.5","<p> Great! You are now ready to begin the game. </p><p> Remember, use the 1, 2, 3, and 4 keys to make your responses. </p>","","0","instructions","","",""
"html-keyboard-response","43","259266","0.0-18.0-0.0","5374","approach_avoid_sv1","""event"",""trial"",""time""
""fullscreenenter"",""1"",""2038""
","
","
","""event"",""trial"",""time""
""fullscreenenter"",""1"",""2038""
","
","","","","","","null","<div style=""font-size:60px;"">+</div>","null","","fixation","","",""
"memory-trial","44","262309","0.0-18.0-1.0","5374","approach_avoid_sv1","""event"",""trial"",""time""
""fullscreenenter"",""1"",""2038""
","
","
","""event"",""trial"",""time""
""fullscreenenter"",""1"",""2038""
","
","","","","","","2025.1000000238419","images/goat2.png","","","memory_trial","2","maybe_old",""
"html-keyboard-response","45","262821","0.0-18.0-0.1","5374","approach_avoid_sv1","""event"",""trial"",""time""
""fullscreenenter"",""1"",""2038""
","
","
","""event"",""trial"",""time""
""fullscreenenter"",""1"",""2038""
","
","","","","","","null","<div style=""font-size:60px;"">+</div>","null","","fixation","","",""
"memory-trial","46","265275","0.0-18.0-1.1","5374","approach_avoid_sv1","""event"",""trial"",""time""
""fullscreenenter"",""1"",""2038""
","
","
","""event"",""trial"",""time""
""fullscreenenter"",""1"",""2038""
","
","","","","","","1442","images/orange1.png","","","memory_trial","3","maybe_new",""
"html-keyboard-response","47","265791","0.0-18.0-0.2","5374","approach_avoid_sv1","""event"",""trial"",""time""
""fullscreenenter"",""1"",""2038""
","
","
","""event"",""trial"",""time""
""fullscreenenter"",""1"",""2038""
","
","","","","","","null","<div style=""font-size:60px;"">+</div>","null","","fixation","","",""
"memory-trial","48","267599","0.0-18.0-1.2","5374","approach_avoid_sv1","""event"",""trial"",""time""
""fullscreenenter"",""1"",""2038""
","
","
","""event"",""trial"",""time""
""fullscreenenter"",""1"",""2038""
","
","","","","","","785.1999999880791","images/cactus2.png","","","memory_trial","4","definitely_new",""
"html-keyboard-response","49","268114","0.0-18.0-0.3","5374","approach_avoid_sv1","""event"",""trial"",""time""
""fullscreenenter"",""1"",""2038""
","
","
","""event"",""trial"",""time""
""fullscreenenter"",""1"",""2038""
","
","","","","","","null","<div style=""font-size:60px;"">+</div>","null","","fixation","","",""
"memory-trial","50","270739","0.0-18.0-1.3","5374","approach_avoid_sv1","""event"",""trial"",""time""
""fullscreenenter"",""1"",""2038""
","
","
","""event"",""trial"",""time""
""fullscreenenter"",""1"",""2038""
","
","","","","","","1612.2999999821186","images/chair8.png","","","memory_trial","3","maybe_new",""
"html-keyboard-response","51","271257","0.0-18.0-0.4","5374","approach_avoid_sv1","""event"",""trial"",""time""
""fullscreenenter"",""1"",""2038""
","
","
","""event"",""trial"",""time""
""fullscreenenter"",""1"",""2038""
","
","","","","","","null","<div style=""font-size:60px;"">+</div>","null","","fixation","","",""
"memory-trial","52","273383","0.0-18.0-1.4","5374","approach_avoid_sv1","""event"",""trial"",""time""
""fullscreenenter"",""1"",""2038""
","
","
","""event"",""trial"",""time""
""fullscreenenter"",""1"",""2038""
","
","","","","","","1108.0999999940395","images/sofa8.png","","","memory_trial","1","definitely_old",""
"html-keyboard-response","53","273903","0.0-18.0-0.5","5374","approach_avoid_sv1","""event"",""trial"",""time""
""fullscreenenter"",""1"",""2038""
","
","
","""event"",""trial"",""time""
""fullscreenenter"",""1"",""2038""
","
","","","","","","null","<div style=""font-size:60px;"">+</div>","null","","fixation","","",""
"memory-trial","54","276322","0.0-18.0-1.5","5374","approach_avoid_sv1","""event"",""trial"",""time""
""fullscreenenter"",""1"",""2038""
","
","
","""event"",""trial"",""time""
""fullscreenenter"",""1"",""2038""
","
","","","","","","1411.699999988079","images/cow3.png","","","memory_trial","1","definitely_old",""
"html-keyboard-response","55","276827","0.0-18.0-0.6","5374","approach_avoid_sv1","""event"",""trial"",""time""
""fullscreenenter"",""1"",""2038""
","
","
","""event"",""trial"",""time""
""fullscreenenter"",""1"",""2038""
","
","","","","","","null","<div style=""font-size:60px;"">+</div>","null","","fixation","","",""
"memory-trial","56","278997","0.0-18.0-1.6","5374","approach_avoid_sv1","""event"",""trial"",""time""
""fullscreenenter"",""1"",""2038""
","
","
","""event"",""trial"",""time""
""fullscreenenter"",""1"",""2038""
","
","","","","","","1162.199999988079","images/straw6.png","","","memory_trial","1","definitely_old",""
"html-keyboard-response","57","279511","0.0-18.0-0.7","5374","approach_avoid_sv1","""event"",""trial"",""time""
""fullscreenenter"",""1"",""2038""
","
","
","""event"",""trial"",""time""
""fullscreenenter"",""1"",""2038""
","
","","","","","","null","<div style=""font-size:60px;"">+</div>","null","","fixation","","",""
"memory-trial","58","281505","0.0-18.0-1.7","5374","approach_avoid_sv1","""event"",""trial"",""time""
""fullscreenenter"",""1"",""2038""
","
","
","""event"",""trial"",""time""
""fullscreenenter"",""1"",""2038""
","
","","","","","","979.9000000059605","images/horse3.png","","","memory_trial","4","definitely_new",""
"html-keyboard-response","59","282021","0.0-18.0-0.8","5374","approach_avoid_sv1","""event"",""trial"",""time""
""fullscreenenter"",""1"",""2038""
","
","
","""event"",""trial"",""time""
""fullscreenenter"",""1"",""2038""
","
","","","","","","null","<div style=""font-size:60px;"">+</div>","null","","fixation","","",""
"memory-trial","60","284286","0.0-18.0-1.8","5374","approach_avoid_sv1","""event"",""trial"",""time""
""fullscreenenter"",""1"",""2038""
","
","
","""event"",""trial"",""time""
""fullscreenenter"",""1"",""2038""
","
","","","","","","1241.5","images/sheep4.png","","","memory_trial","2","maybe_old",""
"html-keyboard-response","61","284800","0.0-18.0-0.9","5374","approach_avoid_sv1","""event"",""trial"",""time""
""fullscreenenter"",""1"",""2038""
","
","
","""event"",""trial"",""time""
""fullscreenenter"",""1"",""2038""
","
","","","","","","null","<div style=""font-size:60px;"">+</div>","null","","fixation","","",""
"memory-trial","62","287856","0.0-18.0-1.9","5374","approach_avoid_sv1","""event"",""trial"",""time""
""fullscreenenter"",""1"",""2038""
","
","
","""event"",""trial"",""time""
""fullscreenenter"",""1"",""2038""
","
","","","","","","2049.800000011921","images/cow7.png","","","memory_trial","3","maybe_new",""
"html-keyboard-response","63","288360","0.0-18.0-0.10","5374","approach_avoid_sv1","""event"",""trial"",""time""
""fullscreenenter"",""1"",""2038""
","
","
","""event"",""trial"",""time""
""fullscreenenter"",""1"",""2038""
","
","","","","","","null","<div style=""font-size:60px;"">+</div>","null","","fixation","","",""
"memory-trial","64","290505","0.0-18.0-1.10","5374","approach_avoid_sv1","""event"",""trial"",""time""
""fullscreenenter"",""1"",""2038""
","
","
","""event"",""trial"",""time""
""fullscreenenter"",""1"",""2038""
","
","","","","","","1141.7000000178814","images/apple7.png","","","memory_trial","1","definitely_old",""
"html-keyboard-response","65","291009","0.0-18.0-0.11","5374","approach_avoid_sv1","""event"",""trial"",""time""
""fullscreenenter"",""1"",""2038""
","
","
","""event"",""trial"",""time""
""fullscreenenter"",""1"",""2038""
","
","","","","","","null","<div style=""font-size:60px;"">+</div>","null","","fixation","","",""
"memory-trial","66","293201","0.0-18.0-1.11","5374","approach_avoid_sv1","""event"",""trial"",""time""
""fullscreenenter"",""1"",""2038""
","
","
","""event"",""trial"",""time""
""fullscreenenter"",""1"",""2038""
","
","","","","","","1185.300000011921","images/cow2.png","","","memory_trial","1","definitely_old",""
"html-keyboard-response","67","293705","0.0-18.0-0.12","5374","approach_avoid_sv1","""event"",""trial"",""time""
""fullscreenenter"",""1"",""2038""
","
","
","""event"",""trial"",""time""
""fullscreenenter"",""1"",""2038""
","
","","","","","","null","<div style=""font-size:60px;"">+</div>","null","","fixation","","",""
"memory-trial","68","296441","0.0-18.0-1.12","5374","approach_avoid_sv1","""event"",""trial"",""time""
""fullscreenenter"",""1"",""2038""
","
","
","""event"",""trial"",""time""
""fullscreenenter"",""1"",""2038""
","
","","","","","","1726.0999999940395","images/tree5.png","","","memory_trial","2","maybe_old",""
"html-keyboard-response","69","296945","0.0-18.0-0.13","5374","approach_avoid_sv1","""event"",""trial"",""time""
""fullscreenenter"",""1"",""2038""
","
","
","""event"",""trial"",""time""
""fullscreenenter"",""1"",""2038""
","
","","","","","","null","<div style=""font-size:60px;"">+</div>","null","","fixation","","",""
"memory-trial","70","299393","0.0-18.0-1.13","5374","approach_avoid_sv1","""event"",""trial"",""time""
""fullscreenenter"",""1"",""2038""
","
","
","""event"",""trial"",""time""
""fullscreenenter"",""1"",""2038""
","
","","","","","","1440.3999999761581","images/table7.png","","","memory_trial","3","maybe_new",""
"html-keyboard-response","71","299898","0.0-18.0-0.14","5374","approach_avoid_sv1","""event"",""trial"",""time""
""fullscreenenter"",""1"",""2038""
","
","
","""event"",""trial"",""time""
""fullscreenenter"",""1"",""2038""
","
","","","","","","null","<div style=""font-size:60px;"">+</div>","null","","fixation","","",""
"memory-trial","72","302409","0.0-18.0-1.14","5374","approach_avoid_sv1","""event"",""trial"",""time""
""fullscreenenter"",""1"",""2038""
","
","
","""event"",""trial"",""time""
""fullscreenenter"",""1"",""2038""
","
","","","","","","1500","images/chair7.png","","","memory_trial","2","maybe_old",""
"html-keyboard-response","73","302912","0.0-18.0-0.15","5374","approach_avoid_sv1","""event"",""trial"",""time""
""fullscreenenter"",""1"",""2038""
","
","
","""event"",""trial"",""time""
""fullscreenenter"",""1"",""2038""
","
","","","","","","null","<div style=""font-size:60px;"">+</div>","null","","fixation","","",""
"memory-trial","74","305505","0.0-18.0-1.15","5374","approach_avoid_sv1","""event"",""trial"",""time""
""fullscreenenter"",""1"",""2038""
","
","
","""event"",""trial"",""time""
""fullscreenenter"",""1"",""2038""
","
","","","","","","1587.0999999940395","images/horse6.png","","","memory_trial","3","maybe_new",""
"html-keyboard-response","75","306008","0.0-18.0-0.16","5374","approach_avoid_sv1","""event"",""trial"",""time""
""fullscreenenter"",""1"",""2038""
","
","
","""event"",""trial"",""time""
""fullscreenenter"",""1"",""2038""
","
","","","","","","null","<div style=""font-size:60px;"">+</div>","null","","fixation","","",""
"memory-trial","76","308073","0.0-18.0-1.16","5374","approach_avoid_sv1","""event"",""trial"",""time""
""fullscreenenter"",""1"",""2038""
","
","
","""event"",""trial"",""time""
""fullscreenenter"",""1"",""2038""
","
","","","","","","1053.199999988079","images/rodent2.png","","","memory_trial","1","definitely_old",""
"html-keyboard-response","77","308577","0.0-18.0-0.17","5374","approach_avoid_sv1","""event"",""trial"",""time""
""fullscreenenter"",""1"",""2038""
","
","
","""event"",""trial"",""time""
""fullscreenenter"",""1"",""2038""
","
","","","","","","null","<div style=""font-size:60px;"">+</div>","null","","fixation","","",""
"memory-trial","78","311016","0.0-18.0-1.17","5374","approach_avoid_sv1","""event"",""trial"",""time""
""fullscreenenter"",""1"",""2038""
","
","
","""event"",""trial"",""time""
""fullscreenenter"",""1"",""2038""
","
","","","","","","1427.6000000238419","images/rabbit2.png","","","memory_trial","3","maybe_new",""
"html-keyboard-response","79","311522","0.0-18.0-0.18","5374","approach_avoid_sv1","""event"",""trial"",""time""
""fullscreenenter"",""1"",""2038""
","
","
","""event"",""trial"",""time""
""fullscreenenter"",""1"",""2038""
","
","","","","","","null","<div style=""font-size:60px;"">+</div>","null","","fixation","","",""
"memory-trial","80","313705","0.0-18.0-1.18","5374","approach_avoid_sv1","""event"",""trial"",""time""
""fullscreenenter"",""1"",""2038""
","
","
","""event"",""trial"",""time""
""fullscreenenter"",""1"",""2038""
","
","","","","","","1178.8999999761581","images/tree4.png","","","memory_trial","3","maybe_new",""
"html-keyboard-response","81","314210","0.0-18.0-0.19","5374","approach_avoid_sv1","""event"",""trial"",""time""
""fullscreenenter"",""1"",""2038""
","
","
","""event"",""trial"",""time""
""fullscreenenter"",""1"",""2038""
","
","","","","","","null","<div style=""font-size:60px;"">+</div>","null","","fixation","","",""
"memory-trial","82","316777","0.0-18.0-1.19","5374","approach_avoid_sv1","""event"",""trial"",""time""
""fullscreenenter"",""1"",""2038""
","
","
","""event"",""trial"",""time""
""fullscreenenter"",""1"",""2038""
","
","","","","","","1562.699999988079","images/truck2.png","","","memory_trial","3","maybe_new",""
"html-keyboard-response","83","317281","0.0-18.0-0.20","5374","approach_avoid_sv1","""event"",""trial"",""time""
""fullscreenenter"",""1"",""2038""
","
","
","""event"",""trial"",""time""
""fullscreenenter"",""1"",""2038""
","
","","","","","","null","<div style=""font-size:60px;"">+</div>","null","","fixation","","",""
"memory-trial","84","320497","0.0-18.0-1.20","5374","approach_avoid_sv1","""event"",""trial"",""time""
""fullscreenenter"",""1"",""2038""
","
","
","""event"",""trial"",""time""
""fullscreenenter"",""1"",""2038""
","
","","","","","","2207.5","images/plane4.png","","","memory_trial","2","maybe_old",""
"html-keyboard-response","85","321002","0.0-18.0-0.21","5374","approach_avoid_sv1","""event"",""trial"",""time""
""fullscreenenter"",""1"",""2038""
","
","
","""event"",""trial"",""time""
""fullscreenenter"",""1"",""2038""
","
","","","","","","null","<div style=""font-size:60px;"">+</div>","null","","fixation","","",""
"memory-trial","86","323114","0.0-18.0-1.21","5374","approach_avoid_sv1","""event"",""trial"",""time""
""fullscreenenter"",""1"",""2038""
","
","
","""event"",""trial"",""time""
""fullscreenenter"",""1"",""2038""
","
","","","","","","1106.2000000178814","images/bed1.png","","","memory_trial","1","definitely_old",""
"html-keyboard-response","87","323618","0.0-18.0-0.22","5374","approach_avoid_sv1","""event"",""trial"",""time""
""fullscreenenter"",""1"",""2038""
","
","
","""event"",""trial"",""time""
""fullscreenenter"",""1"",""2038""
","
","","","","","","null","<div style=""font-size:60px;"">+</div>","null","","fixation","","",""
"memory-trial","88","325633","0.0-18.0-1.22","5374","approach_avoid_sv1","""event"",""trial"",""time""
""fullscreenenter"",""1"",""2038""
","
","
","""event"",""trial"",""time""
""fullscreenenter"",""1"",""2038""
","
","","","","","","1011.6999999880791","images/sheep3.png","","","memory_trial","3","maybe_new",""
"html-keyboard-response","89","326137","0.0-18.0-0.23","5374","approach_avoid_sv1","""event"",""trial"",""time""
""fullscreenenter"",""1"",""2038""
","
","
","""event"",""trial"",""time""
""fullscreenenter"",""1"",""2038""
","
","","","","","","null","<div style=""font-size:60px;"">+</div>","null","","fixation","","",""
"memory-trial","90","328426","0.0-18.0-1.23","5374","approach_avoid_sv1","""event"",""trial"",""time""
""fullscreenenter"",""1"",""2038""
","
","
","""event"",""trial"",""time""
""fullscreenenter"",""1"",""2038""
","
","","","","","","1283","images/cactus8.png","","","memory_trial","2","maybe_old",""
"html-keyboard-response","91","328930","0.0-18.0-0.24","5374","approach_avoid_sv1","""event"",""trial"",""time""
""fullscreenenter"",""1"",""2038""
","
","
","""event"",""trial"",""time""
""fullscreenenter"",""1"",""2038""
","
","","","","","","null","<div style=""font-size:60px;"">+</div>","null","","fixation","","",""
"memory-trial","92","331153","0.0-18.0-1.24","5374","approach_avoid_sv1","""event"",""trial"",""time""
""fullscreenenter"",""1"",""2038""
","
","
","""event"",""trial"",""time""
""fullscreenenter"",""1"",""2038""
","
","","","","","","1214.199999988079","images/train6.png","","","memory_trial","1","definitely_old",""
"html-keyboard-response","93","331657","0.0-18.0-0.25","5374","approach_avoid_sv1","""event"",""trial"",""time""
""fullscreenenter"",""1"",""2038""
","
","
","""event"",""trial"",""time""
""fullscreenenter"",""1"",""2038""
","
","","","","","","null","<div style=""font-size:60px;"">+</div>","null","","fixation","","",""
"memory-trial","94","334434","0.0-18.0-1.25","5374","approach_avoid_sv1","""event"",""trial"",""time""
""fullscreenenter"",""1"",""2038""
","
","
","""event"",""trial"",""time""
""fullscreenenter"",""1"",""2038""
","
","","","","","","1765.9000000059605","images/cow6.png","","","memory_trial","3","maybe_new",""
"html-keyboard-response","95","334938","0.0-18.0-0.26","5374","approach_avoid_sv1","""event"",""trial"",""time""
""fullscreenenter"",""1"",""2038""
","
","
","""event"",""trial"",""time""
""fullscreenenter"",""1"",""2038""
","
","","","","","","null","<div style=""font-size:60px;"">+</div>","null","","fixation","","",""
"memory-trial","96","337042","0.0-18.0-1.26","5374","approach_avoid_sv1","""event"",""trial"",""time""
""fullscreenenter"",""1"",""2038""
","
","
","""event"",""trial"",""time""
""fullscreenenter"",""1"",""2038""
","
","","","","","","1097.5999999940395","images/tree3.png","","","memory_trial","4","definitely_new",""
"html-keyboard-response","97","337546","0.0-18.0-0.27","5374","approach_avoid_sv1","""event"",""trial"",""time""
""fullscreenenter"",""1"",""2038""
","
","
","""event"",""trial"",""time""
""fullscreenenter"",""1"",""2038""
","
","","","","","","null","<div style=""font-size:60px;"">+</div>","null","","fixation","","",""
"memory-trial","98","339953","0.0-18.0-1.27","5374","approach_avoid_sv1","""event"",""trial"",""time""
""fullscreenenter"",""1"",""2038""
","
","
","""event"",""trial"",""time""
""fullscreenenter"",""1"",""2038""
","
","","","","","","1401.699999988079","images/train3.png","","","memory_trial","4","definitely_new",""
"html-keyboard-response","99","340458","0.0-18.0-0.28","5374","approach_avoid_sv1","""event"",""trial"",""time""
""fullscreenenter"",""1"",""2038""
","
","
","""event"",""trial"",""time""
""fullscreenenter"",""1"",""2038""
","
","","","","","","null","<div style=""font-size:60px;"">+</div>","null","","fixation","","",""
"memory-trial","100","342770","0.0-18.0-1.28","5374","approach_avoid_sv1","""event"",""trial"",""time""
""fullscreenenter"",""1"",""2038""
","
","
","""event"",""trial"",""time""
""fullscreenenter"",""1"",""2038""
","
","","","","","","1304.8999999761581","images/table3.png","","","memory_trial","4","definitely_new",""
"html-keyboard-response","101","343286","0.0-18.0-0.29","5374","approach_avoid_sv1","""event"",""trial"",""time""
""fullscreenenter"",""1"",""2038""
","
","
","""event"",""trial"",""time""
""fullscreenenter"",""1"",""2038""
","
","","","","","","null","<div style=""font-size:60px;"">+</div>","null","","fixation","","",""
"memory-trial","102","345473","0.0-18.0-1.29","5374","approach_avoid_sv1","""event"",""trial"",""time""
""fullscreenenter"",""1"",""2038""
","
","
","""event"",""trial"",""time""
""fullscreenenter"",""1"",""2038""
","
","","","","","","1183.5","images/cactus5.png","","","memory_trial","4","definitely_new",""
"html-keyboard-response","103","345978","0.0-18.0-0.30","5374","approach_avoid_sv1","""event"",""trial"",""time""
""fullscreenenter"",""1"",""2038""
","
","
","""event"",""trial"",""time""
""fullscreenenter"",""1"",""2038""
","
","","","","","","null","<div style=""font-size:60px;"">+</div>","null","","fixation","","",""
"memory-trial","104","348834","0.0-18.0-1.30","5374","approach_avoid_sv1","""event"",""trial"",""time""
""fullscreenenter"",""1"",""2038""
","
","
","""event"",""trial"",""time""
""fullscreenenter"",""1"",""2038""
","
","","","","","","1844.2000000178814","images/banana1.png","","","memory_trial","3","maybe_new",""
"html-keyboard-response","105","349338","0.0-18.0-0.31","5374","approach_avoid_sv1","""event"",""trial"",""time""
""fullscreenenter"",""1"",""2038""
","
","
","""event"",""trial"",""time""
""fullscreenenter"",""1"",""2038""
","
","","","","","","null","<div style=""font-size:60px;"">+</div>","null","","fixation","","",""
"memory-trial","106","352305","0.0-18.0-1.31","5374","approach_avoid_sv1","""event"",""trial"",""time""
""fullscreenenter"",""1"",""2038""
","
","
","""event"",""trial"",""time""
""fullscreenenter"",""1"",""2038""
","
","","","","","","1963.2000000178814","images/boat5.png","","","memory_trial","2","maybe_old",""
"html-keyboard-response","107","352809","0.0-18.0-0.32","5374","approach_avoid_sv1","""event"",""trial"",""time""
""fullscreenenter"",""1"",""2038""
","
","
","""event"",""trial"",""time""
""fullscreenenter"",""1"",""2038""
","
","","","","","","null","<div style=""font-size:60px;"">+</div>","null","","fixation","","",""
"memory-trial","108","354977","0.0-18.0-1.32","5374","approach_avoid_sv1","""event"",""trial"",""time""
""fullscreenenter"",""1"",""2038""
","
","
","""event"",""trial"",""time""
""fullscreenenter"",""1"",""2038""
","
","","","","","","1159.7999999821186","images/tree6.png","","","memory_trial","2","maybe_old",""
"html-keyboard-response","109","355481","0.0-18.0-0.33","5374","approach_avoid_sv1","""event"",""trial"",""time""
""fullscreenenter"",""1"",""2038""
","
","
","""event"",""trial"",""time""
""fullscreenenter"",""1"",""2038""
","
","","","","","","null","<div style=""font-size:60px;"">+</div>","null","","fixation","","",""
"memory-trial","110","357842","0.0-18.0-1.33","5374","approach_avoid_sv1","""event"",""trial"",""time""
""fullscreenenter"",""1"",""2038""
","
","
","""event"",""trial"",""time""
""fullscreenenter"",""1"",""2038""
","
","","","","","","1356.4000000059605","images/flower7.png","","","memory_trial","2","maybe_old",""
"html-keyboard-response","111","358345","0.0-18.0-0.34","5374","approach_avoid_sv1","""event"",""trial"",""time""
""fullscreenenter"",""1"",""2038""
","
","
","""event"",""trial"",""time""
""fullscreenenter"",""1"",""2038""
","
","","","","","","null","<div style=""font-size:60px;"">+</div>","null","","fixation","","",""
"memory-trial","112","360642","0.0-18.0-1.34","5374","approach_avoid_sv1","""event"",""trial"",""time""
""fullscreenenter"",""1"",""2038""
","
","
","""event"",""trial"",""time""
""fullscreenenter"",""1"",""2038""
","
","","","","","","1291.5","images/apple4.png","","","memory_trial","2","maybe_old",""
"html-keyboard-response","113","361145","0.0-18.0-0.35","5374","approach_avoid_sv1","""event"",""trial"",""time""
""fullscreenenter"",""1"",""2038""
","
","
","""event"",""trial"",""time""
""fullscreenenter"",""1"",""2038""
","
","","","","","","null","<div style=""font-size:60px;"">+</div>","null","","fixation","","",""
"memory-trial","114","363562","0.0-18.0-1.35","5374","approach_avoid_sv1","""event"",""trial"",""time""
""fullscreenenter"",""1"",""2038""
","
","
","""event"",""trial"",""time""
""fullscreenenter"",""1"",""2038""
","
","","","","","","1412.800000011921","images/cat1.png","","","memory_trial","4","definitely_new",""
"html-keyboard-response","115","364065","0.0-18.0-0.36","5374","approach_avoid_sv1","""event"",""trial"",""time""
""fullscreenenter"",""1"",""2038""
","
","
","""event"",""trial"",""time""
""fullscreenenter"",""1"",""2038""
","
","","","","","","null","<div style=""font-size:60px;"">+</div>","null","","fixation","","",""
"memory-trial","116","366586","0.0-18.0-1.36","5374","approach_avoid_sv1","""event"",""trial"",""time""
""fullscreenenter"",""1"",""2038""
","
","
","""event"",""trial"",""time""
""fullscreenenter"",""1"",""2038""
","
","","","","","","1515.5","images/truck7.png","","","memory_trial","4","definitely_new",""
"html-keyboard-response","117","367089","0.0-18.0-0.37","5374","approach_avoid_sv1","""event"",""trial"",""time""
""fullscreenenter"",""1"",""2038""
","
","
","""event"",""trial"",""time""
""fullscreenenter"",""1"",""2038""
","
","","","","","","null","<div style=""font-size:60px;"">+</div>","null","","fixation","","",""
"memory-trial","118","369814","0.0-18.0-1.37","5374","approach_avoid_sv1","""event"",""trial"",""time""
""fullscreenenter"",""1"",""2038""
","
","
","""event"",""trial"",""time""
""fullscreenenter"",""1"",""2038""
","
","","","","","","1718.5999999940395","images/chair5.png","","","memory_trial","4","definitely_new",""
"html-keyboard-response","119","370321","0.0-18.0-0.38","5374","approach_avoid_sv1","""event"",""trial"",""time""
""fullscreenenter"",""1"",""2038""
","
","
","""event"",""trial"",""time""
""fullscreenenter"",""1"",""2038""
","
","","","","","","null","<div style=""font-size:60px;"">+</div>","null","","fixation","","",""
"memory-trial","120","372521","0.0-18.0-1.38","5374","approach_avoid_sv1","""event"",""trial"",""time""
""fullscreenenter"",""1"",""2038""
","
","
","""event"",""trial"",""time""
""fullscreenenter"",""1"",""2038""
","
","","","","","","1194.2999999821186","images/banana4.png","","","memory_trial","3","maybe_new",""
"html-keyboard-response","121","373025","0.0-18.0-0.39","5374","approach_avoid_sv1","""event"",""trial"",""time""
""fullscreenenter"",""1"",""2038""
","
","
","""event"",""trial"",""time""
""fullscreenenter"",""1"",""2038""
","
","","","","","","null","<div style=""font-size:60px;"">+</div>","null","","fixation","","",""
"memory-trial","122","375354","0.0-18.0-1.39","5374","approach_avoid_sv1","""event"",""trial"",""time""
""fullscreenenter"",""1"",""2038""
","
","
","""event"",""trial"",""time""
""fullscreenenter"",""1"",""2038""
","
","","","","","","1317.5","images/banana3.png","","","memory_trial","2","maybe_old",""
"html-keyboard-response","123","375858","0.0-18.0-0.40","5374","approach_avoid_sv1","""event"",""trial"",""time""
""fullscreenenter"",""1"",""2038""
","
","
","""event"",""trial"",""time""
""fullscreenenter"",""1"",""2038""
","
","","","","","","null","<div style=""font-size:60px;"">+</div>","null","","fixation","","",""
"memory-trial","124","378194","0.0-18.0-1.40","5374","approach_avoid_sv1","""event"",""trial"",""time""
""fullscreenenter"",""1"",""2038""
","
","
","""event"",""trial"",""time""
""fullscreenenter"",""1"",""2038""
","
","","","","","","1331","images/straw2.png","","","memory_trial","2","maybe_old",""
"html-keyboard-response","125","378697","0.0-18.0-0.41","5374","approach_avoid_sv1","""event"",""trial"",""time""
""fullscreenenter"",""1"",""2038""
","
","
","""event"",""trial"",""time""
""fullscreenenter"",""1"",""2038""
","
","","","","","","null","<div style=""font-size:60px;"">+</div>","null","","fixation","","",""
"memory-trial","126","380946","0.0-18.0-1.41","5374","approach_avoid_sv1","""event"",""trial"",""time""
""fullscreenenter"",""1"",""2038""
","
","
","""event"",""trial"",""time""
""fullscreenenter"",""1"",""2038""
","
","","","","","","1245.9000000059605","images/rabbit6.png","","","memory_trial","1","definitely_old",""
"html-button-response","127","384143","0.0-18.0-2.41-0.41","5374","approach_avoid_sv1","""event"",""trial"",""time""
""fullscreenenter"",""1"",""2038""
","
","
","""event"",""trial"",""time""
""fullscreenenter"",""1"",""2038""
","
","","","","","","3196.2000000178814","<p> Take a break! </p><p> Click the button to continue. </p>","0","","break","","",""
"html-keyboard-response","128","384646","0.0-18.0-0.42","5374","approach_avoid_sv1","""event"",""trial"",""time""
""fullscreenenter"",""1"",""2038""
","
","
","""event"",""trial"",""time""
""fullscreenenter"",""1"",""2038""
","
","","","","","","null","<div style=""font-size:60px;"">+</div>","null","","fixation","","",""
"memory-trial","129","388146","0.0-18.0-1.42","5374","approach_avoid_sv1","""event"",""trial"",""time""
""fullscreenenter"",""1"",""2038""
","
","
","""event"",""trial"",""time""
""fullscreenenter"",""1"",""2038""
","
","","","","","","2492","images/bed6.png","","","memory_trial","3","maybe_new",""
"html-keyboard-response","130","388649","0.0-18.0-0.43","5374","approach_avoid_sv1","""event"",""trial"",""time""
""fullscreenenter"",""1"",""2038""
","
","
","""event"",""trial"",""time""
""fullscreenenter"",""1"",""2038""
","
","","","","","","null","<div style=""font-size:60px;"">+</div>","null","","fixation","","",""
"memory-trial","131","390522","0.0-18.0-1.43","5374","approach_avoid_sv1","""event"",""trial"",""time""
""fullscreenenter"",""1"",""2038""
","
","
","""event"",""trial"",""time""
""fullscreenenter"",""1"",""2038""
","
","","","","","","867.6000000238419","images/rodent7.png","","","memory_trial","1","definitely_old",""
"html-keyboard-response","132","391025","0.0-18.0-0.44","5374","approach_avoid_sv1","""event"",""trial"",""time""
""fullscreenenter"",""1"",""2038""
","
","
","""event"",""trial"",""time""
""fullscreenenter"",""1"",""2038""
","
","","","","","","null","<div style=""font-size:60px;"">+</div>","null","","fixation","","",""
"memory-trial","133","393225","0.0-18.0-1.44","5374","approach_avoid_sv1","""event"",""trial"",""time""
""fullscreenenter"",""1"",""2038""
","
","
","""event"",""trial"",""time""
""fullscreenenter"",""1"",""2038""
","
","","","","","","1195.5","images/boat3.png","","","memory_trial","1","definitely_old",""
"html-keyboard-response","134","393730","0.0-18.0-0.45","5374","approach_avoid_sv1","""event"",""trial"",""time""
""fullscreenenter"",""1"",""2038""
","
","
","""event"",""trial"",""time""
""fullscreenenter"",""1"",""2038""
","
","","","","","","null","<div style=""font-size:60px;"">+</div>","null","","fixation","","",""
"memory-trial","135","395602","0.0-18.0-1.45","5374","approach_avoid_sv1","""event"",""trial"",""time""
""fullscreenenter"",""1"",""2038""
","
","
","""event"",""trial"",""time""
""fullscreenenter"",""1"",""2038""
","
","","","","","","860.8999999761581","images/bed5.png","","","memory_trial","1","definitely_old",""
"html-keyboard-response","136","396105","0.0-18.0-0.46","5374","approach_avoid_sv1","""event"",""trial"",""time""
""fullscreenenter"",""1"",""2038""
","
","
","""event"",""trial"",""time""
""fullscreenenter"",""1"",""2038""
","
","","","","","","null","<div style=""font-size:60px;"">+</div>","null","","fixation","","",""
"memory-trial","137","398122","0.0-18.0-1.46","5374","approach_avoid_sv1","""event"",""trial"",""time""
""fullscreenenter"",""1"",""2038""
","
","
","""event"",""trial"",""time""
""fullscreenenter"",""1"",""2038""
","
","","","","","","1005.5","images/sheep5.png","","","memory_trial","4","definitely_new",""
"html-keyboard-response","138","398626","0.0-18.0-0.47","5374","approach_avoid_sv1","""event"",""trial"",""time""
""fullscreenenter"",""1"",""2038""
","
","
","""event"",""trial"",""time""
""fullscreenenter"",""1"",""2038""
","
","","","","","","null","<div style=""font-size:60px;"">+</div>","null","","fixation","","",""
"memory-trial","139","400434","0.0-18.0-1.47","5374","approach_avoid_sv1","""event"",""trial"",""time""
""fullscreenenter"",""1"",""2038""
","
","
","""event"",""trial"",""time""
""fullscreenenter"",""1"",""2038""
","
","","","","","","800.8999999761581","images/chair4.png","","","memory_trial","4","definitely_new",""
"html-keyboard-response","140","400942","0.0-18.0-0.48","5374","approach_avoid_sv1","""event"",""trial"",""time""
""fullscreenenter"",""1"",""2038""
","
","
","""event"",""trial"",""time""
""fullscreenenter"",""1"",""2038""
","
","","","","","","null","<div style=""font-size:60px;"">+</div>","null","","fixation","","",""
"memory-trial","141","402817","0.0-18.0-1.48","5374","approach_avoid_sv1","""event"",""trial"",""time""
""fullscreenenter"",""1"",""2038""
","
","
","""event"",""trial"",""time""
""fullscreenenter"",""1"",""2038""
","
","","","","","","867.6000000238419","images/table4.png","","","memory_trial","2","maybe_old",""
"html-keyboard-response","142","403322","0.0-18.0-0.49","5374","approach_avoid_sv1","""event"",""trial"",""time""
""fullscreenenter"",""1"",""2038""
","
","
","""event"",""trial"",""time""
""fullscreenenter"",""1"",""2038""
","
","","","","","","null","<div style=""font-size:60px;"">+</div>","null","","fixation","","",""
"memory-trial","143","405658","0.0-18.0-1.49","5374","approach_avoid_sv1","""event"",""trial"",""time""
""fullscreenenter"",""1"",""2038""
","
","
","""event"",""trial"",""time""
""fullscreenenter"",""1"",""2038""
","
","","","","","","1326","images/table8.png","","","memory_trial","1","definitely_old",""
"html-keyboard-response","144","406161","0.0-18.0-0.50","5374","approach_avoid_sv1","""event"",""trial"",""time""
""fullscreenenter"",""1"",""2038""
","
","
","""event"",""trial"",""time""
""fullscreenenter"",""1"",""2038""
","
","","","","","","null","<div style=""font-size:60px;"">+</div>","null","","fixation","","",""
"memory-trial","145","408097","0.0-18.0-1.50","5374","approach_avoid_sv1","""event"",""trial"",""time""
""fullscreenenter"",""1"",""2038""
","
","
","""event"",""trial"",""time""
""fullscreenenter"",""1"",""2038""
","
","","","","","","932.5999999940395","images/flower1.png","","","memory_trial","4","definitely_new",""
"html-keyboard-response","146","408602","0.0-18.0-0.51","5374","approach_avoid_sv1","""event"",""trial"",""time""
""fullscreenenter"",""1"",""2038""
","
","
","""event"",""trial"",""time""
""fullscreenenter"",""1"",""2038""
","
","","","","","","null","<div style=""font-size:60px;"">+</div>","null","","fixation","","",""
"memory-trial","147","411185","0.0-18.0-1.51","5374","approach_avoid_sv1","""event"",""trial"",""time""
""fullscreenenter"",""1"",""2038""
","
","
","""event"",""trial"",""time""
""fullscreenenter"",""1"",""2038""
","
","","","","","","1578.4000000059605","images/straw8.png","","","memory_trial","2","maybe_old",""
"html-keyboard-response","148","411703","0.0-18.0-0.52","5374","approach_avoid_sv1","""event"",""trial"",""time""
""fullscreenenter"",""1"",""2038""
","
","
","""event"",""trial"",""time""
""fullscreenenter"",""1"",""2038""
","
","","","","","","null","<div style=""font-size:60px;"">+</div>","null","","fixation","","",""
"memory-trial","149","414794","0.0-18.0-1.52","5374","approach_avoid_sv1","""event"",""trial"",""time""
""fullscreenenter"",""1"",""2038""
","
","
","""event"",""trial"",""time""
""fullscreenenter"",""1"",""2038""
","
","","","","","","2083.7999999821186","images/plane7.png","","","memory_trial","1","definitely_old",""
"html-keyboard-response","150","415297","0.0-18.0-0.53","5374","approach_avoid_sv1","""event"",""trial"",""time""
""fullscreenenter"",""1"",""2038""
","
","
","""event"",""trial"",""time""
""fullscreenenter"",""1"",""2038""
","
","","","","","","null","<div style=""font-size:60px;"">+</div>","null","","fixation","","",""
"memory-trial","151","417529","0.0-18.0-1.53","5374","approach_avoid_sv1","""event"",""trial"",""time""
""fullscreenenter"",""1"",""2038""
","
","
","""event"",""trial"",""time""
""fullscreenenter"",""1"",""2038""
","
","","","","","","1221.699999988079","images/cat5.png","","","memory_trial","4","definitely_new",""
"html-keyboard-response","152","418034","0.0-18.0-0.54","5374","approach_avoid_sv1","""event"",""trial"",""time""
""fullscreenenter"",""1"",""2038""
","
","
","""event"",""trial"",""time""
""fullscreenenter"",""1"",""2038""
","
","","","","","","null","<div style=""font-size:60px;"">+</div>","null","","fixation","","",""
"memory-trial","153","421051","0.0-18.0-1.54","5374","approach_avoid_sv1","""event"",""trial"",""time""
""fullscreenenter"",""1"",""2038""
","
","
","""event"",""trial"",""time""
""fullscreenenter"",""1"",""2038""
","
","","","","","","2005","images/rodent5.png","","","memory_trial","2","maybe_old",""
"html-keyboard-response","154","421553","0.0-18.0-0.55","5374","approach_avoid_sv1","""event"",""trial"",""time""
""fullscreenenter"",""1"",""2038""
","
","
","""event"",""trial"",""time""
""fullscreenenter"",""1"",""2038""
","
","","","","","","null","<div style=""font-size:60px;"">+</div>","null","","fixation","","",""
"memory-trial","155","423465","0.0-18.0-1.55","5374","approach_avoid_sv1","""event"",""trial"",""time""
""fullscreenenter"",""1"",""2038""
","
","
","""event"",""trial"",""time""
""fullscreenenter"",""1"",""2038""
","
","","","","","","908.2999999821186","images/rabbit5.png","","","memory_trial","4","definitely_new",""
"html-keyboard-response","156","423970","0.0-18.0-0.56","5374","approach_avoid_sv1","""event"",""trial"",""time""
""fullscreenenter"",""1"",""2038""
","
","
","""event"",""trial"",""time""
""fullscreenenter"",""1"",""2038""
","
","","","","","","null","<div style=""font-size:60px;"">+</div>","null","","fixation","","",""
"memory-trial","157","426154","0.0-18.0-1.56","5374","approach_avoid_sv1","""event"",""trial"",""time""
""fullscreenenter"",""1"",""2038""
","
","
","""event"",""trial"",""time""
""fullscreenenter"",""1"",""2038""
","
","","","","","","1176.0999999940395","images/bush5.png","","","memory_trial","4","definitely_new",""
"html-keyboard-response","158","426658","0.0-18.0-0.57","5374","approach_avoid_sv1","""event"",""trial"",""time""
""fullscreenenter"",""1"",""2038""
","
","
","""event"",""trial"",""time""
""fullscreenenter"",""1"",""2038""
","
","","","","","","null","<div style=""font-size:60px;"">+</div>","null","","fixation","","",""
"memory-trial","159","429393","0.0-18.0-1.57","5374","approach_avoid_sv1","""event"",""trial"",""time""
""fullscreenenter"",""1"",""2038""
","
","
","""event"",""trial"",""time""
""fullscreenenter"",""1"",""2038""
","
","","","","","","1731.0999999940395","images/sofa7.png","","","memory_trial","2","maybe_old",""
"html-keyboard-response","160","429897","0.0-18.0-0.58","5374","approach_avoid_sv1","""event"",""trial"",""time""
""fullscreenenter"",""1"",""2038""
","
","
","""event"",""trial"",""time""
""fullscreenenter"",""1"",""2038""
","
","","","","","","null","<div style=""font-size:60px;"">+</div>","null","","fixation","","",""
"memory-trial","161","432697","0.0-18.0-1.58","5374","approach_avoid_sv1","""event"",""trial"",""time""
""fullscreenenter"",""1"",""2038""
","
","
","""event"",""trial"",""time""
""fullscreenenter"",""1"",""2038""
","
","","","","","","1791.5","images/cactus4.png","","","memory_trial","1","definitely_old",""
"html-keyboard-response","162","433201","0.0-18.0-0.59","5374","approach_avoid_sv1","""event"",""trial"",""time""
""fullscreenenter"",""1"",""2038""
","
","
","""event"",""trial"",""time""
""fullscreenenter"",""1"",""2038""
","
","","","","","","null","<div style=""font-size:60px;"">+</div>","null","","fixation","","",""
"memory-trial","163","436265","0.0-18.0-1.59","5374","approach_avoid_sv1","""event"",""trial"",""time""
""fullscreenenter"",""1"",""2038""
","
","
","""event"",""trial"",""time""
""fullscreenenter"",""1"",""2038""
","
","","","","","","2058.199999988079","images/dog5.png","","","memory_trial","2","maybe_old",""
"html-keyboard-response","164","436769","0.0-18.0-0.60","5374","approach_avoid_sv1","""event"",""trial"",""time""
""fullscreenenter"",""1"",""2038""
","
","
","""event"",""trial"",""time""
""fullscreenenter"",""1"",""2038""
","
","","","","","","null","<div style=""font-size:60px;"">+</div>","null","","fixation","","",""
"memory-trial","165","440241","0.0-18.0-1.60","5374","approach_avoid_sv1","""event"",""trial"",""time""
""fullscreenenter"",""1"",""2038""
","
","
","""event"",""trial"",""time""
""fullscreenenter"",""1"",""2038""
","
","","","","","","2465.2000000178814","images/apple8.png","","","memory_trial","1","definitely_old",""
"html-keyboard-response","166","440744","0.0-18.0-0.61","5374","approach_avoid_sv1","""event"",""trial"",""time""
""fullscreenenter"",""1"",""2038""
","
","
","""event"",""trial"",""time""
""fullscreenenter"",""1"",""2038""
","
","","","","","","null","<div style=""font-size:60px;"">+</div>","null","","fixation","","",""
"memory-trial","167","442649","0.0-18.0-1.61","5374","approach_avoid_sv1","""event"",""trial"",""time""
""fullscreenenter"",""1"",""2038""
","
","
","""event"",""trial"",""time""
""fullscreenenter"",""1"",""2038""
","
","","","","","","900.7000000178814","images/train2.png","","","memory_trial","1","definitely_old",""
"html-keyboard-response","168","443153","0.0-18.0-0.62","5374","approach_avoid_sv1","""event"",""trial"",""time""
""fullscreenenter"",""1"",""2038""
","
","
","""event"",""trial"",""time""
""fullscreenenter"",""1"",""2038""
","
","","","","","","null","<div style=""font-size:60px;"">+</div>","null","","fixation","","",""
"memory-trial","169","445161","0.0-18.0-1.62","5374","approach_avoid_sv1","""event"",""trial"",""time""
""fullscreenenter"",""1"",""2038""
","
","
","""event"",""trial"",""time""
""fullscreenenter"",""1"",""2038""
","
","","","","","","1003.7999999821186","images/cactus1.png","","","memory_trial","4","definitely_new",""
"html-keyboard-response","170","445664","0.0-18.0-0.63","5374","approach_avoid_sv1","""event"",""trial"",""time""
""fullscreenenter"",""1"",""2038""
","
","
","""event"",""trial"",""time""
""fullscreenenter"",""1"",""2038""
","
","","","","","","null","<div style=""font-size:60px;"">+</div>","null","","fixation","","",""
"memory-trial","171","447394","0.0-18.0-1.63","5374","approach_avoid_sv1","""event"",""trial"",""time""
""fullscreenenter"",""1"",""2038""
","
","
","""event"",""trial"",""time""
""fullscreenenter"",""1"",""2038""
","
","","","","","","720.5","images/cat7.png","","","memory_trial","4","definitely_new",""
"html-keyboard-response","172","447897","0.0-18.0-0.64","5374","approach_avoid_sv1","""event"",""trial"",""time""
""fullscreenenter"",""1"",""2038""
","
","
","""event"",""trial"",""time""
""fullscreenenter"",""1"",""2038""
","
","","","","","","null","<div style=""font-size:60px;"">+</div>","null","","fixation","","",""
"memory-trial","173","450089","0.0-18.0-1.64","5374","approach_avoid_sv1","""event"",""trial"",""time""
""fullscreenenter"",""1"",""2038""
","
","
","""event"",""trial"",""time""
""fullscreenenter"",""1"",""2038""
","
","","","","","","1185.699999988079","images/chair1.png","","","memory_trial","3","maybe_new",""
"html-keyboard-response","174","450593","0.0-18.0-0.65","5374","approach_avoid_sv1","""event"",""trial"",""time""
""fullscreenenter"",""1"",""2038""
","
","
","""event"",""trial"",""time""
""fullscreenenter"",""1"",""2038""
","
","","","","","","null","<div style=""font-size:60px;"">+</div>","null","","fixation","","",""
"memory-trial","175","453657","0.0-18.0-1.65","5374","approach_avoid_sv1","""event"",""trial"",""time""
""fullscreenenter"",""1"",""2038""
","
","
","""event"",""trial"",""time""
""fullscreenenter"",""1"",""2038""
","
","","","","","","2053.9000000059605","images/orange6.png","","","memory_trial","2","maybe_old",""
"html-keyboard-response","176","454161","0.0-18.0-0.66","5374","approach_avoid_sv1","""event"",""trial"",""time""
""fullscreenenter"",""1"",""2038""
","
","
","""event"",""trial"",""time""
""fullscreenenter"",""1"",""2038""
","
","","","","","","null","<div style=""font-size:60px;"">+</div>","null","","fixation","","",""
"memory-trial","177","456400","0.0-18.0-1.66","5374","approach_avoid_sv1","""event"",""trial"",""time""
""fullscreenenter"",""1"",""2038""
","
","
","""event"",""trial"",""time""
""fullscreenenter"",""1"",""2038""
","
","","","","","","1227.0999999940395","images/dog4.png","","","memory_trial","1","definitely_old",""
"html-keyboard-response","178","456905","0.0-18.0-0.67","5374","approach_avoid_sv1","""event"",""trial"",""time""
""fullscreenenter"",""1"",""2038""
","
","
","""event"",""trial"",""time""
""fullscreenenter"",""1"",""2038""
","
","","","","","","null","<div style=""font-size:60px;"">+</div>","null","","fixation","","",""
"memory-trial","179","459944","0.0-18.0-1.67","5374","approach_avoid_sv1","""event"",""trial"",""time""
""fullscreenenter"",""1"",""2038""
","
","
","""event"",""trial"",""time""
""fullscreenenter"",""1"",""2038""
","
","","","","","","2032.8999999761581","images/boat7.png","","","memory_trial","2","maybe_old",""
"html-keyboard-response","180","460449","0.0-18.0-0.68","5374","approach_avoid_sv1","""event"",""trial"",""time""
""fullscreenenter"",""1"",""2038""
","
","
","""event"",""trial"",""time""
""fullscreenenter"",""1"",""2038""
","
","","","","","","null","<div style=""font-size:60px;"">+</div>","null","","fixation","","",""
"memory-trial","181","462665","0.0-18.0-1.68","5374","approach_avoid_sv1","""event"",""trial"",""time""
""fullscreenenter"",""1"",""2038""
","
","
","""event"",""trial"",""time""
""fullscreenenter"",""1"",""2038""
","
","","","","","","1204.9000000059605","images/bush2.png","","","memory_trial","1","definitely_old",""
"html-keyboard-response","182","463169","0.0-18.0-0.69","5374","approach_avoid_sv1","""event"",""trial"",""time""
""fullscreenenter"",""1"",""2038""
","
","
","""event"",""trial"",""time""
""fullscreenenter"",""1"",""2038""
","
","","","","","","null","<div style=""font-size:60px;"">+</div>","null","","fixation","","",""
"memory-trial","183","465513","0.0-18.0-1.69","5374","approach_avoid_sv1","""event"",""trial"",""time""
""fullscreenenter"",""1"",""2038""
","
","
","""event"",""trial"",""time""
""fullscreenenter"",""1"",""2038""
","
","","","","","","1339.0999999940395","images/chair3.png","","","memory_trial","1","definitely_old",""
"html-keyboard-response","184","466017","0.0-18.0-0.70","5374","approach_avoid_sv1","""event"",""trial"",""time""
""fullscreenenter"",""1"",""2038""
","
","
","""event"",""trial"",""time""
""fullscreenenter"",""1"",""2038""
","
","","","","","","null","<div style=""font-size:60px;"">+</div>","null","","fixation","","",""
"memory-trial","185","467833","0.0-18.0-1.70","5374","approach_avoid_sv1","""event"",""trial"",""time""
""fullscreenenter"",""1"",""2038""
","
","
","""event"",""trial"",""time""
""fullscreenenter"",""1"",""2038""
","
","","","","","","806.5999999940395","images/horse8.png","","","memory_trial","4","definitely_new",""
"html-keyboard-response","186","468336","0.0-18.0-0.71","5374","approach_avoid_sv1","""event"",""trial"",""time""
""fullscreenenter"",""1"",""2038""
","
","
","""event"",""trial"",""time""
""fullscreenenter"",""1"",""2038""
","
","","","","","","null","<div style=""font-size:60px;"">+</div>","null","","fixation","","",""
"memory-trial","187","470353","0.0-18.0-1.71","5374","approach_avoid_sv1","""event"",""trial"",""time""
""fullscreenenter"",""1"",""2038""
","
","
","""event"",""trial"",""time""
""fullscreenenter"",""1"",""2038""
","
","","","","","","1007.1999999880791","images/dog6.png","","","memory_trial","4","definitely_new",""
"html-keyboard-response","188","470857","0.0-18.0-0.72","5374","approach_avoid_sv1","""event"",""trial"",""time""
""fullscreenenter"",""1"",""2038""
","
","
","""event"",""trial"",""time""
""fullscreenenter"",""1"",""2038""
","
","","","","","","null","<div style=""font-size:60px;"">+</div>","null","","fixation","","",""
"memory-trial","189","473160","0.0-18.0-1.72","5374","approach_avoid_sv1","""event"",""trial"",""time""
""fullscreenenter"",""1"",""2038""
","
","
","""event"",""trial"",""time""
""fullscreenenter"",""1"",""2038""
","
","","","","","","1295.800000011921","images/sofa2.png","","","memory_trial","1","definitely_old",""
"html-keyboard-response","190","473665","0.0-18.0-0.73","5374","approach_avoid_sv1","""event"",""trial"",""time""
""fullscreenenter"",""1"",""2038""
","
","
","""event"",""trial"",""time""
""fullscreenenter"",""1"",""2038""
","
","","","","","","null","<div style=""font-size:60px;"">+</div>","null","","fixation","","",""
"memory-trial","191","475857","0.0-18.0-1.73","5374","approach_avoid_sv1","""event"",""trial"",""time""
""fullscreenenter"",""1"",""2038""
","
","
","""event"",""trial"",""time""
""fullscreenenter"",""1"",""2038""
","
","","","","","","1184.300000011921","images/bed7.png","","","memory_trial","1","definitely_old",""
"html-keyboard-response","192","476360","0.0-18.0-0.74","5374","approach_avoid_sv1","""event"",""trial"",""time""
""fullscreenenter"",""1"",""2038""
","
","
","""event"",""trial"",""time""
""fullscreenenter"",""1"",""2038""
","
","","","","","","null","<div style=""font-size:60px;"">+</div>","null","","fixation","","",""
"memory-trial","193","478841","0.0-18.0-1.74","5374","approach_avoid_sv1","""event"",""trial"",""time""
""fullscreenenter"",""1"",""2038""
","
","
","""event"",""trial"",""time""
""fullscreenenter"",""1"",""2038""
","
","","","","","","1470.5999999940395","images/apple1.png","","","memory_trial","2","maybe_old",""
"html-keyboard-response","194","479345","0.0-18.0-0.75","5374","approach_avoid_sv1","""event"",""trial"",""time""
""fullscreenenter"",""1"",""2038""
","
","
","""event"",""trial"",""time""
""fullscreenenter"",""1"",""2038""
","
","","","","","","null","<div style=""font-size:60px;"">+</div>","null","","fixation","","",""
"memory-trial","195","481585","0.0-18.0-1.75","5374","approach_avoid_sv1","""event"",""trial"",""time""
""fullscreenenter"",""1"",""2038""
","
","
","""event"",""trial"",""time""
""fullscreenenter"",""1"",""2038""
","
","","","","","","1235.2999999821186","images/apple2.png","","","memory_trial","4","definitely_new",""
"html-keyboard-response","196","482088","0.0-18.0-0.76","5374","approach_avoid_sv1","""event"",""trial"",""time""
""fullscreenenter"",""1"",""2038""
","
","
","""event"",""trial"",""time""
""fullscreenenter"",""1"",""2038""
","
","","","","","","null","<div style=""font-size:60px;"">+</div>","null","","fixation","","",""
"memory-trial","197","484433","0.0-18.0-1.76","5374","approach_avoid_sv1","""event"",""trial"",""time""
""fullscreenenter"",""1"",""2038""
","
","
","""event"",""trial"",""time""
""fullscreenenter"",""1"",""2038""
","
","","","","","","1342.0999999940395","images/plane1.png","","","memory_trial","2","maybe_old",""
"html-keyboard-response","198","484937","0.0-18.0-0.77","5374","approach_avoid_sv1","""event"",""trial"",""time""
""fullscreenenter"",""1"",""2038""
","
","
","""event"",""trial"",""time""
""fullscreenenter"",""1"",""2038""
","
","","","","","","null","<div style=""font-size:60px;"">+</div>","null","","fixation","","",""
"memory-trial","199","486769","0.0-18.0-1.77","5374","approach_avoid_sv1","""event"",""trial"",""time""
""fullscreenenter"",""1"",""2038""
","
","
","""event"",""trial"",""time""
""fullscreenenter"",""1"",""2038""
","
","","","","","","821.2999999821186","images/orange5.png","","","memory_trial","1","definitely_old",""
"html-keyboard-response","200","487273","0.0-18.0-0.78","5374","approach_avoid_sv1","""event"",""trial"",""time""
""fullscreenenter"",""1"",""2038""
","
","
","""event"",""trial"",""time""
""fullscreenenter"",""1"",""2038""
","
","","","","","","null","<div style=""font-size:60px;"">+</div>","null","","fixation","","",""
"memory-trial","201","490346","0.0-18.0-1.78","5374","approach_avoid_sv1","""event"",""trial"",""time""
""fullscreenenter"",""1"",""2038""
","
","
","""event"",""trial"",""time""
""fullscreenenter"",""1"",""2038""
","
","","","","","","2066.4000000059605","images/bush4.png","","","memory_trial","2","maybe_old",""
"html-keyboard-response","202","490850","0.0-18.0-0.79","5374","approach_avoid_sv1","""event"",""trial"",""time""
""fullscreenenter"",""1"",""2038""
","
","
","""event"",""trial"",""time""
""fullscreenenter"",""1"",""2038""
","
","","","","","","null","<div style=""font-size:60px;"">+</div>","null","","fixation","","",""
"memory-trial","203","492594","0.0-18.0-1.79","5374","approach_avoid_sv1","""event"",""trial"",""time""
""fullscreenenter"",""1"",""2038""
","
","
","""event"",""trial"",""time""
""fullscreenenter"",""1"",""2038""
","
","","","","","","739.4000000059605","images/cat3.png","","","memory_trial","4","definitely_new",""
"html-keyboard-response","204","493097","0.0-18.0-0.80","5374","approach_avoid_sv1","""event"",""trial"",""time""
""fullscreenenter"",""1"",""2038""
","
","
","""event"",""trial"",""time""
""fullscreenenter"",""1"",""2038""
","
","","","","","","null","<div style=""font-size:60px;"">+</div>","null","","fixation","","",""
"memory-trial","205","495386","0.0-18.0-1.80","5374","approach_avoid_sv1","""event"",""trial"",""time""
""fullscreenenter"",""1"",""2038""
","
","
","""event"",""trial"",""time""
""fullscreenenter"",""1"",""2038""
","
","","","","","","1280.9000000059605","images/straw4.png","","","memory_trial","3","maybe_new",""
"html-keyboard-response","206","495889","0.0-18.0-0.81","5374","approach_avoid_sv1","""event"",""trial"",""time""
""fullscreenenter"",""1"",""2038""
","
","
","""event"",""trial"",""time""
""fullscreenenter"",""1"",""2038""
","
","","","","","","null","<div style=""font-size:60px;"">+</div>","null","","fixation","","",""
"memory-trial","207","497857","0.0-18.0-1.81","5374","approach_avoid_sv1","""event"",""trial"",""time""
""fullscreenenter"",""1"",""2038""
","
","
","""event"",""trial"",""time""
""fullscreenenter"",""1"",""2038""
","
","","","","","","964.7000000178814","images/truck6.png","","","memory_trial","1","definitely_old",""
"html-keyboard-response","208","498361","0.0-18.0-0.82","5374","approach_avoid_sv1","""event"",""trial"",""time""
""fullscreenenter"",""1"",""2038""
","
","
","""event"",""trial"",""time""
""fullscreenenter"",""1"",""2038""
","
","","","","","","null","<div style=""font-size:60px;"">+</div>","null","","fixation","","",""
"memory-trial","209","500682","0.0-18.0-1.82","5374","approach_avoid_sv1","""event"",""trial"",""time""
""fullscreenenter"",""1"",""2038""
","
","
","""event"",""trial"",""time""
""fullscreenenter"",""1"",""2038""
","
","","","","","","1315.9000000059605","images/sheep2.png","","","memory_trial","4","definitely_new",""
"html-keyboard-response","210","501186","0.0-18.0-0.83","5374","approach_avoid_sv1","""event"",""trial"",""time""
""fullscreenenter"",""1"",""2038""
","
","
","""event"",""trial"",""time""
""fullscreenenter"",""1"",""2038""
","
","","","","","","null","<div style=""font-size:60px;"">+</div>","null","","fixation","","",""
"memory-trial","211","503513","0.0-18.0-1.83","5374","approach_avoid_sv1","""event"",""trial"",""time""
""fullscreenenter"",""1"",""2038""
","
","
","""event"",""trial"",""time""
""fullscreenenter"",""1"",""2038""
","
","","","","","","1323.1000000238419","images/truck4.png","","","memory_trial","2","maybe_old",""
"html-keyboard-response","212","504017","0.0-18.0-0.84","5374","approach_avoid_sv1","""event"",""trial"",""time""
""fullscreenenter"",""1"",""2038""
","
","
","""event"",""trial"",""time""
""fullscreenenter"",""1"",""2038""
","
","","","","","","null","<div style=""font-size:60px;"">+</div>","null","","fixation","","",""
"memory-trial","213","505729","0.0-18.0-1.84","5374","approach_avoid_sv1","""event"",""trial"",""time""
""fullscreenenter"",""1"",""2038""
","
","
","""event"",""trial"",""time""
""fullscreenenter"",""1"",""2038""
","
","","","","","","704.1000000238419","images/sofa4.png","","","memory_trial","1","definitely_old",""
"html-keyboard-response","214","506234","0.0-18.0-0.85","5374","approach_avoid_sv1","""event"",""trial"",""time""
""fullscreenenter"",""1"",""2038""
","
","
","""event"",""trial"",""time""
""fullscreenenter"",""1"",""2038""
","
","","","","","","null","<div style=""font-size:60px;"">+</div>","null","","fixation","","",""
"memory-trial","215","508170","0.0-18.0-1.85","5374","approach_avoid_sv1","""event"",""trial"",""time""
""fullscreenenter"",""1"",""2038""
","
","
","""event"",""trial"",""time""
""fullscreenenter"",""1"",""2038""
","
","","","","","","932.8999999761581","images/straw3.png","","","memory_trial","1","definitely_old",""
"html-keyboard-response","216","508673","0.0-18.0-0.86","5374","approach_avoid_sv1","""event"",""trial"",""time""
""fullscreenenter"",""1"",""2038""
","
","
","""event"",""trial"",""time""
""fullscreenenter"",""1"",""2038""
","
","","","","","","null","<div style=""font-size:60px;"">+</div>","null","","fixation","","",""
"memory-trial","217","512026","0.0-18.0-1.86","5374","approach_avoid_sv1","""event"",""trial"",""time""
""fullscreenenter"",""1"",""2038""
","
","
","""event"",""trial"",""time""
""fullscreenenter"",""1"",""2038""
","
","","","","","","2347.5999999940395","images/bed2.png","","","memory_trial","3","maybe_new",""
"html-keyboard-response","218","512530","0.0-18.0-0.87","5374","approach_avoid_sv1","""event"",""trial"",""time""
""fullscreenenter"",""1"",""2038""
","
","
","""event"",""trial"",""time""
""fullscreenenter"",""1"",""2038""
","
","","","","","","null","<div style=""font-size:60px;"">+</div>","null","","fixation","","",""
"memory-trial","219","515513","0.0-18.0-1.87","5374","approach_avoid_sv1","""event"",""trial"",""time""
""fullscreenenter"",""1"",""2038""
","
","
","""event"",""trial"",""time""
""fullscreenenter"",""1"",""2038""
","
","","","","","","1975.699999988079","images/dog7.png","","","memory_trial","1","definitely_old",""
"html-keyboard-response","220","516018","0.0-18.0-0.88","5374","approach_avoid_sv1","""event"",""trial"",""time""
""fullscreenenter"",""1"",""2038""
","
","
","""event"",""trial"",""time""
""fullscreenenter"",""1"",""2038""
","
","","","","","","null","<div style=""font-size:60px;"">+</div>","null","","fixation","","",""
"memory-trial","221","519041","0.0-18.0-1.88","5374","approach_avoid_sv1","""event"",""trial"",""time""
""fullscreenenter"",""1"",""2038""
","
","
","""event"",""trial"",""time""
""fullscreenenter"",""1"",""2038""
","
","","","","","","2014.8999999761581","images/plane6.png","","","memory_trial","2","maybe_old",""
"html-keyboard-response","222","519546","0.0-18.0-0.89","5374","approach_avoid_sv1","""event"",""trial"",""time""
""fullscreenenter"",""1"",""2038""
","
","
","""event"",""trial"",""time""
""fullscreenenter"",""1"",""2038""
","
","","","","","","null","<div style=""font-size:60px;"">+</div>","null","","fixation","","",""
"memory-trial","223","521403","0.0-18.0-1.89","5374","approach_avoid_sv1","""event"",""trial"",""time""
""fullscreenenter"",""1"",""2038""
","
","
","""event"",""trial"",""time""
""fullscreenenter"",""1"",""2038""
","
","","","","","","845","images/cactus3.png","","","memory_trial","4","definitely_new",""
"html-keyboard-response","224","521906","0.0-18.0-0.90","5374","approach_avoid_sv1","""event"",""trial"",""time""
""fullscreenenter"",""1"",""2038""
","
","
","""event"",""trial"",""time""
""fullscreenenter"",""1"",""2038""
","
","","","","","","null","<div style=""font-size:60px;"">+</div>","null","","fixation","","",""
"memory-trial","225","524449","0.0-18.0-1.90","5374","approach_avoid_sv1","""event"",""trial"",""time""
""fullscreenenter"",""1"",""2038""
","
","
","""event"",""trial"",""time""
""fullscreenenter"",""1"",""2038""
","
","","","","","","1536.300000011921","images/sofa6.png","","","memory_trial","1","definitely_old",""
"html-keyboard-response","226","524954","0.0-18.0-0.91","5374","approach_avoid_sv1","""event"",""trial"",""time""
""fullscreenenter"",""1"",""2038""
","
","
","""event"",""trial"",""time""
""fullscreenenter"",""1"",""2038""
","
","","","","","","null","<div style=""font-size:60px;"">+</div>","null","","fixation","","",""
"memory-trial","227","527786","0.0-18.0-1.91","5374","approach_avoid_sv1","""event"",""trial"",""time""
""fullscreenenter"",""1"",""2038""
","
","
","""event"",""trial"",""time""
""fullscreenenter"",""1"",""2038""
","
","","","","","","1823.5","images/goat3.png","","","memory_trial","2","maybe_old",""
"html-button-response","228","532141","0.0-18.0-2.91-0.91","5374","approach_avoid_sv1","""event"",""trial"",""time""
""fullscreenenter"",""1"",""2038""
","
","
","""event"",""trial"",""time""
""fullscreenenter"",""1"",""2038""
","
","","","","","","4353.0999999940395","<p> Take a break! </p><p> Click the button to continue. </p>","0","","break","","",""
"html-keyboard-response","229","532650","0.0-18.0-0.92","5374","approach_avoid_sv1","""event"",""trial"",""time""
""fullscreenenter"",""1"",""2038""
","
","
","""event"",""trial"",""time""
""fullscreenenter"",""1"",""2038""
","
","","","","","","null","<div style=""font-size:60px;"">+</div>","null","","fixation","","",""
"memory-trial","230","534665","0.0-18.0-1.92","5374","approach_avoid_sv1","""event"",""trial"",""time""
""fullscreenenter"",""1"",""2038""
","
","
","""event"",""trial"",""time""
""fullscreenenter"",""1"",""2038""
","
","","","","","","1008.6999999880791","images/flower2.png","","","memory_trial","1","definitely_old",""
"html-keyboard-response","231","535169","0.0-18.0-0.93","5374","approach_avoid_sv1","""event"",""trial"",""time""
""fullscreenenter"",""1"",""2038""
","
","
","""event"",""trial"",""time""
""fullscreenenter"",""1"",""2038""
","
","","","","","","null","<div style=""font-size:60px;"">+</div>","null","","fixation","","",""
"memory-trial","232","537377","0.0-18.0-1.93","5374","approach_avoid_sv1","""event"",""trial"",""time""
""fullscreenenter"",""1"",""2038""
","
","
","""event"",""trial"",""time""
""fullscreenenter"",""1"",""2038""
","
","","","","","","1205.9000000059605","images/cactus6.png","","","memory_trial","2","maybe_old",""
"html-keyboard-response","233","537881","0.0-18.0-0.94","5374","approach_avoid_sv1","""event"",""trial"",""time""
""fullscreenenter"",""1"",""2038""
","
","
","""event"",""trial"",""time""
""fullscreenenter"",""1"",""2038""
","
","","","","","","null","<div style=""font-size:60px;"">+</div>","null","","fixation","","",""
"memory-trial","234","540018","0.0-18.0-1.94","5374","approach_avoid_sv1","""event"",""trial"",""time""
""fullscreenenter"",""1"",""2038""
","
","
","""event"",""trial"",""time""
""fullscreenenter"",""1"",""2038""
","
","","","","","","1133.5","images/tree1.png","","","memory_trial","2","maybe_old",""
"html-keyboard-response","235","540521","0.0-18.0-0.95","5374","approach_avoid_sv1","""event"",""trial"",""time""
""fullscreenenter"",""1"",""2038""
","
","
","""event"",""trial"",""time""
""fullscreenenter"",""1"",""2038""
","
","","","","","","null","<div style=""font-size:60px;"">+</div>","null","","fixation","","",""
"memory-trial","236","543378","0.0-18.0-1.95","5374","approach_avoid_sv1","""event"",""trial"",""time""
""fullscreenenter"",""1"",""2038""
","
","
","""event"",""trial"",""time""
""fullscreenenter"",""1"",""2038""
","
","","","","","","1847.2999999821186","images/bush6.png","","","memory_trial","2","maybe_old",""
"html-keyboard-response","237","543881","0.0-18.0-0.96","5374","approach_avoid_sv1","""event"",""trial"",""time""
""fullscreenenter"",""1"",""2038""
","
","
","""event"",""trial"",""time""
""fullscreenenter"",""1"",""2038""
","
","","","","","","null","<div style=""font-size:60px;"">+</div>","null","","fixation","","",""
"memory-trial","238","545785","0.0-18.0-1.96","5374","approach_avoid_sv1","""event"",""trial"",""time""
""fullscreenenter"",""1"",""2038""
","
","
","""event"",""trial"",""time""
""fullscreenenter"",""1"",""2038""
","
","","","","","","897.0999999940395","images/orange7.png","","","memory_trial","4","definitely_new",""
"html-keyboard-response","239","546289","0.0-18.0-0.97","5374","approach_avoid_sv1","""event"",""trial"",""time""
""fullscreenenter"",""1"",""2038""
","
","
","""event"",""trial"",""time""
""fullscreenenter"",""1"",""2038""
","
","","","","","","null","<div style=""font-size:60px;"">+</div>","null","","fixation","","",""
"memory-trial","240","548833","0.0-18.0-1.97","5374","approach_avoid_sv1","""event"",""trial"",""time""
""fullscreenenter"",""1"",""2038""
","
","
","""event"",""trial"",""time""
""fullscreenenter"",""1"",""2038""
","
","","","","","","1534.9000000059605","images/rabbit4.png","","","memory_trial","4","definitely_new",""
"html-keyboard-response","241","549338","0.0-18.0-0.98","5374","approach_avoid_sv1","""event"",""trial"",""time""
""fullscreenenter"",""1"",""2038""
","
","
","""event"",""trial"",""time""
""fullscreenenter"",""1"",""2038""
","
","","","","","","null","<div style=""font-size:60px;"">+</div>","null","","fixation","","",""
"memory-trial","242","551482","0.0-18.0-1.98","5374","approach_avoid_sv1","""event"",""trial"",""time""
""fullscreenenter"",""1"",""2038""
","
","
","""event"",""trial"",""time""
""fullscreenenter"",""1"",""2038""
","
","","","","","","1135.3999999761581","images/goat5.png","","","memory_trial","2","maybe_old",""
"html-keyboard-response","243","551985","0.0-18.0-0.99","5374","approach_avoid_sv1","""event"",""trial"",""time""
""fullscreenenter"",""1"",""2038""
","
","
","""event"",""trial"",""time""
""fullscreenenter"",""1"",""2038""
","
","","","","","","null","<div style=""font-size:60px;"">+</div>","null","","fixation","","",""
"memory-trial","244","553935","0.0-18.0-1.99","5374","approach_avoid_sv1","""event"",""trial"",""time""
""fullscreenenter"",""1"",""2038""
","
","
","""event"",""trial"",""time""
""fullscreenenter"",""1"",""2038""
","
","","","","","","944.6999999880791","images/cat2.png","","","memory_trial","4","definitely_new",""
"html-keyboard-response","245","554441","0.0-18.0-0.100","5374","approach_avoid_sv1","""event"",""trial"",""time""
""fullscreenenter"",""1"",""2038""
","
","
","""event"",""trial"",""time""
""fullscreenenter"",""1"",""2038""
","
","","","","","","null","<div style=""font-size:60px;"">+</div>","null","","fixation","","",""
"memory-trial","246","557352","0.0-18.0-1.100","5374","approach_avoid_sv1","""event"",""trial"",""time""
""fullscreenenter"",""1"",""2038""
","
","
","""event"",""trial"",""time""
""fullscreenenter"",""1"",""2038""
","
","","","","","","1900.9000000059605","images/horse5.png","","","memory_trial","3","maybe_new",""
"html-keyboard-response","247","557858","0.0-18.0-0.101","5374","approach_avoid_sv1","""event"",""trial"",""time""
""fullscreenenter"",""1"",""2038""
","
","
","""event"",""trial"",""time""
""fullscreenenter"",""1"",""2038""
","
","","","","","","null","<div style=""font-size:60px;"">+</div>","null","","fixation","","",""
"memory-trial","248","560616","0.0-18.0-1.101","5374","approach_avoid_sv1","""event"",""trial"",""time""
""fullscreenenter"",""1"",""2038""
","
","
","""event"",""trial"",""time""
""fullscreenenter"",""1"",""2038""
","
","","","","","","1755.699999988079","images/straw5.png","","","memory_trial","2","maybe_old",""
"html-keyboard-response","249","561120","0.0-18.0-0.102","5374","approach_avoid_sv1","""event"",""trial"",""time""
""fullscreenenter"",""1"",""2038""
","
","
","""event"",""trial"",""time""
""fullscreenenter"",""1"",""2038""
","
","","","","","","null","<div style=""font-size:60px;"">+</div>","null","","fixation","","",""
"memory-trial","250","564120","0.0-18.0-1.102","5374","approach_avoid_sv1","""event"",""trial"",""time""
""fullscreenenter"",""1"",""2038""
","
","
","""event"",""trial"",""time""
""fullscreenenter"",""1"",""2038""
","
","","","","","","1993.2999999821186","images/goat6.png","","","memory_trial","3","maybe_new",""
"html-keyboard-response","251","564624","0.0-18.0-0.103","5374","approach_avoid_sv1","""event"",""trial"",""time""
""fullscreenenter"",""1"",""2038""
","
","
","""event"",""trial"",""time""
""fullscreenenter"",""1"",""2038""
","
","","","","","","null","<div style=""font-size:60px;"">+</div>","null","","fixation","","",""
"memory-trial","252","567416","0.0-18.0-1.103","5374","approach_avoid_sv1","""event"",""trial"",""time""
""fullscreenenter"",""1"",""2038""
","
","
","""event"",""trial"",""time""
""fullscreenenter"",""1"",""2038""
","
","","","","","","1782.5","images/dog8.png","","","memory_trial","3","maybe_new",""
"html-keyboard-response","253","567921","0.0-18.0-0.104","5374","approach_avoid_sv1","""event"",""trial"",""time""
""fullscreenenter"",""1"",""2038""
","
","
","""event"",""trial"",""time""
""fullscreenenter"",""1"",""2038""
","
","","","","","","null","<div style=""font-size:60px;"">+</div>","null","","fixation","","",""
"memory-trial","254","570177","0.0-18.0-1.104","5374","approach_avoid_sv1","""event"",""trial"",""time""
""fullscreenenter"",""1"",""2038""
","
","
","""event"",""trial"",""time""
""fullscreenenter"",""1"",""2038""
","
","","","","","","1253.6000000238419","images/goat8.png","","","memory_trial","2","maybe_old",""
"html-keyboard-response","255","570681","0.0-18.0-0.105","5374","approach_avoid_sv1","""event"",""trial"",""time""
""fullscreenenter"",""1"",""2038""
","
","
","""event"",""trial"",""time""
""fullscreenenter"",""1"",""2038""
","
","","","","","","null","<div style=""font-size:60px;"">+</div>","null","","fixation","","",""
"memory-trial","256","572945","0.0-18.0-1.105","5374","approach_avoid_sv1","""event"",""trial"",""time""
""fullscreenenter"",""1"",""2038""
","
","
","""event"",""trial"",""time""
""fullscreenenter"",""1"",""2038""
","
","","","","","","1257","images/banana5.png","","","memory_trial","4","definitely_new",""
"html-keyboard-response","257","573449","0.0-18.0-0.106","5374","approach_avoid_sv1","""event"",""trial"",""time""
""fullscreenenter"",""1"",""2038""
","
","
","""event"",""trial"",""time""
""fullscreenenter"",""1"",""2038""
","
","","","","","","null","<div style=""font-size:60px;"">+</div>","null","","fixation","","",""
"memory-trial","258","576329","0.0-18.0-1.106","5374","approach_avoid_sv1","""event"",""trial"",""time""
""fullscreenenter"",""1"",""2038""
","
","
","""event"",""trial"",""time""
""fullscreenenter"",""1"",""2038""
","
","","","","","","1870.7000000178814","images/apple5.png","","","memory_trial","1","definitely_old",""
"html-keyboard-response","259","576832","0.0-18.0-0.107","5374","approach_avoid_sv1","""event"",""trial"",""time""
""fullscreenenter"",""1"",""2038""
","
","
","""event"",""trial"",""time""
""fullscreenenter"",""1"",""2038""
","
","","","","","","null","<div style=""font-size:60px;"">+</div>","null","","fixation","","",""
"memory-trial","260","579009","0.0-18.0-1.107","5374","approach_avoid_sv1","""event"",""trial"",""time""
""fullscreenenter"",""1"",""2038""
","
","
","""event"",""trial"",""time""
""fullscreenenter"",""1"",""2038""
","
","","","","","","1168.300000011921","images/sofa1.png","","","memory_trial","4","definitely_new",""
"html-keyboard-response","261","579513","0.0-18.0-0.108","5374","approach_avoid_sv1","""event"",""trial"",""time""
""fullscreenenter"",""1"",""2038""
","
","
","""event"",""trial"",""time""
""fullscreenenter"",""1"",""2038""
","
","","","","","","null","<div style=""font-size:60px;"">+</div>","null","","fixation","","",""
"memory-trial","262","581937","0.0-18.0-1.108","5374","approach_avoid_sv1","""event"",""trial"",""time""
""fullscreenenter"",""1"",""2038""
","
","
","""event"",""trial"",""time""
""fullscreenenter"",""1"",""2038""
","
","","","","","","1415.0999999940395","images/rodent1.png","","","memory_trial","4","definitely_new",""
"html-keyboard-response","263","582441","0.0-18.0-0.109","5374","approach_avoid_sv1","""event"",""trial"",""time""
""fullscreenenter"",""1"",""2038""
","
","
","""event"",""trial"",""time""
""fullscreenenter"",""1"",""2038""
","
","","","","","","null","<div style=""font-size:60px;"">+</div>","null","","fixation","","",""
"memory-trial","264","584889","0.0-18.0-1.109","5374","approach_avoid_sv1","""event"",""trial"",""time""
""fullscreenenter"",""1"",""2038""
","
","
","""event"",""trial"",""time""
""fullscreenenter"",""1"",""2038""
","
","","","","","","1442.7000000178814","images/cactus7.png","","","memory_trial","4","definitely_new",""
"html-keyboard-response","265","585393","0.0-18.0-0.110","5374","approach_avoid_sv1","""event"",""trial"",""time""
""fullscreenenter"",""1"",""2038""
","
","
","""event"",""trial"",""time""
""fullscreenenter"",""1"",""2038""
","
","","","","","","null","<div style=""font-size:60px;"">+</div>","null","","fixation","","",""
"memory-trial","266","587648","0.0-18.0-1.110","5374","approach_avoid_sv1","""event"",""trial"",""time""
""fullscreenenter"",""1"",""2038""
","
","
","""event"",""trial"",""time""
""fullscreenenter"",""1"",""2038""
","
","","","","","","1247.800000011921","images/rodent3.png","","","memory_trial","2","maybe_old",""
"html-keyboard-response","267","588153","0.0-18.0-0.111","5374","approach_avoid_sv1","""event"",""trial"",""time""
""fullscreenenter"",""1"",""2038""
","
","
","""event"",""trial"",""time""
""fullscreenenter"",""1"",""2038""
","
","","","","","","null","<div style=""font-size:60px;"">+</div>","null","","fixation","","",""
"memory-trial","268","591025","0.0-18.0-1.111","5374","approach_avoid_sv1","""event"",""trial"",""time""
""fullscreenenter"",""1"",""2038""
","
","
","""event"",""trial"",""time""
""fullscreenenter"",""1"",""2038""
","
","","","","","","1866.0999999940395","images/tree7.png","","","memory_trial","3","maybe_new",""
"html-keyboard-response","269","591529","0.0-18.0-0.112","5374","approach_avoid_sv1","""event"",""trial"",""time""
""fullscreenenter"",""1"",""2038""
","
","
","""event"",""trial"",""time""
""fullscreenenter"",""1"",""2038""
","
","","","","","","null","<div style=""font-size:60px;"">+</div>","null","","fixation","","",""
"memory-trial","270","594426","0.0-18.0-1.112","5374","approach_avoid_sv1","""event"",""trial"",""time""
""fullscreenenter"",""1"",""2038""
","
","
","""event"",""trial"",""time""
""fullscreenenter"",""1"",""2038""
","
","","","","","","1885.5999999940395","images/banana6.png","","","memory_trial","2","maybe_old",""
"html-keyboard-response","271","594929","0.0-18.0-0.113","5374","approach_avoid_sv1","""event"",""trial"",""time""
""fullscreenenter"",""1"",""2038""
","
","
","""event"",""trial"",""time""
""fullscreenenter"",""1"",""2038""
","
","","","","","","null","<div style=""font-size:60px;"">+</div>","null","","fixation","","",""
"memory-trial","272","597362","0.0-18.0-1.113","5374","approach_avoid_sv1","""event"",""trial"",""time""
""fullscreenenter"",""1"",""2038""
","
","
","""event"",""trial"",""time""
""fullscreenenter"",""1"",""2038""
","
","","","","","","1422.4000000059605","images/horse7.png","","","memory_trial","4","definitely_new",""
"html-keyboard-response","273","597865","0.0-18.0-0.114","5374","approach_avoid_sv1","""event"",""trial"",""time""
""fullscreenenter"",""1"",""2038""
","
","
","""event"",""trial"",""time""
""fullscreenenter"",""1"",""2038""
","
","","","","","","null","<div style=""font-size:60px;"">+</div>","null","","fixation","","",""
"memory-trial","274","600177","0.0-18.0-1.114","5374","approach_avoid_sv1","""event"",""trial"",""time""
""fullscreenenter"",""1"",""2038""
","
","
","""event"",""trial"",""time""
""fullscreenenter"",""1"",""2038""
","
","","","","","","1306.1000000238419","images/train8.png","","","memory_trial","1","definitely_old",""
"html-keyboard-response","275","600687","0.0-18.0-0.115","5374","approach_avoid_sv1","""event"",""trial"",""time""
""fullscreenenter"",""1"",""2038""
","
","
","""event"",""trial"",""time""
""fullscreenenter"",""1"",""2038""
","
","","","","","","null","<div style=""font-size:60px;"">+</div>","null","","fixation","","",""
"memory-trial","276","602665","0.0-18.0-1.115","5374","approach_avoid_sv1","""event"",""trial"",""time""
""fullscreenenter"",""1"",""2038""
","
","
","""event"",""trial"",""time""
""fullscreenenter"",""1"",""2038""
","
","","","","","","969.9000000059605","images/train5.png","","","memory_trial","1","definitely_old",""
"html-keyboard-response","277","603169","0.0-18.0-0.116","5374","approach_avoid_sv1","""event"",""trial"",""time""
""fullscreenenter"",""1"",""2038""
","
","
","""event"",""trial"",""time""
""fullscreenenter"",""1"",""2038""
","
","","","","","","null","<div style=""font-size:60px;"">+</div>","null","","fixation","","",""
"memory-trial","278","607024","0.0-18.0-1.116","5374","approach_avoid_sv1","""event"",""trial"",""time""
""fullscreenenter"",""1"",""2038""
","
","
","""event"",""trial"",""time""
""fullscreenenter"",""1"",""2038""
","
","","","","","","2852.2000000178814","images/cow4.png","","","memory_trial","3","maybe_new",""
"html-keyboard-response","279","607529","0.0-18.0-0.117","5374","approach_avoid_sv1","""event"",""trial"",""time""
""fullscreenenter"",""1"",""2038""
","
","
","""event"",""trial"",""time""
""fullscreenenter"",""1"",""2038""
","
","","","","","","null","<div style=""font-size:60px;"">+</div>","null","","fixation","","",""
"memory-trial","280","610345","0.0-18.0-1.117","5374","approach_avoid_sv1","""event"",""trial"",""time""
""fullscreenenter"",""1"",""2038""
","
","
","""event"",""trial"",""time""
""fullscreenenter"",""1"",""2038""
","
","","","","","","1804","images/bush7.png","","","memory_trial","2","maybe_old",""
"html-keyboard-response","281","610849","0.0-18.0-0.118","5374","approach_avoid_sv1","""event"",""trial"",""time""
""fullscreenenter"",""1"",""2038""
","
","
","""event"",""trial"",""time""
""fullscreenenter"",""1"",""2038""
","
","","","","","","null","<div style=""font-size:60px;"">+</div>","null","","fixation","","",""
"memory-trial","282","613216","0.0-18.0-1.118","5374","approach_avoid_sv1","""event"",""trial"",""time""
""fullscreenenter"",""1"",""2038""
","
","
","""event"",""trial"",""time""
""fullscreenenter"",""1"",""2038""
","
","","","","","","1340.5999999940395","images/bush8.png","","","memory_trial","2","maybe_old",""
"html-keyboard-response","283","613721","0.0-18.0-0.119","5374","approach_avoid_sv1","""event"",""trial"",""time""
""fullscreenenter"",""1"",""2038""
","
","
","""event"",""trial"",""time""
""fullscreenenter"",""1"",""2038""
","
","","","","","","null","<div style=""font-size:60px;"">+</div>","null","","fixation","","",""
"memory-trial","284","617689","0.0-18.0-1.119","5374","approach_avoid_sv1","""event"",""trial"",""time""
""fullscreenenter"",""1"",""2038""
","
","
","""event"",""trial"",""time""
""fullscreenenter"",""1"",""2038""
","
","","","","","","2961.7999999821186","images/bed3.png","","","memory_trial","2","maybe_old",""
"html-keyboard-response","285","618193","0.0-18.0-0.120","5374","approach_avoid_sv1","""event"",""trial"",""time""
""fullscreenenter"",""1"",""2038""
","
","
","""event"",""trial"",""time""
""fullscreenenter"",""1"",""2038""
","
","","","","","","null","<div style=""font-size:60px;"">+</div>","null","","fixation","","",""
"memory-trial","286","620226","0.0-18.0-1.120","5374","approach_avoid_sv1","""event"",""trial"",""time""
""fullscreenenter"",""1"",""2038""
","
","
","""event"",""trial"",""time""
""fullscreenenter"",""1"",""2038""
","
","","","","","","1021.5","images/sofa3.png","","","memory_trial","2","maybe_old",""
"html-keyboard-response","287","620730","0.0-18.0-0.121","5374","approach_avoid_sv1","""event"",""trial"",""time""
""fullscreenenter"",""1"",""2038""
","
","
","""event"",""trial"",""time""
""fullscreenenter"",""1"",""2038""
","
","","","","","","null","<div style=""font-size:60px;"">+</div>","null","","fixation","","",""
"memory-trial","288","623442","0.0-18.0-1.121","5374","approach_avoid_sv1","""event"",""trial"",""time""
""fullscreenenter"",""1"",""2038""
","
","
","""event"",""trial"",""time""
""fullscreenenter"",""1"",""2038""
","
","","","","","","1706.800000011921","images/rodent6.png","","","memory_trial","3","maybe_new",""
"html-keyboard-response","289","623945","0.0-18.0-0.122","5374","approach_avoid_sv1","""event"",""trial"",""time""
""fullscreenenter"",""1"",""2038""
","
","
","""event"",""trial"",""time""
""fullscreenenter"",""1"",""2038""
","
","","","","","","null","<div style=""font-size:60px;"">+</div>","null","","fixation","","",""
"memory-trial","290","626298","0.0-18.0-1.122","5374","approach_avoid_sv1","""event"",""trial"",""time""
""fullscreenenter"",""1"",""2038""
","
","
","""event"",""trial"",""time""
""fullscreenenter"",""1"",""2038""
","
","","","","","","1347.5","images/table6.png","","","memory_trial","4","definitely_new",""
"html-keyboard-response","291","626801","0.0-18.0-0.123","5374","approach_avoid_sv1","""event"",""trial"",""time""
""fullscreenenter"",""1"",""2038""
","
","
","""event"",""trial"",""time""
""fullscreenenter"",""1"",""2038""
","
","","","","","","null","<div style=""font-size:60px;"">+</div>","null","","fixation","","",""
"memory-trial","292","629385","0.0-18.0-1.123","5374","approach_avoid_sv1","""event"",""trial"",""time""
""fullscreenenter"",""1"",""2038""
","
","
","""event"",""trial"",""time""
""fullscreenenter"",""1"",""2038""
","
","","","","","","1576.2000000178814","images/cow1.png","","","memory_trial","1","definitely_old",""
"html-keyboard-response","293","629889","0.0-18.0-0.124","5374","approach_avoid_sv1","""event"",""trial"",""time""
""fullscreenenter"",""1"",""2038""
","
","
","""event"",""trial"",""time""
""fullscreenenter"",""1"",""2038""
","
","","","","","","null","<div style=""font-size:60px;"">+</div>","null","","fixation","","",""
"memory-trial","294","632625","0.0-18.0-1.124","5374","approach_avoid_sv1","""event"",""trial"",""time""
""fullscreenenter"",""1"",""2038""
","
","
","""event"",""trial"",""time""
""fullscreenenter"",""1"",""2038""
","
","","","","","","1733","images/plane2.png","","","memory_trial","1","definitely_old",""
"html-keyboard-response","295","633129","0.0-18.0-0.125","5374","approach_avoid_sv1","""event"",""trial"",""time""
""fullscreenenter"",""1"",""2038""
","
","
","""event"",""trial"",""time""
""fullscreenenter"",""1"",""2038""
","
","","","","","","null","<div style=""font-size:60px;"">+</div>","null","","fixation","","",""
"memory-trial","296","635225","0.0-18.0-1.125","5374","approach_avoid_sv1","""event"",""trial"",""time""
""fullscreenenter"",""1"",""2038""
","
","
","""event"",""trial"",""time""
""fullscreenenter"",""1"",""2038""
","
","","","","","","1090.5999999940395","images/sheep8.png","","","memory_trial","4","definitely_new",""
"html-keyboard-response","297","635729","0.0-18.0-0.126","5374","approach_avoid_sv1","""event"",""trial"",""time""
""fullscreenenter"",""1"",""2038""
","
","
","""event"",""trial"",""time""
""fullscreenenter"",""1"",""2038""
","
