"trial_type","trial_index","time_elapsed","internal_node_id","subject_id","task_version","interactions","blur_events","focus_events","fullscreenenter_events","fullscreenexit_events","success","timeout","failed_images","failed_audio","failed_video","rt","stimulus","response","button_pressed","task_part","key_press","answer","correct"
"pavlovia","0","1","0.0-0.0","4659","approach_avoid_sv1","""event"",""trial"",""time""
""fullscreenenter"",""1"",""2873""
","
","
","""event"",""trial"",""time""
""fullscreenenter"",""1"",""2873""
","
","","","","","","","","","","","","",""
"fullscreen","1","3856","0.0-1.0","4659","approach_avoid_sv1","""event"",""trial"",""time""
""fullscreenenter"",""1"",""2873""
","
","
","""event"",""trial"",""time""
""fullscreenenter"",""1"",""2873""
","
","true","","","","","","","","","","","",""
"preload","2","5460","0.0-2.0","4659","approach_avoid_sv1","""event"",""trial"",""time""
""fullscreenenter"",""1"",""2873""
","
","
","""event"",""trial"",""time""
""fullscreenenter"",""1"",""2873""
","
","true","false","[]","[]","[]","","","","","","","",""
"preload","3","6796","0.0-3.0","4659","approach_avoid_sv1","""event"",""trial"",""time""
""fullscreenenter"",""1"",""2873""
","
","
","""event"",""trial"",""time""
""fullscreenenter"",""1"",""2873""
","
","true","false","[]","[]","[]","","","","","","","",""
"preload","4","7002","0.0-4.0","4659","approach_avoid_sv1","""event"",""trial"",""time""
""fullscreenenter"",""1"",""2873""
","
","
","""event"",""trial"",""time""
""fullscreenenter"",""1"",""2873""
","
","true","false","[]","[]","[]","","","","","","","",""
"audio-keyboard-response","5","8898","0.0-5.0","4659","approach_avoid_sv1","""event"",""trial"",""time""
""fullscreenenter"",""1"",""2873""
","
","
","""event"",""trial"",""time""
""fullscreenenter"",""1"",""2873""
","
","","","","","","1898.231292517007","audio/beep_loop.wav"," ","","","","",""
"audio-button-response","6","11499","0.0-6.0","4659","approach_avoid_sv1","""event"",""trial"",""time""
""fullscreenenter"",""1"",""2873""
","
","
","""event"",""trial"",""time""
""fullscreenenter"",""1"",""2873""
","
","","","","","","2601","audio/turtle.wav","0","","","","",""
"audio-button-response","7","13549","0.0-7.0","4659","approach_avoid_sv1","""event"",""trial"",""time""
""fullscreenenter"",""1"",""2873""
","
","
","""event"",""trial"",""time""
""fullscreenenter"",""1"",""2873""
","
","","","","","","1045","audio/shark.wav","2","","","","",""
"preload","8","18721","0.0-8.0","4659","approach_avoid_sv1","""event"",""trial"",""time""
""fullscreenenter"",""1"",""2873""
","
","
","""event"",""trial"",""time""
""fullscreenenter"",""1"",""2873""
","
","true","false","[]","[]","[]","","","","","","","",""
"learning-instructions","9","24883","0.0-9.0-0.0","4659","approach_avoid_sv1","""event"",""trial"",""time""
""fullscreenenter"",""1"",""2873""
","
","
","""event"",""trial"",""time""
""fullscreenenter"",""1"",""2873""
","
","","","","","","1687.3999999761581","<p> Welcome back! </p><p> Last week, you had to make choices about lots of different items.  </p>","","0","instructions","","",""
"learning-instructions","10","30202","0.0-9.0-0.1","4659","approach_avoid_sv1","""event"",""trial"",""time""
""fullscreenenter"",""1"",""2873""
","
","
","""event"",""trial"",""time""
""fullscreenenter"",""1"",""2873""
","
","","","","","","1195.199999988079","<p> Today, we are going to ask you to try to remember all the items. </p>","","0","instructions","","",""
"learning-instructions","11","40700","0.0-9.0-0.2","4659","approach_avoid_sv1","""event"",""trial"",""time""
""fullscreenenter"",""1"",""2873""
","
","
","""event"",""trial"",""time""
""fullscreenenter"",""1"",""2873""
","
","","","","","","363","<p> On every trial, you will see an image. </p><p> The image may be an OLD image you saw during the games last week or it may be a NEW image that was not presented. </p>","","0","instructions","","",""
"learning-instructions","12","49602","0.0-9.0-0.3","4659","approach_avoid_sv1","""event"",""trial"",""time""
""fullscreenenter"",""1"",""2873""
","
","
","""event"",""trial"",""time""
""fullscreenenter"",""1"",""2873""
","
","","","","","","399.89999997615814","<p> You need to select whether the image is:  </p><p>  'Definitely old', 'Maybe old', 'Maybe new', or 'Definitely new.'  </p><div class=""mem-choice-instructions-grid""><div class=""choice-option"" id=""choice-option-1"" ><img src=""images/definitely_old_1.png"" id=""choice-option-img-1"" class=""choice-option-img"" stage=""1""></div><div class=""choice-option"" id=""choice-option-2"" ><img src=""images/maybe_old_1.png"" id=""choice-option-img-2"" class=""choice-option-img"" stage=""1""></div><div class=""choice-option"" id=""choice-option-3"" ><img src=""images/maybe_new_1.png"" id=""choice-option-img-3"" class=""choice-option-img"" stage=""1""></div><div class=""choice-option"" id=""choice-option-4"" > <img src=""images/definitely_new_1.png"" id=""choice-option-img-4"" class=""choice-option-img"" stage=""1""></div></div>","","0","instructions","","",""
"learning-instructions","13","56499","0.0-9.0-0.4","4659","approach_avoid_sv1","""event"",""trial"",""time""
""fullscreenenter"",""1"",""2873""
","
","
","""event"",""trial"",""time""
""fullscreenenter"",""1"",""2873""
","
","","","","","","377.5","<p> You should use the 1, 2, 3, and 4 keys to make your responses.  </p><div class=""mem-choice-instructions-grid""><div class=""choice-option"" id=""choice-option-1"" ><img src=""images/definitely_old.png"" id=""choice-option-img-1"" class=""choice-option-img"" stage=""1""></div><div class=""choice-option"" id=""choice-option-2"" ><img src=""images/maybe_old.png"" id=""choice-option-img-2"" class=""choice-option-img"" stage=""1""></div><div class=""choice-option"" id=""choice-option-3"" ><img src=""images/maybe_new.png"" id=""choice-option-img-3"" class=""choice-option-img"" stage=""1""></div><div class=""choice-option"" id=""choice-option-4"" > <img src=""images/definitely_new.png"" id=""choice-option-img-4"" class=""choice-option-img"" stage=""1""></div></div>","","0","instructions","","",""
"learning-instructions","14","63166","0.0-9.0-0.5","4659","approach_avoid_sv1","""event"",""trial"",""time""
""fullscreenenter"",""1"",""2873""
","
","
","""event"",""trial"",""time""
""fullscreenenter"",""1"",""2873""
","
","","","","","","340.89999997615814","<p> You will have 10 seconds to make each response.  </p><p>  Make sure to respond before time runs out! </p>","","0","instructions","","",""
"learning-instructions","15","70586","0.0-9.0-0.6","4659","approach_avoid_sv1","""event"",""trial"",""time""
""fullscreenenter"",""1"",""2873""
","
","
","""event"",""trial"",""time""
""fullscreenenter"",""1"",""2873""
","
","","","","","","346.60000002384186","<p> Today, you will see each image ONCE only.  </p><p>  That means none of the images will repeat. </p>","","0","instructions","","",""
"learning-instructions","16","83634","0.0-9.0-0.7","4659","approach_avoid_sv1","""event"",""trial"",""time""
""fullscreenenter"",""1"",""2873""
","
","
","""event"",""trial"",""time""
""fullscreenenter"",""1"",""2873""
","
","","","","","","380.60000002384186","<p> Before you play the real game, it is time to practice. </p><p>  Just like in the real game, some of the images in the practice will be ones you have seen before. </p><p>  Others will be entirely new. </p>","","0","instructions","","",""
"html-button-response","17","85168","0.0-10.0","4659","approach_avoid_sv1","""event"",""trial"",""time""
""fullscreenenter"",""1"",""2873""
","
","
","""event"",""trial"",""time""
""fullscreenenter"",""1"",""2873""
","
","","","","","","1425.3999999761581","<p> Ready to practice? </p><p> Remember, use the 1, 2, 3, and 4 keys to make your responses. </p>","0","","instructions","","",""
"html-keyboard-response","18","85779","0.0-11.0-0.0","4659","approach_avoid_sv1","""event"",""trial"",""time""
""fullscreenenter"",""1"",""2873""
","
","
","""event"",""trial"",""time""
""fullscreenenter"",""1"",""2873""
","
","","","","","","null","<div style=""font-size:60px;"">+</div>","null","","fixation","","",""
"memory-trial","19","89204","0.0-11.0-1.0","4659","approach_avoid_sv1","""event"",""trial"",""time""
""fullscreenenter"",""1"",""2873""
","
","
","""event"",""trial"",""time""
""fullscreenenter"",""1"",""2873""
","
","","","","","","2418.300000011921","images/ball1.png","","","practice","2","maybe_old",""
"html-keyboard-response","20","89707","0.0-11.0-0.1","4659","approach_avoid_sv1","""event"",""trial"",""time""
""fullscreenenter"",""1"",""2873""
","
","
","""event"",""trial"",""time""
""fullscreenenter"",""1"",""2873""
","
","","","","","","null","<div style=""font-size:60px;"">+</div>","null","","fixation","","",""
"memory-trial","21","94084","0.0-11.0-1.1","4659","approach_avoid_sv1","""event"",""trial"",""time""
""fullscreenenter"",""1"",""2873""
","
","
","""event"",""trial"",""time""
""fullscreenenter"",""1"",""2873""
","
","","","","","","3365.2000000476837","images/racket2.png","","","practice","3","maybe_new",""
"html-keyboard-response","22","94591","0.0-11.0-0.2","4659","approach_avoid_sv1","""event"",""trial"",""time""
""fullscreenenter"",""1"",""2873""
","
","
","""event"",""trial"",""time""
""fullscreenenter"",""1"",""2873""
","
","","","","","","null","<div style=""font-size:60px;"">+</div>","null","","fixation","","",""
"memory-trial","23","97812","0.0-11.0-1.2","4659","approach_avoid_sv1","""event"",""trial"",""time""
""fullscreenenter"",""1"",""2873""
","
","
","""event"",""trial"",""time""
""fullscreenenter"",""1"",""2873""
","
","","","","","","2215.5","images/ball3.png","","","practice","3","maybe_new",""
"html-keyboard-response","24","98316","0.0-11.0-0.3","4659","approach_avoid_sv1","""event"",""trial"",""time""
""fullscreenenter"",""1"",""2873""
","
","
","""event"",""trial"",""time""
""fullscreenenter"",""1"",""2873""
","
","","","","","","null","<div style=""font-size:60px;"">+</div>","null","","fixation","","",""
"memory-trial","25","100468","0.0-11.0-1.3","4659","approach_avoid_sv1","""event"",""trial"",""time""
""fullscreenenter"",""1"",""2873""
","
","
","""event"",""trial"",""time""
""fullscreenenter"",""1"",""2873""
","
","","","","","","1139.800000011921","images/racket1.png","","","practice","1","definitely_old",""
"html-keyboard-response","26","100972","0.0-11.0-0.4","4659","approach_avoid_sv1","""event"",""trial"",""time""
""fullscreenenter"",""1"",""2873""
","
","
","""event"",""trial"",""time""
""fullscreenenter"",""1"",""2873""
","
","","","","","","null","<div style=""font-size:60px;"">+</div>","null","","fixation","","",""
"memory-trial","27","103268","0.0-11.0-1.4","4659","approach_avoid_sv1","""event"",""trial"",""time""
""fullscreenenter"",""1"",""2873""
","
","
","""event"",""trial"",""time""
""fullscreenenter"",""1"",""2873""
","
","","","","","","1290.5","images/ball5.png","","","practice","1","definitely_old",""
"html-keyboard-response","28","103771","0.0-11.0-0.5","4659","approach_avoid_sv1","""event"",""trial"",""time""
""fullscreenenter"",""1"",""2873""
","
","
","""event"",""trial"",""time""
""fullscreenenter"",""1"",""2873""
","
","","","","","","null","<div style=""font-size:60px;"">+</div>","null","","fixation","","",""
"memory-trial","29","106284","0.0-11.0-1.5","4659","approach_avoid_sv1","""event"",""trial"",""time""
""fullscreenenter"",""1"",""2873""
","
","
","""event"",""trial"",""time""
""fullscreenenter"",""1"",""2873""
","
","","","","","","1504.199999988079","images/racket3.png","","","practice","3","maybe_new",""
"html-keyboard-response","30","106791","0.0-11.0-0.6","4659","approach_avoid_sv1","""event"",""trial"",""time""
""fullscreenenter"",""1"",""2873""
","
","
","""event"",""trial"",""time""
""fullscreenenter"",""1"",""2873""
","
","","","","","","null","<div style=""font-size:60px;"">+</div>","null","","fixation","","",""
"memory-trial","31","109916","0.0-11.0-1.6","4659","approach_avoid_sv1","""event"",""trial"",""time""
""fullscreenenter"",""1"",""2873""
","
","
","""event"",""trial"",""time""
""fullscreenenter"",""1"",""2873""
","
","","","","","","2113.100000023842","images/ball2.png","","","practice","2","maybe_old",""
"html-keyboard-response","32","110418","0.0-11.0-0.7","4659","approach_avoid_sv1","""event"",""trial"",""time""
""fullscreenenter"",""1"",""2873""
","
","
","""event"",""trial"",""time""
""fullscreenenter"",""1"",""2873""
","
","","","","","","null","<div style=""font-size:60px;"">+</div>","null","","fixation","","",""
"memory-trial","33","113571","0.0-11.0-1.7","4659","approach_avoid_sv1","""event"",""trial"",""time""
""fullscreenenter"",""1"",""2873""
","
","
","""event"",""trial"",""time""
""fullscreenenter"",""1"",""2873""
","
","","","","","","2141.699999988079","images/racket5.png","","","practice","3","maybe_new",""
"learning-instructions","34","123795","0.0-12.0-0.0","4659","approach_avoid_sv1","""event"",""trial"",""time""
""fullscreenenter"",""1"",""2873""
","
","
","""event"",""trial"",""time""
""fullscreenenter"",""1"",""2873""
","
","","","","","","2897.099999964237","<p> Great! You have completed the practice. </p><p> Before you start, we're going to ask you a few questions about how the game works.  </p>","","0","instructions","","",""
"preload","35","125496","0.0-13.0","4659","approach_avoid_sv1","""event"",""trial"",""time""
""fullscreenenter"",""1"",""2873""
","
","
","""event"",""trial"",""time""
""fullscreenenter"",""1"",""2873""
","
","true","false","[]","[]","[]","","","","","","","",""
"comp-q","36","132551","0.0-14.0-0.0","4659","approach_avoid_sv1","""event"",""trial"",""time""
""fullscreenenter"",""1"",""2873""
","
","
","""event"",""trial"",""time""
""fullscreenenter"",""1"",""2873""
","
","","","","","","1227.199999988079","<p> <b> True or False? </b> </p><p> In this game, you will only see each image once. </p>","","0","comp_question","","","true"
"comp-q","37","142417","0.0-14.0-1.0","4659","approach_avoid_sv1","""event"",""trial"",""time""
""fullscreenenter"",""1"",""2873""
","
","
","""event"",""trial"",""time""
""fullscreenenter"",""1"",""2873""
","
","","","","","","3524.300000011921","<p> <b> That's right! </b> You will see many different images <i> one time each </i> in this game. </p>","","0","comp_answer","","",""
"comp-q","38","149400","0.0-15.0-0.0","4659","approach_avoid_sv1","""event"",""trial"",""time""
""fullscreenenter"",""1"",""2873""
","
","
","""event"",""trial"",""time""
""fullscreenenter"",""1"",""2873""
","
","","","","","","1968","<p> <b> True or False? </b> </p><p> You should use the mouse and click to make your response. </p>","","1","comp_question","","","true"
"comp-q","39","164683","0.0-15.0-1.0","4659","approach_avoid_sv1","""event"",""trial"",""time""
""fullscreenenter"",""1"",""2873""
","
","
","""event"",""trial"",""time""
""fullscreenenter"",""1"",""2873""
","
","","","","","","8782","<p><b> That's right! </b> You should use the '1', '2', '3', and '4' keys to make your response. </p>","","0","comp_answer","","",""
"comp-q","40","171262","0.0-16.0-0.0","4659","approach_avoid_sv1","""event"",""trial"",""time""
""fullscreenenter"",""1"",""2873""
","
","
","""event"",""trial"",""time""
""fullscreenenter"",""1"",""2873""
","
","","","","","","899.8000000119209","<p> <b> True or False? </b> </p><p> You will have as much time as you want to make each choice. </p>","","1","comp_question","","","true"
"comp-q","41","177130","0.0-16.0-1.0","4659","approach_avoid_sv1","""event"",""trial"",""time""
""fullscreenenter"",""1"",""2873""
","
","
","""event"",""trial"",""time""
""fullscreenenter"",""1"",""2873""
","
","","","","","","1172.699999988079","<p> <b> That's right! </b> You will only have 10 seconds to make each choice. </p>","","0","comp_answer","","",""
"learning-instructions","42","187002","0.0-17.0","4659","approach_avoid_sv1","""event"",""trial"",""time""
""fullscreenenter"",""1"",""2873""
","
","
","""event"",""trial"",""time""
""fullscreenenter"",""1"",""2873""
","
","","","","","","1199.0999999642372","<p> Great! You are now ready to begin the game. </p><p> Remember, use the 1, 2, 3, and 4 keys to make your responses. </p>","","0","instructions","","",""
"html-keyboard-response","43","187609","0.0-18.0-0.0","4659","approach_avoid_sv1","""event"",""trial"",""time""
""fullscreenenter"",""1"",""2873""
","
","
","""event"",""trial"",""time""
""fullscreenenter"",""1"",""2873""
","
","","","","","","null","<div style=""font-size:60px;"">+</div>","null","","fixation","","",""
"memory-trial","44","190789","0.0-18.0-1.0","4659","approach_avoid_sv1","""event"",""trial"",""time""
""fullscreenenter"",""1"",""2873""
","
","
","""event"",""trial"",""time""
""fullscreenenter"",""1"",""2873""
","
","","","","","","2170.899999976158","images/straw5.png","","","memory_trial","4","definitely_new",""
"html-keyboard-response","45","191297","0.0-18.0-0.1","4659","approach_avoid_sv1","""event"",""trial"",""time""
""fullscreenenter"",""1"",""2873""
","
","
","""event"",""trial"",""time""
""fullscreenenter"",""1"",""2873""
","
","","","","","","null","<div style=""font-size:60px;"">+</div>","null","","fixation","","",""
"memory-trial","46","193881","0.0-18.0-1.1","4659","approach_avoid_sv1","""event"",""trial"",""time""
""fullscreenenter"",""1"",""2873""
","
","
","""event"",""trial"",""time""
""fullscreenenter"",""1"",""2873""
","
","","","","","","1575.5","images/boat8.png","","","memory_trial","4","definitely_new",""
"html-keyboard-response","47","194388","0.0-18.0-0.2","4659","approach_avoid_sv1","""event"",""trial"",""time""
""fullscreenenter"",""1"",""2873""
","
","
","""event"",""trial"",""time""
""fullscreenenter"",""1"",""2873""
","
","","","","","","null","<div style=""font-size:60px;"">+</div>","null","","fixation","","",""
"memory-trial","48","196553","0.0-18.0-1.2","4659","approach_avoid_sv1","""event"",""trial"",""time""
""fullscreenenter"",""1"",""2873""
","
","
","""event"",""trial"",""time""
""fullscreenenter"",""1"",""2873""
","
","","","","","","1157.1000000238419","images/rabbit2.png","","","memory_trial","1","definitely_old",""
"html-keyboard-response","49","197057","0.0-18.0-0.3","4659","approach_avoid_sv1","""event"",""trial"",""time""
""fullscreenenter"",""1"",""2873""
","
","
","""event"",""trial"",""time""
""fullscreenenter"",""1"",""2873""
","
","","","","","","null","<div style=""font-size:60px;"">+</div>","null","","fixation","","",""
"memory-trial","50","200088","0.0-18.0-1.3","4659","approach_avoid_sv1","""event"",""trial"",""time""
""fullscreenenter"",""1"",""2873""
","
","
","""event"",""trial"",""time""
""fullscreenenter"",""1"",""2873""
","
","","","","","","2024.699999988079","images/horse3.png","","","memory_trial","2","maybe_old",""
"html-keyboard-response","51","200595","0.0-18.0-0.4","4659","approach_avoid_sv1","""event"",""trial"",""time""
""fullscreenenter"",""1"",""2873""
","
","
","""event"",""trial"",""time""
""fullscreenenter"",""1"",""2873""
","
","","","","","","null","<div style=""font-size:60px;"">+</div>","null","","fixation","","",""
"memory-trial","52","204512","0.0-18.0-1.4","4659","approach_avoid_sv1","""event"",""trial"",""time""
""fullscreenenter"",""1"",""2873""
","
","
","""event"",""trial"",""time""
""fullscreenenter"",""1"",""2873""
","
","","","","","","2906","images/truck2.png","","","memory_trial","2","maybe_old",""
"html-keyboard-response","53","205016","0.0-18.0-0.5","4659","approach_avoid_sv1","""event"",""trial"",""time""
""fullscreenenter"",""1"",""2873""
","
","
","""event"",""trial"",""time""
""fullscreenenter"",""1"",""2873""
","
","","","","","","null","<div style=""font-size:60px;"">+</div>","null","","fixation","","",""
"memory-trial","54","208480","0.0-18.0-1.5","4659","approach_avoid_sv1","""event"",""trial"",""time""
""fullscreenenter"",""1"",""2873""
","
","
","""event"",""trial"",""time""
""fullscreenenter"",""1"",""2873""
","
","","","","","","2456","images/sofa2.png","","","memory_trial","1","definitely_old",""
"html-keyboard-response","55","208988","0.0-18.0-0.6","4659","approach_avoid_sv1","""event"",""trial"",""time""
""fullscreenenter"",""1"",""2873""
","
","
","""event"",""trial"",""time""
""fullscreenenter"",""1"",""2873""
","
","","","","","","null","<div style=""font-size:60px;"">+</div>","null","","fixation","","",""
"memory-trial","56","211800","0.0-18.0-1.6","4659","approach_avoid_sv1","""event"",""trial"",""time""
""fullscreenenter"",""1"",""2873""
","
","
","""event"",""trial"",""time""
""fullscreenenter"",""1"",""2873""
","
","","","","","","1806","images/apple3.png","","","memory_trial","1","definitely_old",""
"html-keyboard-response","57","212305","0.0-18.0-0.7","4659","approach_avoid_sv1","""event"",""trial"",""time""
""fullscreenenter"",""1"",""2873""
","
","
","""event"",""trial"",""time""
""fullscreenenter"",""1"",""2873""
","
","","","","","","null","<div style=""font-size:60px;"">+</div>","null","","fixation","","",""
"memory-trial","58","215088","0.0-18.0-1.7","4659","approach_avoid_sv1","""event"",""trial"",""time""
""fullscreenenter"",""1"",""2873""
","
","
","""event"",""trial"",""time""
""fullscreenenter"",""1"",""2873""
","
","","","","","","1771.1000000238419","images/tree3.png","","","memory_trial","3","maybe_new",""
"html-keyboard-response","59","215593","0.0-18.0-0.8","4659","approach_avoid_sv1","""event"",""trial"",""time""
""fullscreenenter"",""1"",""2873""
","
","
","""event"",""trial"",""time""
""fullscreenenter"",""1"",""2873""
","
","","","","","","null","<div style=""font-size:60px;"">+</div>","null","","fixation","","",""
"memory-trial","60","219280","0.0-18.0-1.8","4659","approach_avoid_sv1","""event"",""trial"",""time""
""fullscreenenter"",""1"",""2873""
","
","
","""event"",""trial"",""time""
""fullscreenenter"",""1"",""2873""
","
","","","","","","2681.5","images/bush2.png","","","memory_trial","3","maybe_new",""
"html-keyboard-response","61","219788","0.0-18.0-0.9","4659","approach_avoid_sv1","""event"",""trial"",""time""
""fullscreenenter"",""1"",""2873""
","
","
","""event"",""trial"",""time""
""fullscreenenter"",""1"",""2873""
","
","","","","","","null","<div style=""font-size:60px;"">+</div>","null","","fixation","","",""
"memory-trial","62","221848","0.0-18.0-1.9","4659","approach_avoid_sv1","""event"",""trial"",""time""
""fullscreenenter"",""1"",""2873""
","
","
","""event"",""trial"",""time""
""fullscreenenter"",""1"",""2873""
","
","","","","","","1048.4000000357628","images/sofa4.png","","","memory_trial","1","definitely_old",""
"html-keyboard-response","63","222352","0.0-18.0-0.10","4659","approach_avoid_sv1","""event"",""trial"",""time""
""fullscreenenter"",""1"",""2873""
","
","
","""event"",""trial"",""time""
""fullscreenenter"",""1"",""2873""
","
","","","","","","null","<div style=""font-size:60px;"">+</div>","null","","fixation","","",""
"memory-trial","64","225240","0.0-18.0-1.10","4659","approach_avoid_sv1","""event"",""trial"",""time""
""fullscreenenter"",""1"",""2873""
","
","
","""event"",""trial"",""time""
""fullscreenenter"",""1"",""2873""
","
","","","","","","1876.7999999523163","images/chair6.png","","","memory_trial","3","maybe_new",""
"html-keyboard-response","65","225744","0.0-18.0-0.11","4659","approach_avoid_sv1","""event"",""trial"",""time""
""fullscreenenter"",""1"",""2873""
","
","
","""event"",""trial"",""time""
""fullscreenenter"",""1"",""2873""
","
","","","","","","null","<div style=""font-size:60px;"">+</div>","null","","fixation","","",""
"memory-trial","66","227912","0.0-18.0-1.11","4659","approach_avoid_sv1","""event"",""trial"",""time""
""fullscreenenter"",""1"",""2873""
","
","
","""event"",""trial"",""time""
""fullscreenenter"",""1"",""2873""
","
","","","","","","1161.3999999761581","images/cactus5.png","","","memory_trial","4","definitely_new",""
"html-keyboard-response","67","228418","0.0-18.0-0.12","4659","approach_avoid_sv1","""event"",""trial"",""time""
""fullscreenenter"",""1"",""2873""
","
","
","""event"",""trial"",""time""
""fullscreenenter"",""1"",""2873""
","
","","","","","","null","<div style=""font-size:60px;"">+</div>","null","","fixation","","",""
"memory-trial","68","231496","0.0-18.0-1.12","4659","approach_avoid_sv1","""event"",""trial"",""time""
""fullscreenenter"",""1"",""2873""
","
","
","""event"",""trial"",""time""
""fullscreenenter"",""1"",""2873""
","
","","","","","","2070.900000035763","images/bush3.png","","","memory_trial","2","maybe_old",""
"html-keyboard-response","69","232000","0.0-18.0-0.13","4659","approach_avoid_sv1","""event"",""trial"",""time""
""fullscreenenter"",""1"",""2873""
","
","
","""event"",""trial"",""time""
""fullscreenenter"",""1"",""2873""
","
","","","","","","null","<div style=""font-size:60px;"">+</div>","null","","fixation","","",""
"memory-trial","70","234424","0.0-18.0-1.13","4659","approach_avoid_sv1","""event"",""trial"",""time""
""fullscreenenter"",""1"",""2873""
","
","
","""event"",""trial"",""time""
""fullscreenenter"",""1"",""2873""
","
","","","","","","1416","images/truck3.png","","","memory_trial","1","definitely_old",""
"html-keyboard-response","71","234928","0.0-18.0-0.14","4659","approach_avoid_sv1","""event"",""trial"",""time""
""fullscreenenter"",""1"",""2873""
","
","
","""event"",""trial"",""time""
""fullscreenenter"",""1"",""2873""
","
","","","","","","null","<div style=""font-size:60px;"">+</div>","null","","fixation","","",""
"memory-trial","72","237392","0.0-18.0-1.14","4659","approach_avoid_sv1","""event"",""trial"",""time""
""fullscreenenter"",""1"",""2873""
","
","
","""event"",""trial"",""time""
""fullscreenenter"",""1"",""2873""
","
","","","","","","1459.5999999642372","images/rabbit6.png","","","memory_trial","3","maybe_new",""
"html-keyboard-response","73","237895","0.0-18.0-0.15","4659","approach_avoid_sv1","""event"",""trial"",""time""
""fullscreenenter"",""1"",""2873""
","
","
","""event"",""trial"",""time""
""fullscreenenter"",""1"",""2873""
","
","","","","","","null","<div style=""font-size:60px;"">+</div>","null","","fixation","","",""
"memory-trial","74","240672","0.0-18.0-1.15","4659","approach_avoid_sv1","""event"",""trial"",""time""
""fullscreenenter"",""1"",""2873""
","
","
","""event"",""trial"",""time""
""fullscreenenter"",""1"",""2873""
","
","","","","","","1772.1000000238419","images/tree6.png","","","memory_trial","1","definitely_old",""
"html-keyboard-response","75","241175","0.0-18.0-0.16","4659","approach_avoid_sv1","""event"",""trial"",""time""
""fullscreenenter"",""1"",""2873""
","
","
","""event"",""trial"",""time""
""fullscreenenter"",""1"",""2873""
","
","","","","","","null","<div style=""font-size:60px;"">+</div>","null","","fixation","","",""
"memory-trial","76","244079","0.0-18.0-1.16","4659","approach_avoid_sv1","""event"",""trial"",""time""
""fullscreenenter"",""1"",""2873""
","
","
","""event"",""trial"",""time""
""fullscreenenter"",""1"",""2873""
","
","","","","","","1896.5","images/apple5.png","","","memory_trial","2","maybe_old",""
"html-keyboard-response","77","244587","0.0-18.0-0.17","4659","approach_avoid_sv1","""event"",""trial"",""time""
""fullscreenenter"",""1"",""2873""
","
","
","""event"",""trial"",""time""
""fullscreenenter"",""1"",""2873""
","
","","","","","","null","<div style=""font-size:60px;"">+</div>","null","","fixation","","",""
"memory-trial","78","247495","0.0-18.0-1.17","4659","approach_avoid_sv1","""event"",""trial"",""time""
""fullscreenenter"",""1"",""2873""
","
","
","""event"",""trial"",""time""
""fullscreenenter"",""1"",""2873""
","
","","","","","","1902.5999999642372","images/sheep7.png","","","memory_trial","3","maybe_new",""
"html-keyboard-response","79","247999","0.0-18.0-0.18","4659","approach_avoid_sv1","""event"",""trial"",""time""
""fullscreenenter"",""1"",""2873""
","
","
","""event"",""trial"",""time""
""fullscreenenter"",""1"",""2873""
","
","","","","","","null","<div style=""font-size:60px;"">+</div>","null","","fixation","","",""
"memory-trial","80","250007","0.0-18.0-1.18","4659","approach_avoid_sv1","""event"",""trial"",""time""
""fullscreenenter"",""1"",""2873""
","
","
","""event"",""trial"",""time""
""fullscreenenter"",""1"",""2873""
","
","","","","","","1001.3999999761581","images/plane5.png","","","memory_trial","1","definitely_old",""
"html-keyboard-response","81","250511","0.0-18.0-0.19","4659","approach_avoid_sv1","""event"",""trial"",""time""
""fullscreenenter"",""1"",""2873""
","
","
","""event"",""trial"",""time""
""fullscreenenter"",""1"",""2873""
","
","","","","","","null","<div style=""font-size:60px;"">+</div>","null","","fixation","","",""
"memory-trial","82","252679","0.0-18.0-1.19","4659","approach_avoid_sv1","""event"",""trial"",""time""
""fullscreenenter"",""1"",""2873""
","
","
","""event"",""trial"",""time""
""fullscreenenter"",""1"",""2873""
","
","","","","","","1158.9000000357628","images/rodent7.png","","","memory_trial","4","definitely_new",""
"html-keyboard-response","83","253187","0.0-18.0-0.20","4659","approach_avoid_sv1","""event"",""trial"",""time""
""fullscreenenter"",""1"",""2873""
","
","
","""event"",""trial"",""time""
""fullscreenenter"",""1"",""2873""
","
","","","","","","null","<div style=""font-size:60px;"">+</div>","null","","fixation","","",""
"memory-trial","84","255023","0.0-18.0-1.20","4659","approach_avoid_sv1","""event"",""trial"",""time""
""fullscreenenter"",""1"",""2873""
","
","
","""event"",""trial"",""time""
""fullscreenenter"",""1"",""2873""
","
","","","","","","826.5","images/table7.png","","","memory_trial","4","definitely_new",""
"html-keyboard-response","85","255527","0.0-18.0-0.21","4659","approach_avoid_sv1","""event"",""trial"",""time""
""fullscreenenter"",""1"",""2873""
","
","
","""event"",""trial"",""time""
""fullscreenenter"",""1"",""2873""
","
","","","","","","null","<div style=""font-size:60px;"">+</div>","null","","fixation","","",""
"memory-trial","86","258055","0.0-18.0-1.21","4659","approach_avoid_sv1","""event"",""trial"",""time""
""fullscreenenter"",""1"",""2873""
","
","
","""event"",""trial"",""time""
""fullscreenenter"",""1"",""2873""
","
","","","","","","1522.5","images/train8.png","","","memory_trial","1","definitely_old",""
"html-keyboard-response","87","258559","0.0-18.0-0.22","4659","approach_avoid_sv1","""event"",""trial"",""time""
""fullscreenenter"",""1"",""2873""
","
","
","""event"",""trial"",""time""
""fullscreenenter"",""1"",""2873""
","
","","","","","","null","<div style=""font-size:60px;"">+</div>","null","","fixation","","",""
"memory-trial","88","260495","0.0-18.0-1.22","4659","approach_avoid_sv1","""event"",""trial"",""time""
""fullscreenenter"",""1"",""2873""
","
","
","""event"",""trial"",""time""
""fullscreenenter"",""1"",""2873""
","
","","","","","","927.5999999642372","images/train1.png","","","memory_trial","1","definitely_old",""
"html-keyboard-response","89","260999","0.0-18.0-0.23","4659","approach_avoid_sv1","""event"",""trial"",""time""
""fullscreenenter"",""1"",""2873""
","
","
","""event"",""trial"",""time""
""fullscreenenter"",""1"",""2873""
","
","","","","","","null","<div style=""font-size:60px;"">+</div>","null","","fixation","","",""
"memory-trial","90","265655","0.0-18.0-1.23","4659","approach_avoid_sv1","""event"",""trial"",""time""
""fullscreenenter"",""1"",""2873""
","
","
","""event"",""trial"",""time""
""fullscreenenter"",""1"",""2873""
","
","","","","","","3650.5","images/train2.png","","","memory_trial","2","maybe_old",""
"html-keyboard-response","91","266159","0.0-18.0-0.24","4659","approach_avoid_sv1","""event"",""trial"",""time""
""fullscreenenter"",""1"",""2873""
","
","
","""event"",""trial"",""time""
""fullscreenenter"",""1"",""2873""
","
","","","","","","null","<div style=""font-size:60px;"">+</div>","null","","fixation","","",""
"memory-trial","92","268399","0.0-18.0-1.24","4659","approach_avoid_sv1","""event"",""trial"",""time""
""fullscreenenter"",""1"",""2873""
","
","
","""event"",""trial"",""time""
""fullscreenenter"",""1"",""2873""
","
","","","","","","1231","images/truck5.png","","","memory_trial","4","definitely_new",""
"html-keyboard-response","93","268903","0.0-18.0-0.25","4659","approach_avoid_sv1","""event"",""trial"",""time""
""fullscreenenter"",""1"",""2873""
","
","
","""event"",""trial"",""time""
""fullscreenenter"",""1"",""2873""
","
","","","","","","null","<div style=""font-size:60px;"">+</div>","null","","fixation","","",""
"memory-trial","94","273895","0.0-18.0-1.25","4659","approach_avoid_sv1","""event"",""trial"",""time""
""fullscreenenter"",""1"",""2873""
","
","
","""event"",""trial"",""time""
""fullscreenenter"",""1"",""2873""
","
","","","","","","3987.300000011921","images/orange8.png","","","memory_trial","1","definitely_old",""
"html-keyboard-response","95","274399","0.0-18.0-0.26","4659","approach_avoid_sv1","""event"",""trial"",""time""
""fullscreenenter"",""1"",""2873""
","
","
","""event"",""trial"",""time""
""fullscreenenter"",""1"",""2873""
","
","","","","","","null","<div style=""font-size:60px;"">+</div>","null","","fixation","","",""
"memory-trial","96","276615","0.0-18.0-1.26","4659","approach_avoid_sv1","""event"",""trial"",""time""
""fullscreenenter"",""1"",""2873""
","
","
","""event"",""trial"",""time""
""fullscreenenter"",""1"",""2873""
","
","","","","","","1211.3999999761581","images/horse8.png","","","memory_trial","4","definitely_new",""
"html-keyboard-response","97","277119","0.0-18.0-0.27","4659","approach_avoid_sv1","""event"",""trial"",""time""
""fullscreenenter"",""1"",""2873""
","
","
","""event"",""trial"",""time""
""fullscreenenter"",""1"",""2873""
","
","","","","","","null","<div style=""font-size:60px;"">+</div>","null","","fixation","","",""
"memory-trial","98","281014","0.0-18.0-1.27","4659","approach_avoid_sv1","""event"",""trial"",""time""
""fullscreenenter"",""1"",""2873""
","
","
","""event"",""trial"",""time""
""fullscreenenter"",""1"",""2873""
","
","","","","","","2887.5","images/train4.png","","","memory_trial","1","definitely_old",""
"html-keyboard-response","99","281518","0.0-18.0-0.28","4659","approach_avoid_sv1","""event"",""trial"",""time""
""fullscreenenter"",""1"",""2873""
","
","
","""event"",""trial"",""time""
""fullscreenenter"",""1"",""2873""
","
","","","","","","null","<div style=""font-size:60px;"">+</div>","null","","fixation","","",""
"memory-trial","100","283622","0.0-18.0-1.28","4659","approach_avoid_sv1","""event"",""trial"",""time""
""fullscreenenter"",""1"",""2873""
","
","
","""event"",""trial"",""time""
""fullscreenenter"",""1"",""2873""
","
","","","","","","1094.6000000238419","images/dog5.png","","","memory_trial","1","definitely_old",""
"html-keyboard-response","101","284126","0.0-18.0-0.29","4659","approach_avoid_sv1","""event"",""trial"",""time""
""fullscreenenter"",""1"",""2873""
","
","
","""event"",""trial"",""time""
""fullscreenenter"",""1"",""2873""
","
","","","","","","null","<div style=""font-size:60px;"">+</div>","null","","fixation","","",""
"memory-trial","102","287950","0.0-18.0-1.29","4659","approach_avoid_sv1","""event"",""trial"",""time""
""fullscreenenter"",""1"",""2873""
","
","
","""event"",""trial"",""time""
""fullscreenenter"",""1"",""2873""
","
","","","","","","2812.600000023842","images/apple1.png","","","memory_trial","3","maybe_new",""
"html-keyboard-response","103","288454","0.0-18.0-0.30","4659","approach_avoid_sv1","""event"",""trial"",""time""
""fullscreenenter"",""1"",""2873""
","
","
","""event"",""trial"",""time""
""fullscreenenter"",""1"",""2873""
","
","","","","","","null","<div style=""font-size:60px;"">+</div>","null","","fixation","","",""
"memory-trial","104","290798","0.0-18.0-1.30","4659","approach_avoid_sv1","""event"",""trial"",""time""
""fullscreenenter"",""1"",""2873""
","
","
","""event"",""trial"",""time""
""fullscreenenter"",""1"",""2873""
","
","","","","","","1337.8999999761581","images/truck8.png","","","memory_trial","3","maybe_new",""
"html-keyboard-response","105","291302","0.0-18.0-0.31","4659","approach_avoid_sv1","""event"",""trial"",""time""
""fullscreenenter"",""1"",""2873""
","
","
","""event"",""trial"",""time""
""fullscreenenter"",""1"",""2873""
","
","","","","","","null","<div style=""font-size:60px;"">+</div>","null","","fixation","","",""
"memory-trial","106","293862","0.0-18.0-1.31","4659","approach_avoid_sv1","""event"",""trial"",""time""
""fullscreenenter"",""1"",""2873""
","
","
","""event"",""trial"",""time""
""fullscreenenter"",""1"",""2873""
","
","","","","","","1552.199999988079","images/dog7.png","","","memory_trial","4","definitely_new",""
"html-keyboard-response","107","294366","0.0-18.0-0.32","4659","approach_avoid_sv1","""event"",""trial"",""time""
""fullscreenenter"",""1"",""2873""
","
","
","""event"",""trial"",""time""
""fullscreenenter"",""1"",""2873""
","
","","","","","","null","<div style=""font-size:60px;"">+</div>","null","","fixation","","",""
"memory-trial","108","296422","0.0-18.0-1.32","4659","approach_avoid_sv1","""event"",""trial"",""time""
""fullscreenenter"",""1"",""2873""
","
","
","""event"",""trial"",""time""
""fullscreenenter"",""1"",""2873""
","
","","","","","","1044.5","images/rodent5.png","","","memory_trial","1","definitely_old",""
"html-keyboard-response","109","296926","0.0-18.0-0.33","4659","approach_avoid_sv1","""event"",""trial"",""time""
""fullscreenenter"",""1"",""2873""
","
","
","""event"",""trial"",""time""
""fullscreenenter"",""1"",""2873""
","
","","","","","","null","<div style=""font-size:60px;"">+</div>","null","","fixation","","",""
"memory-trial","110","299054","0.0-18.0-1.33","4659","approach_avoid_sv1","""event"",""trial"",""time""
""fullscreenenter"",""1"",""2873""
","
","
","""event"",""trial"",""time""
""fullscreenenter"",""1"",""2873""
","
","","","","","","1121.8999999761581","images/goat4.png","","","memory_trial","1","definitely_old",""
"html-keyboard-response","111","299557","0.0-18.0-0.34","4659","approach_avoid_sv1","""event"",""trial"",""time""
""fullscreenenter"",""1"",""2873""
","
","
","""event"",""trial"",""time""
""fullscreenenter"",""1"",""2873""
","
","","","","","","null","<div style=""font-size:60px;"">+</div>","null","","fixation","","",""
"memory-trial","112","301742","0.0-18.0-1.34","4659","approach_avoid_sv1","""event"",""trial"",""time""
""fullscreenenter"",""1"",""2873""
","
","
","""event"",""trial"",""time""
""fullscreenenter"",""1"",""2873""
","
","","","","","","1180.1000000238419","images/cow6.png","","","memory_trial","4","definitely_new",""
"html-keyboard-response","113","302246","0.0-18.0-0.35","4659","approach_avoid_sv1","""event"",""trial"",""time""
""fullscreenenter"",""1"",""2873""
","
","
","""event"",""trial"",""time""
""fullscreenenter"",""1"",""2873""
","
","","","","","","null","<div style=""font-size:60px;"">+</div>","null","","fixation","","",""
"memory-trial","114","304110","0.0-18.0-1.35","4659","approach_avoid_sv1","""event"",""trial"",""time""
""fullscreenenter"",""1"",""2873""
","
","
","""event"",""trial"",""time""
""fullscreenenter"",""1"",""2873""
","
","","","","","","854.6999999880791","images/bush4.png","","","memory_trial","1","definitely_old",""
"html-keyboard-response","115","304614","0.0-18.0-0.36","4659","approach_avoid_sv1","""event"",""trial"",""time""
""fullscreenenter"",""1"",""2873""
","
","
","""event"",""trial"",""time""
""fullscreenenter"",""1"",""2873""
","
","","","","","","null","<div style=""font-size:60px;"">+</div>","null","","fixation","","",""
"memory-trial","116","307166","0.0-18.0-1.36","4659","approach_avoid_sv1","""event"",""trial"",""time""
""fullscreenenter"",""1"",""2873""
","
","
","""event"",""trial"",""time""
""fullscreenenter"",""1"",""2873""
","
","","","","","","1546.699999988079","images/sofa1.png","","","memory_trial","3","maybe_new",""
"html-keyboard-response","117","307670","0.0-18.0-0.37","4659","approach_avoid_sv1","""event"",""trial"",""time""
""fullscreenenter"",""1"",""2873""
","
","
","""event"",""trial"",""time""
""fullscreenenter"",""1"",""2873""
","
","","","","","","null","<div style=""font-size:60px;"">+</div>","null","","fixation","","",""
"memory-trial","118","309606","0.0-18.0-1.37","4659","approach_avoid_sv1","""event"",""trial"",""time""
""fullscreenenter"",""1"",""2873""
","
","
","""event"",""trial"",""time""
""fullscreenenter"",""1"",""2873""
","
","","","","","","930.0999999642372","images/bed4.png","","","memory_trial","4","definitely_new",""
"html-keyboard-response","119","310110","0.0-18.0-0.38","4659","approach_avoid_sv1","""event"",""trial"",""time""
""fullscreenenter"",""1"",""2873""
","
","
","""event"",""trial"",""time""
""fullscreenenter"",""1"",""2873""
","
","","","","","","null","<div style=""font-size:60px;"">+</div>","null","","fixation","","",""
"memory-trial","120","313437","0.0-18.0-1.38","4659","approach_avoid_sv1","""event"",""trial"",""time""
""fullscreenenter"",""1"",""2873""
","
","
","""event"",""trial"",""time""
""fullscreenenter"",""1"",""2873""
","
","","","","","","2321.300000011921","images/straw4.png","","","memory_trial","2","maybe_old",""
"html-keyboard-response","121","313942","0.0-18.0-0.39","4659","approach_avoid_sv1","""event"",""trial"",""time""
""fullscreenenter"",""1"",""2873""
","
","
","""event"",""trial"",""time""
""fullscreenenter"",""1"",""2873""
","
","","","","","","null","<div style=""font-size:60px;"">+</div>","null","","fixation","","",""
"memory-trial","122","315725","0.0-18.0-1.39","4659","approach_avoid_sv1","""event"",""trial"",""time""
""fullscreenenter"",""1"",""2873""
","
","
","""event"",""trial"",""time""
""fullscreenenter"",""1"",""2873""
","
","","","","","","778.1999999880791","images/tree2.png","","","memory_trial","4","definitely_new",""
"html-keyboard-response","123","316229","0.0-18.0-0.40","4659","approach_avoid_sv1","""event"",""trial"",""time""
""fullscreenenter"",""1"",""2873""
","
","
","""event"",""trial"",""time""
""fullscreenenter"",""1"",""2873""
","
","","","","","","null","<div style=""font-size:60px;"">+</div>","null","","fixation","","",""
"memory-trial","124","319558","0.0-18.0-1.40","4659","approach_avoid_sv1","""event"",""trial"",""time""
""fullscreenenter"",""1"",""2873""
","
","
","""event"",""trial"",""time""
""fullscreenenter"",""1"",""2873""
","
","","","","","","2322.5","images/cactus4.png","","","memory_trial","4","definitely_new",""
"html-keyboard-response","125","320061","0.0-18.0-0.41","4659","approach_avoid_sv1","""event"",""trial"",""time""
""fullscreenenter"",""1"",""2873""
","
","
","""event"",""trial"",""time""
""fullscreenenter"",""1"",""2873""
","
","","","","","","null","<div style=""font-size:60px;"">+</div>","null","","fixation","","",""
"memory-trial","126","323741","0.0-18.0-1.41","4659","approach_avoid_sv1","""event"",""trial"",""time""
""fullscreenenter"",""1"",""2873""
","
","
","""event"",""trial"",""time""
""fullscreenenter"",""1"",""2873""
","
","","","","","","2670.399999976158","images/orange3.png","","","memory_trial","3","maybe_new",""
"html-button-response","127","325984","0.0-18.0-2.41-0.41","4659","approach_avoid_sv1","""event"",""trial"",""time""
""fullscreenenter"",""1"",""2873""
","
","
","""event"",""trial"",""time""
""fullscreenenter"",""1"",""2873""
","
","","","","","","2242.600000023842","<p> Take a break! </p><p> Click the button to continue. </p>","0","","break","","",""
"html-keyboard-response","128","326485","0.0-18.0-0.42","4659","approach_avoid_sv1","""event"",""trial"",""time""
""fullscreenenter"",""1"",""2873""
","
","
","""event"",""trial"",""time""
""fullscreenenter"",""1"",""2873""
","
","","","","","","null","<div style=""font-size:60px;"">+</div>","null","","fixation","","",""
"memory-trial","129","328906","0.0-18.0-1.42","4659","approach_avoid_sv1","""event"",""trial"",""time""
""fullscreenenter"",""1"",""2873""
","
","
","""event"",""trial"",""time""
""fullscreenenter"",""1"",""2873""
","
","","","","","","1409.699999988079","images/sofa5.png","","","memory_trial","3","maybe_new",""
"html-keyboard-response","130","329414","0.0-18.0-0.43","4659","approach_avoid_sv1","""event"",""trial"",""time""
""fullscreenenter"",""1"",""2873""
","
","
","""event"",""trial"",""time""
""fullscreenenter"",""1"",""2873""
","
","","","","","","null","<div style=""font-size:60px;"">+</div>","null","","fixation","","",""
"memory-trial","131","332709","0.0-18.0-1.43","4659","approach_avoid_sv1","""event"",""trial"",""time""
""fullscreenenter"",""1"",""2873""
","
","
","""event"",""trial"",""time""
""fullscreenenter"",""1"",""2873""
","
","","","","","","2288.400000035763","images/flower8.png","","","memory_trial","2","maybe_old",""
"html-keyboard-response","132","333213","0.0-18.0-0.44","4659","approach_avoid_sv1","""event"",""trial"",""time""
""fullscreenenter"",""1"",""2873""
","
","
","""event"",""trial"",""time""
""fullscreenenter"",""1"",""2873""
","
","","","","","","null","<div style=""font-size:60px;"">+</div>","null","","fixation","","",""
"memory-trial","133","335317","0.0-18.0-1.44","4659","approach_avoid_sv1","""event"",""trial"",""time""
""fullscreenenter"",""1"",""2873""
","
","
","""event"",""trial"",""time""
""fullscreenenter"",""1"",""2873""
","
","","","","","","1097.2000000476837","images/boat2.png","","","memory_trial","3","maybe_new",""
"html-keyboard-response","134","335821","0.0-18.0-0.45","4659","approach_avoid_sv1","""event"",""trial"",""time""
""fullscreenenter"",""1"",""2873""
","
","
","""event"",""trial"",""time""
""fullscreenenter"",""1"",""2873""
","
","","","","","","null","<div style=""font-size:60px;"">+</div>","null","","fixation","","",""
"memory-trial","135","338477","0.0-18.0-1.45","4659","approach_avoid_sv1","""event"",""trial"",""time""
""fullscreenenter"",""1"",""2873""
","
","
","""event"",""trial"",""time""
""fullscreenenter"",""1"",""2873""
","
","","","","","","1650.6000000238419","images/goat1.png","","","memory_trial","3","maybe_new",""
"html-keyboard-response","136","338985","0.0-18.0-0.46","4659","approach_avoid_sv1","""event"",""trial"",""time""
""fullscreenenter"",""1"",""2873""
","
","
","""event"",""trial"",""time""
""fullscreenenter"",""1"",""2873""
","
","","","","","","null","<div style=""font-size:60px;"">+</div>","null","","fixation","","",""
"memory-trial","137","342349","0.0-18.0-1.46","4659","approach_avoid_sv1","""event"",""trial"",""time""
""fullscreenenter"",""1"",""2873""
","
","
","""event"",""trial"",""time""
""fullscreenenter"",""1"",""2873""
","
","","","","","","2357.7999999523163","images/apple8.png","","","memory_trial","4","definitely_new",""
"html-keyboard-response","138","342853","0.0-18.0-0.47","4659","approach_avoid_sv1","""event"",""trial"",""time""
""fullscreenenter"",""1"",""2873""
","
","
","""event"",""trial"",""time""
""fullscreenenter"",""1"",""2873""
","
","","","","","","null","<div style=""font-size:60px;"">+</div>","null","","fixation","","",""
"memory-trial","139","345069","0.0-18.0-1.47","4659","approach_avoid_sv1","""event"",""trial"",""time""
""fullscreenenter"",""1"",""2873""
","
","
","""event"",""trial"",""time""
""fullscreenenter"",""1"",""2873""
","
","","","","","","1206.0999999642372","images/rabbit3.png","","","memory_trial","3","maybe_new",""
"html-keyboard-response","140","345573","0.0-18.0-0.48","4659","approach_avoid_sv1","""event"",""trial"",""time""
""fullscreenenter"",""1"",""2873""
","
","
","""event"",""trial"",""time""
""fullscreenenter"",""1"",""2873""
","
","","","","","","null","<div style=""font-size:60px;"">+</div>","null","","fixation","","",""
"memory-trial","141","347461","0.0-18.0-1.48","4659","approach_avoid_sv1","""event"",""trial"",""time""
""fullscreenenter"",""1"",""2873""
","
","
","""event"",""trial"",""time""
""fullscreenenter"",""1"",""2873""
","
","","","","","","881.8999999761581","images/truck6.png","","","memory_trial","1","definitely_old",""
"html-keyboard-response","142","347965","0.0-18.0-0.49","4659","approach_avoid_sv1","""event"",""trial"",""time""
""fullscreenenter"",""1"",""2873""
","
","
","""event"",""trial"",""time""
""fullscreenenter"",""1"",""2873""
","
","","","","","","null","<div style=""font-size:60px;"">+</div>","null","","fixation","","",""
"memory-trial","143","350301","0.0-18.0-1.49","4659","approach_avoid_sv1","""event"",""trial"",""time""
""fullscreenenter"",""1"",""2873""
","
","
","""event"",""trial"",""time""
""fullscreenenter"",""1"",""2873""
","
","","","","","","1330.6000000238419","images/sofa3.png","","","memory_trial","2","maybe_old",""
"html-keyboard-response","144","350805","0.0-18.0-0.50","4659","approach_avoid_sv1","""event"",""trial"",""time""
""fullscreenenter"",""1"",""2873""
","
","
","""event"",""trial"",""time""
""fullscreenenter"",""1"",""2873""
","
","","","","","","null","<div style=""font-size:60px;"">+</div>","null","","fixation","","",""
"memory-trial","145","352997","0.0-18.0-1.50","4659","approach_avoid_sv1","""event"",""trial"",""time""
""fullscreenenter"",""1"",""2873""
","
","
","""event"",""trial"",""time""
""fullscreenenter"",""1"",""2873""
","
","","","","","","1180","images/cow1.png","","","memory_trial","4","definitely_new",""
"html-keyboard-response","146","353501","0.0-18.0-0.51","4659","approach_avoid_sv1","""event"",""trial"",""time""
""fullscreenenter"",""1"",""2873""
","
","
","""event"",""trial"",""time""
""fullscreenenter"",""1"",""2873""
","
","","","","","","null","<div style=""font-size:60px;"">+</div>","null","","fixation","","",""
"memory-trial","147","355485","0.0-18.0-1.51","4659","approach_avoid_sv1","""event"",""trial"",""time""
""fullscreenenter"",""1"",""2873""
","
","
","""event"",""trial"",""time""
""fullscreenenter"",""1"",""2873""
","
","","","","","","977.5999999642372","images/cat7.png","","","memory_trial","4","definitely_new",""
"html-keyboard-response","148","355989","0.0-18.0-0.52","4659","approach_avoid_sv1","""event"",""trial"",""time""
""fullscreenenter"",""1"",""2873""
","
","
","""event"",""trial"",""time""
""fullscreenenter"",""1"",""2873""
","
","","","","","","null","<div style=""font-size:60px;"">+</div>","null","","fixation","","",""
"memory-trial","149","358973","0.0-18.0-1.52","4659","approach_avoid_sv1","""event"",""trial"",""time""
""fullscreenenter"",""1"",""2873""
","
","
","""event"",""trial"",""time""
""fullscreenenter"",""1"",""2873""
","
","","","","","","1973","images/orange1.png","","","memory_trial","1","definitely_old",""
"html-keyboard-response","150","359477","0.0-18.0-0.53","4659","approach_avoid_sv1","""event"",""trial"",""time""
""fullscreenenter"",""1"",""2873""
","
","
","""event"",""trial"",""time""
""fullscreenenter"",""1"",""2873""
","
","","","","","","null","<div style=""font-size:60px;"">+</div>","null","","fixation","","",""
"memory-trial","151","361564","0.0-18.0-1.53","4659","approach_avoid_sv1","""event"",""trial"",""time""
""fullscreenenter"",""1"",""2873""
","
","
","""event"",""trial"",""time""
""fullscreenenter"",""1"",""2873""
","
","","","","","","1082.199999988079","images/bush5.png","","","memory_trial","1","definitely_old",""
"html-keyboard-response","152","362068","0.0-18.0-0.54","4659","approach_avoid_sv1","""event"",""trial"",""time""
""fullscreenenter"",""1"",""2873""
","
","
","""event"",""trial"",""time""
""fullscreenenter"",""1"",""2873""
","
","","","","","","null","<div style=""font-size:60px;"">+</div>","null","","fixation","","",""
"memory-trial","153","364924","0.0-18.0-1.54","4659","approach_avoid_sv1","""event"",""trial"",""time""
""fullscreenenter"",""1"",""2873""
","
","
","""event"",""trial"",""time""
""fullscreenenter"",""1"",""2873""
","
","","","","","","1850.199999988079","images/flower7.png","","","memory_trial","1","definitely_old",""
"html-keyboard-response","154","365428","0.0-18.0-0.55","4659","approach_avoid_sv1","""event"",""trial"",""time""
""fullscreenenter"",""1"",""2873""
","
","
","""event"",""trial"",""time""
""fullscreenenter"",""1"",""2873""
","
","","","","","","null","<div style=""font-size:60px;"">+</div>","null","","fixation","","",""
"memory-trial","155","368548","0.0-18.0-1.55","4659","approach_avoid_sv1","""event"",""trial"",""time""
""fullscreenenter"",""1"",""2873""
","
","
","""event"",""trial"",""time""
""fullscreenenter"",""1"",""2873""
","
","","","","","","2114.2000000476837","images/chair2.png","","","memory_trial","3","maybe_new",""
"html-keyboard-response","156","369052","0.0-18.0-0.56","4659","approach_avoid_sv1","""event"",""trial"",""time""
""fullscreenenter"",""1"",""2873""
","
","
","""event"",""trial"",""time""
""fullscreenenter"",""1"",""2873""
","
","","","","","","null","<div style=""font-size:60px;"">+</div>","null","","fixation","","",""
"memory-trial","157","372236","0.0-18.0-1.56","4659","approach_avoid_sv1","""event"",""trial"",""time""
""fullscreenenter"",""1"",""2873""
","
","
","""event"",""trial"",""time""
""fullscreenenter"",""1"",""2873""
","
","","","","","","2173.699999988079","images/cactus7.png","","","memory_trial","4","definitely_new",""
"html-keyboard-response","158","372740","0.0-18.0-0.57","4659","approach_avoid_sv1","""event"",""trial"",""time""
""fullscreenenter"",""1"",""2873""
","
","
","""event"",""trial"",""time""
""fullscreenenter"",""1"",""2873""
","
","","","","","","null","<div style=""font-size:60px;"">+</div>","null","","fixation","","",""
"memory-trial","159","375795","0.0-18.0-1.57","4659","approach_avoid_sv1","""event"",""trial"",""time""
""fullscreenenter"",""1"",""2873""
","
","
","""event"",""trial"",""time""
""fullscreenenter"",""1"",""2873""
","
","","","","","","2047.199999988079","images/rodent1.png","","","memory_trial","3","maybe_new",""
"html-keyboard-response","160","376300","0.0-18.0-0.58","4659","approach_avoid_sv1","""event"",""trial"",""time""
""fullscreenenter"",""1"",""2873""
","
","
","""event"",""trial"",""time""
""fullscreenenter"",""1"",""2873""
","
","","","","","","null","<div style=""font-size:60px;"">+</div>","null","","fixation","","",""
"memory-trial","161","379188","0.0-18.0-1.58","4659","approach_avoid_sv1","""event"",""trial"",""time""
""fullscreenenter"",""1"",""2873""
","
","
","""event"",""trial"",""time""
""fullscreenenter"",""1"",""2873""
","
","","","","","","1882.199999988079","images/goat3.png","","","memory_trial","2","maybe_old",""
"html-keyboard-response","162","379692","0.0-18.0-0.59","4659","approach_avoid_sv1","""event"",""trial"",""time""
""fullscreenenter"",""1"",""2873""
","
","
","""event"",""trial"",""time""
""fullscreenenter"",""1"",""2873""
","
","","","","","","null","<div style=""font-size:60px;"">+</div>","null","","fixation","","",""
"memory-trial","163","383244","0.0-18.0-1.59","4659","approach_avoid_sv1","""event"",""trial"",""time""
""fullscreenenter"",""1"",""2873""
","
","
","""event"",""trial"",""time""
""fullscreenenter"",""1"",""2873""
","
","","","","","","2541.800000011921","images/table4.png","","","memory_trial","2","maybe_old",""
"html-keyboard-response","164","383748","0.0-18.0-0.60","4659","approach_avoid_sv1","""event"",""trial"",""time""
""fullscreenenter"",""1"",""2873""
","
","
","""event"",""trial"",""time""
""fullscreenenter"",""1"",""2873""
","
","","","","","","null","<div style=""font-size:60px;"">+</div>","null","","fixation","","",""
"memory-trial","165","387064","0.0-18.0-1.60","4659","approach_avoid_sv1","""event"",""trial"",""time""
""fullscreenenter"",""1"",""2873""
","
","
","""event"",""trial"",""time""
""fullscreenenter"",""1"",""2873""
","
","","","","","","2303.300000011921","images/dog3.png","","","memory_trial","2","maybe_old",""
"html-keyboard-response","166","387572","0.0-18.0-0.61","4659","approach_avoid_sv1","""event"",""trial"",""time""
""fullscreenenter"",""1"",""2873""
","
","
","""event"",""trial"",""time""
""fullscreenenter"",""1"",""2873""
","
","","","","","","null","<div style=""font-size:60px;"">+</div>","null","","fixation","","",""
"memory-trial","167","389508","0.0-18.0-1.61","4659","approach_avoid_sv1","""event"",""trial"",""time""
""fullscreenenter"",""1"",""2873""
","
","
","""event"",""trial"",""time""
""fullscreenenter"",""1"",""2873""
","
","","","","","","926.1999999880791","images/horse4.png","","","memory_trial","1","definitely_old",""
"html-keyboard-response","168","390012","0.0-18.0-0.62","4659","approach_avoid_sv1","""event"",""trial"",""time""
""fullscreenenter"",""1"",""2873""
","
","
","""event"",""trial"",""time""
""fullscreenenter"",""1"",""2873""
","
","","","","","","null","<div style=""font-size:60px;"">+</div>","null","","fixation","","",""
"memory-trial","169","392924","0.0-18.0-1.62","4659","approach_avoid_sv1","""event"",""trial"",""time""
""fullscreenenter"",""1"",""2873""
","
","
","""event"",""trial"",""time""
""fullscreenenter"",""1"",""2873""
","
","","","","","","1906.800000011921","images/straw6.png","","","memory_trial","2","maybe_old",""
"html-keyboard-response","170","393428","0.0-18.0-0.63","4659","approach_avoid_sv1","""event"",""trial"",""time""
""fullscreenenter"",""1"",""2873""
","
","
","""event"",""trial"",""time""
""fullscreenenter"",""1"",""2873""
","
","","","","","","null","<div style=""font-size:60px;"">+</div>","null","","fixation","","",""
"memory-trial","171","395540","0.0-18.0-1.63","4659","approach_avoid_sv1","""event"",""trial"",""time""
""fullscreenenter"",""1"",""2873""
","
","
","""event"",""trial"",""time""
""fullscreenenter"",""1"",""2873""
","
","","","","","","1099.5999999642372","images/sofa7.png","","","memory_trial","3","maybe_new",""
"html-keyboard-response","172","396043","0.0-18.0-0.64","4659","approach_avoid_sv1","""event"",""trial"",""time""
""fullscreenenter"",""1"",""2873""
","
","
","""event"",""trial"",""time""
""fullscreenenter"",""1"",""2873""
","
","","","","","","null","<div style=""font-size:60px;"">+</div>","null","","fixation","","",""
"memory-trial","173","398348","0.0-18.0-1.64","4659","approach_avoid_sv1","""event"",""trial"",""time""
""fullscreenenter"",""1"",""2873""
","
","
","""event"",""trial"",""time""
""fullscreenenter"",""1"",""2873""
","
","","","","","","1297.8999999761581","images/rabbit5.png","","","memory_trial","2","maybe_old",""
"html-keyboard-response","174","398851","0.0-18.0-0.65","4659","approach_avoid_sv1","""event"",""trial"",""time""
""fullscreenenter"",""1"",""2873""
","
","
","""event"",""trial"",""time""
""fullscreenenter"",""1"",""2873""
","
","","","","","","null","<div style=""font-size:60px;"">+</div>","null","","fixation","","",""
"memory-trial","175","400733","0.0-18.0-1.65","4659","approach_avoid_sv1","""event"",""trial"",""time""
""fullscreenenter"",""1"",""2873""
","
","
","""event"",""trial"",""time""
""fullscreenenter"",""1"",""2873""
","
","","","","","","874.2000000476837","images/sheep6.png","","","memory_trial","1","definitely_old",""
"html-keyboard-response","176","401235","0.0-18.0-0.66","4659","approach_avoid_sv1","""event"",""trial"",""time""
""fullscreenenter"",""1"",""2873""
","
","
","""event"",""trial"",""time""
""fullscreenenter"",""1"",""2873""
","
","","","","","","null","<div style=""font-size:60px;"">+</div>","null","","fixation","","",""
"memory-trial","177","403083","0.0-18.0-1.66","4659","approach_avoid_sv1","""event"",""trial"",""time""
""fullscreenenter"",""1"",""2873""
","
","
","""event"",""trial"",""time""
""fullscreenenter"",""1"",""2873""
","
","","","","","","844.5","images/bed5.png","","","memory_trial","4","definitely_new",""
"html-keyboard-response","178","403587","0.0-18.0-0.67","4659","approach_avoid_sv1","""event"",""trial"",""time""
""fullscreenenter"",""1"",""2873""
","
","
","""event"",""trial"",""time""
""fullscreenenter"",""1"",""2873""
","
","","","","","","null","<div style=""font-size:60px;"">+</div>","null","","fixation","","",""
"memory-trial","179","405782","0.0-18.0-1.67","4659","approach_avoid_sv1","""event"",""trial"",""time""
""fullscreenenter"",""1"",""2873""
","
","
","""event"",""trial"",""time""
""fullscreenenter"",""1"",""2873""
","
","","","","","","1187","images/train3.png","","","memory_trial","3","maybe_new",""
"html-keyboard-response","180","406291","0.0-18.0-0.68","4659","approach_avoid_sv1","""event"",""trial"",""time""
""fullscreenenter"",""1"",""2873""
","
","
","""event"",""trial"",""time""
""fullscreenenter"",""1"",""2873""
","
","","","","","","null","<div style=""font-size:60px;"">+</div>","null","","fixation","","",""
"memory-trial","181","408563","0.0-18.0-1.68","4659","approach_avoid_sv1","""event"",""trial"",""time""
""fullscreenenter"",""1"",""2873""
","
","
","""event"",""trial"",""time""
""fullscreenenter"",""1"",""2873""
","
","","","","","","1265.800000011921","images/horse1.png","","","memory_trial","3","maybe_new",""
"html-keyboard-response","182","409067","0.0-18.0-0.69","4659","approach_avoid_sv1","""event"",""trial"",""time""
""fullscreenenter"",""1"",""2873""
","
","
","""event"",""trial"",""time""
""fullscreenenter"",""1"",""2873""
","
","","","","","","null","<div style=""font-size:60px;"">+</div>","null","","fixation","","",""
"memory-trial","183","411099","0.0-18.0-1.69","4659","approach_avoid_sv1","""event"",""trial"",""time""
""fullscreenenter"",""1"",""2873""
","
","
","""event"",""trial"",""time""
""fullscreenenter"",""1"",""2873""
","
","","","","","","1025.199999988079","images/chair8.png","","","memory_trial","3","maybe_new",""
"html-keyboard-response","184","411603","0.0-18.0-0.70","4659","approach_avoid_sv1","""event"",""trial"",""time""
""fullscreenenter"",""1"",""2873""
","
","
","""event"",""trial"",""time""
""fullscreenenter"",""1"",""2873""
","
","","","","","","null","<div style=""font-size:60px;"">+</div>","null","","fixation","","",""
"memory-trial","185","414739","0.0-18.0-1.70","4659","approach_avoid_sv1","""event"",""trial"",""time""
""fullscreenenter"",""1"",""2873""
","
","
","""event"",""trial"",""time""
""fullscreenenter"",""1"",""2873""
","
","","","","","","2125.900000035763","images/sheep5.png","","","memory_trial","2","maybe_old",""
"html-keyboard-response","186","415243","0.0-18.0-0.71","4659","approach_avoid_sv1","""event"",""trial"",""time""
""fullscreenenter"",""1"",""2873""
","
","
","""event"",""trial"",""time""
""fullscreenenter"",""1"",""2873""
","
","","","","","","null","<div style=""font-size:60px;"">+</div>","null","","fixation","","",""
"memory-trial","187","417386","0.0-18.0-1.71","4659","approach_avoid_sv1","""event"",""trial"",""time""
""fullscreenenter"",""1"",""2873""
","
","
","""event"",""trial"",""time""
""fullscreenenter"",""1"",""2873""
","
","","","","","","1139.3999999761581","images/train5.png","","","memory_trial","4","definitely_new",""
"html-keyboard-response","188","417891","0.0-18.0-0.72","4659","approach_avoid_sv1","""event"",""trial"",""time""
""fullscreenenter"",""1"",""2873""
","
","
","""event"",""trial"",""time""
""fullscreenenter"",""1"",""2873""
","
","","","","","","null","<div style=""font-size:60px;"">+</div>","null","","fixation","","",""
"memory-trial","189","420307","0.0-18.0-1.72","4659","approach_avoid_sv1","""event"",""trial"",""time""
""fullscreenenter"",""1"",""2873""
","
","
","""event"",""trial"",""time""
""fullscreenenter"",""1"",""2873""
","
","","","","","","1409.699999988079","images/table5.png","","","memory_trial","4","definitely_new",""
"html-keyboard-response","190","420811","0.0-18.0-0.73","4659","approach_avoid_sv1","""event"",""trial"",""time""
""fullscreenenter"",""1"",""2873""
","
","
","""event"",""trial"",""time""
""fullscreenenter"",""1"",""2873""
","
","","","","","","null","<div style=""font-size:60px;"">+</div>","null","","fixation","","",""
"memory-trial","191","423443","0.0-18.0-1.73","4659","approach_avoid_sv1","""event"",""trial"",""time""
""fullscreenenter"",""1"",""2873""
","
","
","""event"",""trial"",""time""
""fullscreenenter"",""1"",""2873""
","
","","","","","","1626.0999999642372","images/apple7.png","","","memory_trial","2","maybe_old",""
"html-keyboard-response","192","423947","0.0-18.0-0.74","4659","approach_avoid_sv1","""event"",""trial"",""time""
""fullscreenenter"",""1"",""2873""
","
","
","""event"",""trial"",""time""
""fullscreenenter"",""1"",""2873""
","
","","","","","","null","<div style=""font-size:60px;"">+</div>","null","","fixation","","",""
"memory-trial","193","426594","0.0-18.0-1.74","4659","approach_avoid_sv1","""event"",""trial"",""time""
""fullscreenenter"",""1"",""2873""
","
","
","""event"",""trial"",""time""
""fullscreenenter"",""1"",""2873""
","
","","","","","","1638.8999999761581","images/truck4.png","","","memory_trial","4","definitely_new",""
"html-keyboard-response","194","427099","0.0-18.0-0.75","4659","approach_avoid_sv1","""event"",""trial"",""time""
""fullscreenenter"",""1"",""2873""
","
","
","""event"",""trial"",""time""
""fullscreenenter"",""1"",""2873""
","
","","","","","","null","<div style=""font-size:60px;"">+</div>","null","","fixation","","",""
"memory-trial","195","429915","0.0-18.0-1.75","4659","approach_avoid_sv1","""event"",""trial"",""time""
""fullscreenenter"",""1"",""2873""
","
","
","""event"",""trial"",""time""
""fullscreenenter"",""1"",""2873""
","
","","","","","","1808.2000000476837","images/cow3.png","","","memory_trial","3","maybe_new",""
"html-keyboard-response","196","430419","0.0-18.0-0.76","4659","approach_avoid_sv1","""event"",""trial"",""time""
""fullscreenenter"",""1"",""2873""
","
","
","""event"",""trial"",""time""
""fullscreenenter"",""1"",""2873""
","
","","","","","","null","<div style=""font-size:60px;"">+</div>","null","","fixation","","",""
"memory-trial","197","433275","0.0-18.0-1.76","4659","approach_avoid_sv1","""event"",""trial"",""time""
""fullscreenenter"",""1"",""2873""
","
","
","""event"",""trial"",""time""
""fullscreenenter"",""1"",""2873""
","
","","","","","","1848","images/rodent6.png","","","memory_trial","3","maybe_new",""
"html-keyboard-response","198","433782","0.0-18.0-0.77","4659","approach_avoid_sv1","""event"",""trial"",""time""
""fullscreenenter"",""1"",""2873""
","
","
","""event"",""trial"",""time""
""fullscreenenter"",""1"",""2873""
","
","","","","","","null","<div style=""font-size:60px;"">+</div>","null","","fixation","","",""
"memory-trial","199","435594","0.0-18.0-1.77","4659","approach_avoid_sv1","""event"",""trial"",""time""
""fullscreenenter"",""1"",""2873""
","
","
","""event"",""trial"",""time""
""fullscreenenter"",""1"",""2873""
","
","","","","","","803.0999999642372","images/tree5.png","","","memory_trial","4","definitely_new",""
"html-keyboard-response","200","436098","0.0-18.0-0.78","4659","approach_avoid_sv1","""event"",""trial"",""time""
""fullscreenenter"",""1"",""2873""
","
","
","""event"",""trial"",""time""
""fullscreenenter"",""1"",""2873""
","
","","","","","","null","<div style=""font-size:60px;"">+</div>","null","","fixation","","",""
"memory-trial","201","438475","0.0-18.0-1.78","4659","approach_avoid_sv1","""event"",""trial"",""time""
""fullscreenenter"",""1"",""2873""
","
","
","""event"",""trial"",""time""
""fullscreenenter"",""1"",""2873""
","
","","","","","","1370.699999988079","images/orange2.png","","","memory_trial","1","definitely_old",""
"html-keyboard-response","202","438982","0.0-18.0-0.79","4659","approach_avoid_sv1","""event"",""trial"",""time""
""fullscreenenter"",""1"",""2873""
","
","
","""event"",""trial"",""time""
""fullscreenenter"",""1"",""2873""
","
","","","","","","null","<div style=""font-size:60px;"">+</div>","null","","fixation","","",""
"memory-trial","203","442042","0.0-18.0-1.79","4659","approach_avoid_sv1","""event"",""trial"",""time""
""fullscreenenter"",""1"",""2873""
","
","
","""event"",""trial"",""time""
""fullscreenenter"",""1"",""2873""
","
","","","","","","2049.600000023842","images/straw8.png","","","memory_trial","2","maybe_old",""
"html-keyboard-response","204","442546","0.0-18.0-0.80","4659","approach_avoid_sv1","""event"",""trial"",""time""
""fullscreenenter"",""1"",""2873""
","
","
","""event"",""trial"",""time""
""fullscreenenter"",""1"",""2873""
","
","","","","","","null","<div style=""font-size:60px;"">+</div>","null","","fixation","","",""
"memory-trial","205","444650","0.0-18.0-1.80","4659","approach_avoid_sv1","""event"",""trial"",""time""
""fullscreenenter"",""1"",""2873""
","
","
","""event"",""trial"",""time""
""fullscreenenter"",""1"",""2873""
","
","","","","","","1096.2000000476837","images/table8.png","","","memory_trial","3","maybe_new",""
"html-keyboard-response","206","445154","0.0-18.0-0.81","4659","approach_avoid_sv1","""event"",""trial"",""time""
""fullscreenenter"",""1"",""2873""
","
","
","""event"",""trial"",""time""
""fullscreenenter"",""1"",""2873""
","
","","","","","","null","<div style=""font-size:60px;"">+</div>","null","","fixation","","",""
"memory-trial","207","446802","0.0-18.0-1.81","4659","approach_avoid_sv1","""event"",""trial"",""time""
""fullscreenenter"",""1"",""2873""
","
","
","""event"",""trial"",""time""
""fullscreenenter"",""1"",""2873""
","
","","","","","","636.5999999642372","images/bed2.png","","","memory_trial","4","definitely_new",""
"html-keyboard-response","208","447306","0.0-18.0-0.82","4659","approach_avoid_sv1","""event"",""trial"",""time""
""fullscreenenter"",""1"",""2873""
","
","
","""event"",""trial"",""time""
""fullscreenenter"",""1"",""2873""
","
","","","","","","null","<div style=""font-size:60px;"">+</div>","null","","fixation","","",""
"memory-trial","209","449170","0.0-18.0-1.82","4659","approach_avoid_sv1","""event"",""trial"",""time""
""fullscreenenter"",""1"",""2873""
","
","
","""event"",""trial"",""time""
""fullscreenenter"",""1"",""2873""
","
","","","","","","858.6999999880791","images/cat1.png","","","memory_trial","4","definitely_new",""
"html-keyboard-response","210","449674","0.0-18.0-0.83","4659","approach_avoid_sv1","""event"",""trial"",""time""
""fullscreenenter"",""1"",""2873""
","
","
","""event"",""trial"",""time""
""fullscreenenter"",""1"",""2873""
","
","","","","","","null","<div style=""font-size:60px;"">+</div>","null","","fixation","","",""
"memory-trial","211","451782","0.0-18.0-1.83","4659","approach_avoid_sv1","""event"",""trial"",""time""
""fullscreenenter"",""1"",""2873""
","
","
","""event"",""trial"",""time""
""fullscreenenter"",""1"",""2873""
","
","","","","","","1098.5","images/cat5.png","","","memory_trial","4","definitely_new",""
"html-keyboard-response","212","452290","0.0-18.0-0.84","4659","approach_avoid_sv1","""event"",""trial"",""time""
""fullscreenenter"",""1"",""2873""
","
","
","""event"",""trial"",""time""
""fullscreenenter"",""1"",""2873""
","
","","","","","","null","<div style=""font-size:60px;"">+</div>","null","","fixation","","",""
"memory-trial","213","454857","0.0-18.0-1.84","4659","approach_avoid_sv1","""event"",""trial"",""time""
""fullscreenenter"",""1"",""2873""
","
","
","""event"",""trial"",""time""
""fullscreenenter"",""1"",""2873""
","
","","","","","","1560.0999999642372","images/table6.png","","","memory_trial","2","maybe_old",""
"html-keyboard-response","214","455362","0.0-18.0-0.85","4659","approach_avoid_sv1","""event"",""trial"",""time""
""fullscreenenter"",""1"",""2873""
","
","
","""event"",""trial"",""time""
""fullscreenenter"",""1"",""2873""
","
","","","","","","null","<div style=""font-size:60px;"">+</div>","null","","fixation","","",""
"memory-trial","215","458394","0.0-18.0-1.85","4659","approach_avoid_sv1","""event"",""trial"",""time""
""fullscreenenter"",""1"",""2873""
","
","
","""event"",""trial"",""time""
""fullscreenenter"",""1"",""2873""
","
","","","","","","2019.800000011921","images/plane6.png","","","memory_trial","1","definitely_old",""
"html-keyboard-response","216","458898","0.0-18.0-0.86","4659","approach_avoid_sv1","""event"",""trial"",""time""
""fullscreenenter"",""1"",""2873""
","
","
","""event"",""trial"",""time""
""fullscreenenter"",""1"",""2873""
","
","","","","","","null","<div style=""font-size:60px;"">+</div>","null","","fixation","","",""
"memory-trial","217","461466","0.0-18.0-1.86","4659","approach_avoid_sv1","""event"",""trial"",""time""
""fullscreenenter"",""1"",""2873""
","
","
","""event"",""trial"",""time""
""fullscreenenter"",""1"",""2873""
","
","","","","","","1558.7000000476837","images/goat6.png","","","memory_trial","3","maybe_new",""
"html-keyboard-response","218","461970","0.0-18.0-0.87","4659","approach_avoid_sv1","""event"",""trial"",""time""
""fullscreenenter"",""1"",""2873""
","
","
","""event"",""trial"",""time""
""fullscreenenter"",""1"",""2873""
","
","","","","","","null","<div style=""font-size:60px;"">+</div>","null","","fixation","","",""
"memory-trial","219","463842","0.0-18.0-1.87","4659","approach_avoid_sv1","""event"",""trial"",""time""
""fullscreenenter"",""1"",""2873""
","
","
","""event"",""trial"",""time""
""fullscreenenter"",""1"",""2873""
","
","","","","","","868.6000000238419","images/banana8.png","","","memory_trial","4","definitely_new",""
"html-keyboard-response","220","464346","0.0-18.0-0.88","4659","approach_avoid_sv1","""event"",""trial"",""time""
""fullscreenenter"",""1"",""2873""
","
","
","""event"",""trial"",""time""
""fullscreenenter"",""1"",""2873""
","
","","","","","","null","<div style=""font-size:60px;"">+</div>","null","","fixation","","",""
"memory-trial","221","466402","0.0-18.0-1.88","4659","approach_avoid_sv1","""event"",""trial"",""time""
""fullscreenenter"",""1"",""2873""
","
","
","""event"",""trial"",""time""
""fullscreenenter"",""1"",""2873""
","
","","","","","","1045.300000011921","images/dog8.png","","","memory_trial","4","definitely_new",""
"html-keyboard-response","222","466906","0.0-18.0-0.89","4659","approach_avoid_sv1","""event"",""trial"",""time""
""fullscreenenter"",""1"",""2873""
","
","
","""event"",""trial"",""time""
""fullscreenenter"",""1"",""2873""
","
","","","","","","null","<div style=""font-size:60px;"">+</div>","null","","fixation","","",""
"memory-trial","223","468754","0.0-18.0-1.89","4659","approach_avoid_sv1","""event"",""trial"",""time""
""fullscreenenter"",""1"",""2873""
","
","
","""event"",""trial"",""time""
""fullscreenenter"",""1"",""2873""
","
","","","","","","837.8000000119209","images/bush7.png","","","memory_trial","1","definitely_old",""
"html-keyboard-response","224","469258","0.0-18.0-0.90","4659","approach_avoid_sv1","""event"",""trial"",""time""
""fullscreenenter"",""1"",""2873""
","
","
","""event"",""trial"",""time""
""fullscreenenter"",""1"",""2873""
","
","","","","","","null","<div style=""font-size:60px;"">+</div>","null","","fixation","","",""
"memory-trial","225","471066","0.0-18.0-1.90","4659","approach_avoid_sv1","""event"",""trial"",""time""
""fullscreenenter"",""1"",""2873""
","
","
","""event"",""trial"",""time""
""fullscreenenter"",""1"",""2873""
","
","","","","","","798.1999999880791","images/rodent4.png","","","memory_trial","1","definitely_old",""
"html-keyboard-response","226","471570","0.0-18.0-0.91","4659","approach_avoid_sv1","""event"",""trial"",""time""
""fullscreenenter"",""1"",""2873""
","
","
","""event"",""trial"",""time""
""fullscreenenter"",""1"",""2873""
","
","","","","","","null","<div style=""font-size:60px;"">+</div>","null","","fixation","","",""
"memory-trial","227","473754","0.0-18.0-1.91","4659","approach_avoid_sv1","""event"",""trial"",""time""
""fullscreenenter"",""1"",""2873""
","
","
","""event"",""trial"",""time""
""fullscreenenter"",""1"",""2873""
","
","","","","","","1178.800000011921","images/table1.png","","","memory_trial","3","maybe_new",""
"html-button-response","228","477166","0.0-18.0-2.91-0.91","4659","approach_avoid_sv1","""event"",""trial"",""time""
""fullscreenenter"",""1"",""2873""
","
","
","""event"",""trial"",""time""
""fullscreenenter"",""1"",""2873""
","
","","","","","","3410.900000035763","<p> Take a break! </p><p> Click the button to continue. </p>","0","","break","","",""
"html-keyboard-response","229","477673","0.0-18.0-0.92","4659","approach_avoid_sv1","""event"",""trial"",""time""
""fullscreenenter"",""1"",""2873""
","
","
","""event"",""trial"",""time""
""fullscreenenter"",""1"",""2873""
","
","","","","","","null","<div style=""font-size:60px;"">+</div>","null","","fixation","","",""
"memory-trial","230","480931","0.0-18.0-1.92","4659","approach_avoid_sv1","""event"",""trial"",""time""
""fullscreenenter"",""1"",""2873""
","
","
","""event"",""trial"",""time""
""fullscreenenter"",""1"",""2873""
","
","","","","","","2247.199999988079","images/apple4.png","","","memory_trial","2","maybe_old",""
"html-keyboard-response","231","481433","0.0-18.0-0.93","4659","approach_avoid_sv1","""event"",""trial"",""time""
""fullscreenenter"",""1"",""2873""
","
","
","""event"",""trial"",""time""
""fullscreenenter"",""1"",""2873""
","
","","","","","","null","<div style=""font-size:60px;"">+</div>","null","","fixation","","",""
"memory-trial","232","483265","0.0-18.0-1.93","4659","approach_avoid_sv1","""event"",""trial"",""time""
""fullscreenenter"",""1"",""2873""
","
","
","""event"",""trial"",""time""
""fullscreenenter"",""1"",""2873""
","
","","","","","","825.6000000238419","images/flower4.png","","","memory_trial","1","definitely_old",""
"html-keyboard-response","233","483769","0.0-18.0-0.94","4659","approach_avoid_sv1","""event"",""trial"",""time""
""fullscreenenter"",""1"",""2873""
","
","
","""event"",""trial"",""time""
""fullscreenenter"",""1"",""2873""
","
","","","","","","null","<div style=""font-size:60px;"">+</div>","null","","fixation","","",""
"memory-trial","234","485849","0.0-18.0-1.94","4659","approach_avoid_sv1","""event"",""trial"",""time""
""fullscreenenter"",""1"",""2873""
","
","
","""event"",""trial"",""time""
""fullscreenenter"",""1"",""2873""
","
","","","","","","1069","images/chair3.png","","","memory_trial","3","maybe_new",""
"html-keyboard-response","235","486353","0.0-18.0-0.95","4659","approach_avoid_sv1","""event"",""trial"",""time""
""fullscreenenter"",""1"",""2873""
","
","
","""event"",""trial"",""time""
""fullscreenenter"",""1"",""2873""
","
","","","","","","null","<div style=""font-size:60px;"">+</div>","null","","fixation","","",""
"memory-trial","236","488401","0.0-18.0-1.95","4659","approach_avoid_sv1","""event"",""trial"",""time""
""fullscreenenter"",""1"",""2873""
","
","
","""event"",""trial"",""time""
""fullscreenenter"",""1"",""2873""
","
","","","","","","1038.699999988079","images/flower6.png","","","memory_trial","2","maybe_old",""
"html-keyboard-response","237","488905","0.0-18.0-0.96","4659","approach_avoid_sv1","""event"",""trial"",""time""
""fullscreenenter"",""1"",""2873""
","
","
","""event"",""trial"",""time""
""fullscreenenter"",""1"",""2873""
","
","","","","","","null","<div style=""font-size:60px;"">+</div>","null","","fixation","","",""
"memory-trial","238","490865","0.0-18.0-1.96","4659","approach_avoid_sv1","""event"",""trial"",""time""
""fullscreenenter"",""1"",""2873""
","
","
","""event"",""trial"",""time""
""fullscreenenter"",""1"",""2873""
","
","","","","","","948.9000000357628","images/banana4.png","","","memory_trial","4","definitely_new",""
"html-keyboard-response","239","491369","0.0-18.0-0.97","4659","approach_avoid_sv1","""event"",""trial"",""time""
""fullscreenenter"",""1"",""2873""
","
","
","""event"",""trial"",""time""
""fullscreenenter"",""1"",""2873""
","
","","","","","","null","<div style=""font-size:60px;"">+</div>","null","","fixation","","",""
"memory-trial","240","493704","0.0-18.0-1.97","4659","approach_avoid_sv1","""event"",""trial"",""time""
""fullscreenenter"",""1"",""2873""
","
","
","""event"",""trial"",""time""
""fullscreenenter"",""1"",""2873""
","
","","","","","","1330.3999999761581","images/plane8.png","","","memory_trial","3","maybe_new",""
"html-keyboard-response","241","494209","0.0-18.0-0.98","4659","approach_avoid_sv1","""event"",""trial"",""time""
""fullscreenenter"",""1"",""2873""
","
","
","""event"",""trial"",""time""
""fullscreenenter"",""1"",""2873""
","
","","","","","","null","<div style=""font-size:60px;"">+</div>","null","","fixation","","",""
"memory-trial","242","496753","0.0-18.0-1.98","4659","approach_avoid_sv1","""event"",""trial"",""time""
""fullscreenenter"",""1"",""2873""
","
","
","""event"",""trial"",""time""
""fullscreenenter"",""1"",""2873""
","
","","","","","","1534.2999999523163","images/plane7.png","","","memory_trial","3","maybe_new",""
"html-keyboard-response","243","497260","0.0-18.0-0.99","4659","approach_avoid_sv1","""event"",""trial"",""time""
""fullscreenenter"",""1"",""2873""
","
","
","""event"",""trial"",""time""
""fullscreenenter"",""1"",""2873""
","
","","","","","","null","<div style=""font-size:60px;"">+</div>","null","","fixation","","",""
"memory-trial","244","500937","0.0-18.0-1.99","4659","approach_avoid_sv1","""event"",""trial"",""time""
""fullscreenenter"",""1"",""2873""
","
","
","""event"",""trial"",""time""
""fullscreenenter"",""1"",""2873""
","
","","","","","","2670.300000011921","images/orange6.png","","","memory_trial","4","definitely_new",""
"html-keyboard-response","245","501441","0.0-18.0-0.100","4659","approach_avoid_sv1","""event"",""trial"",""time""
""fullscreenenter"",""1"",""2873""
","
","
","""event"",""trial"",""time""
""fullscreenenter"",""1"",""2873""
","
","","","","","","null","<div style=""font-size:60px;"">+</div>","null","","fixation","","",""
"memory-trial","246","503201","0.0-18.0-1.100","4659","approach_avoid_sv1","""event"",""trial"",""time""
""fullscreenenter"",""1"",""2873""
","
","
","""event"",""trial"",""time""
""fullscreenenter"",""1"",""2873""
","
","","","","","","751.1999999880791","images/cat2.png","","","memory_trial","4","definitely_new",""
"html-keyboard-response","247","503705","0.0-18.0-0.101","4659","approach_avoid_sv1","""event"",""trial"",""time""
""fullscreenenter"",""1"",""2873""
","
","
","""event"",""trial"",""time""
""fullscreenenter"",""1"",""2873""
","
","","","","","","null","<div style=""font-size:60px;"">+</div>","null","","fixation","","",""
"memory-trial","248","505545","0.0-18.0-1.101","4659","approach_avoid_sv1","""event"",""trial"",""time""
""fullscreenenter"",""1"",""2873""
","
","
","""event"",""trial"",""time""
""fullscreenenter"",""1"",""2873""
","
","","","","","","834.5999999642372","images/dog6.png","","","memory_trial","1","definitely_old",""
"html-keyboard-response","249","506049","0.0-18.0-0.102","4659","approach_avoid_sv1","""event"",""trial"",""time""
""fullscreenenter"",""1"",""2873""
","
","
","""event"",""trial"",""time""
""fullscreenenter"",""1"",""2873""
","
","","","","","","null","<div style=""font-size:60px;"">+</div>","null","","fixation","","",""
"memory-trial","250","508705","0.0-18.0-1.102","4659","approach_avoid_sv1","""event"",""trial"",""time""
""fullscreenenter"",""1"",""2873""
","
","
","""event"",""trial"",""time""
""fullscreenenter"",""1"",""2873""
","
","","","","","","1647.6000000238419","images/boat7.png","","","memory_trial","3","maybe_new",""
"html-keyboard-response","251","509209","0.0-18.0-0.103","4659","approach_avoid_sv1","""event"",""trial"",""time""
""fullscreenenter"",""1"",""2873""
","
","
","""event"",""trial"",""time""
""fullscreenenter"",""1"",""2873""
","
","","","","","","null","<div style=""font-size:60px;"">+</div>","null","","fixation","","",""
"memory-trial","252","512393","0.0-18.0-1.103","4659","approach_avoid_sv1","""event"",""trial"",""time""
""fullscreenenter"",""1"",""2873""
","
","
","""event"",""trial"",""time""
""fullscreenenter"",""1"",""2873""
","
","","","","","","2172.699999988079","images/straw1.png","","","memory_trial","1","definitely_old",""
"html-keyboard-response","253","512897","0.0-18.0-0.104","4659","approach_avoid_sv1","""event"",""trial"",""time""
""fullscreenenter"",""1"",""2873""
","
","
","""event"",""trial"",""time""
""fullscreenenter"",""1"",""2873""
","
","","","","","","null","<div style=""font-size:60px;"">+</div>","null","","fixation","","",""
"memory-trial","254","515369","0.0-18.0-1.104","4659","approach_avoid_sv1","""event"",""trial"",""time""
""fullscreenenter"",""1"",""2873""
","
","
","""event"",""trial"",""time""
""fullscreenenter"",""1"",""2873""
","
","","","","","","1465.800000011921","images/sofa6.png","","","memory_trial","2","maybe_old",""
"html-keyboard-response","255","515872","0.0-18.0-0.105","4659","approach_avoid_sv1","""event"",""trial"",""time""
""fullscreenenter"",""1"",""2873""
","
","
","""event"",""trial"",""time""
""fullscreenenter"",""1"",""2873""
","
","","","","","","null","<div style=""font-size:60px;"">+</div>","null","","fixation","","",""
"memory-trial","256","517784","0.0-18.0-1.105","4659","approach_avoid_sv1","""event"",""trial"",""time""
""fullscreenenter"",""1"",""2873""
","
","
","""event"",""trial"",""time""
""fullscreenenter"",""1"",""2873""
","
","","","","","","908.6999999880791","images/sheep4.png","","","memory_trial","1","definitely_old",""
"html-keyboard-response","257","518289","0.0-18.0-0.106","4659","approach_avoid_sv1","""event"",""trial"",""time""
""fullscreenenter"",""1"",""2873""
","
","
","""event"",""trial"",""time""
""fullscreenenter"",""1"",""2873""
","
","","","","","","null","<div style=""font-size:60px;"">+</div>","null","","fixation","","",""
"memory-trial","258","520180","0.0-18.0-1.106","4659","approach_avoid_sv1","""event"",""trial"",""time""
""fullscreenenter"",""1"",""2873""
","
","
","""event"",""trial"",""time""
""fullscreenenter"",""1"",""2873""
","
","","","","","","879.7999999523163","images/cactus6.png","","","memory_trial","4","definitely_new",""
"html-keyboard-response","259","520688","0.0-18.0-0.107","4659","approach_avoid_sv1","""event"",""trial"",""time""
""fullscreenenter"",""1"",""2873""
","
","
","""event"",""trial"",""time""
""fullscreenenter"",""1"",""2873""
","
","","","","","","null","<div style=""font-size:60px;"">+</div>","null","","fixation","","",""
"memory-trial","260","522272","0.0-18.0-1.107","4659","approach_avoid_sv1","""event"",""trial"",""time""
""fullscreenenter"",""1"",""2873""
","
","
","""event"",""trial"",""time""
""fullscreenenter"",""1"",""2873""
","
","","","","","","576.1000000238419","images/cactus3.png","","","memory_trial","4","definitely_new",""
"html-keyboard-response","261","522780","0.0-18.0-0.108","4659","approach_avoid_sv1","""event"",""trial"",""time""
""fullscreenenter"",""1"",""2873""
","
","
","""event"",""trial"",""time""
""fullscreenenter"",""1"",""2873""
","
","","","","","","null","<div style=""font-size:60px;"">+</div>","null","","fixation","","",""
"memory-trial","262","524592","0.0-18.0-1.108","4659","approach_avoid_sv1","""event"",""trial"",""time""
""fullscreenenter"",""1"",""2873""
","
","
","""event"",""trial"",""time""
""fullscreenenter"",""1"",""2873""
","
","","","","","","803.8000000119209","images/bed8.png","","","memory_trial","4","definitely_new",""
"html-keyboard-response","263","525096","0.0-18.0-0.109","4659","approach_avoid_sv1","""event"",""trial"",""time""
""fullscreenenter"",""1"",""2873""
","
","
","""event"",""trial"",""time""
""fullscreenenter"",""1"",""2873""
","
","","","","","","null","<div style=""font-size:60px;"">+</div>","null","","fixation","","",""
"memory-trial","264","527624","0.0-18.0-1.109","4659","approach_avoid_sv1","""event"",""trial"",""time""
""fullscreenenter"",""1"",""2873""
","
","
","""event"",""trial"",""time""
""fullscreenenter"",""1"",""2873""
","
","","","","","","1515.7999999523163","images/plane3.png","","","memory_trial","2","maybe_old",""
"html-keyboard-response","265","528130","0.0-18.0-0.110","4659","approach_avoid_sv1","""event"",""trial"",""time""
""fullscreenenter"",""1"",""2873""
","
","
","""event"",""trial"",""time""
""fullscreenenter"",""1"",""2873""
","
","","","","","","null","<div style=""font-size:60px;"">+</div>","null","","fixation","","",""
"memory-trial","266","530592","0.0-18.0-1.110","4659","approach_avoid_sv1","""event"",""trial"",""time""
""fullscreenenter"",""1"",""2873""
","
","
","""event"",""trial"",""time""
""fullscreenenter"",""1"",""2873""
","
","","","","","","1456.5","images/horse2.png","","","memory_trial","2","maybe_old",""
"html-keyboard-response","267","531096","0.0-18.0-0.111","4659","approach_avoid_sv1","""event"",""trial"",""time""
""fullscreenenter"",""1"",""2873""
","
","
","""event"",""trial"",""time""
""fullscreenenter"",""1"",""2873""
","
","","","","","","null","<div style=""font-size:60px;"">+</div>","null","","fixation","","",""
"memory-trial","268","532923","0.0-18.0-1.111","4659","approach_avoid_sv1","""event"",""trial"",""time""
""fullscreenenter"",""1"",""2873""
","
","
","""event"",""trial"",""time""
""fullscreenenter"",""1"",""2873""
","
","","","","","","815.8000000119209","images/table2.png","","","memory_trial","4","definitely_new",""
"html-keyboard-response","269","533432","0.0-18.0-0.112","4659","approach_avoid_sv1","""event"",""trial"",""time""
""fullscreenenter"",""1"",""2873""
","
","
","""event"",""trial"",""time""
""fullscreenenter"",""1"",""2873""
","
","","","","","","null","<div style=""font-size:60px;"">+</div>","null","","fixation","","",""
"memory-trial","270","536744","0.0-18.0-1.112","4659","approach_avoid_sv1","""event"",""trial"",""time""
""fullscreenenter"",""1"",""2873""
","
","
","""event"",""trial"",""time""
""fullscreenenter"",""1"",""2873""
","
","","","","","","2304.199999988079","images/cow7.png","","","memory_trial","4","definitely_new",""
"html-keyboard-response","271","537248","0.0-18.0-0.113","4659","approach_avoid_sv1","""event"",""trial"",""time""
""fullscreenenter"",""1"",""2873""
","
","
","""event"",""trial"",""time""
""fullscreenenter"",""1"",""2873""
","
","","","","","","null","<div style=""font-size:60px;"">+</div>","null","","fixation","","",""
"memory-trial","272","540352","0.0-18.0-1.113","4659","approach_avoid_sv1","""event"",""trial"",""time""
""fullscreenenter"",""1"",""2873""
","
","
","""event"",""trial"",""time""
""fullscreenenter"",""1"",""2873""
","
","","","","","","2095.699999988079","images/goat7.png","","","memory_trial","2","maybe_old",""
"html-keyboard-response","273","540856","0.0-18.0-0.114","4659","approach_avoid_sv1","""event"",""trial"",""time""
""fullscreenenter"",""1"",""2873""
","
","
","""event"",""trial"",""time""
""fullscreenenter"",""1"",""2873""
","
","","","","","","null","<div style=""font-size:60px;"">+</div>","null","","fixation","","",""
"memory-trial","274","543568","0.0-18.0-1.114","4659","approach_avoid_sv1","""event"",""trial"",""time""
""fullscreenenter"",""1"",""2873""
","
","
","""event"",""trial"",""time""
""fullscreenenter"",""1"",""2873""
","
","","","","","","1704.300000011921","images/boat6.png","","","memory_trial","3","maybe_new",""
"html-keyboard-response","275","544072","0.0-18.0-0.115","4659","approach_avoid_sv1","""event"",""trial"",""time""
""fullscreenenter"",""1"",""2873""
","
","
","""event"",""trial"",""time""
""fullscreenenter"",""1"",""2873""
","
","","","","","","null","<div style=""font-size:60px;"">+</div>","null","","fixation","","",""
"memory-trial","276","546391","0.0-18.0-1.115","4659","approach_avoid_sv1","""event"",""trial"",""time""
""fullscreenenter"",""1"",""2873""
","
","
","""event"",""trial"",""time""
""fullscreenenter"",""1"",""2873""
","
","","","","","","1315.5","images/apple6.png","","","memory_trial","3","maybe_new",""
"html-keyboard-response","277","546896","0.0-18.0-0.116","4659","approach_avoid_sv1","""event"",""trial"",""time""
""fullscreenenter"",""1"",""2873""
","
","
","""event"",""trial"",""time""
""fullscreenenter"",""1"",""2873""
","
","","","","","","null","<div style=""font-size:60px;"">+</div>","null","","fixation","","",""
"memory-trial","278","548712","0.0-18.0-1.116","4659","approach_avoid_sv1","""event"",""trial"",""time""
""fullscreenenter"",""1"",""2873""
","
","
","""event"",""trial"",""time""
""fullscreenenter"",""1"",""2873""
","
","","","","","","806.1000000238419","images/bed7.png","","","memory_trial","4","definitely_new",""
"html-keyboard-response","279","549216","0.0-18.0-0.117","4659","approach_avoid_sv1","""event"",""trial"",""time""
""fullscreenenter"",""1"",""2873""
","
","
","""event"",""trial"",""time""
""fullscreenenter"",""1"",""2873""
","
","","","","","","null","<div style=""font-size:60px;"">+</div>","null","","fixation","","",""
"memory-trial","280","551448","0.0-18.0-1.117","4659","approach_avoid_sv1","""event"",""trial"",""time""
""fullscreenenter"",""1"",""2873""
","
","
","""event"",""trial"",""time""
""fullscreenenter"",""1"",""2873""
","
","","","","","","1226","images/tree1.png","","","memory_trial","2","maybe_old",""
"html-keyboard-response","281","551952","0.0-18.0-0.118","4659","approach_avoid_sv1","""event"",""trial"",""time""
""fullscreenenter"",""1"",""2873""
","
","
","""event"",""trial"",""time""
""fullscreenenter"",""1"",""2873""
","
","","","","","","null","<div style=""font-size:60px;"">+</div>","null","","fixation","","",""
"memory-trial","282","554440","0.0-18.0-1.118","4659","approach_avoid_sv1","""event"",""trial"",""time""
""fullscreenenter"",""1"",""2873""
","
","
","""event"",""trial"",""time""
""fullscreenenter"",""1"",""2873""
","
","","","","","","1478.1000000238419","images/orange5.png","","","memory_trial","3","maybe_new",""
"html-keyboard-response","283","554943","0.0-18.0-0.119","4659","approach_avoid_sv1","""event"",""trial"",""time""
""fullscreenenter"",""1"",""2873""
","
","
","""event"",""trial"",""time""
""fullscreenenter"",""1"",""2873""
","
","","","","","","null","<div style=""font-size:60px;"">+</div>","null","","fixation","","",""
"memory-trial","284","557112","0.0-18.0-1.119","4659","approach_avoid_sv1","""event"",""trial"",""time""
""fullscreenenter"",""1"",""2873""
","
","
","""event"",""trial"",""time""
""fullscreenenter"",""1"",""2873""
","
","","","","","","1160.800000011921","images/sheep3.png","","","memory_trial","2","maybe_old",""
"html-keyboard-response","285","557615","0.0-18.0-0.120","4659","approach_avoid_sv1","""event"",""trial"",""time""
""fullscreenenter"",""1"",""2873""
","
","
","""event"",""trial"",""time""
""fullscreenenter"",""1"",""2873""
","
","","","","","","null","<div style=""font-size:60px;"">+</div>","null","","fixation","","",""
"memory-trial","286","560824","0.0-18.0-1.120","4659","approach_avoid_sv1","""event"",""trial"",""time""
""fullscreenenter"",""1"",""2873""
","
","
","""event"",""trial"",""time""
""fullscreenenter"",""1"",""2873""
","
","","","","","","2202.399999976158","images/straw3.png","","","memory_trial","4","definitely_new",""
"html-keyboard-response","287","561329","0.0-18.0-0.121","4659","approach_avoid_sv1","""event"",""trial"",""time""
""fullscreenenter"",""1"",""2873""
","
","
","""event"",""trial"",""time""
""fullscreenenter"",""1"",""2873""
","
","","","","","","null","<div style=""font-size:60px;"">+</div>","null","","fixation","","",""
"memory-trial","288","564687","0.0-18.0-1.121","4659","approach_avoid_sv1","""event"",""trial"",""time""
""fullscreenenter"",""1"",""2873""
","
","
","""event"",""trial"",""time""
""fullscreenenter"",""1"",""2873""
","
","","","","","","2353.600000023842","images/orange4.png","","","memory_trial","3","maybe_new",""
"html-keyboard-response","289","565191","0.0-18.0-0.122","4659","approach_avoid_sv1","""event"",""trial"",""time""
""fullscreenenter"",""1"",""2873""
","
","
","""event"",""trial"",""time""
""fullscreenenter"",""1"",""2873""
","
","","","","","","null","<div style=""font-size:60px;"">+</div>","null","","fixation","","",""
"memory-trial","290","569407","0.0-18.0-1.122","4659","approach_avoid_sv1","""event"",""trial"",""time""
""fullscreenenter"",""1"",""2873""
","
","
","""event"",""trial"",""time""
""fullscreenenter"",""1"",""2873""
","
","","","","","","3204.7000000476837","images/apple2.png","","","memory_trial","3","maybe_new",""
"html-keyboard-response","291","569910","0.0-18.0-0.123","4659","approach_avoid_sv1","""event"",""trial"",""time""
""fullscreenenter"",""1"",""2873""
","
","
","""event"",""trial"",""time""
""fullscreenenter"",""1"",""2873""
","
","","","","","","null","<div style=""font-size:60px;"">+</div>","null","","fixation","","",""
"memory-trial","292","573863","0.0-18.0-1.123","4659","approach_avoid_sv1","""event"",""trial"",""time""
""fullscreenenter"",""1"",""2873""
","
","
","""event"",""trial"",""time""
""fullscreenenter"",""1"",""2873""
","
","","","","","","2940.600000023842","images/table3.png","","","memory_trial","2","maybe_old",""
"html-keyboard-response","293","574367","0.0-18.0-0.124","4659","approach_avoid_sv1","""event"",""trial"",""time""
""fullscreenenter"",""1"",""2873""
","
","
","""event"",""trial"",""time""
""fullscreenenter"",""1"",""2873""
","
","","","","","","null","<div style=""font-size:60px;"">+</div>","null","","fixation","","",""
"memory-trial","294","576367","0.0-18.0-1.124","4659","approach_avoid_sv1","""event"",""trial"",""time""
""fullscreenenter"",""1"",""2873""
","
","
","""event"",""trial"",""time""
""fullscreenenter"",""1"",""2873""
","
","","","","","","993.7999999523163","images/cactus2.png","","","memory_trial","4","definitely_new",""
"html-keyboard-response","295","576871","0.0-18.0-0.125","4659","approach_avoid_sv1","""event"",""trial"",""time""
""fullscreenenter"",""1"",""2873""
","
","
","""event"",""trial"",""time""
""fullscreenenter"",""1"",""2873""
","
","","","","","","null","<div style=""font-size:60px;"">+</div>","null","","fixation","","",""
"memory-trial","296","578783","0.0-18.0-1.125","4659","approach_avoid_sv1","""event"",""trial"",""time""
""fullscreenenter"",""1"",""2873""
","
","
","""event"",""trial"",""time""
""fullscreenenter"",""1"",""2873""
","
","","","","","","903.0999999642372","images/chair5.png","","","memory_trial","4","definitely_new",""
"html-keyboard-response","297","579287","0.0-18.0-0.126","4659","approach_avoid_sv1","""event"",""trial"",""time""
""fullscreenenter"",""1"",""2873""
","
","
","""event"",""trial"",""time""
""fullscreenenter"",""1"",""2873""
","
