"trial_type","trial_index","time_elapsed","internal_node_id","subject_id","task_version","interactions","blur_events","focus_events","fullscreenenter_events","fullscreenexit_events","success","timeout","failed_images","failed_audio","failed_video","rt","stimulus","response","button_pressed","task_part","key_press","answer","correct"
"pavlovia","0","6","0.0-0.0","5704","approach_avoid_sv1","""event"",""trial"",""time""
""fullscreenenter"",""1"",""2901""
","
","
","""event"",""trial"",""time""
""fullscreenenter"",""1"",""2901""
","
","","","","","","","","","","","","",""
"fullscreen","1","3836","0.0-1.0","5704","approach_avoid_sv1","""event"",""trial"",""time""
""fullscreenenter"",""1"",""2901""
","
","
","""event"",""trial"",""time""
""fullscreenenter"",""1"",""2901""
","
","true","","","","","","","","","","","",""
"preload","2","5759","0.0-2.0","5704","approach_avoid_sv1","""event"",""trial"",""time""
""fullscreenenter"",""1"",""2901""
","
","
","""event"",""trial"",""time""
""fullscreenenter"",""1"",""2901""
","
","true","false","[]","[]","[]","","","","","","","",""
"preload","3","7183","0.0-3.0","5704","approach_avoid_sv1","""event"",""trial"",""time""
""fullscreenenter"",""1"",""2901""
","
","
","""event"",""trial"",""time""
""fullscreenenter"",""1"",""2901""
","
","true","false","[]","[]","[]","","","","","","","",""
"preload","4","7651","0.0-4.0","5704","approach_avoid_sv1","""event"",""trial"",""time""
""fullscreenenter"",""1"",""2901""
","
","
","""event"",""trial"",""time""
""fullscreenenter"",""1"",""2901""
","
","true","false","[]","[]","[]","","","","","","","",""
"audio-keyboard-response","5","9487","0.0-5.0","5704","approach_avoid_sv1","""event"",""trial"",""time""
""fullscreenenter"",""1"",""2901""
","
","
","""event"",""trial"",""time""
""fullscreenenter"",""1"",""2901""
","
","","","","","","1832","audio/beep_loop.wav"," ","","","","",""
"audio-button-response","6","11372","0.0-6.0","5704","approach_avoid_sv1","""event"",""trial"",""time""
""fullscreenenter"",""1"",""2901""
","
","
","""event"",""trial"",""time""
""fullscreenenter"",""1"",""2901""
","
","","","","","","1888","audio/turtle.wav","3","","","","",""
"audio-button-response","7","13692","0.0-7.0","5704","approach_avoid_sv1","""event"",""trial"",""time""
""fullscreenenter"",""1"",""2901""
","
","
","""event"",""trial"",""time""
""fullscreenenter"",""1"",""2901""
","
","","","","","","1309","audio/shark.wav","2","","","","",""
"preload","8","16380","0.0-8.0","5704","approach_avoid_sv1","""event"",""trial"",""time""
""fullscreenenter"",""1"",""2901""
","
","
","""event"",""trial"",""time""
""fullscreenenter"",""1"",""2901""
","
","true","false","[]","[]","[]","","","","","","","",""
"learning-instructions","9","22839","0.0-9.0-0.0","5704","approach_avoid_sv1","""event"",""trial"",""time""
""fullscreenenter"",""1"",""2901""
","
","
","""event"",""trial"",""time""
""fullscreenenter"",""1"",""2901""
","
","","","","","","1978","<p> Welcome back! </p><p> Last week, you had to make choices about lots of different items.  </p>","","0","instructions","","",""
"learning-instructions","10","27809","0.0-9.0-0.1","5704","approach_avoid_sv1","""event"",""trial"",""time""
""fullscreenenter"",""1"",""2901""
","
","
","""event"",""trial"",""time""
""fullscreenenter"",""1"",""2901""
","
","","","","","","859.2999999523163","<p> Today, we are going to ask you to try to remember all the items. </p>","","0","instructions","","",""
"learning-instructions","11","38528","0.0-9.0-0.2","5704","approach_avoid_sv1","""event"",""trial"",""time""
""fullscreenenter"",""1"",""2901""
","
","
","""event"",""trial"",""time""
""fullscreenenter"",""1"",""2901""
","
","","","","","","567.7000000476837","<p> On every trial, you will see an image. </p><p> The image may be an OLD image you saw during the games last week or it may be a NEW image that was not presented. </p>","","0","instructions","","",""
"learning-instructions","12","49121","0.0-9.0-0.3","5704","approach_avoid_sv1","""event"",""trial"",""time""
""fullscreenenter"",""1"",""2901""
","
","
","""event"",""trial"",""time""
""fullscreenenter"",""1"",""2901""
","
","","","","","","2080.0999999046326","<p> You need to select whether the image is:  </p><p>  'Definitely old', 'Maybe old', 'Maybe new', or 'Definitely new.'  </p><div class=""mem-choice-instructions-grid""><div class=""choice-option"" id=""choice-option-1"" ><img src=""images/definitely_old_1.png"" id=""choice-option-img-1"" class=""choice-option-img"" stage=""1""></div><div class=""choice-option"" id=""choice-option-2"" ><img src=""images/maybe_old_1.png"" id=""choice-option-img-2"" class=""choice-option-img"" stage=""1""></div><div class=""choice-option"" id=""choice-option-3"" ><img src=""images/maybe_new_1.png"" id=""choice-option-img-3"" class=""choice-option-img"" stage=""1""></div><div class=""choice-option"" id=""choice-option-4"" > <img src=""images/definitely_new_1.png"" id=""choice-option-img-4"" class=""choice-option-img"" stage=""1""></div></div>","","0","instructions","","",""
"learning-instructions","13","56434","0.0-9.0-0.4","5704","approach_avoid_sv1","""event"",""trial"",""time""
""fullscreenenter"",""1"",""2901""
","
","
","""event"",""trial"",""time""
""fullscreenenter"",""1"",""2901""
","
","","","","","","793.1000000238419","<p> You should use the 1, 2, 3, and 4 keys to make your responses.  </p><div class=""mem-choice-instructions-grid""><div class=""choice-option"" id=""choice-option-1"" ><img src=""images/definitely_old.png"" id=""choice-option-img-1"" class=""choice-option-img"" stage=""1""></div><div class=""choice-option"" id=""choice-option-2"" ><img src=""images/maybe_old.png"" id=""choice-option-img-2"" class=""choice-option-img"" stage=""1""></div><div class=""choice-option"" id=""choice-option-3"" ><img src=""images/maybe_new.png"" id=""choice-option-img-3"" class=""choice-option-img"" stage=""1""></div><div class=""choice-option"" id=""choice-option-4"" > <img src=""images/definitely_new.png"" id=""choice-option-img-4"" class=""choice-option-img"" stage=""1""></div></div>","","0","instructions","","",""
"learning-instructions","14","63721","0.0-9.0-0.5","5704","approach_avoid_sv1","""event"",""trial"",""time""
""fullscreenenter"",""1"",""2901""
","
","
","""event"",""trial"",""time""
""fullscreenenter"",""1"",""2901""
","
","","","","","","940.2000000476837","<p> You will have 10 seconds to make each response.  </p><p>  Make sure to respond before time runs out! </p>","","0","instructions","","",""
"learning-instructions","15","71489","0.0-9.0-0.6","5704","approach_avoid_sv1","""event"",""trial"",""time""
""fullscreenenter"",""1"",""2901""
","
","
","""event"",""trial"",""time""
""fullscreenenter"",""1"",""2901""
","
","","","","","","669.4000000953674","<p> Today, you will see each image ONCE only.  </p><p>  That means none of the images will repeat. </p>","","0","instructions","","",""
"learning-instructions","16","84564","0.0-9.0-0.7","5704","approach_avoid_sv1","""event"",""trial"",""time""
""fullscreenenter"",""1"",""2901""
","
","
","""event"",""trial"",""time""
""fullscreenenter"",""1"",""2901""
","
","","","","","","393.8000000715256","<p> Before you play the real game, it is time to practice. </p><p>  Just like in the real game, some of the images in the practice will be ones you have seen before. </p><p>  Others will be entirely new. </p>","","0","instructions","","",""
"html-button-response","17","86298","0.0-10.0","5704","approach_avoid_sv1","""event"",""trial"",""time""
""fullscreenenter"",""1"",""2901""
","
","
","""event"",""trial"",""time""
""fullscreenenter"",""1"",""2901""
","
","","","","","","1625.5999999046326","<p> Ready to practice? </p><p> Remember, use the 1, 2, 3, and 4 keys to make your responses. </p>","0","","instructions","","",""
"html-keyboard-response","18","86927","0.0-11.0-0.0","5704","approach_avoid_sv1","""event"",""trial"",""time""
""fullscreenenter"",""1"",""2901""
","
","
","""event"",""trial"",""time""
""fullscreenenter"",""1"",""2901""
","
","","","","","","null","<div style=""font-size:60px;"">+</div>","null","","fixation","","",""
"memory-trial","19","92203","0.0-11.0-1.0","5704","approach_avoid_sv1","""event"",""trial"",""time""
""fullscreenenter"",""1"",""2901""
","
","
","""event"",""trial"",""time""
""fullscreenenter"",""1"",""2901""
","
","","","","","","4267.899999976158","images/ball5.png","","","practice","2","maybe_old",""
"html-keyboard-response","20","92708","0.0-11.0-0.1","5704","approach_avoid_sv1","""event"",""trial"",""time""
""fullscreenenter"",""1"",""2901""
","
","
","""event"",""trial"",""time""
""fullscreenenter"",""1"",""2901""
","
","","","","","","null","<div style=""font-size:60px;"">+</div>","null","","fixation","","",""
"memory-trial","21","95011","0.0-11.0-1.1","5704","approach_avoid_sv1","""event"",""trial"",""time""
""fullscreenenter"",""1"",""2901""
","
","
","""event"",""trial"",""time""
""fullscreenenter"",""1"",""2901""
","
","","","","","","1287.2000000476837","images/racket1.png","","","practice","1","definitely_old",""
"html-keyboard-response","22","95525","0.0-11.0-0.2","5704","approach_avoid_sv1","""event"",""trial"",""time""
""fullscreenenter"",""1"",""2901""
","
","
","""event"",""trial"",""time""
""fullscreenenter"",""1"",""2901""
","
","","","","","","null","<div style=""font-size:60px;"">+</div>","null","","fixation","","",""
"memory-trial","23","99221","0.0-11.0-1.2","5704","approach_avoid_sv1","""event"",""trial"",""time""
""fullscreenenter"",""1"",""2901""
","
","
","""event"",""trial"",""time""
""fullscreenenter"",""1"",""2901""
","
","","","","","","2690.7000000476837","images/racket2.png","","","practice","3","maybe_new",""
"html-keyboard-response","24","99735","0.0-11.0-0.3","5704","approach_avoid_sv1","""event"",""trial"",""time""
""fullscreenenter"",""1"",""2901""
","
","
","""event"",""trial"",""time""
""fullscreenenter"",""1"",""2901""
","
","","","","","","null","<div style=""font-size:60px;"">+</div>","null","","fixation","","",""
"memory-trial","25","103437","0.0-11.0-1.3","5704","approach_avoid_sv1","""event"",""trial"",""time""
""fullscreenenter"",""1"",""2901""
","
","
","""event"",""trial"",""time""
""fullscreenenter"",""1"",""2901""
","
","","","","","","2690.6999999284744","images/ball2.png","","","practice","2","maybe_old",""
"html-keyboard-response","26","103952","0.0-11.0-0.4","5704","approach_avoid_sv1","""event"",""trial"",""time""
""fullscreenenter"",""1"",""2901""
","
","
","""event"",""trial"",""time""
""fullscreenenter"",""1"",""2901""
","
","","","","","","null","<div style=""font-size:60px;"">+</div>","null","","fixation","","",""
"memory-trial","27","106368","0.0-11.0-1.4","5704","approach_avoid_sv1","""event"",""trial"",""time""
""fullscreenenter"",""1"",""2901""
","
","
","""event"",""trial"",""time""
""fullscreenenter"",""1"",""2901""
","
","","","","","","1402.0999999046326","images/ball1.png","","","practice","1","definitely_old",""
"html-keyboard-response","28","106884","0.0-11.0-0.5","5704","approach_avoid_sv1","""event"",""trial"",""time""
""fullscreenenter"",""1"",""2901""
","
","
","""event"",""trial"",""time""
""fullscreenenter"",""1"",""2901""
","
","","","","","","null","<div style=""font-size:60px;"">+</div>","null","","fixation","","",""
"memory-trial","29","109301","0.0-11.0-1.5","5704","approach_avoid_sv1","""event"",""trial"",""time""
""fullscreenenter"",""1"",""2901""
","
","
","""event"",""trial"",""time""
""fullscreenenter"",""1"",""2901""
","
","","","","","","1404.8000000715256","images/racket3.png","","","practice","3","maybe_new",""
"html-keyboard-response","30","109814","0.0-11.0-0.6","5704","approach_avoid_sv1","""event"",""trial"",""time""
""fullscreenenter"",""1"",""2901""
","
","
","""event"",""trial"",""time""
""fullscreenenter"",""1"",""2901""
","
","","","","","","null","<div style=""font-size:60px;"">+</div>","null","","fixation","","",""
"memory-trial","31","111654","0.0-11.0-1.6","5704","approach_avoid_sv1","""event"",""trial"",""time""
""fullscreenenter"",""1"",""2901""
","
","
","""event"",""trial"",""time""
""fullscreenenter"",""1"",""2901""
","
","","","","","","831.1999999284744","images/racket5.png","","","practice","3","maybe_new",""
"html-keyboard-response","32","112167","0.0-11.0-0.7","5704","approach_avoid_sv1","""event"",""trial"",""time""
""fullscreenenter"",""1"",""2901""
","
","
","""event"",""trial"",""time""
""fullscreenenter"",""1"",""2901""
","
","","","","","","null","<div style=""font-size:60px;"">+</div>","null","","fixation","","",""
"memory-trial","33","114683","0.0-11.0-1.7","5704","approach_avoid_sv1","""event"",""trial"",""time""
""fullscreenenter"",""1"",""2901""
","
","
","""event"",""trial"",""time""
""fullscreenenter"",""1"",""2901""
","
","","","","","","1507.8000000715256","images/ball3.png","","","practice","4","definitely_new",""
"learning-instructions","34","123817","0.0-12.0-0.0","5704","approach_avoid_sv1","""event"",""trial"",""time""
""fullscreenenter"",""1"",""2901""
","
","
","""event"",""trial"",""time""
""fullscreenenter"",""1"",""2901""
","
","","","","","","1823.2999999523163","<p> Great! You have completed the practice. </p><p> Before you start, we're going to ask you a few questions about how the game works.  </p>","","0","instructions","","",""
"preload","35","127027","0.0-13.0","5704","approach_avoid_sv1","""event"",""trial"",""time""
""fullscreenenter"",""1"",""2901""
","
","
","""event"",""trial"",""time""
""fullscreenenter"",""1"",""2901""
","
","true","false","[]","[]","[]","","","","","","","",""
"comp-q","36","133672","0.0-14.0-0.0","5704","approach_avoid_sv1","""event"",""trial"",""time""
""fullscreenenter"",""1"",""2901""
","
","
","""event"",""trial"",""time""
""fullscreenenter"",""1"",""2901""
","
","","","","","","817.8000000715256","<p> <b> True or False? </b> </p><p> In this game, you will only see each image once. </p>","","0","comp_question","","","true"
"comp-q","37","141901","0.0-14.0-1.0","5704","approach_avoid_sv1","""event"",""trial"",""time""
""fullscreenenter"",""1"",""2901""
","
","
","""event"",""trial"",""time""
""fullscreenenter"",""1"",""2901""
","
","","","","","","1877.2000000476837","<p> <b> That's right! </b> You will see many different images <i> one time each </i> in this game. </p>","","0","comp_answer","","",""
"comp-q","38","147594","0.0-15.0-0.0","5704","approach_avoid_sv1","""event"",""trial"",""time""
""fullscreenenter"",""1"",""2901""
","
","
","""event"",""trial"",""time""
""fullscreenenter"",""1"",""2901""
","
","","","","","","690.7999999523163","<p> <b> True or False? </b> </p><p> You should use the mouse and click to make your response. </p>","","1","comp_question","","","true"
"comp-q","39","155242","0.0-15.0-1.0","5704","approach_avoid_sv1","""event"",""trial"",""time""
""fullscreenenter"",""1"",""2901""
","
","
","""event"",""trial"",""time""
""fullscreenenter"",""1"",""2901""
","
","","","","","","1148.5","<p><b> That's right! </b> You should use the '1', '2', '3', and '4' keys to make your response. </p>","","0","comp_answer","","",""
"comp-q","40","162225","0.0-16.0-0.0","5704","approach_avoid_sv1","""event"",""trial"",""time""
""fullscreenenter"",""1"",""2901""
","
","
","""event"",""trial"",""time""
""fullscreenenter"",""1"",""2901""
","
","","","","","","1291.7000000476837","<p> <b> True or False? </b> </p><p> You will have as much time as you want to make each choice. </p>","","1","comp_question","","","true"
"comp-q","41","168298","0.0-16.0-1.0","5704","approach_avoid_sv1","""event"",""trial"",""time""
""fullscreenenter"",""1"",""2901""
","
","
","""event"",""trial"",""time""
""fullscreenenter"",""1"",""2901""
","
","","","","","","1364.7000000476837","<p> <b> That's right! </b> You will only have 10 seconds to make each choice. </p>","","0","comp_answer","","",""
"learning-instructions","42","178373","0.0-17.0","5704","approach_avoid_sv1","""event"",""trial"",""time""
""fullscreenenter"",""1"",""2901""
","
","
","""event"",""trial"",""time""
""fullscreenenter"",""1"",""2901""
","
","","","","","","1399.1000000238419","<p> Great! You are now ready to begin the game. </p><p> Remember, use the 1, 2, 3, and 4 keys to make your responses. </p>","","0","instructions","","",""
"html-keyboard-response","43","179004","0.0-18.0-0.0","5704","approach_avoid_sv1","""event"",""trial"",""time""
""fullscreenenter"",""1"",""2901""
","
","
","""event"",""trial"",""time""
""fullscreenenter"",""1"",""2901""
","
","","","","","","null","<div style=""font-size:60px;"">+</div>","null","","fixation","","",""
"memory-trial","44","181593","0.0-18.0-1.0","5704","approach_avoid_sv1","""event"",""trial"",""time""
""fullscreenenter"",""1"",""2901""
","
","
","""event"",""trial"",""time""
""fullscreenenter"",""1"",""2901""
","
","","","","","","1567.2000000476837","images/dog7.png","","","memory_trial","1","definitely_old",""
"html-keyboard-response","45","182105","0.0-18.0-0.1","5704","approach_avoid_sv1","""event"",""trial"",""time""
""fullscreenenter"",""1"",""2901""
","
","
","""event"",""trial"",""time""
""fullscreenenter"",""1"",""2901""
","
","","","","","","null","<div style=""font-size:60px;"">+</div>","null","","fixation","","",""
"memory-trial","46","184304","0.0-18.0-1.1","5704","approach_avoid_sv1","""event"",""trial"",""time""
""fullscreenenter"",""1"",""2901""
","
","
","""event"",""trial"",""time""
""fullscreenenter"",""1"",""2901""
","
","","","","","","1186.5","images/sofa4.png","","","memory_trial","1","definitely_old",""
"html-keyboard-response","47","184820","0.0-18.0-0.2","5704","approach_avoid_sv1","""event"",""trial"",""time""
""fullscreenenter"",""1"",""2901""
","
","
","""event"",""trial"",""time""
""fullscreenenter"",""1"",""2901""
","
","","","","","","null","<div style=""font-size:60px;"">+</div>","null","","fixation","","",""
"memory-trial","48","187240","0.0-18.0-1.2","5704","approach_avoid_sv1","""event"",""trial"",""time""
""fullscreenenter"",""1"",""2901""
","
","
","""event"",""trial"",""time""
""fullscreenenter"",""1"",""2901""
","
","","","","","","1411.7999999523163","images/chair3.png","","","memory_trial","3","maybe_new",""
"html-keyboard-response","49","187755","0.0-18.0-0.3","5704","approach_avoid_sv1","""event"",""trial"",""time""
""fullscreenenter"",""1"",""2901""
","
","
","""event"",""trial"",""time""
""fullscreenenter"",""1"",""2901""
","
","","","","","","null","<div style=""font-size:60px;"">+</div>","null","","fixation","","",""
"memory-trial","50","190843","0.0-18.0-1.3","5704","approach_avoid_sv1","""event"",""trial"",""time""
""fullscreenenter"",""1"",""2901""
","
","
","""event"",""trial"",""time""
""fullscreenenter"",""1"",""2901""
","
","","","","","","2077.0999999046326","images/bush3.png","","","memory_trial","4","definitely_new",""
"html-keyboard-response","51","191349","0.0-18.0-0.4","5704","approach_avoid_sv1","""event"",""trial"",""time""
""fullscreenenter"",""1"",""2901""
","
","
","""event"",""trial"",""time""
""fullscreenenter"",""1"",""2901""
","
","","","","","","null","<div style=""font-size:60px;"">+</div>","null","","fixation","","",""
"memory-trial","52","194161","0.0-18.0-1.4","5704","approach_avoid_sv1","""event"",""trial"",""time""
""fullscreenenter"",""1"",""2901""
","
","
","""event"",""trial"",""time""
""fullscreenenter"",""1"",""2901""
","
","","","","","","1803","images/cow1.png","","","memory_trial","3","maybe_new",""
"html-keyboard-response","53","194674","0.0-18.0-0.5","5704","approach_avoid_sv1","""event"",""trial"",""time""
""fullscreenenter"",""1"",""2901""
","
","
","""event"",""trial"",""time""
""fullscreenenter"",""1"",""2901""
","
","","","","","","null","<div style=""font-size:60px;"">+</div>","null","","fixation","","",""
"memory-trial","54","197043","0.0-18.0-1.5","5704","approach_avoid_sv1","""event"",""trial"",""time""
""fullscreenenter"",""1"",""2901""
","
","
","""event"",""trial"",""time""
""fullscreenenter"",""1"",""2901""
","
","","","","","","1348.2000000476837","images/train2.png","","","memory_trial","4","definitely_new",""
"html-keyboard-response","55","197560","0.0-18.0-0.6","5704","approach_avoid_sv1","""event"",""trial"",""time""
""fullscreenenter"",""1"",""2901""
","
","
","""event"",""trial"",""time""
""fullscreenenter"",""1"",""2901""
","
","","","","","","null","<div style=""font-size:60px;"">+</div>","null","","fixation","","",""
"memory-trial","56","200915","0.0-18.0-1.6","5704","approach_avoid_sv1","""event"",""trial"",""time""
""fullscreenenter"",""1"",""2901""
","
","
","""event"",""trial"",""time""
""fullscreenenter"",""1"",""2901""
","
","","","","","","2344.1999999284744","images/sheep6.png","","","memory_trial","3","maybe_new",""
"html-keyboard-response","57","201430","0.0-18.0-0.7","5704","approach_avoid_sv1","""event"",""trial"",""time""
""fullscreenenter"",""1"",""2901""
","
","
","""event"",""trial"",""time""
""fullscreenenter"",""1"",""2901""
","
","","","","","","null","<div style=""font-size:60px;"">+</div>","null","","fixation","","",""
"memory-trial","58","204016","0.0-18.0-1.7","5704","approach_avoid_sv1","""event"",""trial"",""time""
""fullscreenenter"",""1"",""2901""
","
","
","""event"",""trial"",""time""
""fullscreenenter"",""1"",""2901""
","
","","","","","","1571.8999999761581","images/truck6.png","","","memory_trial","1","definitely_old",""
"html-keyboard-response","59","204530","0.0-18.0-0.8","5704","approach_avoid_sv1","""event"",""trial"",""time""
""fullscreenenter"",""1"",""2901""
","
","
","""event"",""trial"",""time""
""fullscreenenter"",""1"",""2901""
","
","","","","","","null","<div style=""font-size:60px;"">+</div>","null","","fixation","","",""
"memory-trial","60","206617","0.0-18.0-1.8","5704","approach_avoid_sv1","""event"",""trial"",""time""
""fullscreenenter"",""1"",""2901""
","
","
","""event"",""trial"",""time""
""fullscreenenter"",""1"",""2901""
","
","","","","","","1071.7000000476837","images/sofa8.png","","","memory_trial","1","definitely_old",""
"html-keyboard-response","61","207124","0.0-18.0-0.9","5704","approach_avoid_sv1","""event"",""trial"",""time""
""fullscreenenter"",""1"",""2901""
","
","
","""event"",""trial"",""time""
""fullscreenenter"",""1"",""2901""
","
","","","","","","null","<div style=""font-size:60px;"">+</div>","null","","fixation","","",""
"memory-trial","62","209843","0.0-18.0-1.9","5704","approach_avoid_sv1","""event"",""trial"",""time""
""fullscreenenter"",""1"",""2901""
","
","
","""event"",""trial"",""time""
""fullscreenenter"",""1"",""2901""
","
","","","","","","1709.5","images/plane8.png","","","memory_trial","4","definitely_new",""
"html-keyboard-response","63","210347","0.0-18.0-0.10","5704","approach_avoid_sv1","""event"",""trial"",""time""
""fullscreenenter"",""1"",""2901""
","
","
","""event"",""trial"",""time""
""fullscreenenter"",""1"",""2901""
","
","","","","","","null","<div style=""font-size:60px;"">+</div>","null","","fixation","","",""
"memory-trial","64","212547","0.0-18.0-1.10","5704","approach_avoid_sv1","""event"",""trial"",""time""
""fullscreenenter"",""1"",""2901""
","
","
","""event"",""trial"",""time""
""fullscreenenter"",""1"",""2901""
","
","","","","","","1195.1000000238419","images/sheep8.png","","","memory_trial","1","definitely_old",""
"html-keyboard-response","65","213051","0.0-18.0-0.11","5704","approach_avoid_sv1","""event"",""trial"",""time""
""fullscreenenter"",""1"",""2901""
","
","
","""event"",""trial"",""time""
""fullscreenenter"",""1"",""2901""
","
","","","","","","null","<div style=""font-size:60px;"">+</div>","null","","fixation","","",""
"memory-trial","66","216229","0.0-18.0-1.11","5704","approach_avoid_sv1","""event"",""trial"",""time""
""fullscreenenter"",""1"",""2901""
","
","
","""event"",""trial"",""time""
""fullscreenenter"",""1"",""2901""
","
","","","","","","2170.7999999523163","images/table6.png","","","memory_trial","3","maybe_new",""
"html-keyboard-response","67","216731","0.0-18.0-0.12","5704","approach_avoid_sv1","""event"",""trial"",""time""
""fullscreenenter"",""1"",""2901""
","
","
","""event"",""trial"",""time""
""fullscreenenter"",""1"",""2901""
","
","","","","","","null","<div style=""font-size:60px;"">+</div>","null","","fixation","","",""
"memory-trial","68","219051","0.0-18.0-1.12","5704","approach_avoid_sv1","""event"",""trial"",""time""
""fullscreenenter"",""1"",""2901""
","
","
","""event"",""trial"",""time""
""fullscreenenter"",""1"",""2901""
","
","","","","","","1309.6000000238419","images/boat8.png","","","memory_trial","1","definitely_old",""
"html-keyboard-response","69","219556","0.0-18.0-0.13","5704","approach_avoid_sv1","""event"",""trial"",""time""
""fullscreenenter"",""1"",""2901""
","
","
","""event"",""trial"",""time""
""fullscreenenter"",""1"",""2901""
","
","","","","","","null","<div style=""font-size:60px;"">+</div>","null","","fixation","","",""
"memory-trial","70","221707","0.0-18.0-1.13","5704","approach_avoid_sv1","""event"",""trial"",""time""
""fullscreenenter"",""1"",""2901""
","
","
","""event"",""trial"",""time""
""fullscreenenter"",""1"",""2901""
","
","","","","","","1146.2000000476837","images/table1.png","","","memory_trial","1","definitely_old",""
"html-keyboard-response","71","222211","0.0-18.0-0.14","5704","approach_avoid_sv1","""event"",""trial"",""time""
""fullscreenenter"",""1"",""2901""
","
","
","""event"",""trial"",""time""
""fullscreenenter"",""1"",""2901""
","
","","","","","","null","<div style=""font-size:60px;"">+</div>","null","","fixation","","",""
"memory-trial","72","224706","0.0-18.0-1.14","5704","approach_avoid_sv1","""event"",""trial"",""time""
""fullscreenenter"",""1"",""2901""
","
","
","""event"",""trial"",""time""
""fullscreenenter"",""1"",""2901""
","
","","","","","","1482.3999999761581","images/bed7.png","","","memory_trial","4","definitely_new",""
"html-keyboard-response","73","225211","0.0-18.0-0.15","5704","approach_avoid_sv1","""event"",""trial"",""time""
""fullscreenenter"",""1"",""2901""
","
","
","""event"",""trial"",""time""
""fullscreenenter"",""1"",""2901""
","
","","","","","","null","<div style=""font-size:60px;"">+</div>","null","","fixation","","",""
"memory-trial","74","227908","0.0-18.0-1.15","5704","approach_avoid_sv1","""event"",""trial"",""time""
""fullscreenenter"",""1"",""2901""
","
","
","""event"",""trial"",""time""
""fullscreenenter"",""1"",""2901""
","
","","","","","","1690.5","images/truck8.png","","","memory_trial","2","maybe_old",""
"html-keyboard-response","75","228412","0.0-18.0-0.16","5704","approach_avoid_sv1","""event"",""trial"",""time""
""fullscreenenter"",""1"",""2901""
","
","
","""event"",""trial"",""time""
""fullscreenenter"",""1"",""2901""
","
","","","","","","null","<div style=""font-size:60px;"">+</div>","null","","fixation","","",""
"memory-trial","76","230420","0.0-18.0-1.16","5704","approach_avoid_sv1","""event"",""trial"",""time""
""fullscreenenter"",""1"",""2901""
","
","
","""event"",""trial"",""time""
""fullscreenenter"",""1"",""2901""
","
","","","","","","999.6000000238419","images/rabbit8.png","","","memory_trial","1","definitely_old",""
"html-keyboard-response","77","230924","0.0-18.0-0.17","5704","approach_avoid_sv1","""event"",""trial"",""time""
""fullscreenenter"",""1"",""2901""
","
","
","""event"",""trial"",""time""
""fullscreenenter"",""1"",""2901""
","
","","","","","","null","<div style=""font-size:60px;"">+</div>","null","","fixation","","",""
"memory-trial","78","233036","0.0-18.0-1.17","5704","approach_avoid_sv1","""event"",""trial"",""time""
""fullscreenenter"",""1"",""2901""
","
","
","""event"",""trial"",""time""
""fullscreenenter"",""1"",""2901""
","
","","","","","","1108.3999999761581","images/train5.png","","","memory_trial","1","definitely_old",""
"html-keyboard-response","79","233539","0.0-18.0-0.18","5704","approach_avoid_sv1","""event"",""trial"",""time""
""fullscreenenter"",""1"",""2901""
","
","
","""event"",""trial"",""time""
""fullscreenenter"",""1"",""2901""
","
","","","","","","null","<div style=""font-size:60px;"">+</div>","null","","fixation","","",""
"memory-trial","80","235500","0.0-18.0-1.18","5704","approach_avoid_sv1","""event"",""trial"",""time""
""fullscreenenter"",""1"",""2901""
","
","
","""event"",""trial"",""time""
""fullscreenenter"",""1"",""2901""
","
","","","","","","955.0999999046326","images/table5.png","","","memory_trial","1","definitely_old",""
"html-keyboard-response","81","236003","0.0-18.0-0.19","5704","approach_avoid_sv1","""event"",""trial"",""time""
""fullscreenenter"",""1"",""2901""
","
","
","""event"",""trial"",""time""
""fullscreenenter"",""1"",""2901""
","
","","","","","","null","<div style=""font-size:60px;"">+</div>","null","","fixation","","",""
"memory-trial","82","238716","0.0-18.0-1.19","5704","approach_avoid_sv1","""event"",""trial"",""time""
""fullscreenenter"",""1"",""2901""
","
","
","""event"",""trial"",""time""
""fullscreenenter"",""1"",""2901""
","
","","","","","","1709.2999999523163","images/chair4.png","","","memory_trial","4","definitely_new",""
"html-keyboard-response","83","239219","0.0-18.0-0.20","5704","approach_avoid_sv1","""event"",""trial"",""time""
""fullscreenenter"",""1"",""2901""
","
","
","""event"",""trial"",""time""
""fullscreenenter"",""1"",""2901""
","
","","","","","","null","<div style=""font-size:60px;"">+</div>","null","","fixation","","",""
"memory-trial","84","241236","0.0-18.0-1.20","5704","approach_avoid_sv1","""event"",""trial"",""time""
""fullscreenenter"",""1"",""2901""
","
","
","""event"",""trial"",""time""
""fullscreenenter"",""1"",""2901""
","
","","","","","","1013.2999999523163","images/bush1.png","","","memory_trial","1","definitely_old",""
"html-keyboard-response","85","241740","0.0-18.0-0.21","5704","approach_avoid_sv1","""event"",""trial"",""time""
""fullscreenenter"",""1"",""2901""
","
","
","""event"",""trial"",""time""
""fullscreenenter"",""1"",""2901""
","
","","","","","","null","<div style=""font-size:60px;"">+</div>","null","","fixation","","",""
"memory-trial","86","244341","0.0-18.0-1.21","5704","approach_avoid_sv1","""event"",""trial"",""time""
""fullscreenenter"",""1"",""2901""
","
","
","""event"",""trial"",""time""
""fullscreenenter"",""1"",""2901""
","
","","","","","","1592.7999999523163","images/cactus2.png","","","memory_trial","4","definitely_new",""
"html-keyboard-response","87","244844","0.0-18.0-0.22","5704","approach_avoid_sv1","""event"",""trial"",""time""
""fullscreenenter"",""1"",""2901""
","
","
","""event"",""trial"",""time""
""fullscreenenter"",""1"",""2901""
","
","","","","","","null","<div style=""font-size:60px;"">+</div>","null","","fixation","","",""
"memory-trial","88","247708","0.0-18.0-1.22","5704","approach_avoid_sv1","""event"",""trial"",""time""
""fullscreenenter"",""1"",""2901""
","
","
","""event"",""trial"",""time""
""fullscreenenter"",""1"",""2901""
","
","","","","","","1860.2000000476837","images/apple2.png","","","memory_trial","2","maybe_old",""
"html-keyboard-response","89","248212","0.0-18.0-0.23","5704","approach_avoid_sv1","""event"",""trial"",""time""
""fullscreenenter"",""1"",""2901""
","
","
","""event"",""trial"",""time""
""fullscreenenter"",""1"",""2901""
","
","","","","","","null","<div style=""font-size:60px;"">+</div>","null","","fixation","","",""
"memory-trial","90","250172","0.0-18.0-1.23","5704","approach_avoid_sv1","""event"",""trial"",""time""
""fullscreenenter"",""1"",""2901""
","
","
","""event"",""trial"",""time""
""fullscreenenter"",""1"",""2901""
","
","","","","","","950.9000000953674","images/cat6.png","","","memory_trial","1","definitely_old",""
"html-keyboard-response","91","250675","0.0-18.0-0.24","5704","approach_avoid_sv1","""event"",""trial"",""time""
""fullscreenenter"",""1"",""2901""
","
","
","""event"",""trial"",""time""
""fullscreenenter"",""1"",""2901""
","
","","","","","","null","<div style=""font-size:60px;"">+</div>","null","","fixation","","",""
"memory-trial","92","253980","0.0-18.0-1.24","5704","approach_avoid_sv1","""event"",""trial"",""time""
""fullscreenenter"",""1"",""2901""
","
","
","""event"",""trial"",""time""
""fullscreenenter"",""1"",""2901""
","
","","","","","","2297.600000023842","images/boat4.png","","","memory_trial","3","maybe_new",""
"html-keyboard-response","93","254484","0.0-18.0-0.25","5704","approach_avoid_sv1","""event"",""trial"",""time""
""fullscreenenter"",""1"",""2901""
","
","
","""event"",""trial"",""time""
""fullscreenenter"",""1"",""2901""
","
","","","","","","null","<div style=""font-size:60px;"">+</div>","null","","fixation","","",""
"memory-trial","94","256892","0.0-18.0-1.25","5704","approach_avoid_sv1","""event"",""trial"",""time""
""fullscreenenter"",""1"",""2901""
","
","
","""event"",""trial"",""time""
""fullscreenenter"",""1"",""2901""
","
","","","","","","1398.5","images/bush7.png","","","memory_trial","2","maybe_old",""
"html-keyboard-response","95","257396","0.0-18.0-0.26","5704","approach_avoid_sv1","""event"",""trial"",""time""
""fullscreenenter"",""1"",""2901""
","
","
","""event"",""trial"",""time""
""fullscreenenter"",""1"",""2901""
","
","","","","","","null","<div style=""font-size:60px;"">+</div>","null","","fixation","","",""
"memory-trial","96","259780","0.0-18.0-1.26","5704","approach_avoid_sv1","""event"",""trial"",""time""
""fullscreenenter"",""1"",""2901""
","
","
","""event"",""trial"",""time""
""fullscreenenter"",""1"",""2901""
","
","","","","","","1378.5","images/bed3.png","","","memory_trial","3","maybe_new",""
"html-keyboard-response","97","260283","0.0-18.0-0.27","5704","approach_avoid_sv1","""event"",""trial"",""time""
""fullscreenenter"",""1"",""2901""
","
","
","""event"",""trial"",""time""
""fullscreenenter"",""1"",""2901""
","
","","","","","","null","<div style=""font-size:60px;"">+</div>","null","","fixation","","",""
"memory-trial","98","262652","0.0-18.0-1.27","5704","approach_avoid_sv1","""event"",""trial"",""time""
""fullscreenenter"",""1"",""2901""
","
","
","""event"",""trial"",""time""
""fullscreenenter"",""1"",""2901""
","
","","","","","","1360","images/boat6.png","","","memory_trial","2","maybe_old",""
"html-keyboard-response","99","263156","0.0-18.0-0.28","5704","approach_avoid_sv1","""event"",""trial"",""time""
""fullscreenenter"",""1"",""2901""
","
","
","""event"",""trial"",""time""
""fullscreenenter"",""1"",""2901""
","
","","","","","","null","<div style=""font-size:60px;"">+</div>","null","","fixation","","",""
"memory-trial","100","266965","0.0-18.0-1.28","5704","approach_avoid_sv1","""event"",""trial"",""time""
""fullscreenenter"",""1"",""2901""
","
","
","""event"",""trial"",""time""
""fullscreenenter"",""1"",""2901""
","
","","","","","","2797.600000023842","images/tree6.png","","","memory_trial","3","maybe_new",""
"html-keyboard-response","101","267468","0.0-18.0-0.29","5704","approach_avoid_sv1","""event"",""trial"",""time""
""fullscreenenter"",""1"",""2901""
","
","
","""event"",""trial"",""time""
""fullscreenenter"",""1"",""2901""
","
","","","","","","null","<div style=""font-size:60px;"">+</div>","null","","fixation","","",""
"memory-trial","102","269612","0.0-18.0-1.29","5704","approach_avoid_sv1","""event"",""trial"",""time""
""fullscreenenter"",""1"",""2901""
","
","
","""event"",""trial"",""time""
""fullscreenenter"",""1"",""2901""
","
","","","","","","1135.2000000476837","images/cow3.png","","","memory_trial","1","definitely_old",""
"html-keyboard-response","103","270116","0.0-18.0-0.30","5704","approach_avoid_sv1","""event"",""trial"",""time""
""fullscreenenter"",""1"",""2901""
","
","
","""event"",""trial"",""time""
""fullscreenenter"",""1"",""2901""
","
","","","","","","null","<div style=""font-size:60px;"">+</div>","null","","fixation","","",""
"memory-trial","104","272763","0.0-18.0-1.30","5704","approach_avoid_sv1","""event"",""trial"",""time""
""fullscreenenter"",""1"",""2901""
","
","
","""event"",""trial"",""time""
""fullscreenenter"",""1"",""2901""
","
","","","","","","1638.6999999284744","images/boat5.png","","","memory_trial","2","maybe_old",""
"html-keyboard-response","105","273268","0.0-18.0-0.31","5704","approach_avoid_sv1","""event"",""trial"",""time""
""fullscreenenter"",""1"",""2901""
","
","
","""event"",""trial"",""time""
""fullscreenenter"",""1"",""2901""
","
","","","","","","null","<div style=""font-size:60px;"">+</div>","null","","fixation","","",""
"memory-trial","106","275387","0.0-18.0-1.31","5704","approach_avoid_sv1","""event"",""trial"",""time""
""fullscreenenter"",""1"",""2901""
","
","
","""event"",""trial"",""time""
""fullscreenenter"",""1"",""2901""
","
","","","","","","1115.8999999761581","images/flower6.png","","","memory_trial","1","definitely_old",""
"html-keyboard-response","107","275892","0.0-18.0-0.32","5704","approach_avoid_sv1","""event"",""trial"",""time""
""fullscreenenter"",""1"",""2901""
","
","
","""event"",""trial"",""time""
""fullscreenenter"",""1"",""2901""
","
","","","","","","null","<div style=""font-size:60px;"">+</div>","null","","fixation","","",""
"memory-trial","108","278083","0.0-18.0-1.32","5704","approach_avoid_sv1","""event"",""trial"",""time""
""fullscreenenter"",""1"",""2901""
","
","
","""event"",""trial"",""time""
""fullscreenenter"",""1"",""2901""
","
","","","","","","1180.6000000238419","images/banana4.png","","","memory_trial","1","definitely_old",""
"html-keyboard-response","109","278588","0.0-18.0-0.33","5704","approach_avoid_sv1","""event"",""trial"",""time""
""fullscreenenter"",""1"",""2901""
","
","
","""event"",""trial"",""time""
""fullscreenenter"",""1"",""2901""
","
","","","","","","null","<div style=""font-size:60px;"">+</div>","null","","fixation","","",""
"memory-trial","110","280300","0.0-18.0-1.33","5704","approach_avoid_sv1","""event"",""trial"",""time""
""fullscreenenter"",""1"",""2901""
","
","
","""event"",""trial"",""time""
""fullscreenenter"",""1"",""2901""
","
","","","","","","705.4000000953674","images/flower4.png","","","memory_trial","1","definitely_old",""
"html-keyboard-response","111","280804","0.0-18.0-0.34","5704","approach_avoid_sv1","""event"",""trial"",""time""
""fullscreenenter"",""1"",""2901""
","
","
","""event"",""trial"",""time""
""fullscreenenter"",""1"",""2901""
","
","","","","","","null","<div style=""font-size:60px;"">+</div>","null","","fixation","","",""
"memory-trial","112","283764","0.0-18.0-1.34","5704","approach_avoid_sv1","""event"",""trial"",""time""
""fullscreenenter"",""1"",""2901""
","
","
","""event"",""trial"",""time""
""fullscreenenter"",""1"",""2901""
","
","","","","","","1953","images/sofa2.png","","","memory_trial","4","definitely_new",""
"html-keyboard-response","113","284268","0.0-18.0-0.35","5704","approach_avoid_sv1","""event"",""trial"",""time""
""fullscreenenter"",""1"",""2901""
","
","
","""event"",""trial"",""time""
""fullscreenenter"",""1"",""2901""
","
","","","","","","null","<div style=""font-size:60px;"">+</div>","null","","fixation","","",""
"memory-trial","114","287193","0.0-18.0-1.35","5704","approach_avoid_sv1","""event"",""trial"",""time""
""fullscreenenter"",""1"",""2901""
","
","
","""event"",""trial"",""time""
""fullscreenenter"",""1"",""2901""
","
","","","","","","1904.8000000715256","images/tree3.png","","","memory_trial","3","maybe_new",""
"html-keyboard-response","115","287699","0.0-18.0-0.36","5704","approach_avoid_sv1","""event"",""trial"",""time""
""fullscreenenter"",""1"",""2901""
","
","
","""event"",""trial"",""time""
""fullscreenenter"",""1"",""2901""
","
","","","","","","null","<div style=""font-size:60px;"">+</div>","null","","fixation","","",""
"memory-trial","116","290219","0.0-18.0-1.36","5704","approach_avoid_sv1","""event"",""trial"",""time""
""fullscreenenter"",""1"",""2901""
","
","
","""event"",""trial"",""time""
""fullscreenenter"",""1"",""2901""
","
","","","","","","1513.3999999761581","images/goat8.png","","","memory_trial","4","definitely_new",""
"html-keyboard-response","117","290724","0.0-18.0-0.37","5704","approach_avoid_sv1","""event"",""trial"",""time""
""fullscreenenter"",""1"",""2901""
","
","
","""event"",""trial"",""time""
""fullscreenenter"",""1"",""2901""
","
","","","","","","null","<div style=""font-size:60px;"">+</div>","null","","fixation","","",""
"memory-trial","118","292924","0.0-18.0-1.37","5704","approach_avoid_sv1","""event"",""trial"",""time""
""fullscreenenter"",""1"",""2901""
","
","
","""event"",""trial"",""time""
""fullscreenenter"",""1"",""2901""
","
","","","","","","1189.5","images/tree1.png","","","memory_trial","1","definitely_old",""
"html-keyboard-response","119","293440","0.0-18.0-0.38","5704","approach_avoid_sv1","""event"",""trial"",""time""
""fullscreenenter"",""1"",""2901""
","
","
","""event"",""trial"",""time""
""fullscreenenter"",""1"",""2901""
","
","","","","","","null","<div style=""font-size:60px;"">+</div>","null","","fixation","","",""
"memory-trial","120","295581","0.0-18.0-1.38","5704","approach_avoid_sv1","""event"",""trial"",""time""
""fullscreenenter"",""1"",""2901""
","
","
","""event"",""trial"",""time""
""fullscreenenter"",""1"",""2901""
","
","","","","","","1134.4000000953674","images/horse8.png","","","memory_trial","1","definitely_old",""
"html-keyboard-response","121","296084","0.0-18.0-0.39","5704","approach_avoid_sv1","""event"",""trial"",""time""
""fullscreenenter"",""1"",""2901""
","
","
","""event"",""trial"",""time""
""fullscreenenter"",""1"",""2901""
","
","","","","","","null","<div style=""font-size:60px;"">+</div>","null","","fixation","","",""
"memory-trial","122","299379","0.0-18.0-1.39","5704","approach_avoid_sv1","""event"",""trial"",""time""
""fullscreenenter"",""1"",""2901""
","
","
","""event"",""trial"",""time""
""fullscreenenter"",""1"",""2901""
","
","","","","","","2289.5","images/banana1.png","","","memory_trial","1","definitely_old",""
"html-keyboard-response","123","299883","0.0-18.0-0.40","5704","approach_avoid_sv1","""event"",""trial"",""time""
""fullscreenenter"",""1"",""2901""
","
","
","""event"",""trial"",""time""
""fullscreenenter"",""1"",""2901""
","
","","","","","","null","<div style=""font-size:60px;"">+</div>","null","","fixation","","",""
"memory-trial","124","303227","0.0-18.0-1.40","5704","approach_avoid_sv1","""event"",""trial"",""time""
""fullscreenenter"",""1"",""2901""
","
","
","""event"",""trial"",""time""
""fullscreenenter"",""1"",""2901""
","
","","","","","","2340.399999976158","images/banana7.png","","","memory_trial","2","maybe_old",""
"html-keyboard-response","125","303732","0.0-18.0-0.41","5704","approach_avoid_sv1","""event"",""trial"",""time""
""fullscreenenter"",""1"",""2901""
","
","
","""event"",""trial"",""time""
""fullscreenenter"",""1"",""2901""
","
","","","","","","null","<div style=""font-size:60px;"">+</div>","null","","fixation","","",""
"memory-trial","126","306716","0.0-18.0-1.41","5704","approach_avoid_sv1","""event"",""trial"",""time""
""fullscreenenter"",""1"",""2901""
","
","
","""event"",""trial"",""time""
""fullscreenenter"",""1"",""2901""
","
","","","","","","1972.1000000238419","images/cactus5.png","","","memory_trial","4","definitely_new",""
"html-button-response","127","313717","0.0-18.0-2.41-0.41","5704","approach_avoid_sv1","""event"",""trial"",""time""
""fullscreenenter"",""1"",""2901""
","
","
","""event"",""trial"",""time""
""fullscreenenter"",""1"",""2901""
","
","","","","","","6999.899999976158","<p> Take a break! </p><p> Click the button to continue. </p>","0","","break","","",""
"html-keyboard-response","128","314219","0.0-18.0-0.42","5704","approach_avoid_sv1","""event"",""trial"",""time""
""fullscreenenter"",""1"",""2901""
","
","
","""event"",""trial"",""time""
""fullscreenenter"",""1"",""2901""
","
","","","","","","null","<div style=""font-size:60px;"">+</div>","null","","fixation","","",""
"memory-trial","129","317252","0.0-18.0-1.42","5704","approach_avoid_sv1","""event"",""trial"",""time""
""fullscreenenter"",""1"",""2901""
","
","
","""event"",""trial"",""time""
""fullscreenenter"",""1"",""2901""
","
","","","","","","2023.3000000715256","images/goat2.png","","","memory_trial","4","definitely_new",""
"html-keyboard-response","130","317755","0.0-18.0-0.43","5704","approach_avoid_sv1","""event"",""trial"",""time""
""fullscreenenter"",""1"",""2901""
","
","
","""event"",""trial"",""time""
""fullscreenenter"",""1"",""2901""
","
","","","","","","null","<div style=""font-size:60px;"">+</div>","null","","fixation","","",""
"memory-trial","131","320924","0.0-18.0-1.43","5704","approach_avoid_sv1","""event"",""trial"",""time""
""fullscreenenter"",""1"",""2901""
","
","
","""event"",""trial"",""time""
""fullscreenenter"",""1"",""2901""
","
","","","","","","2158.6999999284744","images/boat7.png","","","memory_trial","3","maybe_new",""
"html-keyboard-response","132","321428","0.0-18.0-0.44","5704","approach_avoid_sv1","""event"",""trial"",""time""
""fullscreenenter"",""1"",""2901""
","
","
","""event"",""trial"",""time""
""fullscreenenter"",""1"",""2901""
","
","","","","","","null","<div style=""font-size:60px;"">+</div>","null","","fixation","","",""
"memory-trial","133","323883","0.0-18.0-1.44","5704","approach_avoid_sv1","""event"",""trial"",""time""
""fullscreenenter"",""1"",""2901""
","
","
","""event"",""trial"",""time""
""fullscreenenter"",""1"",""2901""
","
","","","","","","1445.1999999284744","images/rodent8.png","","","memory_trial","4","definitely_new",""
"html-keyboard-response","134","324387","0.0-18.0-0.45","5704","approach_avoid_sv1","""event"",""trial"",""time""
""fullscreenenter"",""1"",""2901""
","
","
","""event"",""trial"",""time""
""fullscreenenter"",""1"",""2901""
","
","","","","","","null","<div style=""font-size:60px;"">+</div>","null","","fixation","","",""
"memory-trial","135","326973","0.0-18.0-1.45","5704","approach_avoid_sv1","""event"",""trial"",""time""
""fullscreenenter"",""1"",""2901""
","
","
","""event"",""trial"",""time""
""fullscreenenter"",""1"",""2901""
","
","","","","","","1576.3999999761581","images/sofa6.png","","","memory_trial","3","maybe_new",""
"html-keyboard-response","136","327476","0.0-18.0-0.46","5704","approach_avoid_sv1","""event"",""trial"",""time""
""fullscreenenter"",""1"",""2901""
","
","
","""event"",""trial"",""time""
""fullscreenenter"",""1"",""2901""
","
","","","","","","null","<div style=""font-size:60px;"">+</div>","null","","fixation","","",""
"memory-trial","137","330012","0.0-18.0-1.46","5704","approach_avoid_sv1","""event"",""trial"",""time""
""fullscreenenter"",""1"",""2901""
","
","
","""event"",""trial"",""time""
""fullscreenenter"",""1"",""2901""
","
","","","","","","1529","images/goat5.png","","","memory_trial","3","maybe_new",""
"html-keyboard-response","138","330516","0.0-18.0-0.47","5704","approach_avoid_sv1","""event"",""trial"",""time""
""fullscreenenter"",""1"",""2901""
","
","
","""event"",""trial"",""time""
""fullscreenenter"",""1"",""2901""
","
","","","","","","null","<div style=""font-size:60px;"">+</div>","null","","fixation","","",""
"memory-trial","139","332619","0.0-18.0-1.47","5704","approach_avoid_sv1","""event"",""trial"",""time""
""fullscreenenter"",""1"",""2901""
","
","
","""event"",""trial"",""time""
""fullscreenenter"",""1"",""2901""
","
","","","","","","1097.5","images/horse5.png","","","memory_trial","1","definitely_old",""
"html-keyboard-response","140","333123","0.0-18.0-0.48","5704","approach_avoid_sv1","""event"",""trial"",""time""
""fullscreenenter"",""1"",""2901""
","
","
","""event"",""trial"",""time""
""fullscreenenter"",""1"",""2901""
","
","","","","","","null","<div style=""font-size:60px;"">+</div>","null","","fixation","","",""
"memory-trial","141","335820","0.0-18.0-1.48","5704","approach_avoid_sv1","""event"",""trial"",""time""
""fullscreenenter"",""1"",""2901""
","
","
","""event"",""trial"",""time""
""fullscreenenter"",""1"",""2901""
","
","","","","","","1692","images/sheep4.png","","","memory_trial","2","maybe_old",""
"html-keyboard-response","142","336323","0.0-18.0-0.49","5704","approach_avoid_sv1","""event"",""trial"",""time""
""fullscreenenter"",""1"",""2901""
","
","
","""event"",""trial"",""time""
""fullscreenenter"",""1"",""2901""
","
","","","","","","null","<div style=""font-size:60px;"">+</div>","null","","fixation","","",""
"memory-trial","143","338899","0.0-18.0-1.49","5704","approach_avoid_sv1","""event"",""trial"",""time""
""fullscreenenter"",""1"",""2901""
","
","
","""event"",""trial"",""time""
""fullscreenenter"",""1"",""2901""
","
","","","","","","1570.5","images/bush5.png","","","memory_trial","4","definitely_new",""
"html-keyboard-response","144","339404","0.0-18.0-0.50","5704","approach_avoid_sv1","""event"",""trial"",""time""
""fullscreenenter"",""1"",""2901""
","
","
","""event"",""trial"",""time""
""fullscreenenter"",""1"",""2901""
","
","","","","","","null","<div style=""font-size:60px;"">+</div>","null","","fixation","","",""
"memory-trial","145","341691","0.0-18.0-1.50","5704","approach_avoid_sv1","""event"",""trial"",""time""
""fullscreenenter"",""1"",""2901""
","
","
","""event"",""trial"",""time""
""fullscreenenter"",""1"",""2901""
","
","","","","","","1281.5","images/bed1.png","","","memory_trial","4","definitely_new",""
"html-keyboard-response","146","342196","0.0-18.0-0.51","5704","approach_avoid_sv1","""event"",""trial"",""time""
""fullscreenenter"",""1"",""2901""
","
","
","""event"",""trial"",""time""
""fullscreenenter"",""1"",""2901""
","
","","","","","","null","<div style=""font-size:60px;"">+</div>","null","","fixation","","",""
"memory-trial","147","345771","0.0-18.0-1.51","5704","approach_avoid_sv1","""event"",""trial"",""time""
""fullscreenenter"",""1"",""2901""
","
","
","""event"",""trial"",""time""
""fullscreenenter"",""1"",""2901""
","
","","","","","","2568.899999976158","images/flower5.png","","","memory_trial","3","maybe_new",""
"html-keyboard-response","148","346275","0.0-18.0-0.52","5704","approach_avoid_sv1","""event"",""trial"",""time""
""fullscreenenter"",""1"",""2901""
","
","
","""event"",""trial"",""time""
""fullscreenenter"",""1"",""2901""
","
","","","","","","null","<div style=""font-size:60px;"">+</div>","null","","fixation","","",""
"memory-trial","149","348628","0.0-18.0-1.52","5704","approach_avoid_sv1","""event"",""trial"",""time""
""fullscreenenter"",""1"",""2901""
","
","
","""event"",""trial"",""time""
""fullscreenenter"",""1"",""2901""
","
","","","","","","1347.5999999046326","images/truck2.png","","","memory_trial","1","definitely_old",""
"html-keyboard-response","150","349132","0.0-18.0-0.53","5704","approach_avoid_sv1","""event"",""trial"",""time""
""fullscreenenter"",""1"",""2901""
","
","
","""event"",""trial"",""time""
""fullscreenenter"",""1"",""2901""
","
","","","","","","null","<div style=""font-size:60px;"">+</div>","null","","fixation","","",""
"memory-trial","151","351932","0.0-18.0-1.53","5704","approach_avoid_sv1","""event"",""trial"",""time""
""fullscreenenter"",""1"",""2901""
","
","
","""event"",""trial"",""time""
""fullscreenenter"",""1"",""2901""
","
","","","","","","1792.3999999761581","images/flower1.png","","","memory_trial","3","maybe_new",""
"html-keyboard-response","152","352435","0.0-18.0-0.54","5704","approach_avoid_sv1","""event"",""trial"",""time""
""fullscreenenter"",""1"",""2901""
","
","
","""event"",""trial"",""time""
""fullscreenenter"",""1"",""2901""
","
","","","","","","null","<div style=""font-size:60px;"">+</div>","null","","fixation","","",""
"memory-trial","153","354644","0.0-18.0-1.54","5704","approach_avoid_sv1","""event"",""trial"",""time""
""fullscreenenter"",""1"",""2901""
","
","
","""event"",""trial"",""time""
""fullscreenenter"",""1"",""2901""
","
","","","","","","1198.7000000476837","images/orange5.png","","","memory_trial","1","definitely_old",""
"html-keyboard-response","154","355148","0.0-18.0-0.55","5704","approach_avoid_sv1","""event"",""trial"",""time""
""fullscreenenter"",""1"",""2901""
","
","
","""event"",""trial"",""time""
""fullscreenenter"",""1"",""2901""
","
","","","","","","null","<div style=""font-size:60px;"">+</div>","null","","fixation","","",""
"memory-trial","155","357852","0.0-18.0-1.55","5704","approach_avoid_sv1","""event"",""trial"",""time""
""fullscreenenter"",""1"",""2901""
","
","
","""event"",""trial"",""time""
""fullscreenenter"",""1"",""2901""
","
","","","","","","1695.0999999046326","images/tree4.png","","","memory_trial","1","definitely_old",""
"html-keyboard-response","156","358355","0.0-18.0-0.56","5704","approach_avoid_sv1","""event"",""trial"",""time""
""fullscreenenter"",""1"",""2901""
","
","
","""event"",""trial"",""time""
""fullscreenenter"",""1"",""2901""
","
","","","","","","null","<div style=""font-size:60px;"">+</div>","null","","fixation","","",""
"memory-trial","157","360364","0.0-18.0-1.56","5704","approach_avoid_sv1","""event"",""trial"",""time""
""fullscreenenter"",""1"",""2901""
","
","
","""event"",""trial"",""time""
""fullscreenenter"",""1"",""2901""
","
","","","","","","999.3999999761581","images/dog6.png","","","memory_trial","1","definitely_old",""
"html-keyboard-response","158","360868","0.0-18.0-0.57","5704","approach_avoid_sv1","""event"",""trial"",""time""
""fullscreenenter"",""1"",""2901""
","
","
","""event"",""trial"",""time""
""fullscreenenter"",""1"",""2901""
","
","","","","","","null","<div style=""font-size:60px;"">+</div>","null","","fixation","","",""
"memory-trial","159","363346","0.0-18.0-1.57","5704","approach_avoid_sv1","""event"",""trial"",""time""
""fullscreenenter"",""1"",""2901""
","
","
","""event"",""trial"",""time""
""fullscreenenter"",""1"",""2901""
","
","","","","","","1466.5","images/sofa3.png","","","memory_trial","4","definitely_new",""
"html-keyboard-response","160","363852","0.0-18.0-0.58","5704","approach_avoid_sv1","""event"",""trial"",""time""
""fullscreenenter"",""1"",""2901""
","
","
","""event"",""trial"",""time""
""fullscreenenter"",""1"",""2901""
","
","","","","","","null","<div style=""font-size:60px;"">+</div>","null","","fixation","","",""
"memory-trial","161","366436","0.0-18.0-1.58","5704","approach_avoid_sv1","""event"",""trial"",""time""
""fullscreenenter"",""1"",""2901""
","
","
","""event"",""trial"",""time""
""fullscreenenter"",""1"",""2901""
","
","","","","","","1576.7000000476837","images/sofa1.png","","","memory_trial","4","definitely_new",""
"html-keyboard-response","162","366940","0.0-18.0-0.59","5704","approach_avoid_sv1","""event"",""trial"",""time""
""fullscreenenter"",""1"",""2901""
","
","
","""event"",""trial"",""time""
""fullscreenenter"",""1"",""2901""
","
","","","","","","null","<div style=""font-size:60px;"">+</div>","null","","fixation","","",""
"memory-trial","163","369139","0.0-18.0-1.59","5704","approach_avoid_sv1","""event"",""trial"",""time""
""fullscreenenter"",""1"",""2901""
","
","
","""event"",""trial"",""time""
""fullscreenenter"",""1"",""2901""
","
","","","","","","1194.3999999761581","images/tree2.png","","","memory_trial","1","definitely_old",""
"html-keyboard-response","164","369643","0.0-18.0-0.60","5704","approach_avoid_sv1","""event"",""trial"",""time""
""fullscreenenter"",""1"",""2901""
","
","
","""event"",""trial"",""time""
""fullscreenenter"",""1"",""2901""
","
","","","","","","null","<div style=""font-size:60px;"">+</div>","null","","fixation","","",""
"memory-trial","165","372484","0.0-18.0-1.60","5704","approach_avoid_sv1","""event"",""trial"",""time""
""fullscreenenter"",""1"",""2901""
","
","
","""event"",""trial"",""time""
""fullscreenenter"",""1"",""2901""
","
","","","","","","1831.6000000238419","images/horse4.png","","","memory_trial","3","maybe_new",""
"html-keyboard-response","166","372987","0.0-18.0-0.61","5704","approach_avoid_sv1","""event"",""trial"",""time""
""fullscreenenter"",""1"",""2901""
","
","
","""event"",""trial"",""time""
""fullscreenenter"",""1"",""2901""
","
","","","","","","null","<div style=""font-size:60px;"">+</div>","null","","fixation","","",""
"memory-trial","167","374852","0.0-18.0-1.61","5704","approach_avoid_sv1","""event"",""trial"",""time""
""fullscreenenter"",""1"",""2901""
","
","
","""event"",""trial"",""time""
""fullscreenenter"",""1"",""2901""
","
","","","","","","858","images/straw8.png","","","memory_trial","3","maybe_new",""
"html-keyboard-response","168","375355","0.0-18.0-0.62","5704","approach_avoid_sv1","""event"",""trial"",""time""
""fullscreenenter"",""1"",""2901""
","
","
","""event"",""trial"",""time""
""fullscreenenter"",""1"",""2901""
","
","","","","","","null","<div style=""font-size:60px;"">+</div>","null","","fixation","","",""
"memory-trial","169","378212","0.0-18.0-1.62","5704","approach_avoid_sv1","""event"",""trial"",""time""
""fullscreenenter"",""1"",""2901""
","
","
","""event"",""trial"",""time""
""fullscreenenter"",""1"",""2901""
","
","","","","","","1850.0999999046326","images/chair2.png","","","memory_trial","1","definitely_old",""
"html-keyboard-response","170","378716","0.0-18.0-0.63","5704","approach_avoid_sv1","""event"",""trial"",""time""
""fullscreenenter"",""1"",""2901""
","
","
","""event"",""trial"",""time""
""fullscreenenter"",""1"",""2901""
","
","","","","","","null","<div style=""font-size:60px;"">+</div>","null","","fixation","","",""
"memory-trial","171","380580","0.0-18.0-1.63","5704","approach_avoid_sv1","""event"",""trial"",""time""
""fullscreenenter"",""1"",""2901""
","
","
","""event"",""trial"",""time""
""fullscreenenter"",""1"",""2901""
","
","","","","","","858.3000000715256","images/table3.png","","","memory_trial","1","definitely_old",""
"html-keyboard-response","172","381086","0.0-18.0-0.64","5704","approach_avoid_sv1","""event"",""trial"",""time""
""fullscreenenter"",""1"",""2901""
","
","
","""event"",""trial"",""time""
""fullscreenenter"",""1"",""2901""
","
","","","","","","null","<div style=""font-size:60px;"">+</div>","null","","fixation","","",""
"memory-trial","173","383812","0.0-18.0-1.64","5704","approach_avoid_sv1","""event"",""trial"",""time""
""fullscreenenter"",""1"",""2901""
","
","
","""event"",""trial"",""time""
""fullscreenenter"",""1"",""2901""
","
","","","","","","1717.7999999523163","images/truck5.png","","","memory_trial","3","maybe_new",""
"html-keyboard-response","174","384316","0.0-18.0-0.65","5704","approach_avoid_sv1","""event"",""trial"",""time""
""fullscreenenter"",""1"",""2901""
","
","
","""event"",""trial"",""time""
""fullscreenenter"",""1"",""2901""
","
","","","","","","null","<div style=""font-size:60px;"">+</div>","null","","fixation","","",""
"memory-trial","175","386524","0.0-18.0-1.65","5704","approach_avoid_sv1","""event"",""trial"",""time""
""fullscreenenter"",""1"",""2901""
","
","
","""event"",""trial"",""time""
""fullscreenenter"",""1"",""2901""
","
","","","","","","1198.8000000715256","images/orange6.png","","","memory_trial","1","definitely_old",""
"html-keyboard-response","176","387028","0.0-18.0-0.66","5704","approach_avoid_sv1","""event"",""trial"",""time""
""fullscreenenter"",""1"",""2901""
","
","
","""event"",""trial"",""time""
""fullscreenenter"",""1"",""2901""
","
","","","","","","null","<div style=""font-size:60px;"">+</div>","null","","fixation","","",""
"memory-trial","177","389139","0.0-18.0-1.66","5704","approach_avoid_sv1","""event"",""trial"",""time""
""fullscreenenter"",""1"",""2901""
","
","
","""event"",""trial"",""time""
""fullscreenenter"",""1"",""2901""
","
","","","","","","1107.1000000238419","images/truck7.png","","","memory_trial","3","maybe_new",""
"html-keyboard-response","178","389656","0.0-18.0-0.67","5704","approach_avoid_sv1","""event"",""trial"",""time""
""fullscreenenter"",""1"",""2901""
","
","
","""event"",""trial"",""time""
""fullscreenenter"",""1"",""2901""
","
","","","","","","null","<div style=""font-size:60px;"">+</div>","null","","fixation","","",""
"memory-trial","179","391691","0.0-18.0-1.67","5704","approach_avoid_sv1","""event"",""trial"",""time""
""fullscreenenter"",""1"",""2901""
","
","
","""event"",""trial"",""time""
""fullscreenenter"",""1"",""2901""
","
","","","","","","1027.6000000238419","images/train6.png","","","memory_trial","1","definitely_old",""
"html-keyboard-response","180","392195","0.0-18.0-0.68","5704","approach_avoid_sv1","""event"",""trial"",""time""
""fullscreenenter"",""1"",""2901""
","
","
","""event"",""trial"",""time""
""fullscreenenter"",""1"",""2901""
","
","","","","","","null","<div style=""font-size:60px;"">+</div>","null","","fixation","","",""
"memory-trial","181","394539","0.0-18.0-1.68","5704","approach_avoid_sv1","""event"",""trial"",""time""
""fullscreenenter"",""1"",""2901""
","
","
","""event"",""trial"",""time""
""fullscreenenter"",""1"",""2901""
","
","","","","","","1339.5","images/dog8.png","","","memory_trial","3","maybe_new",""
"html-keyboard-response","182","395044","0.0-18.0-0.69","5704","approach_avoid_sv1","""event"",""trial"",""time""
""fullscreenenter"",""1"",""2901""
","
","
","""event"",""trial"",""time""
""fullscreenenter"",""1"",""2901""
","
","","","","","","null","<div style=""font-size:60px;"">+</div>","null","","fixation","","",""
"memory-trial","183","397411","0.0-18.0-1.69","5704","approach_avoid_sv1","""event"",""trial"",""time""
""fullscreenenter"",""1"",""2901""
","
","
","""event"",""trial"",""time""
""fullscreenenter"",""1"",""2901""
","
","","","","","","1361","images/bush2.png","","","memory_trial","4","definitely_new",""
"html-keyboard-response","184","397915","0.0-18.0-0.70","5704","approach_avoid_sv1","""event"",""trial"",""time""
""fullscreenenter"",""1"",""2901""
","
","
","""event"",""trial"",""time""
""fullscreenenter"",""1"",""2901""
","
","","","","","","null","<div style=""font-size:60px;"">+</div>","null","","fixation","","",""
"memory-trial","185","400100","0.0-18.0-1.70","5704","approach_avoid_sv1","""event"",""trial"",""time""
""fullscreenenter"",""1"",""2901""
","
","
","""event"",""trial"",""time""
""fullscreenenter"",""1"",""2901""
","
","","","","","","1178.6999999284744","images/straw4.png","","","memory_trial","3","maybe_new",""
"html-keyboard-response","186","400603","0.0-18.0-0.71","5704","approach_avoid_sv1","""event"",""trial"",""time""
""fullscreenenter"",""1"",""2901""
","
","
","""event"",""trial"",""time""
""fullscreenenter"",""1"",""2901""
","
","","","","","","null","<div style=""font-size:60px;"">+</div>","null","","fixation","","",""
"memory-trial","187","402716","0.0-18.0-1.71","5704","approach_avoid_sv1","""event"",""trial"",""time""
""fullscreenenter"",""1"",""2901""
","
","
","""event"",""trial"",""time""
""fullscreenenter"",""1"",""2901""
","
","","","","","","1101.2000000476837","images/bed2.png","","","memory_trial","4","definitely_new",""
"html-keyboard-response","188","403220","0.0-18.0-0.72","5704","approach_avoid_sv1","""event"",""trial"",""time""
""fullscreenenter"",""1"",""2901""
","
","
","""event"",""trial"",""time""
""fullscreenenter"",""1"",""2901""
","
","","","","","","null","<div style=""font-size:60px;"">+</div>","null","","fixation","","",""
"memory-trial","189","406676","0.0-18.0-1.72","5704","approach_avoid_sv1","""event"",""trial"",""time""
""fullscreenenter"",""1"",""2901""
","
","
","""event"",""trial"",""time""
""fullscreenenter"",""1"",""2901""
","
","","","","","","2444.899999976158","images/orange1.png","","","memory_trial","2","maybe_old",""
"html-keyboard-response","190","407179","0.0-18.0-0.73","5704","approach_avoid_sv1","""event"",""trial"",""time""
""fullscreenenter"",""1"",""2901""
","
","
","""event"",""trial"",""time""
""fullscreenenter"",""1"",""2901""
","
","","","","","","null","<div style=""font-size:60px;"">+</div>","null","","fixation","","",""
"memory-trial","191","410715","0.0-18.0-1.73","5704","approach_avoid_sv1","""event"",""trial"",""time""
""fullscreenenter"",""1"",""2901""
","
","
","""event"",""trial"",""time""
""fullscreenenter"",""1"",""2901""
","
","","","","","","2525.100000023842","images/plane3.png","","","memory_trial","4","definitely_new",""
"html-keyboard-response","192","411219","0.0-18.0-0.74","5704","approach_avoid_sv1","""event"",""trial"",""time""
""fullscreenenter"",""1"",""2901""
","
","
","""event"",""trial"",""time""
""fullscreenenter"",""1"",""2901""
","
","","","","","","null","<div style=""font-size:60px;"">+</div>","null","","fixation","","",""
"memory-trial","193","414524","0.0-18.0-1.74","5704","approach_avoid_sv1","""event"",""trial"",""time""
""fullscreenenter"",""1"",""2901""
","
","
","""event"",""trial"",""time""
""fullscreenenter"",""1"",""2901""
","
","","","","","","2293.5","images/apple6.png","","","memory_trial","2","maybe_old",""
"html-keyboard-response","194","415027","0.0-18.0-0.75","5704","approach_avoid_sv1","""event"",""trial"",""time""
""fullscreenenter"",""1"",""2901""
","
","
","""event"",""trial"",""time""
""fullscreenenter"",""1"",""2901""
","
","","","","","","null","<div style=""font-size:60px;"">+</div>","null","","fixation","","",""
"memory-trial","195","417379","0.0-18.0-1.75","5704","approach_avoid_sv1","""event"",""trial"",""time""
""fullscreenenter"",""1"",""2901""
","
","
","""event"",""trial"",""time""
""fullscreenenter"",""1"",""2901""
","
","","","","","","1346.6000000238419","images/train8.png","","","memory_trial","4","definitely_new",""
"html-keyboard-response","196","417884","0.0-18.0-0.76","5704","approach_avoid_sv1","""event"",""trial"",""time""
""fullscreenenter"",""1"",""2901""
","
","
","""event"",""trial"",""time""
""fullscreenenter"",""1"",""2901""
","
","","","","","","null","<div style=""font-size:60px;"">+</div>","null","","fixation","","",""
"memory-trial","197","420203","0.0-18.0-1.76","5704","approach_avoid_sv1","""event"",""trial"",""time""
""fullscreenenter"",""1"",""2901""
","
","
","""event"",""trial"",""time""
""fullscreenenter"",""1"",""2901""
","
","","","","","","1311","images/rodent6.png","","","memory_trial","4","definitely_new",""
"html-keyboard-response","198","420707","0.0-18.0-0.77","5704","approach_avoid_sv1","""event"",""trial"",""time""
""fullscreenenter"",""1"",""2901""
","
","
","""event"",""trial"",""time""
""fullscreenenter"",""1"",""2901""
","
","","","","","","null","<div style=""font-size:60px;"">+</div>","null","","fixation","","",""
"memory-trial","199","423091","0.0-18.0-1.77","5704","approach_avoid_sv1","""event"",""trial"",""time""
""fullscreenenter"",""1"",""2901""
","
","
","""event"",""trial"",""time""
""fullscreenenter"",""1"",""2901""
","
","","","","","","1378.8999999761581","images/goat1.png","","","memory_trial","4","definitely_new",""
"html-keyboard-response","200","423595","0.0-18.0-0.78","5704","approach_avoid_sv1","""event"",""trial"",""time""
""fullscreenenter"",""1"",""2901""
","
","
","""event"",""trial"",""time""
""fullscreenenter"",""1"",""2901""
","
","","","","","","null","<div style=""font-size:60px;"">+</div>","null","","fixation","","",""
"memory-trial","201","425883","0.0-18.0-1.78","5704","approach_avoid_sv1","""event"",""trial"",""time""
""fullscreenenter"",""1"",""2901""
","
","
","""event"",""trial"",""time""
""fullscreenenter"",""1"",""2901""
","
","","","","","","1278.1999999284744","images/cat5.png","","","memory_trial","1","definitely_old",""
"html-keyboard-response","202","426388","0.0-18.0-0.79","5704","approach_avoid_sv1","""event"",""trial"",""time""
""fullscreenenter"",""1"",""2901""
","
","
","""event"",""trial"",""time""
""fullscreenenter"",""1"",""2901""
","
","","","","","","null","<div style=""font-size:60px;"">+</div>","null","","fixation","","",""
"memory-trial","203","429003","0.0-18.0-1.79","5704","approach_avoid_sv1","""event"",""trial"",""time""
""fullscreenenter"",""1"",""2901""
","
","
","""event"",""trial"",""time""
""fullscreenenter"",""1"",""2901""
","
","","","","","","1606.2000000476837","images/plane1.png","","","memory_trial","4","definitely_new",""
"html-keyboard-response","204","429507","0.0-18.0-0.80","5704","approach_avoid_sv1","""event"",""trial"",""time""
""fullscreenenter"",""1"",""2901""
","
","
","""event"",""trial"",""time""
""fullscreenenter"",""1"",""2901""
","
","","","","","","null","<div style=""font-size:60px;"">+</div>","null","","fixation","","",""
"memory-trial","205","431523","0.0-18.0-1.80","5704","approach_avoid_sv1","""event"",""trial"",""time""
""fullscreenenter"",""1"",""2901""
","
","
","""event"",""trial"",""time""
""fullscreenenter"",""1"",""2901""
","
","","","","","","1006.2999999523163","images/bed4.png","","","memory_trial","4","definitely_new",""
"html-keyboard-response","206","432027","0.0-18.0-0.81","5704","approach_avoid_sv1","""event"",""trial"",""time""
""fullscreenenter"",""1"",""2901""
","
","
","""event"",""trial"",""time""
""fullscreenenter"",""1"",""2901""
","
","","","","","","null","<div style=""font-size:60px;"">+</div>","null","","fixation","","",""
"memory-trial","207","434963","0.0-18.0-1.81","5704","approach_avoid_sv1","""event"",""trial"",""time""
""fullscreenenter"",""1"",""2901""
","
","
","""event"",""trial"",""time""
""fullscreenenter"",""1"",""2901""
","
","","","","","","1928.7000000476837","images/apple1.png","","","memory_trial","4","definitely_new",""
"html-keyboard-response","208","435467","0.0-18.0-0.82","5704","approach_avoid_sv1","""event"",""trial"",""time""
""fullscreenenter"",""1"",""2901""
","
","
","""event"",""trial"",""time""
""fullscreenenter"",""1"",""2901""
","
","","","","","","null","<div style=""font-size:60px;"">+</div>","null","","fixation","","",""
"memory-trial","209","438883","0.0-18.0-1.82","5704","approach_avoid_sv1","""event"",""trial"",""time""
""fullscreenenter"",""1"",""2901""
","
","
","""event"",""trial"",""time""
""fullscreenenter"",""1"",""2901""
","
","","","","","","2406","images/boat3.png","","","memory_trial","3","maybe_new",""
"html-keyboard-response","210","439387","0.0-18.0-0.83","5704","approach_avoid_sv1","""event"",""trial"",""time""
""fullscreenenter"",""1"",""2901""
","
","
","""event"",""trial"",""time""
""fullscreenenter"",""1"",""2901""
","
","","","","","","null","<div style=""font-size:60px;"">+</div>","null","","fixation","","",""
"memory-trial","211","441812","0.0-18.0-1.83","5704","approach_avoid_sv1","""event"",""trial"",""time""
""fullscreenenter"",""1"",""2901""
","
","
","""event"",""trial"",""time""
""fullscreenenter"",""1"",""2901""
","
","","","","","","1416.7000000476837","images/sheep3.png","","","memory_trial","1","definitely_old",""
"html-keyboard-response","212","442315","0.0-18.0-0.84","5704","approach_avoid_sv1","""event"",""trial"",""time""
""fullscreenenter"",""1"",""2901""
","
","
","""event"",""trial"",""time""
""fullscreenenter"",""1"",""2901""
","
","","","","","","null","<div style=""font-size:60px;"">+</div>","null","","fixation","","",""
"memory-trial","213","444569","0.0-18.0-1.84","5704","approach_avoid_sv1","""event"",""trial"",""time""
""fullscreenenter"",""1"",""2901""
","
","
","""event"",""trial"",""time""
""fullscreenenter"",""1"",""2901""
","
","","","","","","1229.1000000238419","images/straw2.png","","","memory_trial","3","maybe_new",""
"html-keyboard-response","214","445075","0.0-18.0-0.85","5704","approach_avoid_sv1","""event"",""trial"",""time""
""fullscreenenter"",""1"",""2901""
","
","
","""event"",""trial"",""time""
""fullscreenenter"",""1"",""2901""
","
","","","","","","null","<div style=""font-size:60px;"">+</div>","null","","fixation","","",""
"memory-trial","215","448237","0.0-18.0-1.85","5704","approach_avoid_sv1","""event"",""trial"",""time""
""fullscreenenter"",""1"",""2901""
","
","
","""event"",""trial"",""time""
""fullscreenenter"",""1"",""2901""
","
","","","","","","2148.3000000715256","images/table7.png","","","memory_trial","3","maybe_new",""
"html-keyboard-response","216","448739","0.0-18.0-0.86","5704","approach_avoid_sv1","""event"",""trial"",""time""
""fullscreenenter"",""1"",""2901""
","
","
","""event"",""trial"",""time""
""fullscreenenter"",""1"",""2901""
","
","","","","","","null","<div style=""font-size:60px;"">+</div>","null","","fixation","","",""
"memory-trial","217","451276","0.0-18.0-1.86","5704","approach_avoid_sv1","""event"",""trial"",""time""
""fullscreenenter"",""1"",""2901""
","
","
","""event"",""trial"",""time""
""fullscreenenter"",""1"",""2901""
","
","","","","","","1525.5","images/cow2.png","","","memory_trial","3","maybe_new",""
"html-keyboard-response","218","451779","0.0-18.0-0.87","5704","approach_avoid_sv1","""event"",""trial"",""time""
""fullscreenenter"",""1"",""2901""
","
","
","""event"",""trial"",""time""
""fullscreenenter"",""1"",""2901""
","
","","","","","","null","<div style=""font-size:60px;"">+</div>","null","","fixation","","",""
"memory-trial","219","453955","0.0-18.0-1.87","5704","approach_avoid_sv1","""event"",""trial"",""time""
""fullscreenenter"",""1"",""2901""
","
","
","""event"",""trial"",""time""
""fullscreenenter"",""1"",""2901""
","
","","","","","","1166.6000000238419","images/plane6.png","","","memory_trial","4","definitely_new",""
"html-keyboard-response","220","454459","0.0-18.0-0.88","5704","approach_avoid_sv1","""event"",""trial"",""time""
""fullscreenenter"",""1"",""2901""
","
","
","""event"",""trial"",""time""
""fullscreenenter"",""1"",""2901""
","
","","","","","","null","<div style=""font-size:60px;"">+</div>","null","","fixation","","",""
"memory-trial","221","458012","0.0-18.0-1.88","5704","approach_avoid_sv1","""event"",""trial"",""time""
""fullscreenenter"",""1"",""2901""
","
","
","""event"",""trial"",""time""
""fullscreenenter"",""1"",""2901""
","
","","","","","","2544.600000023842","images/rabbit1.png","","","memory_trial","2","maybe_old",""
"html-keyboard-response","222","458516","0.0-18.0-0.89","5704","approach_avoid_sv1","""event"",""trial"",""time""
""fullscreenenter"",""1"",""2901""
","
","
","""event"",""trial"",""time""
""fullscreenenter"",""1"",""2901""
","
","","","","","","null","<div style=""font-size:60px;"">+</div>","null","","fixation","","",""
"memory-trial","223","460714","0.0-18.0-1.89","5704","approach_avoid_sv1","""event"",""trial"",""time""
""fullscreenenter"",""1"",""2901""
","
","
","""event"",""trial"",""time""
""fullscreenenter"",""1"",""2901""
","
","","","","","","1178.3999999761581","images/cactus8.png","","","memory_trial","3","maybe_new",""
"html-keyboard-response","224","461219","0.0-18.0-0.90","5704","approach_avoid_sv1","""event"",""trial"",""time""
""fullscreenenter"",""1"",""2901""
","
","
","""event"",""trial"",""time""
""fullscreenenter"",""1"",""2901""
","
","","","","","","null","<div style=""font-size:60px;"">+</div>","null","","fixation","","",""
"memory-trial","225","463291","0.0-18.0-1.90","5704","approach_avoid_sv1","""event"",""trial"",""time""
""fullscreenenter"",""1"",""2901""
","
","
","""event"",""trial"",""time""
""fullscreenenter"",""1"",""2901""
","
","","","","","","1064.7999999523163","images/orange7.png","","","memory_trial","1","definitely_old",""
"html-keyboard-response","226","463796","0.0-18.0-0.91","5704","approach_avoid_sv1","""event"",""trial"",""time""
""fullscreenenter"",""1"",""2901""
","
","
","""event"",""trial"",""time""
""fullscreenenter"",""1"",""2901""
","
","","","","","","null","<div style=""font-size:60px;"">+</div>","null","","fixation","","",""
"memory-trial","227","467195","0.0-18.0-1.91","5704","approach_avoid_sv1","""event"",""trial"",""time""
""fullscreenenter"",""1"",""2901""
","
","
","""event"",""trial"",""time""
""fullscreenenter"",""1"",""2901""
","
","","","","","","2389.399999976158","images/chair1.png","","","memory_trial","3","maybe_new",""
"html-button-response","228","468740","0.0-18.0-2.91-0.91","5704","approach_avoid_sv1","""event"",""trial"",""time""
""fullscreenenter"",""1"",""2901""
","
","
","""event"",""trial"",""time""
""fullscreenenter"",""1"",""2901""
","
","","","","","","1543.5","<p> Take a break! </p><p> Click the button to continue. </p>","0","","break","","",""
"html-keyboard-response","229","469243","0.0-18.0-0.92","5704","approach_avoid_sv1","""event"",""trial"",""time""
""fullscreenenter"",""1"",""2901""
","
","
","""event"",""trial"",""time""
""fullscreenenter"",""1"",""2901""
","
","","","","","","null","<div style=""font-size:60px;"">+</div>","null","","fixation","","",""
"memory-trial","230","473805","0.0-18.0-1.92","5704","approach_avoid_sv1","""event"",""trial"",""time""
""fullscreenenter"",""1"",""2901""
","
","
","""event"",""trial"",""time""
""fullscreenenter"",""1"",""2901""
","
","","","","","","3551","images/bush4.png","","","memory_trial","2","maybe_old",""
"html-keyboard-response","231","474307","0.0-18.0-0.93","5704","approach_avoid_sv1","""event"",""trial"",""time""
""fullscreenenter"",""1"",""2901""
","
","
","""event"",""trial"",""time""
""fullscreenenter"",""1"",""2901""
","
","","","","","","null","<div style=""font-size:60px;"">+</div>","null","","fixation","","",""
"memory-trial","232","477204","0.0-18.0-1.93","5704","approach_avoid_sv1","""event"",""trial"",""time""
""fullscreenenter"",""1"",""2901""
","
","
","""event"",""trial"",""time""
""fullscreenenter"",""1"",""2901""
","
","","","","","","1887.5","images/apple3.png","","","memory_trial","3","maybe_new",""
"html-keyboard-response","233","477707","0.0-18.0-0.94","5704","approach_avoid_sv1","""event"",""trial"",""time""
""fullscreenenter"",""1"",""2901""
","
","
","""event"",""trial"",""time""
""fullscreenenter"",""1"",""2901""
","
","","","","","","null","<div style=""font-size:60px;"">+</div>","null","","fixation","","",""
"memory-trial","234","480052","0.0-18.0-1.94","5704","approach_avoid_sv1","""event"",""trial"",""time""
""fullscreenenter"",""1"",""2901""
","
","
","""event"",""trial"",""time""
""fullscreenenter"",""1"",""2901""
","
","","","","","","1336.7000000476837","images/cat4.png","","","memory_trial","1","definitely_old",""
"html-keyboard-response","235","480555","0.0-18.0-0.95","5704","approach_avoid_sv1","""event"",""trial"",""time""
""fullscreenenter"",""1"",""2901""
","
","
","""event"",""trial"",""time""
""fullscreenenter"",""1"",""2901""
","
","","","","","","null","<div style=""font-size:60px;"">+</div>","null","","fixation","","",""
"memory-trial","236","482543","0.0-18.0-1.95","5704","approach_avoid_sv1","""event"",""trial"",""time""
""fullscreenenter"",""1"",""2901""
","
","
","""event"",""trial"",""time""
""fullscreenenter"",""1"",""2901""
","
","","","","","","969.7000000476837","images/cat8.png","","","memory_trial","1","definitely_old",""
"html-keyboard-response","237","483052","0.0-18.0-0.96","5704","approach_avoid_sv1","""event"",""trial"",""time""
""fullscreenenter"",""1"",""2901""
","
","
","""event"",""trial"",""time""
""fullscreenenter"",""1"",""2901""
","
","","","","","","null","<div style=""font-size:60px;"">+</div>","null","","fixation","","",""
"memory-trial","238","485364","0.0-18.0-1.96","5704","approach_avoid_sv1","""event"",""trial"",""time""
""fullscreenenter"",""1"",""2901""
","
","
","""event"",""trial"",""time""
""fullscreenenter"",""1"",""2901""
","
","","","","","","1303.5","images/flower2.png","","","memory_trial","2","maybe_old",""
"html-keyboard-response","239","485867","0.0-18.0-0.97","5704","approach_avoid_sv1","""event"",""trial"",""time""
""fullscreenenter"",""1"",""2901""
","
","
","""event"",""trial"",""time""
""fullscreenenter"",""1"",""2901""
","
","","","","","","null","<div style=""font-size:60px;"">+</div>","null","","fixation","","",""
"memory-trial","240","487956","0.0-18.0-1.97","5704","approach_avoid_sv1","""event"",""trial"",""time""
""fullscreenenter"",""1"",""2901""
","
","
","""event"",""trial"",""time""
""fullscreenenter"",""1"",""2901""
","
","","","","","","1079.7999999523163","images/horse6.png","","","memory_trial","1","definitely_old",""
"html-keyboard-response","241","488460","0.0-18.0-0.98","5704","approach_avoid_sv1","""event"",""trial"",""time""
""fullscreenenter"",""1"",""2901""
","
","
","""event"",""trial"",""time""
""fullscreenenter"",""1"",""2901""
","
","","","","","","null","<div style=""font-size:60px;"">+</div>","null","","fixation","","",""
"memory-trial","242","491363","0.0-18.0-1.98","5704","approach_avoid_sv1","""event"",""trial"",""time""
""fullscreenenter"",""1"",""2901""
","
","
","""event"",""trial"",""time""
""fullscreenenter"",""1"",""2901""
","
","","","","","","1895.1999999284744","images/cat1.png","","","memory_trial","3","maybe_new",""
"html-keyboard-response","243","491868","0.0-18.0-0.99","5704","approach_avoid_sv1","""event"",""trial"",""time""
""fullscreenenter"",""1"",""2901""
","
","
","""event"",""trial"",""time""
""fullscreenenter"",""1"",""2901""
","
","","","","","","null","<div style=""font-size:60px;"">+</div>","null","","fixation","","",""
"memory-trial","244","494219","0.0-18.0-1.99","5704","approach_avoid_sv1","""event"",""trial"",""time""
""fullscreenenter"",""1"",""2901""
","
","
","""event"",""trial"",""time""
""fullscreenenter"",""1"",""2901""
","
","","","","","","1345.6000000238419","images/cactus1.png","","","memory_trial","4","definitely_new",""
"html-keyboard-response","245","494724","0.0-18.0-0.100","5704","approach_avoid_sv1","""event"",""trial"",""time""
""fullscreenenter"",""1"",""2901""
","
","
","""event"",""trial"",""time""
""fullscreenenter"",""1"",""2901""
","
","","","","","","null","<div style=""font-size:60px;"">+</div>","null","","fixation","","",""
"memory-trial","246","497268","0.0-18.0-1.100","5704","approach_avoid_sv1","""event"",""trial"",""time""
""fullscreenenter"",""1"",""2901""
","
","
","""event"",""trial"",""time""
""fullscreenenter"",""1"",""2901""
","
","","","","","","1533.2000000476837","images/flower3.png","","","memory_trial","1","definitely_old",""
"html-keyboard-response","247","497771","0.0-18.0-0.101","5704","approach_avoid_sv1","""event"",""trial"",""time""
""fullscreenenter"",""1"",""2901""
","
","
","""event"",""trial"",""time""
""fullscreenenter"",""1"",""2901""
","
","","","","","","null","<div style=""font-size:60px;"">+</div>","null","","fixation","","",""
"memory-trial","248","500196","0.0-18.0-1.101","5704","approach_avoid_sv1","""event"",""trial"",""time""
""fullscreenenter"",""1"",""2901""
","
","
","""event"",""trial"",""time""
""fullscreenenter"",""1"",""2901""
","
","","","","","","1414.6999999284744","images/banana5.png","","","memory_trial","3","maybe_new",""
"html-keyboard-response","249","500705","0.0-18.0-0.102","5704","approach_avoid_sv1","""event"",""trial"",""time""
""fullscreenenter"",""1"",""2901""
","
","
","""event"",""trial"",""time""
""fullscreenenter"",""1"",""2901""
","
","","","","","","null","<div style=""font-size:60px;"">+</div>","null","","fixation","","",""
"memory-trial","250","503132","0.0-18.0-1.102","5704","approach_avoid_sv1","""event"",""trial"",""time""
""fullscreenenter"",""1"",""2901""
","
","
","""event"",""trial"",""time""
""fullscreenenter"",""1"",""2901""
","
","","","","","","1420.7999999523163","images/chair6.png","","","memory_trial","4","definitely_new",""
"html-keyboard-response","251","503636","0.0-18.0-0.103","5704","approach_avoid_sv1","""event"",""trial"",""time""
""fullscreenenter"",""1"",""2901""
","
","
","""event"",""trial"",""time""
""fullscreenenter"",""1"",""2901""
","
","","","","","","null","<div style=""font-size:60px;"">+</div>","null","","fixation","","",""
"memory-trial","252","505781","0.0-18.0-1.103","5704","approach_avoid_sv1","""event"",""trial"",""time""
""fullscreenenter"",""1"",""2901""
","
","
","""event"",""trial"",""time""
""fullscreenenter"",""1"",""2901""
","
","","","","","","1139.3999999761581","images/rodent3.png","","","memory_trial","4","definitely_new",""
"html-keyboard-response","253","506296","0.0-18.0-0.104","5704","approach_avoid_sv1","""event"",""trial"",""time""
""fullscreenenter"",""1"",""2901""
","
","
","""event"",""trial"",""time""
""fullscreenenter"",""1"",""2901""
","
","","","","","","null","<div style=""font-size:60px;"">+</div>","null","","fixation","","",""
"memory-trial","254","508732","0.0-18.0-1.104","5704","approach_avoid_sv1","""event"",""trial"",""time""
""fullscreenenter"",""1"",""2901""
","
","
","""event"",""trial"",""time""
""fullscreenenter"",""1"",""2901""
","
","","","","","","1430.6000000238419","images/sheep7.png","","","memory_trial","4","definitely_new",""
"html-keyboard-response","255","509236","0.0-18.0-0.105","5704","approach_avoid_sv1","""event"",""trial"",""time""
""fullscreenenter"",""1"",""2901""
","
","
","""event"",""trial"",""time""
""fullscreenenter"",""1"",""2901""
","
","","","","","","null","<div style=""font-size:60px;"">+</div>","null","","fixation","","",""
"memory-trial","256","511116","0.0-18.0-1.105","5704","approach_avoid_sv1","""event"",""trial"",""time""
""fullscreenenter"",""1"",""2901""
","
","
","""event"",""trial"",""time""
""fullscreenenter"",""1"",""2901""
","
","","","","","","869.7999999523163","images/cactus3.png","","","memory_trial","4","definitely_new",""
"html-keyboard-response","257","511619","0.0-18.0-0.106","5704","approach_avoid_sv1","""event"",""trial"",""time""
""fullscreenenter"",""1"",""2901""
","
","
","""event"",""trial"",""time""
""fullscreenenter"",""1"",""2901""
","
","","","","","","null","<div style=""font-size:60px;"">+</div>","null","","fixation","","",""
"memory-trial","258","513917","0.0-18.0-1.106","5704","approach_avoid_sv1","""event"",""trial"",""time""
""fullscreenenter"",""1"",""2901""
","
","
","""event"",""trial"",""time""
""fullscreenenter"",""1"",""2901""
","
","","","","","","1287","images/train1.png","","","memory_trial","1","definitely_old",""
"html-keyboard-response","259","514419","0.0-18.0-0.107","5704","approach_avoid_sv1","""event"",""trial"",""time""
""fullscreenenter"",""1"",""2901""
","
","
","""event"",""trial"",""time""
""fullscreenenter"",""1"",""2901""
","
","","","","","","null","<div style=""font-size:60px;"">+</div>","null","","fixation","","",""
"memory-trial","260","516843","0.0-18.0-1.107","5704","approach_avoid_sv1","""event"",""trial"",""time""
""fullscreenenter"",""1"",""2901""
","
","
","""event"",""trial"",""time""
""fullscreenenter"",""1"",""2901""
","
","","","","","","1419.1000000238419","images/straw6.png","","","memory_trial","4","definitely_new",""
"html-keyboard-response","261","517347","0.0-18.0-0.108","5704","approach_avoid_sv1","""event"",""trial"",""time""
""fullscreenenter"",""1"",""2901""
","
","
","""event"",""trial"",""time""
""fullscreenenter"",""1"",""2901""
","
","","","","","","null","<div style=""font-size:60px;"">+</div>","null","","fixation","","",""
"memory-trial","262","520564","0.0-18.0-1.108","5704","approach_avoid_sv1","""event"",""trial"",""time""
""fullscreenenter"",""1"",""2901""
","
","
","""event"",""trial"",""time""
""fullscreenenter"",""1"",""2901""
","
","","","","","","2208.600000023842","images/orange4.png","","","memory_trial","2","maybe_old",""
"html-keyboard-response","263","521068","0.0-18.0-0.109","5704","approach_avoid_sv1","""event"",""trial"",""time""
""fullscreenenter"",""1"",""2901""
","
","
","""event"",""trial"",""time""
""fullscreenenter"",""1"",""2901""
","
","","","","","","null","<div style=""font-size:60px;"">+</div>","null","","fixation","","",""
"memory-trial","264","523716","0.0-18.0-1.109","5704","approach_avoid_sv1","""event"",""trial"",""time""
""fullscreenenter"",""1"",""2901""
","
","
","""event"",""trial"",""time""
""fullscreenenter"",""1"",""2901""
","
","","","","","","1638","images/goat3.png","","","memory_trial","4","definitely_new",""
"html-keyboard-response","265","524220","0.0-18.0-0.110","5704","approach_avoid_sv1","""event"",""trial"",""time""
""fullscreenenter"",""1"",""2901""
","
","
","""event"",""trial"",""time""
""fullscreenenter"",""1"",""2901""
","
","","","","","","null","<div style=""font-size:60px;"">+</div>","null","","fixation","","",""
"memory-trial","266","525939","0.0-18.0-1.110","5704","approach_avoid_sv1","""event"",""trial"",""time""
""fullscreenenter"",""1"",""2901""
","
","
","""event"",""trial"",""time""
""fullscreenenter"",""1"",""2901""
","
","","","","","","716.8999999761581","images/bed6.png","","","memory_trial","4","definitely_new",""
"html-keyboard-response","267","526444","0.0-18.0-0.111","5704","approach_avoid_sv1","""event"",""trial"",""time""
""fullscreenenter"",""1"",""2901""
","
","
","""event"",""trial"",""time""
""fullscreenenter"",""1"",""2901""
","
","","","","","","null","<div style=""font-size:60px;"">+</div>","null","","fixation","","",""
"memory-trial","268","528579","0.0-18.0-1.111","5704","approach_avoid_sv1","""event"",""trial"",""time""
""fullscreenenter"",""1"",""2901""
","
","
","""event"",""trial"",""time""
""fullscreenenter"",""1"",""2901""
","
","","","","","","1131.7999999523163","images/plane4.png","","","memory_trial","4","definitely_new",""
"html-keyboard-response","269","529084","0.0-18.0-0.112","5704","approach_avoid_sv1","""event"",""trial"",""time""
""fullscreenenter"",""1"",""2901""
","
","
","""event"",""trial"",""time""
""fullscreenenter"",""1"",""2901""
","
","","","","","","null","<div style=""font-size:60px;"">+</div>","null","","fixation","","",""
"memory-trial","270","531364","0.0-18.0-1.112","5704","approach_avoid_sv1","""event"",""trial"",""time""
""fullscreenenter"",""1"",""2901""
","
","
","""event"",""trial"",""time""
""fullscreenenter"",""1"",""2901""
","
","","","","","","1272.5","images/cat3.png","","","memory_trial","4","definitely_new",""
"html-keyboard-response","271","531868","0.0-18.0-0.113","5704","approach_avoid_sv1","""event"",""trial"",""time""
""fullscreenenter"",""1"",""2901""
","
","
","""event"",""trial"",""time""
""fullscreenenter"",""1"",""2901""
","
","","","","","","null","<div style=""font-size:60px;"">+</div>","null","","fixation","","",""
"memory-trial","272","534925","0.0-18.0-1.113","5704","approach_avoid_sv1","""event"",""trial"",""time""
""fullscreenenter"",""1"",""2901""
","
","
","""event"",""trial"",""time""
""fullscreenenter"",""1"",""2901""
","
","","","","","","2048.4000000953674","images/orange2.png","","","memory_trial","3","maybe_new",""
"html-keyboard-response","273","535443","0.0-18.0-0.114","5704","approach_avoid_sv1","""event"",""trial"",""time""
""fullscreenenter"",""1"",""2901""
","
","
","""event"",""trial"",""time""
""fullscreenenter"",""1"",""2901""
","
","","","","","","null","<div style=""font-size:60px;"">+</div>","null","","fixation","","",""
"memory-trial","274","537837","0.0-18.0-1.114","5704","approach_avoid_sv1","""event"",""trial"",""time""
""fullscreenenter"",""1"",""2901""
","
","
","""event"",""trial"",""time""
""fullscreenenter"",""1"",""2901""
","
","","","","","","1382.2999999523163","images/dog2.png","","","memory_trial","4","definitely_new",""
"html-keyboard-response","275","538339","0.0-18.0-0.115","5704","approach_avoid_sv1","""event"",""trial"",""time""
""fullscreenenter"",""1"",""2901""
","
","
","""event"",""trial"",""time""
""fullscreenenter"",""1"",""2901""
","
","","","","","","null","<div style=""font-size:60px;"">+</div>","null","","fixation","","",""
"memory-trial","276","540763","0.0-18.0-1.115","5704","approach_avoid_sv1","""event"",""trial"",""time""
""fullscreenenter"",""1"",""2901""
","
","
","""event"",""trial"",""time""
""fullscreenenter"",""1"",""2901""
","
","","","","","","1416.6999999284744","images/banana3.png","","","memory_trial","3","maybe_new",""
"html-keyboard-response","277","541268","0.0-18.0-0.116","5704","approach_avoid_sv1","""event"",""trial"",""time""
""fullscreenenter"",""1"",""2901""
","
","
","""event"",""trial"",""time""
""fullscreenenter"",""1"",""2901""
","
","","","","","","null","<div style=""font-size:60px;"">+</div>","null","","fixation","","",""
"memory-trial","278","545076","0.0-18.0-1.116","5704","approach_avoid_sv1","""event"",""trial"",""time""
""fullscreenenter"",""1"",""2901""
","
","
","""event"",""trial"",""time""
""fullscreenenter"",""1"",""2901""
","
","","","","","","2797.8000000715256","images/table4.png","","","memory_trial","3","maybe_new",""
"html-keyboard-response","279","545579","0.0-18.0-0.117","5704","approach_avoid_sv1","""event"",""trial"",""time""
""fullscreenenter"",""1"",""2901""
","
","
","""event"",""trial"",""time""
""fullscreenenter"",""1"",""2901""
","
","","","","","","null","<div style=""font-size:60px;"">+</div>","null","","fixation","","",""
"memory-trial","280","547260","0.0-18.0-1.117","5704","approach_avoid_sv1","""event"",""trial"",""time""
""fullscreenenter"",""1"",""2901""
","
","
","""event"",""trial"",""time""
""fullscreenenter"",""1"",""2901""
","
","","","","","","676.8999999761581","images/bed5.png","","","memory_trial","4","definitely_new",""
"html-keyboard-response","281","547764","0.0-18.0-0.118","5704","approach_avoid_sv1","""event"",""trial"",""time""
""fullscreenenter"",""1"",""2901""
","
","
","""event"",""trial"",""time""
""fullscreenenter"",""1"",""2901""
","
","","","","","","null","<div style=""font-size:60px;"">+</div>","null","","fixation","","",""
"memory-trial","282","551340","0.0-18.0-1.118","5704","approach_avoid_sv1","""event"",""trial"",""time""
""fullscreenenter"",""1"",""2901""
","
","
","""event"",""trial"",""time""
""fullscreenenter"",""1"",""2901""
","
","","","","","","2572.899999976158","images/train3.png","","","memory_trial","4","definitely_new",""
"html-keyboard-response","283","551844","0.0-18.0-0.119","5704","approach_avoid_sv1","""event"",""trial"",""time""
""fullscreenenter"",""1"",""2901""
","
","
","""event"",""trial"",""time""
""fullscreenenter"",""1"",""2901""
","
","","","","","","null","<div style=""font-size:60px;"">+</div>","null","","fixation","","",""
"memory-trial","284","554204","0.0-18.0-1.119","5704","approach_avoid_sv1","""event"",""trial"",""time""
""fullscreenenter"",""1"",""2901""
","
","
","""event"",""trial"",""time""
""fullscreenenter"",""1"",""2901""
","
","","","","","","1354","images/horse1.png","","","memory_trial","1","definitely_old",""
"html-keyboard-response","285","554708","0.0-18.0-0.120","5704","approach_avoid_sv1","""event"",""trial"",""time""
""fullscreenenter"",""1"",""2901""
","
","
","""event"",""trial"",""time""
""fullscreenenter"",""1"",""2901""
","
","","","","","","null","<div style=""font-size:60px;"">+</div>","null","","fixation","","",""
"memory-trial","286","557179","0.0-18.0-1.120","5704","approach_avoid_sv1","""event"",""trial"",""time""
""fullscreenenter"",""1"",""2901""
","
","
","""event"",""trial"",""time""
""fullscreenenter"",""1"",""2901""
","
","","","","","","1468.5","images/banana6.png","","","memory_trial","3","maybe_new",""
"html-keyboard-response","287","557684","0.0-18.0-0.121","5704","approach_avoid_sv1","""event"",""trial"",""time""
""fullscreenenter"",""1"",""2901""
","
","
","""event"",""trial"",""time""
""fullscreenenter"",""1"",""2901""
","
","","","","","","null","<div style=""font-size:60px;"">+</div>","null","","fixation","","",""
"memory-trial","288","560565","0.0-18.0-1.121","5704","approach_avoid_sv1","""event"",""trial"",""time""
""fullscreenenter"",""1"",""2901""
","
","
","""event"",""trial"",""time""
""fullscreenenter"",""1"",""2901""
","
","","","","","","1872.0999999046326","images/train4.png","","","memory_trial","4","definitely_new",""
"html-keyboard-response","289","561067","0.0-18.0-0.122","5704","approach_avoid_sv1","""event"",""trial"",""time""
""fullscreenenter"",""1"",""2901""
","
","
","""event"",""trial"",""time""
""fullscreenenter"",""1"",""2901""
","
","","","","","","null","<div style=""font-size:60px;"">+</div>","null","","fixation","","",""
"memory-trial","290","564364","0.0-18.0-1.122","5704","approach_avoid_sv1","""event"",""trial"",""time""
""fullscreenenter"",""1"",""2901""
","
","
","""event"",""trial"",""time""
""fullscreenenter"",""1"",""2901""
","
","","","","","","2289.2999999523163","images/chair5.png","","","memory_trial","2","maybe_old",""
"html-keyboard-response","291","564867","0.0-18.0-0.123","5704","approach_avoid_sv1","""event"",""trial"",""time""
""fullscreenenter"",""1"",""2901""
","
","
","""event"",""trial"",""time""
""fullscreenenter"",""1"",""2901""
","
","","","","","","null","<div style=""font-size:60px;"">+</div>","null","","fixation","","",""
"memory-trial","292","567228","0.0-18.0-1.123","5704","approach_avoid_sv1","""event"",""trial"",""time""
""fullscreenenter"",""1"",""2901""
","
","
","""event"",""trial"",""time""
""fullscreenenter"",""1"",""2901""
","
","","","","","","1349.2999999523163","images/horse3.png","","","memory_trial","1","definitely_old",""
"html-keyboard-response","293","567732","0.0-18.0-0.124","5704","approach_avoid_sv1","""event"",""trial"",""time""
""fullscreenenter"",""1"",""2901""
","
","
","""event"",""trial"",""time""
""fullscreenenter"",""1"",""2901""
","
","","","","","","null","<div style=""font-size:60px;"">+</div>","null","","fixation","","",""
"memory-trial","294","569484","0.0-18.0-1.124","5704","approach_avoid_sv1","""event"",""trial"",""time""
""fullscreenenter"",""1"",""2901""
","
","
","""event"",""trial"",""time""
""fullscreenenter"",""1"",""2901""
","
","","","","","","743.6000000238419","images/straw3.png","","","memory_trial","4","definitely_new",""
"html-keyboard-response","295","569987","0.0-18.0-0.125","5704","approach_avoid_sv1","""event"",""trial"",""time""
""fullscreenenter"",""1"",""2901""
","
","
","""event"",""trial"",""time""
""fullscreenenter"",""1"",""2901""
","
","","","","","","null","<div style=""font-size:60px;"">+</div>","null","","fixation","","",""
"memory-trial","296","572292","0.0-18.0-1.125","5704","approach_avoid_sv1","""event"",""trial"",""time""
""fullscreenenter"",""1"",""2901""
","
","
","""event"",""trial"",""time""
""fullscreenenter"",""1"",""2901""
","
","","","","","","1299.2999999523163","images/cow8.png","","","memory_trial","1","definitely_old",""
"html-keyboard-response","297","572796","0.0-18.0-0.126","5704","approach_avoid_sv1","""event"",""trial"",""time""
""fullscreenenter"",""1"",""2901""
","
","
","""event"",""trial"",""time""
""fullscreenenter"",""1"",""2901""
","
