"trial_type","trial_index","time_elapsed","internal_node_id","subject_id","task_version","interactions","blur_events","focus_events","fullscreenenter_events","fullscreenexit_events","success","timeout","failed_images","failed_audio","failed_video","rt","stimulus","response","button_pressed","task_part","key_press","answer","correct"
"pavlovia","0","3","0.0-0.0","4129","approach_avoid_sv1","""event"",""trial"",""time""
""fullscreenenter"",""1"",""4209""
","
","
","""event"",""trial"",""time""
""fullscreenenter"",""1"",""4209""
","
","","","","","","","","","","","","",""
"fullscreen","1","5200","0.0-1.0","4129","approach_avoid_sv1","""event"",""trial"",""time""
""fullscreenenter"",""1"",""4209""
","
","
","""event"",""trial"",""time""
""fullscreenenter"",""1"",""4209""
","
","true","","","","","","","","","","","",""
"preload","2","8192","0.0-2.0","4129","approach_avoid_sv1","""event"",""trial"",""time""
""fullscreenenter"",""1"",""4209""
","
","
","""event"",""trial"",""time""
""fullscreenenter"",""1"",""4209""
","
","true","false","[]","[]","[]","","","","","","","",""
"preload","3","9331","0.0-3.0","4129","approach_avoid_sv1","""event"",""trial"",""time""
""fullscreenenter"",""1"",""4209""
","
","
","""event"",""trial"",""time""
""fullscreenenter"",""1"",""4209""
","
","true","false","[]","[]","[]","","","","","","","",""
"preload","4","9565","0.0-4.0","4129","approach_avoid_sv1","""event"",""trial"",""time""
""fullscreenenter"",""1"",""4209""
","
","
","""event"",""trial"",""time""
""fullscreenenter"",""1"",""4209""
","
","true","false","[]","[]","[]","","","","","","","",""
"audio-keyboard-response","5","27653","0.0-5.0","4129","approach_avoid_sv1","""event"",""trial"",""time""
""fullscreenenter"",""1"",""4209""
","
","
","""event"",""trial"",""time""
""fullscreenenter"",""1"",""4209""
","
","","","","","","17320","audio/beep_loop.wav"," ","","","","",""
"audio-button-response","6","30914","0.0-6.0","4129","approach_avoid_sv1","""event"",""trial"",""time""
""fullscreenenter"",""1"",""4209""
","
","
","""event"",""trial"",""time""
""fullscreenenter"",""1"",""4209""
","
","","","","","","3259","audio/turtle.wav","3","","","","",""
"audio-button-response","7","35220","0.0-7.0","4129","approach_avoid_sv1","""event"",""trial"",""time""
""fullscreenenter"",""1"",""4209""
","
","
","""event"",""trial"",""time""
""fullscreenenter"",""1"",""4209""
","
","","","","","","3291","audio/shark.wav","2","","","","",""
"preload","8","38328","0.0-8.0","4129","approach_avoid_sv1","""event"",""trial"",""time""
""fullscreenenter"",""1"",""4209""
","
","
","""event"",""trial"",""time""
""fullscreenenter"",""1"",""4209""
","
","true","false","[]","[]","[]","","","","","","","",""
"learning-instructions","9","45056","0.0-9.0-0.0","4129","approach_avoid_sv1","""event"",""trial"",""time""
""fullscreenenter"",""1"",""4209""
","
","
","""event"",""trial"",""time""
""fullscreenenter"",""1"",""4209""
","
","","","","","","2252.1000000089407","<p> Welcome back! </p><p> Last week, you had to make choices about lots of different items.  </p>","","0","instructions","","",""
"learning-instructions","10","50042","0.0-9.0-0.1","4129","approach_avoid_sv1","""event"",""trial"",""time""
""fullscreenenter"",""1"",""4209""
","
","
","""event"",""trial"",""time""
""fullscreenenter"",""1"",""4209""
","
","","","","","","847.6000000089407","<p> Today, we are going to ask you to try to remember all the items. </p>","","0","instructions","","",""
"learning-instructions","11","60867","0.0-9.0-0.2","4129","approach_avoid_sv1","""event"",""trial"",""time""
""fullscreenenter"",""1"",""4209""
","
","
","""event"",""trial"",""time""
""fullscreenenter"",""1"",""4209""
","
","","","","","","682.5999999940395","<p> On every trial, you will see an image. </p><p> The image may be an OLD image you saw during the games last week or it may be a NEW image that was not presented. </p>","","0","instructions","","",""
"learning-instructions","12","70326","0.0-9.0-0.3","4129","approach_avoid_sv1","""event"",""trial"",""time""
""fullscreenenter"",""1"",""4209""
","
","
","""event"",""trial"",""time""
""fullscreenenter"",""1"",""4209""
","
","","","","","","951","<p> You need to select whether the image is:  </p><p>  'Definitely old', 'Maybe old', 'Maybe new', or 'Definitely new.'  </p><div class=""mem-choice-instructions-grid""><div class=""choice-option"" id=""choice-option-1"" ><img src=""images/definitely_old_1.png"" id=""choice-option-img-1"" class=""choice-option-img"" stage=""1""></div><div class=""choice-option"" id=""choice-option-2"" ><img src=""images/maybe_old_1.png"" id=""choice-option-img-2"" class=""choice-option-img"" stage=""1""></div><div class=""choice-option"" id=""choice-option-3"" ><img src=""images/maybe_new_1.png"" id=""choice-option-img-3"" class=""choice-option-img"" stage=""1""></div><div class=""choice-option"" id=""choice-option-4"" > <img src=""images/definitely_new_1.png"" id=""choice-option-img-4"" class=""choice-option-img"" stage=""1""></div></div>","","0","instructions","","",""
"learning-instructions","13","77740","0.0-9.0-0.4","4129","approach_avoid_sv1","""event"",""trial"",""time""
""fullscreenenter"",""1"",""4209""
","
","
","""event"",""trial"",""time""
""fullscreenenter"",""1"",""4209""
","
","","","","","","895.2000000029802","<p> You should use the 1, 2, 3, and 4 keys to make your responses.  </p><div class=""mem-choice-instructions-grid""><div class=""choice-option"" id=""choice-option-1"" ><img src=""images/definitely_old.png"" id=""choice-option-img-1"" class=""choice-option-img"" stage=""1""></div><div class=""choice-option"" id=""choice-option-2"" ><img src=""images/maybe_old.png"" id=""choice-option-img-2"" class=""choice-option-img"" stage=""1""></div><div class=""choice-option"" id=""choice-option-3"" ><img src=""images/maybe_new.png"" id=""choice-option-img-3"" class=""choice-option-img"" stage=""1""></div><div class=""choice-option"" id=""choice-option-4"" > <img src=""images/definitely_new.png"" id=""choice-option-img-4"" class=""choice-option-img"" stage=""1""></div></div>","","0","instructions","","",""
"learning-instructions","14","85105","0.0-9.0-0.5","4129","approach_avoid_sv1","""event"",""trial"",""time""
""fullscreenenter"",""1"",""4209""
","
","
","""event"",""trial"",""time""
""fullscreenenter"",""1"",""4209""
","
","","","","","","1020.7999999970198","<p> You will have 10 seconds to make each response.  </p><p>  Make sure to respond before time runs out! </p>","","0","instructions","","",""
"learning-instructions","15","93070","0.0-9.0-0.6","4129","approach_avoid_sv1","""event"",""trial"",""time""
""fullscreenenter"",""1"",""4209""
","
","
","""event"",""trial"",""time""
""fullscreenenter"",""1"",""4209""
","
","","","","","","876.7999999970198","<p> Today, you will see each image ONCE only.  </p><p>  That means none of the images will repeat. </p>","","0","instructions","","",""
"learning-instructions","16","106572","0.0-9.0-0.7","4129","approach_avoid_sv1","""event"",""trial"",""time""
""fullscreenenter"",""1"",""4209""
","
","
","""event"",""trial"",""time""
""fullscreenenter"",""1"",""4209""
","
","","","","","","819.2000000029802","<p> Before you play the real game, it is time to practice. </p><p>  Just like in the real game, some of the images in the practice will be ones you have seen before. </p><p>  Others will be entirely new. </p>","","0","instructions","","",""
"html-button-response","17","109416","0.0-10.0","4129","approach_avoid_sv1","""event"",""trial"",""time""
""fullscreenenter"",""1"",""4209""
","
","
","""event"",""trial"",""time""
""fullscreenenter"",""1"",""4209""
","
","","","","","","2726.9000000059605","<p> Ready to practice? </p><p> Remember, use the 1, 2, 3, and 4 keys to make your responses. </p>","0","","instructions","","",""
"html-keyboard-response","18","110046","0.0-11.0-0.0","4129","approach_avoid_sv1","""event"",""trial"",""time""
""fullscreenenter"",""1"",""4209""
","
","
","""event"",""trial"",""time""
""fullscreenenter"",""1"",""4209""
","
","","","","","","null","<div style=""font-size:60px;"">+</div>","null","","fixation","","",""
"memory-trial","19","114017","0.0-11.0-1.0","4129","approach_avoid_sv1","""event"",""trial"",""time""
""fullscreenenter"",""1"",""4209""
","
","
","""event"",""trial"",""time""
""fullscreenenter"",""1"",""4209""
","
","","","","","","2961.3999999910593","images/racket2.png","","","practice","1","definitely_old",""
"html-keyboard-response","20","114526","0.0-11.0-0.1","4129","approach_avoid_sv1","""event"",""trial"",""time""
""fullscreenenter"",""1"",""4209""
","
","
","""event"",""trial"",""time""
""fullscreenenter"",""1"",""4209""
","
","","","","","","null","<div style=""font-size:60px;"">+</div>","null","","fixation","","",""
"memory-trial","21","117443","0.0-11.0-1.1","4129","approach_avoid_sv1","""event"",""trial"",""time""
""fullscreenenter"",""1"",""4209""
","
","
","""event"",""trial"",""time""
""fullscreenenter"",""1"",""4209""
","
","","","","","","1903.3999999910593","images/ball3.png","","","practice","4","definitely_new",""
"html-keyboard-response","22","117960","0.0-11.0-0.2","4129","approach_avoid_sv1","""event"",""trial"",""time""
""fullscreenenter"",""1"",""4209""
","
","
","""event"",""trial"",""time""
""fullscreenenter"",""1"",""4209""
","
","","","","","","null","<div style=""font-size:60px;"">+</div>","null","","fixation","","",""
"memory-trial","23","122305","0.0-11.0-1.2","4129","approach_avoid_sv1","""event"",""trial"",""time""
""fullscreenenter"",""1"",""4209""
","
","
","""event"",""trial"",""time""
""fullscreenenter"",""1"",""4209""
","
","","","","","","3328.2000000029802","images/ball2.png","","","practice","2","maybe_old",""
"html-keyboard-response","24","122823","0.0-11.0-0.3","4129","approach_avoid_sv1","""event"",""trial"",""time""
""fullscreenenter"",""1"",""4209""
","
","
","""event"",""trial"",""time""
""fullscreenenter"",""1"",""4209""
","
","","","","","","null","<div style=""font-size:60px;"">+</div>","null","","fixation","","",""
"memory-trial","25","126185","0.0-11.0-1.3","4129","approach_avoid_sv1","""event"",""trial"",""time""
""fullscreenenter"",""1"",""4209""
","
","
","""event"",""trial"",""time""
""fullscreenenter"",""1"",""4209""
","
","","","","","","2345.2999999970198","images/racket3.png","","","practice","1","definitely_old",""
"html-keyboard-response","26","126700","0.0-11.0-0.4","4129","approach_avoid_sv1","""event"",""trial"",""time""
""fullscreenenter"",""1"",""4209""
","
","
","""event"",""trial"",""time""
""fullscreenenter"",""1"",""4209""
","
","","","","","","null","<div style=""font-size:60px;"">+</div>","null","","fixation","","",""
"memory-trial","27","131042","0.0-11.0-1.4","4129","approach_avoid_sv1","""event"",""trial"",""time""
""fullscreenenter"",""1"",""4209""
","
","
","""event"",""trial"",""time""
""fullscreenenter"",""1"",""4209""
","
","","","","","","3324.2999999970198","images/ball5.png","","","practice","2","maybe_old",""
"html-keyboard-response","28","131544","0.0-11.0-0.5","4129","approach_avoid_sv1","""event"",""trial"",""time""
""fullscreenenter"",""1"",""4209""
","
","
","""event"",""trial"",""time""
""fullscreenenter"",""1"",""4209""
","
","","","","","","null","<div style=""font-size:60px;"">+</div>","null","","fixation","","",""
"memory-trial","29","134216","0.0-11.0-1.5","4129","approach_avoid_sv1","""event"",""trial"",""time""
""fullscreenenter"",""1"",""4209""
","
","
","""event"",""trial"",""time""
""fullscreenenter"",""1"",""4209""
","
","","","","","","1653.7000000029802","images/racket1.png","","","practice","1","definitely_old",""
"html-keyboard-response","30","134733","0.0-11.0-0.6","4129","approach_avoid_sv1","""event"",""trial"",""time""
""fullscreenenter"",""1"",""4209""
","
","
","""event"",""trial"",""time""
""fullscreenenter"",""1"",""4209""
","
","","","","","","null","<div style=""font-size:60px;"">+</div>","null","","fixation","","",""
"memory-trial","31","137942","0.0-11.0-1.6","4129","approach_avoid_sv1","""event"",""trial"",""time""
""fullscreenenter"",""1"",""4209""
","
","
","""event"",""trial"",""time""
""fullscreenenter"",""1"",""4209""
","
","","","","","","2184.2999999970198","images/racket5.png","","","practice","4","definitely_new",""
"html-keyboard-response","32","138450","0.0-11.0-0.7","4129","approach_avoid_sv1","""event"",""trial"",""time""
""fullscreenenter"",""1"",""4209""
","
","
","""event"",""trial"",""time""
""fullscreenenter"",""1"",""4209""
","
","","","","","","null","<div style=""font-size:60px;"">+</div>","null","","fixation","","",""
"memory-trial","33","141136","0.0-11.0-1.7","4129","approach_avoid_sv1","""event"",""trial"",""time""
""fullscreenenter"",""1"",""4209""
","
","
","""event"",""trial"",""time""
""fullscreenenter"",""1"",""4209""
","
","","","","","","1668.2999999970198","images/ball1.png","","","practice","4","definitely_new",""
"learning-instructions","34","150837","0.0-12.0-0.0","4129","approach_avoid_sv1","""event"",""trial"",""time""
""fullscreenenter"",""1"",""4209""
","
","
","""event"",""trial"",""time""
""fullscreenenter"",""1"",""4209""
","
","","","","","","2068.9000000059605","<p> Great! You have completed the practice. </p><p> Before you start, we're going to ask you a few questions about how the game works.  </p>","","0","instructions","","",""
"preload","35","152448","0.0-13.0","4129","approach_avoid_sv1","""event"",""trial"",""time""
""fullscreenenter"",""1"",""4209""
","
","
","""event"",""trial"",""time""
""fullscreenenter"",""1"",""4209""
","
","true","false","[]","[]","[]","","","","","","","",""
"comp-q","36","159945","0.0-14.0-0.0","4129","approach_avoid_sv1","""event"",""trial"",""time""
""fullscreenenter"",""1"",""4209""
","
","
","""event"",""trial"",""time""
""fullscreenenter"",""1"",""4209""
","
","","","","","","1666.5999999940395","<p> <b> True or False? </b> </p><p> In this game, you will only see each image once. </p>","","0","comp_question","","","true"
"comp-q","37","167741","0.0-14.0-1.0","4129","approach_avoid_sv1","""event"",""trial"",""time""
""fullscreenenter"",""1"",""4209""
","
","
","""event"",""trial"",""time""
""fullscreenenter"",""1"",""4209""
","
","","","","","","1452.4000000059605","<p> <b> That's right! </b> You will see many different images <i> one time each </i> in this game. </p>","","0","comp_answer","","",""
"comp-q","38","173698","0.0-15.0-0.0","4129","approach_avoid_sv1","""event"",""trial"",""time""
""fullscreenenter"",""1"",""4209""
","
","
","""event"",""trial"",""time""
""fullscreenenter"",""1"",""4209""
","
","","","","","","940.3999999910593","<p> <b> True or False? </b> </p><p> You should use the mouse and click to make your response. </p>","","1","comp_question","","","true"
"comp-q","39","181416","0.0-15.0-1.0","4129","approach_avoid_sv1","""event"",""trial"",""time""
""fullscreenenter"",""1"",""4209""
","
","
","""event"",""trial"",""time""
""fullscreenenter"",""1"",""4209""
","
","","","","","","1207.8999999910593","<p><b> That's right! </b> You should use the '1', '2', '3', and '4' keys to make your response. </p>","","0","comp_answer","","",""
"comp-q","40","188070","0.0-16.0-0.0","4129","approach_avoid_sv1","""event"",""trial"",""time""
""fullscreenenter"",""1"",""4209""
","
","
","""event"",""trial"",""time""
""fullscreenenter"",""1"",""4209""
","
","","","","","","961.5999999940395","<p> <b> True or False? </b> </p><p> You will have as much time as you want to make each choice. </p>","","1","comp_question","","","true"
"comp-q","41","193594","0.0-16.0-1.0","4129","approach_avoid_sv1","""event"",""trial"",""time""
""fullscreenenter"",""1"",""4209""
","
","
","""event"",""trial"",""time""
""fullscreenenter"",""1"",""4209""
","
","","","","","","825.5","<p> <b> That's right! </b> You will only have 10 seconds to make each choice. </p>","","0","comp_answer","","",""
"learning-instructions","42","203845","0.0-17.0","4129","approach_avoid_sv1","""event"",""trial"",""time""
""fullscreenenter"",""1"",""4209""
","
","
","""event"",""trial"",""time""
""fullscreenenter"",""1"",""4209""
","
","","","","","","1567.1000000089407","<p> Great! You are now ready to begin the game. </p><p> Remember, use the 1, 2, 3, and 4 keys to make your responses. </p>","","0","instructions","","",""
"html-keyboard-response","43","204466","0.0-18.0-0.0","4129","approach_avoid_sv1","""event"",""trial"",""time""
""fullscreenenter"",""1"",""4209""
","
","
","""event"",""trial"",""time""
""fullscreenenter"",""1"",""4209""
","
","","","","","","null","<div style=""font-size:60px;"">+</div>","null","","fixation","","",""
"memory-trial","44","207439","0.0-18.0-1.0","4129","approach_avoid_sv1","""event"",""trial"",""time""
""fullscreenenter"",""1"",""4209""
","
","
","""event"",""trial"",""time""
""fullscreenenter"",""1"",""4209""
","
","","","","","","1953.0999999940395","images/chair4.png","","","memory_trial","1","definitely_old",""
"html-keyboard-response","45","207948","0.0-18.0-0.1","4129","approach_avoid_sv1","""event"",""trial"",""time""
""fullscreenenter"",""1"",""4209""
","
","
","""event"",""trial"",""time""
""fullscreenenter"",""1"",""4209""
","
","","","","","","null","<div style=""font-size:60px;"">+</div>","null","","fixation","","",""
"memory-trial","46","210575","0.0-18.0-1.1","4129","approach_avoid_sv1","""event"",""trial"",""time""
""fullscreenenter"",""1"",""4209""
","
","
","""event"",""trial"",""time""
""fullscreenenter"",""1"",""4209""
","
","","","","","","1611.6000000089407","images/straw8.png","","","memory_trial","1","definitely_old",""
"html-keyboard-response","47","211093","0.0-18.0-0.2","4129","approach_avoid_sv1","""event"",""trial"",""time""
""fullscreenenter"",""1"",""4209""
","
","
","""event"",""trial"",""time""
""fullscreenenter"",""1"",""4209""
","
","","","","","","null","<div style=""font-size:60px;"">+</div>","null","","fixation","","",""
"memory-trial","48","214038","0.0-18.0-1.2","4129","approach_avoid_sv1","""event"",""trial"",""time""
""fullscreenenter"",""1"",""4209""
","
","
","""event"",""trial"",""time""
""fullscreenenter"",""1"",""4209""
","
","","","","","","1926.2999999970198","images/goat8.png","","","memory_trial","4","definitely_new",""
"html-keyboard-response","49","214540","0.0-18.0-0.3","4129","approach_avoid_sv1","""event"",""trial"",""time""
""fullscreenenter"",""1"",""4209""
","
","
","""event"",""trial"",""time""
""fullscreenenter"",""1"",""4209""
","
","","","","","","null","<div style=""font-size:60px;"">+</div>","null","","fixation","","",""
"memory-trial","50","217017","0.0-18.0-1.3","4129","approach_avoid_sv1","""event"",""trial"",""time""
""fullscreenenter"",""1"",""4209""
","
","
","""event"",""trial"",""time""
""fullscreenenter"",""1"",""4209""
","
","","","","","","1459.5999999940395","images/bed2.png","","","memory_trial","1","definitely_old",""
"html-keyboard-response","51","217524","0.0-18.0-0.4","4129","approach_avoid_sv1","""event"",""trial"",""time""
""fullscreenenter"",""1"",""4209""
","
","
","""event"",""trial"",""time""
""fullscreenenter"",""1"",""4209""
","
","","","","","","null","<div style=""font-size:60px;"">+</div>","null","","fixation","","",""
"memory-trial","52","219938","0.0-18.0-1.4","4129","approach_avoid_sv1","""event"",""trial"",""time""
""fullscreenenter"",""1"",""4209""
","
","
","""event"",""trial"",""time""
""fullscreenenter"",""1"",""4209""
","
","","","","","","1395.7000000029802","images/rabbit4.png","","","memory_trial","1","definitely_old",""
"html-keyboard-response","53","220444","0.0-18.0-0.5","4129","approach_avoid_sv1","""event"",""trial"",""time""
""fullscreenenter"",""1"",""4209""
","
","
","""event"",""trial"",""time""
""fullscreenenter"",""1"",""4209""
","
","","","","","","null","<div style=""font-size:60px;"">+</div>","null","","fixation","","",""
"memory-trial","54","223224","0.0-18.0-1.5","4129","approach_avoid_sv1","""event"",""trial"",""time""
""fullscreenenter"",""1"",""4209""
","
","
","""event"",""trial"",""time""
""fullscreenenter"",""1"",""4209""
","
","","","","","","1766.5","images/boat8.png","","","memory_trial","4","definitely_new",""
"html-keyboard-response","55","223744","0.0-18.0-0.6","4129","approach_avoid_sv1","""event"",""trial"",""time""
""fullscreenenter"",""1"",""4209""
","
","
","""event"",""trial"",""time""
""fullscreenenter"",""1"",""4209""
","
","","","","","","null","<div style=""font-size:60px;"">+</div>","null","","fixation","","",""
"memory-trial","56","226560","0.0-18.0-1.6","4129","approach_avoid_sv1","""event"",""trial"",""time""
""fullscreenenter"",""1"",""4209""
","
","
","""event"",""trial"",""time""
""fullscreenenter"",""1"",""4209""
","
","","","","","","1794.7999999970198","images/table8.png","","","memory_trial","4","definitely_new",""
"html-keyboard-response","57","227068","0.0-18.0-0.7","4129","approach_avoid_sv1","""event"",""trial"",""time""
""fullscreenenter"",""1"",""4209""
","
","
","""event"",""trial"",""time""
""fullscreenenter"",""1"",""4209""
","
","","","","","","null","<div style=""font-size:60px;"">+</div>","null","","fixation","","",""
"memory-trial","58","229329","0.0-18.0-1.7","4129","approach_avoid_sv1","""event"",""trial"",""time""
""fullscreenenter"",""1"",""4209""
","
","
","""event"",""trial"",""time""
""fullscreenenter"",""1"",""4209""
","
","","","","","","1251.7999999970198","images/chair6.png","","","memory_trial","1","definitely_old",""
"html-keyboard-response","59","229836","0.0-18.0-0.8","4129","approach_avoid_sv1","""event"",""trial"",""time""
""fullscreenenter"",""1"",""4209""
","
","
","""event"",""trial"",""time""
""fullscreenenter"",""1"",""4209""
","
","","","","","","null","<div style=""font-size:60px;"">+</div>","null","","fixation","","",""
"memory-trial","60","231691","0.0-18.0-1.8","4129","approach_avoid_sv1","""event"",""trial"",""time""
""fullscreenenter"",""1"",""4209""
","
","
","""event"",""trial"",""time""
""fullscreenenter"",""1"",""4209""
","
","","","","","","844","images/dog4.png","","","memory_trial","1","definitely_old",""
"html-keyboard-response","61","232208","0.0-18.0-0.9","4129","approach_avoid_sv1","""event"",""trial"",""time""
""fullscreenenter"",""1"",""4209""
","
","
","""event"",""trial"",""time""
""fullscreenenter"",""1"",""4209""
","
","","","","","","null","<div style=""font-size:60px;"">+</div>","null","","fixation","","",""
"memory-trial","62","235497","0.0-18.0-1.9","4129","approach_avoid_sv1","""event"",""trial"",""time""
""fullscreenenter"",""1"",""4209""
","
","
","""event"",""trial"",""time""
""fullscreenenter"",""1"",""4209""
","
","","","","","","2282.0999999940395","images/banana5.png","","","memory_trial","3","maybe_new",""
"html-keyboard-response","63","236001","0.0-18.0-0.10","4129","approach_avoid_sv1","""event"",""trial"",""time""
""fullscreenenter"",""1"",""4209""
","
","
","""event"",""trial"",""time""
""fullscreenenter"",""1"",""4209""
","
","","","","","","null","<div style=""font-size:60px;"">+</div>","null","","fixation","","",""
"memory-trial","64","238063","0.0-18.0-1.10","4129","approach_avoid_sv1","""event"",""trial"",""time""
""fullscreenenter"",""1"",""4209""
","
","
","""event"",""trial"",""time""
""fullscreenenter"",""1"",""4209""
","
","","","","","","1038.2999999970198","images/dog3.png","","","memory_trial","1","definitely_old",""
"html-keyboard-response","65","238568","0.0-18.0-0.11","4129","approach_avoid_sv1","""event"",""trial"",""time""
""fullscreenenter"",""1"",""4209""
","
","
","""event"",""trial"",""time""
""fullscreenenter"",""1"",""4209""
","
","","","","","","null","<div style=""font-size:60px;"">+</div>","null","","fixation","","",""
"memory-trial","66","240529","0.0-18.0-1.11","4129","approach_avoid_sv1","""event"",""trial"",""time""
""fullscreenenter"",""1"",""4209""
","
","
","""event"",""trial"",""time""
""fullscreenenter"",""1"",""4209""
","
","","","","","","952","images/apple7.png","","","memory_trial","1","definitely_old",""
"html-keyboard-response","67","241034","0.0-18.0-0.12","4129","approach_avoid_sv1","""event"",""trial"",""time""
""fullscreenenter"",""1"",""4209""
","
","
","""event"",""trial"",""time""
""fullscreenenter"",""1"",""4209""
","
","","","","","","null","<div style=""font-size:60px;"">+</div>","null","","fixation","","",""
"memory-trial","68","243505","0.0-18.0-1.12","4129","approach_avoid_sv1","""event"",""trial"",""time""
""fullscreenenter"",""1"",""4209""
","
","
","""event"",""trial"",""time""
""fullscreenenter"",""1"",""4209""
","
","","","","","","1465.199999988079","images/cow6.png","","","memory_trial","1","definitely_old",""
"html-keyboard-response","69","244023","0.0-18.0-0.13","4129","approach_avoid_sv1","""event"",""trial"",""time""
""fullscreenenter"",""1"",""4209""
","
","
","""event"",""trial"",""time""
""fullscreenenter"",""1"",""4209""
","
","","","","","","null","<div style=""font-size:60px;"">+</div>","null","","fixation","","",""
"memory-trial","70","245737","0.0-18.0-1.13","4129","approach_avoid_sv1","""event"",""trial"",""time""
""fullscreenenter"",""1"",""4209""
","
","
","""event"",""trial"",""time""
""fullscreenenter"",""1"",""4209""
","
","","","","","","707.2000000029802","images/sheep4.png","","","memory_trial","1","definitely_old",""
"html-keyboard-response","71","246255","0.0-18.0-0.14","4129","approach_avoid_sv1","""event"",""trial"",""time""
""fullscreenenter"",""1"",""4209""
","
","
","""event"",""trial"",""time""
""fullscreenenter"",""1"",""4209""
","
","","","","","","null","<div style=""font-size:60px;"">+</div>","null","","fixation","","",""
"memory-trial","72","248777","0.0-18.0-1.14","4129","approach_avoid_sv1","""event"",""trial"",""time""
""fullscreenenter"",""1"",""4209""
","
","
","""event"",""trial"",""time""
""fullscreenenter"",""1"",""4209""
","
","","","","","","1514.5999999940395","images/goat6.png","","","memory_trial","4","definitely_new",""
"html-keyboard-response","73","249295","0.0-18.0-0.15","4129","approach_avoid_sv1","""event"",""trial"",""time""
""fullscreenenter"",""1"",""4209""
","
","
","""event"",""trial"",""time""
""fullscreenenter"",""1"",""4209""
","
","","","","","","null","<div style=""font-size:60px;"">+</div>","null","","fixation","","",""
"memory-trial","74","251329","0.0-18.0-1.15","4129","approach_avoid_sv1","""event"",""trial"",""time""
""fullscreenenter"",""1"",""4209""
","
","
","""event"",""trial"",""time""
""fullscreenenter"",""1"",""4209""
","
","","","","","","1024.5","images/bed5.png","","","memory_trial","1","definitely_old",""
"html-keyboard-response","75","251839","0.0-18.0-0.16","4129","approach_avoid_sv1","""event"",""trial"",""time""
""fullscreenenter"",""1"",""4209""
","
","
","""event"",""trial"",""time""
""fullscreenenter"",""1"",""4209""
","
","","","","","","null","<div style=""font-size:60px;"">+</div>","null","","fixation","","",""
"memory-trial","76","254433","0.0-18.0-1.16","4129","approach_avoid_sv1","""event"",""trial"",""time""
""fullscreenenter"",""1"",""4209""
","
","
","""event"",""trial"",""time""
""fullscreenenter"",""1"",""4209""
","
","","","","","","1590.7999999970198","images/banana8.png","","","memory_trial","4","definitely_new",""
"html-keyboard-response","77","254937","0.0-18.0-0.17","4129","approach_avoid_sv1","""event"",""trial"",""time""
""fullscreenenter"",""1"",""4209""
","
","
","""event"",""trial"",""time""
""fullscreenenter"",""1"",""4209""
","
","","","","","","null","<div style=""font-size:60px;"">+</div>","null","","fixation","","",""
"memory-trial","78","257136","0.0-18.0-1.17","4129","approach_avoid_sv1","""event"",""trial"",""time""
""fullscreenenter"",""1"",""4209""
","
","
","""event"",""trial"",""time""
""fullscreenenter"",""1"",""4209""
","
","","","","","","1192.2000000029802","images/straw2.png","","","memory_trial","1","definitely_old",""
"html-keyboard-response","79","257641","0.0-18.0-0.18","4129","approach_avoid_sv1","""event"",""trial"",""time""
""fullscreenenter"",""1"",""4209""
","
","
","""event"",""trial"",""time""
""fullscreenenter"",""1"",""4209""
","
","","","","","","null","<div style=""font-size:60px;"">+</div>","null","","fixation","","",""
"memory-trial","80","260977","0.0-18.0-1.18","4129","approach_avoid_sv1","""event"",""trial"",""time""
""fullscreenenter"",""1"",""4209""
","
","
","""event"",""trial"",""time""
""fullscreenenter"",""1"",""4209""
","
","","","","","","2329.2999999970198","images/straw3.png","","","memory_trial","4","definitely_new",""
"html-keyboard-response","81","261480","0.0-18.0-0.19","4129","approach_avoid_sv1","""event"",""trial"",""time""
""fullscreenenter"",""1"",""4209""
","
","
","""event"",""trial"",""time""
""fullscreenenter"",""1"",""4209""
","
","","","","","","null","<div style=""font-size:60px;"">+</div>","null","","fixation","","",""
"memory-trial","82","264105","0.0-18.0-1.19","4129","approach_avoid_sv1","""event"",""trial"",""time""
""fullscreenenter"",""1"",""4209""
","
","
","""event"",""trial"",""time""
""fullscreenenter"",""1"",""4209""
","
","","","","","","1619.5999999940395","images/rodent3.png","","","memory_trial","4","definitely_new",""
"html-keyboard-response","83","264608","0.0-18.0-0.20","4129","approach_avoid_sv1","""event"",""trial"",""time""
""fullscreenenter"",""1"",""4209""
","
","
","""event"",""trial"",""time""
""fullscreenenter"",""1"",""4209""
","
","","","","","","null","<div style=""font-size:60px;"">+</div>","null","","fixation","","",""
"memory-trial","84","267473","0.0-18.0-1.20","4129","approach_avoid_sv1","""event"",""trial"",""time""
""fullscreenenter"",""1"",""4209""
","
","
","""event"",""trial"",""time""
""fullscreenenter"",""1"",""4209""
","
","","","","","","1851.7000000029802","images/cat3.png","","","memory_trial","4","definitely_new",""
"html-keyboard-response","85","267976","0.0-18.0-0.21","4129","approach_avoid_sv1","""event"",""trial"",""time""
""fullscreenenter"",""1"",""4209""
","
","
","""event"",""trial"",""time""
""fullscreenenter"",""1"",""4209""
","
","","","","","","null","<div style=""font-size:60px;"">+</div>","null","","fixation","","",""
"memory-trial","86","271128","0.0-18.0-1.21","4129","approach_avoid_sv1","""event"",""trial"",""time""
""fullscreenenter"",""1"",""4209""
","
","
","""event"",""trial"",""time""
""fullscreenenter"",""1"",""4209""
","
","","","","","","2143.2000000029802","images/horse4.png","","","memory_trial","3","maybe_new",""
"html-keyboard-response","87","271632","0.0-18.0-0.22","4129","approach_avoid_sv1","""event"",""trial"",""time""
""fullscreenenter"",""1"",""4209""
","
","
","""event"",""trial"",""time""
""fullscreenenter"",""1"",""4209""
","
","","","","","","null","<div style=""font-size:60px;"">+</div>","null","","fixation","","",""
"memory-trial","88","274552","0.0-18.0-1.22","4129","approach_avoid_sv1","""event"",""trial"",""time""
""fullscreenenter"",""1"",""4209""
","
","
","""event"",""trial"",""time""
""fullscreenenter"",""1"",""4209""
","
","","","","","","1917.2999999970198","images/apple1.png","","","memory_trial","4","definitely_new",""
"html-keyboard-response","89","275056","0.0-18.0-0.23","4129","approach_avoid_sv1","""event"",""trial"",""time""
""fullscreenenter"",""1"",""4209""
","
","
","""event"",""trial"",""time""
""fullscreenenter"",""1"",""4209""
","
","","","","","","null","<div style=""font-size:60px;"">+</div>","null","","fixation","","",""
"memory-trial","90","278576","0.0-18.0-1.23","4129","approach_avoid_sv1","""event"",""trial"",""time""
""fullscreenenter"",""1"",""4209""
","
","
","""event"",""trial"",""time""
""fullscreenenter"",""1"",""4209""
","
","","","","","","2512.8999999910593","images/boat2.png","","","memory_trial","2","maybe_old",""
"html-keyboard-response","91","279088","0.0-18.0-0.24","4129","approach_avoid_sv1","""event"",""trial"",""time""
""fullscreenenter"",""1"",""4209""
","
","
","""event"",""trial"",""time""
""fullscreenenter"",""1"",""4209""
","
","","","","","","null","<div style=""font-size:60px;"">+</div>","null","","fixation","","",""
"memory-trial","92","281594","0.0-18.0-1.24","4129","approach_avoid_sv1","""event"",""trial"",""time""
""fullscreenenter"",""1"",""4209""
","
","
","""event"",""trial"",""time""
""fullscreenenter"",""1"",""4209""
","
","","","","","","1501.0999999940395","images/cow5.png","","","memory_trial","1","definitely_old",""
"html-keyboard-response","93","282096","0.0-18.0-0.25","4129","approach_avoid_sv1","""event"",""trial"",""time""
""fullscreenenter"",""1"",""4209""
","
","
","""event"",""trial"",""time""
""fullscreenenter"",""1"",""4209""
","
","","","","","","null","<div style=""font-size:60px;"">+</div>","null","","fixation","","",""
"memory-trial","94","284785","0.0-18.0-1.25","4129","approach_avoid_sv1","""event"",""trial"",""time""
""fullscreenenter"",""1"",""4209""
","
","
","""event"",""trial"",""time""
""fullscreenenter"",""1"",""4209""
","
","","","","","","1683.5","images/cactus2.png","","","memory_trial","1","definitely_old",""
"html-keyboard-response","95","285288","0.0-18.0-0.26","4129","approach_avoid_sv1","""event"",""trial"",""time""
""fullscreenenter"",""1"",""4209""
","
","
","""event"",""trial"",""time""
""fullscreenenter"",""1"",""4209""
","
","","","","","","null","<div style=""font-size:60px;"">+</div>","null","","fixation","","",""
"memory-trial","96","288017","0.0-18.0-1.26","4129","approach_avoid_sv1","""event"",""trial"",""time""
""fullscreenenter"",""1"",""4209""
","
","
","""event"",""trial"",""time""
""fullscreenenter"",""1"",""4209""
","
","","","","","","1720.5","images/cow3.png","","","memory_trial","1","definitely_old",""
"html-keyboard-response","97","288527","0.0-18.0-0.27","4129","approach_avoid_sv1","""event"",""trial"",""time""
""fullscreenenter"",""1"",""4209""
","
","
","""event"",""trial"",""time""
""fullscreenenter"",""1"",""4209""
","
","","","","","","null","<div style=""font-size:60px;"">+</div>","null","","fixation","","",""
"memory-trial","98","291037","0.0-18.0-1.27","4129","approach_avoid_sv1","""event"",""trial"",""time""
""fullscreenenter"",""1"",""4209""
","
","
","""event"",""trial"",""time""
""fullscreenenter"",""1"",""4209""
","
","","","","","","1502.300000011921","images/train8.png","","","memory_trial","1","definitely_old",""
"html-keyboard-response","99","291544","0.0-18.0-0.28","4129","approach_avoid_sv1","""event"",""trial"",""time""
""fullscreenenter"",""1"",""4209""
","
","
","""event"",""trial"",""time""
""fullscreenenter"",""1"",""4209""
","
","","","","","","null","<div style=""font-size:60px;"">+</div>","null","","fixation","","",""
"memory-trial","100","293673","0.0-18.0-1.28","4129","approach_avoid_sv1","""event"",""trial"",""time""
""fullscreenenter"",""1"",""4209""
","
","
","""event"",""trial"",""time""
""fullscreenenter"",""1"",""4209""
","
","","","","","","1124.7000000029802","images/truck5.png","","","memory_trial","1","definitely_old",""
"html-keyboard-response","101","294184","0.0-18.0-0.29","4129","approach_avoid_sv1","""event"",""trial"",""time""
""fullscreenenter"",""1"",""4209""
","
","
","""event"",""trial"",""time""
""fullscreenenter"",""1"",""4209""
","
","","","","","","null","<div style=""font-size:60px;"">+</div>","null","","fixation","","",""
"memory-trial","102","297170","0.0-18.0-1.29","4129","approach_avoid_sv1","""event"",""trial"",""time""
""fullscreenenter"",""1"",""4209""
","
","
","""event"",""trial"",""time""
""fullscreenenter"",""1"",""4209""
","
","","","","","","1976.4000000059605","images/cow8.png","","","memory_trial","1","definitely_old",""
"html-keyboard-response","103","297673","0.0-18.0-0.30","4129","approach_avoid_sv1","""event"",""trial"",""time""
""fullscreenenter"",""1"",""4209""
","
","
","""event"",""trial"",""time""
""fullscreenenter"",""1"",""4209""
","
","","","","","","null","<div style=""font-size:60px;"">+</div>","null","","fixation","","",""
"memory-trial","104","300305","0.0-18.0-1.30","4129","approach_avoid_sv1","""event"",""trial"",""time""
""fullscreenenter"",""1"",""4209""
","
","
","""event"",""trial"",""time""
""fullscreenenter"",""1"",""4209""
","
","","","","","","1626.3999999910593","images/table7.png","","","memory_trial","1","definitely_old",""
"html-keyboard-response","105","300809","0.0-18.0-0.31","4129","approach_avoid_sv1","""event"",""trial"",""time""
""fullscreenenter"",""1"",""4209""
","
","
","""event"",""trial"",""time""
""fullscreenenter"",""1"",""4209""
","
","","","","","","null","<div style=""font-size:60px;"">+</div>","null","","fixation","","",""
"memory-trial","106","303448","0.0-18.0-1.31","4129","approach_avoid_sv1","""event"",""trial"",""time""
""fullscreenenter"",""1"",""4209""
","
","
","""event"",""trial"",""time""
""fullscreenenter"",""1"",""4209""
","
","","","","","","1630.4000000059605","images/rodent1.png","","","memory_trial","4","definitely_new",""
"html-keyboard-response","107","303952","0.0-18.0-0.32","4129","approach_avoid_sv1","""event"",""trial"",""time""
""fullscreenenter"",""1"",""4209""
","
","
","""event"",""trial"",""time""
""fullscreenenter"",""1"",""4209""
","
","","","","","","null","<div style=""font-size:60px;"">+</div>","null","","fixation","","",""
"memory-trial","108","306776","0.0-18.0-1.32","4129","approach_avoid_sv1","""event"",""trial"",""time""
""fullscreenenter"",""1"",""4209""
","
","
","""event"",""trial"",""time""
""fullscreenenter"",""1"",""4209""
","
","","","","","","1806.7000000029802","images/cactus1.png","","","memory_trial","1","definitely_old",""
"html-keyboard-response","109","307280","0.0-18.0-0.33","4129","approach_avoid_sv1","""event"",""trial"",""time""
""fullscreenenter"",""1"",""4209""
","
","
","""event"",""trial"",""time""
""fullscreenenter"",""1"",""4209""
","
","","","","","","null","<div style=""font-size:60px;"">+</div>","null","","fixation","","",""
"memory-trial","110","309624","0.0-18.0-1.33","4129","approach_avoid_sv1","""event"",""trial"",""time""
""fullscreenenter"",""1"",""4209""
","
","
","""event"",""trial"",""time""
""fullscreenenter"",""1"",""4209""
","
","","","","","","1339.6000000089407","images/straw7.png","","","memory_trial","1","definitely_old",""
"html-keyboard-response","111","310128","0.0-18.0-0.34","4129","approach_avoid_sv1","""event"",""trial"",""time""
""fullscreenenter"",""1"",""4209""
","
","
","""event"",""trial"",""time""
""fullscreenenter"",""1"",""4209""
","
","","","","","","null","<div style=""font-size:60px;"">+</div>","null","","fixation","","",""
"memory-trial","112","312665","0.0-18.0-1.34","4129","approach_avoid_sv1","""event"",""trial"",""time""
""fullscreenenter"",""1"",""4209""
","
","
","""event"",""trial"",""time""
""fullscreenenter"",""1"",""4209""
","
","","","","","","1531.4000000059605","images/flower7.png","","","memory_trial","1","definitely_old",""
"html-keyboard-response","113","313169","0.0-18.0-0.35","4129","approach_avoid_sv1","""event"",""trial"",""time""
""fullscreenenter"",""1"",""4209""
","
","
","""event"",""trial"",""time""
""fullscreenenter"",""1"",""4209""
","
","","","","","","null","<div style=""font-size:60px;"">+</div>","null","","fixation","","",""
"memory-trial","114","316401","0.0-18.0-1.35","4129","approach_avoid_sv1","""event"",""trial"",""time""
""fullscreenenter"",""1"",""4209""
","
","
","""event"",""trial"",""time""
""fullscreenenter"",""1"",""4209""
","
","","","","","","2220.9000000059605","images/orange2.png","","","memory_trial","3","maybe_new",""
"html-keyboard-response","115","316905","0.0-18.0-0.36","4129","approach_avoid_sv1","""event"",""trial"",""time""
""fullscreenenter"",""1"",""4209""
","
","
","""event"",""trial"",""time""
""fullscreenenter"",""1"",""4209""
","
","","","","","","null","<div style=""font-size:60px;"">+</div>","null","","fixation","","",""
"memory-trial","116","320185","0.0-18.0-1.36","4129","approach_avoid_sv1","""event"",""trial"",""time""
""fullscreenenter"",""1"",""4209""
","
","
","""event"",""trial"",""time""
""fullscreenenter"",""1"",""4209""
","
","","","","","","2276.5","images/tree5.png","","","memory_trial","1","definitely_old",""
"html-keyboard-response","117","320688","0.0-18.0-0.37","4129","approach_avoid_sv1","""event"",""trial"",""time""
""fullscreenenter"",""1"",""4209""
","
","
","""event"",""trial"",""time""
""fullscreenenter"",""1"",""4209""
","
","","","","","","null","<div style=""font-size:60px;"">+</div>","null","","fixation","","",""
"memory-trial","118","324904","0.0-18.0-1.37","4129","approach_avoid_sv1","""event"",""trial"",""time""
""fullscreenenter"",""1"",""4209""
","
","
","""event"",""trial"",""time""
""fullscreenenter"",""1"",""4209""
","
","","","","","","3201.5999999940395","images/cactus5.png","","","memory_trial","1","definitely_old",""
"html-keyboard-response","119","325415","0.0-18.0-0.38","4129","approach_avoid_sv1","""event"",""trial"",""time""
""fullscreenenter"",""1"",""4209""
","
","
","""event"",""trial"",""time""
""fullscreenenter"",""1"",""4209""
","
","","","","","","null","<div style=""font-size:60px;"">+</div>","null","","fixation","","",""
"memory-trial","120","328254","0.0-18.0-1.38","4129","approach_avoid_sv1","""event"",""trial"",""time""
""fullscreenenter"",""1"",""4209""
","
","
","""event"",""trial"",""time""
""fullscreenenter"",""1"",""4209""
","
","","","","","","1824.199999988079","images/orange8.png","","","memory_trial","4","definitely_new",""
"html-keyboard-response","121","328767","0.0-18.0-0.39","4129","approach_avoid_sv1","""event"",""trial"",""time""
""fullscreenenter"",""1"",""4209""
","
","
","""event"",""trial"",""time""
""fullscreenenter"",""1"",""4209""
","
","","","","","","null","<div style=""font-size:60px;"">+</div>","null","","fixation","","",""
"memory-trial","122","331169","0.0-18.0-1.39","4129","approach_avoid_sv1","""event"",""trial"",""time""
""fullscreenenter"",""1"",""4209""
","
","
","""event"",""trial"",""time""
""fullscreenenter"",""1"",""4209""
","
","","","","","","1394.4000000059605","images/rodent5.png","","","memory_trial","4","definitely_new",""
"html-keyboard-response","123","331687","0.0-18.0-0.40","4129","approach_avoid_sv1","""event"",""trial"",""time""
""fullscreenenter"",""1"",""4209""
","
","
","""event"",""trial"",""time""
""fullscreenenter"",""1"",""4209""
","
","","","","","","null","<div style=""font-size:60px;"">+</div>","null","","fixation","","",""
"memory-trial","124","335344","0.0-18.0-1.40","4129","approach_avoid_sv1","""event"",""trial"",""time""
""fullscreenenter"",""1"",""4209""
","
","
","""event"",""trial"",""time""
""fullscreenenter"",""1"",""4209""
","
","","","","","","2652.7999999970198","images/plane7.png","","","memory_trial","3","maybe_new",""
"html-keyboard-response","125","335847","0.0-18.0-0.41","4129","approach_avoid_sv1","""event"",""trial"",""time""
""fullscreenenter"",""1"",""4209""
","
","
","""event"",""trial"",""time""
""fullscreenenter"",""1"",""4209""
","
","","","","","","null","<div style=""font-size:60px;"">+</div>","null","","fixation","","",""
"memory-trial","126","337920","0.0-18.0-1.41","4129","approach_avoid_sv1","""event"",""trial"",""time""
""fullscreenenter"",""1"",""4209""
","
","
","""event"",""trial"",""time""
""fullscreenenter"",""1"",""4209""
","
","","","","","","1061.8999999910593","images/dog7.png","","","memory_trial","1","definitely_old",""
"html-button-response","127","340919","0.0-18.0-2.41-0.41","4129","approach_avoid_sv1","""event"",""trial"",""time""
""fullscreenenter"",""1"",""4209""
","
","
","""event"",""trial"",""time""
""fullscreenenter"",""1"",""4209""
","
","","","","","","2997","<p> Take a break! </p><p> Click the button to continue. </p>","0","","break","","",""
"html-keyboard-response","128","341427","0.0-18.0-0.42","4129","approach_avoid_sv1","""event"",""trial"",""time""
""fullscreenenter"",""1"",""4209""
","
","
","""event"",""trial"",""time""
""fullscreenenter"",""1"",""4209""
","
","","","","","","null","<div style=""font-size:60px;"">+</div>","null","","fixation","","",""
"memory-trial","129","344249","0.0-18.0-1.42","4129","approach_avoid_sv1","""event"",""trial"",""time""
""fullscreenenter"",""1"",""4209""
","
","
","""event"",""trial"",""time""
""fullscreenenter"",""1"",""4209""
","
","","","","","","1811.9000000059605","images/truck7.png","","","memory_trial","1","definitely_old",""
"html-keyboard-response","130","344752","0.0-18.0-0.43","4129","approach_avoid_sv1","""event"",""trial"",""time""
""fullscreenenter"",""1"",""4209""
","
","
","""event"",""trial"",""time""
""fullscreenenter"",""1"",""4209""
","
","","","","","","null","<div style=""font-size:60px;"">+</div>","null","","fixation","","",""
"memory-trial","131","346704","0.0-18.0-1.43","4129","approach_avoid_sv1","""event"",""trial"",""time""
""fullscreenenter"",""1"",""4209""
","
","
","""event"",""trial"",""time""
""fullscreenenter"",""1"",""4209""
","
","","","","","","947.4000000059605","images/sheep3.png","","","memory_trial","1","definitely_old",""
"html-keyboard-response","132","347208","0.0-18.0-0.44","4129","approach_avoid_sv1","""event"",""trial"",""time""
""fullscreenenter"",""1"",""4209""
","
","
","""event"",""trial"",""time""
""fullscreenenter"",""1"",""4209""
","
","","","","","","null","<div style=""font-size:60px;"">+</div>","null","","fixation","","",""
"memory-trial","133","349617","0.0-18.0-1.44","4129","approach_avoid_sv1","""event"",""trial"",""time""
""fullscreenenter"",""1"",""4209""
","
","
","""event"",""trial"",""time""
""fullscreenenter"",""1"",""4209""
","
","","","","","","1401.199999988079","images/bush3.png","","","memory_trial","4","definitely_new",""
"html-keyboard-response","134","350120","0.0-18.0-0.45","4129","approach_avoid_sv1","""event"",""trial"",""time""
""fullscreenenter"",""1"",""4209""
","
","
","""event"",""trial"",""time""
""fullscreenenter"",""1"",""4209""
","
","","","","","","null","<div style=""font-size:60px;"">+</div>","null","","fixation","","",""
"memory-trial","135","352856","0.0-18.0-1.45","4129","approach_avoid_sv1","""event"",""trial"",""time""
""fullscreenenter"",""1"",""4209""
","
","
","""event"",""trial"",""time""
""fullscreenenter"",""1"",""4209""
","
","","","","","","1720.5","images/tree6.png","","","memory_trial","1","definitely_old",""
"html-keyboard-response","136","353359","0.0-18.0-0.46","4129","approach_avoid_sv1","""event"",""trial"",""time""
""fullscreenenter"",""1"",""4209""
","
","
","""event"",""trial"",""time""
""fullscreenenter"",""1"",""4209""
","
","","","","","","null","<div style=""font-size:60px;"">+</div>","null","","fixation","","",""
"memory-trial","137","355928","0.0-18.0-1.46","4129","approach_avoid_sv1","""event"",""trial"",""time""
""fullscreenenter"",""1"",""4209""
","
","
","""event"",""trial"",""time""
""fullscreenenter"",""1"",""4209""
","
","","","","","","1559.8999999910593","images/bush7.png","","","memory_trial","4","definitely_new",""
"html-keyboard-response","138","356432","0.0-18.0-0.47","4129","approach_avoid_sv1","""event"",""trial"",""time""
""fullscreenenter"",""1"",""4209""
","
","
","""event"",""trial"",""time""
""fullscreenenter"",""1"",""4209""
","
","","","","","","null","<div style=""font-size:60px;"">+</div>","null","","fixation","","",""
"memory-trial","139","359761","0.0-18.0-1.47","4129","approach_avoid_sv1","""event"",""trial"",""time""
""fullscreenenter"",""1"",""4209""
","
","
","""event"",""trial"",""time""
""fullscreenenter"",""1"",""4209""
","
","","","","","","2317.7000000029802","images/plane3.png","","","memory_trial","2","maybe_old",""
"html-keyboard-response","140","360264","0.0-18.0-0.48","4129","approach_avoid_sv1","""event"",""trial"",""time""
""fullscreenenter"",""1"",""4209""
","
","
","""event"",""trial"",""time""
""fullscreenenter"",""1"",""4209""
","
","","","","","","null","<div style=""font-size:60px;"">+</div>","null","","fixation","","",""
"memory-trial","141","363512","0.0-18.0-1.48","4129","approach_avoid_sv1","""event"",""trial"",""time""
""fullscreenenter"",""1"",""4209""
","
","
","""event"",""trial"",""time""
""fullscreenenter"",""1"",""4209""
","
","","","","","","2226","images/flower2.png","","","memory_trial","4","definitely_new",""
"html-keyboard-response","142","364016","0.0-18.0-0.49","4129","approach_avoid_sv1","""event"",""trial"",""time""
""fullscreenenter"",""1"",""4209""
","
","
","""event"",""trial"",""time""
""fullscreenenter"",""1"",""4209""
","
","","","","","","null","<div style=""font-size:60px;"">+</div>","null","","fixation","","",""
"memory-trial","143","366480","0.0-18.0-1.49","4129","approach_avoid_sv1","""event"",""trial"",""time""
""fullscreenenter"",""1"",""4209""
","
","
","""event"",""trial"",""time""
""fullscreenenter"",""1"",""4209""
","
","","","","","","1453.199999988079","images/boat5.png","","","memory_trial","4","definitely_new",""
"html-keyboard-response","144","366984","0.0-18.0-0.50","4129","approach_avoid_sv1","""event"",""trial"",""time""
""fullscreenenter"",""1"",""4209""
","
","
","""event"",""trial"",""time""
""fullscreenenter"",""1"",""4209""
","
","","","","","","null","<div style=""font-size:60px;"">+</div>","null","","fixation","","",""
"memory-trial","145","370345","0.0-18.0-1.50","4129","approach_avoid_sv1","""event"",""trial"",""time""
""fullscreenenter"",""1"",""4209""
","
","
","""event"",""trial"",""time""
""fullscreenenter"",""1"",""4209""
","
","","","","","","2356.3999999910593","images/flower5.png","","","memory_trial","1","definitely_old",""
"html-keyboard-response","146","370855","0.0-18.0-0.51","4129","approach_avoid_sv1","""event"",""trial"",""time""
""fullscreenenter"",""1"",""4209""
","
","
","""event"",""trial"",""time""
""fullscreenenter"",""1"",""4209""
","
","","","","","","null","<div style=""font-size:60px;"">+</div>","null","","fixation","","",""
"memory-trial","147","372896","0.0-18.0-1.51","4129","approach_avoid_sv1","""event"",""trial"",""time""
""fullscreenenter"",""1"",""4209""
","
","
","""event"",""trial"",""time""
""fullscreenenter"",""1"",""4209""
","
","","","","","","1034.2000000029802","images/flower3.png","","","memory_trial","1","definitely_old",""
"html-keyboard-response","148","373400","0.0-18.0-0.52","4129","approach_avoid_sv1","""event"",""trial"",""time""
""fullscreenenter"",""1"",""4209""
","
","
","""event"",""trial"",""time""
""fullscreenenter"",""1"",""4209""
","
","","","","","","null","<div style=""font-size:60px;"">+</div>","null","","fixation","","",""
"memory-trial","149","375710","0.0-18.0-1.52","4129","approach_avoid_sv1","""event"",""trial"",""time""
""fullscreenenter"",""1"",""4209""
","
","
","""event"",""trial"",""time""
""fullscreenenter"",""1"",""4209""
","
","","","","","","1289.7999999970198","images/chair7.png","","","memory_trial","4","definitely_new",""
"html-keyboard-response","150","376216","0.0-18.0-0.53","4129","approach_avoid_sv1","""event"",""trial"",""time""
""fullscreenenter"",""1"",""4209""
","
","
","""event"",""trial"",""time""
""fullscreenenter"",""1"",""4209""
","
","","","","","","null","<div style=""font-size:60px;"">+</div>","null","","fixation","","",""
"memory-trial","151","378424","0.0-18.0-1.53","4129","approach_avoid_sv1","""event"",""trial"",""time""
""fullscreenenter"",""1"",""4209""
","
","
","""event"",""trial"",""time""
""fullscreenenter"",""1"",""4209""
","
","","","","","","1203.4000000059605","images/chair8.png","","","memory_trial","4","definitely_new",""
"html-keyboard-response","152","378928","0.0-18.0-0.54","4129","approach_avoid_sv1","""event"",""trial"",""time""
""fullscreenenter"",""1"",""4209""
","
","
","""event"",""trial"",""time""
""fullscreenenter"",""1"",""4209""
","
","","","","","","null","<div style=""font-size:60px;"">+</div>","null","","fixation","","",""
"memory-trial","153","381697","0.0-18.0-1.54","4129","approach_avoid_sv1","""event"",""trial"",""time""
""fullscreenenter"",""1"",""4209""
","
","
","""event"",""trial"",""time""
""fullscreenenter"",""1"",""4209""
","
","","","","","","1762.2000000029802","images/sheep8.png","","","memory_trial","1","definitely_old",""
"html-keyboard-response","154","382215","0.0-18.0-0.55","4129","approach_avoid_sv1","""event"",""trial"",""time""
""fullscreenenter"",""1"",""4209""
","
","
","""event"",""trial"",""time""
""fullscreenenter"",""1"",""4209""
","
","","","","","","null","<div style=""font-size:60px;"">+</div>","null","","fixation","","",""
"memory-trial","155","384368","0.0-18.0-1.55","4129","approach_avoid_sv1","""event"",""trial"",""time""
""fullscreenenter"",""1"",""4209""
","
","
","""event"",""trial"",""time""
""fullscreenenter"",""1"",""4209""
","
","","","","","","1143.7000000029802","images/cactus3.png","","","memory_trial","1","definitely_old",""
"html-keyboard-response","156","384872","0.0-18.0-0.56","4129","approach_avoid_sv1","""event"",""trial"",""time""
""fullscreenenter"",""1"",""4209""
","
","
","""event"",""trial"",""time""
""fullscreenenter"",""1"",""4209""
","
","","","","","","null","<div style=""font-size:60px;"">+</div>","null","","fixation","","",""
"memory-trial","157","387279","0.0-18.0-1.56","4129","approach_avoid_sv1","""event"",""trial"",""time""
""fullscreenenter"",""1"",""4209""
","
","
","""event"",""trial"",""time""
""fullscreenenter"",""1"",""4209""
","
","","","","","","1388.4000000059605","images/sofa5.png","","","memory_trial","4","definitely_new",""
"html-keyboard-response","158","387791","0.0-18.0-0.57","4129","approach_avoid_sv1","""event"",""trial"",""time""
""fullscreenenter"",""1"",""4209""
","
","
","""event"",""trial"",""time""
""fullscreenenter"",""1"",""4209""
","
","","","","","","null","<div style=""font-size:60px;"">+</div>","null","","fixation","","",""
"memory-trial","159","389800","0.0-18.0-1.57","4129","approach_avoid_sv1","""event"",""trial"",""time""
""fullscreenenter"",""1"",""4209""
","
","
","""event"",""trial"",""time""
""fullscreenenter"",""1"",""4209""
","
","","","","","","998.5","images/tree7.png","","","memory_trial","1","definitely_old",""
"html-keyboard-response","160","390303","0.0-18.0-0.58","4129","approach_avoid_sv1","""event"",""trial"",""time""
""fullscreenenter"",""1"",""4209""
","
","
","""event"",""trial"",""time""
""fullscreenenter"",""1"",""4209""
","
","","","","","","null","<div style=""font-size:60px;"">+</div>","null","","fixation","","",""
"memory-trial","161","392304","0.0-18.0-1.58","4129","approach_avoid_sv1","""event"",""trial"",""time""
""fullscreenenter"",""1"",""4209""
","
","
","""event"",""trial"",""time""
""fullscreenenter"",""1"",""4209""
","
","","","","","","996.2000000029802","images/tree4.png","","","memory_trial","1","definitely_old",""
"html-keyboard-response","162","392808","0.0-18.0-0.59","4129","approach_avoid_sv1","""event"",""trial"",""time""
""fullscreenenter"",""1"",""4209""
","
","
","""event"",""trial"",""time""
""fullscreenenter"",""1"",""4209""
","
","","","","","","null","<div style=""font-size:60px;"">+</div>","null","","fixation","","",""
"memory-trial","163","395191","0.0-18.0-1.59","4129","approach_avoid_sv1","""event"",""trial"",""time""
""fullscreenenter"",""1"",""4209""
","
","
","""event"",""trial"",""time""
""fullscreenenter"",""1"",""4209""
","
","","","","","","1371.7999999970198","images/horse2.png","","","memory_trial","4","definitely_new",""
"html-keyboard-response","164","395697","0.0-18.0-0.60","4129","approach_avoid_sv1","""event"",""trial"",""time""
""fullscreenenter"",""1"",""4209""
","
","
","""event"",""trial"",""time""
""fullscreenenter"",""1"",""4209""
","
","","","","","","null","<div style=""font-size:60px;"">+</div>","null","","fixation","","",""
"memory-trial","165","398552","0.0-18.0-1.60","4129","approach_avoid_sv1","""event"",""trial"",""time""
""fullscreenenter"",""1"",""4209""
","
","
","""event"",""trial"",""time""
""fullscreenenter"",""1"",""4209""
","
","","","","","","1851.7999999970198","images/cow1.png","","","memory_trial","4","definitely_new",""
"html-keyboard-response","166","399057","0.0-18.0-0.61","4129","approach_avoid_sv1","""event"",""trial"",""time""
""fullscreenenter"",""1"",""4209""
","
","
","""event"",""trial"",""time""
""fullscreenenter"",""1"",""4209""
","
","","","","","","null","<div style=""font-size:60px;"">+</div>","null","","fixation","","",""
"memory-trial","167","401659","0.0-18.0-1.61","4129","approach_avoid_sv1","""event"",""trial"",""time""
""fullscreenenter"",""1"",""4209""
","
","
","""event"",""trial"",""time""
""fullscreenenter"",""1"",""4209""
","
","","","","","","1593.5","images/boat7.png","","","memory_trial","4","definitely_new",""
"html-keyboard-response","168","402174","0.0-18.0-0.62","4129","approach_avoid_sv1","""event"",""trial"",""time""
""fullscreenenter"",""1"",""4209""
","
","
","""event"",""trial"",""time""
""fullscreenenter"",""1"",""4209""
","
","","","","","","null","<div style=""font-size:60px;"">+</div>","null","","fixation","","",""
"memory-trial","169","404552","0.0-18.0-1.62","4129","approach_avoid_sv1","""event"",""trial"",""time""
""fullscreenenter"",""1"",""4209""
","
","
","""event"",""trial"",""time""
""fullscreenenter"",""1"",""4209""
","
","","","","","","1374.3999999910593","images/banana7.png","","","memory_trial","4","definitely_new",""
"html-keyboard-response","170","405062","0.0-18.0-0.63","4129","approach_avoid_sv1","""event"",""trial"",""time""
""fullscreenenter"",""1"",""4209""
","
","
","""event"",""trial"",""time""
""fullscreenenter"",""1"",""4209""
","
","","","","","","null","<div style=""font-size:60px;"">+</div>","null","","fixation","","",""
"memory-trial","171","406977","0.0-18.0-1.63","4129","approach_avoid_sv1","""event"",""trial"",""time""
""fullscreenenter"",""1"",""4209""
","
","
","""event"",""trial"",""time""
""fullscreenenter"",""1"",""4209""
","
","","","","","","908.5","images/chair5.png","","","memory_trial","1","definitely_old",""
"html-keyboard-response","172","407481","0.0-18.0-0.64","4129","approach_avoid_sv1","""event"",""trial"",""time""
""fullscreenenter"",""1"",""4209""
","
","
","""event"",""trial"",""time""
""fullscreenenter"",""1"",""4209""
","
","","","","","","null","<div style=""font-size:60px;"">+</div>","null","","fixation","","",""
"memory-trial","173","409225","0.0-18.0-1.64","4129","approach_avoid_sv1","""event"",""trial"",""time""
""fullscreenenter"",""1"",""4209""
","
","
","""event"",""trial"",""time""
""fullscreenenter"",""1"",""4209""
","
","","","","","","739.5","images/chair1.png","","","memory_trial","1","definitely_old",""
"html-keyboard-response","174","409728","0.0-18.0-0.65","4129","approach_avoid_sv1","""event"",""trial"",""time""
""fullscreenenter"",""1"",""4209""
","
","
","""event"",""trial"",""time""
""fullscreenenter"",""1"",""4209""
","
","","","","","","null","<div style=""font-size:60px;"">+</div>","null","","fixation","","",""
"memory-trial","175","412536","0.0-18.0-1.65","4129","approach_avoid_sv1","""event"",""trial"",""time""
""fullscreenenter"",""1"",""4209""
","
","
","""event"",""trial"",""time""
""fullscreenenter"",""1"",""4209""
","
","","","","","","1801.800000011921","images/bush1.png","","","memory_trial","4","definitely_new",""
"html-keyboard-response","176","413040","0.0-18.0-0.66","4129","approach_avoid_sv1","""event"",""trial"",""time""
""fullscreenenter"",""1"",""4209""
","
","
","""event"",""trial"",""time""
""fullscreenenter"",""1"",""4209""
","
","","","","","","null","<div style=""font-size:60px;"">+</div>","null","","fixation","","",""
"memory-trial","177","415593","0.0-18.0-1.66","4129","approach_avoid_sv1","""event"",""trial"",""time""
""fullscreenenter"",""1"",""4209""
","
","
","""event"",""trial"",""time""
""fullscreenenter"",""1"",""4209""
","
","","","","","","1549.9000000059605","images/flower8.png","","","memory_trial","4","definitely_new",""
"html-keyboard-response","178","416111","0.0-18.0-0.67","4129","approach_avoid_sv1","""event"",""trial"",""time""
""fullscreenenter"",""1"",""4209""
","
","
","""event"",""trial"",""time""
""fullscreenenter"",""1"",""4209""
","
","","","","","","null","<div style=""font-size:60px;"">+</div>","null","","fixation","","",""
"memory-trial","179","418360","0.0-18.0-1.67","4129","approach_avoid_sv1","""event"",""trial"",""time""
""fullscreenenter"",""1"",""4209""
","
","
","""event"",""trial"",""time""
""fullscreenenter"",""1"",""4209""
","
","","","","","","1238.1000000089407","images/orange5.png","","","memory_trial","1","definitely_old",""
"html-keyboard-response","180","418865","0.0-18.0-0.68","4129","approach_avoid_sv1","""event"",""trial"",""time""
""fullscreenenter"",""1"",""4209""
","
","
","""event"",""trial"",""time""
""fullscreenenter"",""1"",""4209""
","
","","","","","","null","<div style=""font-size:60px;"">+</div>","null","","fixation","","",""
"memory-trial","181","421352","0.0-18.0-1.68","4129","approach_avoid_sv1","""event"",""trial"",""time""
""fullscreenenter"",""1"",""4209""
","
","
","""event"",""trial"",""time""
""fullscreenenter"",""1"",""4209""
","
","","","","","","1475.7999999970198","images/cat4.png","","","memory_trial","4","definitely_new",""
"html-keyboard-response","182","421856","0.0-18.0-0.69","4129","approach_avoid_sv1","""event"",""trial"",""time""
""fullscreenenter"",""1"",""4209""
","
","
","""event"",""trial"",""time""
""fullscreenenter"",""1"",""4209""
","
","","","","","","null","<div style=""font-size:60px;"">+</div>","null","","fixation","","",""
"memory-trial","183","424809","0.0-18.0-1.69","4129","approach_avoid_sv1","""event"",""trial"",""time""
""fullscreenenter"",""1"",""4209""
","
","
","""event"",""trial"",""time""
""fullscreenenter"",""1"",""4209""
","
","","","","","","1943.2999999970198","images/goat4.png","","","memory_trial","4","definitely_new",""
"html-keyboard-response","184","425314","0.0-18.0-0.70","4129","approach_avoid_sv1","""event"",""trial"",""time""
""fullscreenenter"",""1"",""4209""
","
","
","""event"",""trial"",""time""
""fullscreenenter"",""1"",""4209""
","
","","","","","","null","<div style=""font-size:60px;"">+</div>","null","","fixation","","",""
"memory-trial","185","429614","0.0-18.0-1.70","4129","approach_avoid_sv1","""event"",""trial"",""time""
""fullscreenenter"",""1"",""4209""
","
","
","""event"",""trial"",""time""
""fullscreenenter"",""1"",""4209""
","
","","","","","","3285.9000000059605","images/cat7.png","","","memory_trial","1","definitely_old",""
"html-keyboard-response","186","430121","0.0-18.0-0.71","4129","approach_avoid_sv1","""event"",""trial"",""time""
""fullscreenenter"",""1"",""4209""
","
","
","""event"",""trial"",""time""
""fullscreenenter"",""1"",""4209""
","
","","","","","","null","<div style=""font-size:60px;"">+</div>","null","","fixation","","",""
"memory-trial","187","432984","0.0-18.0-1.71","4129","approach_avoid_sv1","""event"",""trial"",""time""
""fullscreenenter"",""1"",""4209""
","
","
","""event"",""trial"",""time""
""fullscreenenter"",""1"",""4209""
","
","","","","","","1858.8999999910593","images/goat3.png","","","memory_trial","4","definitely_new",""
"html-keyboard-response","188","433488","0.0-18.0-0.72","4129","approach_avoid_sv1","""event"",""trial"",""time""
""fullscreenenter"",""1"",""4209""
","
","
","""event"",""trial"",""time""
""fullscreenenter"",""1"",""4209""
","
","","","","","","null","<div style=""font-size:60px;"">+</div>","null","","fixation","","",""
"memory-trial","189","435480","0.0-18.0-1.72","4129","approach_avoid_sv1","""event"",""trial"",""time""
""fullscreenenter"",""1"",""4209""
","
","
","""event"",""trial"",""time""
""fullscreenenter"",""1"",""4209""
","
","","","","","","981.9000000059605","images/sheep7.png","","","memory_trial","1","definitely_old",""
"html-keyboard-response","190","435999","0.0-18.0-0.73","4129","approach_avoid_sv1","""event"",""trial"",""time""
""fullscreenenter"",""1"",""4209""
","
","
","""event"",""trial"",""time""
""fullscreenenter"",""1"",""4209""
","
","","","","","","null","<div style=""font-size:60px;"">+</div>","null","","fixation","","",""
"memory-trial","191","438360","0.0-18.0-1.73","4129","approach_avoid_sv1","""event"",""trial"",""time""
""fullscreenenter"",""1"",""4209""
","
","
","""event"",""trial"",""time""
""fullscreenenter"",""1"",""4209""
","
","","","","","","1350.6000000089407","images/plane4.png","","","memory_trial","1","definitely_old",""
"html-keyboard-response","192","438870","0.0-18.0-0.74","4129","approach_avoid_sv1","""event"",""trial"",""time""
""fullscreenenter"",""1"",""4209""
","
","
","""event"",""trial"",""time""
""fullscreenenter"",""1"",""4209""
","
","","","","","","null","<div style=""font-size:60px;"">+</div>","null","","fixation","","",""
"memory-trial","193","442002","0.0-18.0-1.74","4129","approach_avoid_sv1","""event"",""trial"",""time""
""fullscreenenter"",""1"",""4209""
","
","
","""event"",""trial"",""time""
""fullscreenenter"",""1"",""4209""
","
","","","","","","2120.3999999910593","images/sofa7.png","","","memory_trial","4","definitely_new",""
"html-keyboard-response","194","442505","0.0-18.0-0.75","4129","approach_avoid_sv1","""event"",""trial"",""time""
""fullscreenenter"",""1"",""4209""
","
","
","""event"",""trial"",""time""
""fullscreenenter"",""1"",""4209""
","
","","","","","","null","<div style=""font-size:60px;"">+</div>","null","","fixation","","",""
"memory-trial","195","445464","0.0-18.0-1.75","4129","approach_avoid_sv1","""event"",""trial"",""time""
""fullscreenenter"",""1"",""4209""
","
","
","""event"",""trial"",""time""
""fullscreenenter"",""1"",""4209""
","
","","","","","","1955.0999999940395","images/apple3.png","","","memory_trial","1","definitely_old",""
"html-keyboard-response","196","445982","0.0-18.0-0.76","4129","approach_avoid_sv1","""event"",""trial"",""time""
""fullscreenenter"",""1"",""4209""
","
","
","""event"",""trial"",""time""
""fullscreenenter"",""1"",""4209""
","
","","","","","","null","<div style=""font-size:60px;"">+</div>","null","","fixation","","",""
"memory-trial","197","448225","0.0-18.0-1.76","4129","approach_avoid_sv1","""event"",""trial"",""time""
""fullscreenenter"",""1"",""4209""
","
","
","""event"",""trial"",""time""
""fullscreenenter"",""1"",""4209""
","
","","","","","","1238.5999999940395","images/train1.png","","","memory_trial","4","definitely_new",""
"html-keyboard-response","198","448728","0.0-18.0-0.77","4129","approach_avoid_sv1","""event"",""trial"",""time""
""fullscreenenter"",""1"",""4209""
","
","
","""event"",""trial"",""time""
""fullscreenenter"",""1"",""4209""
","
","","","","","","null","<div style=""font-size:60px;"">+</div>","null","","fixation","","",""
"memory-trial","199","451048","0.0-18.0-1.77","4129","approach_avoid_sv1","""event"",""trial"",""time""
""fullscreenenter"",""1"",""4209""
","
","
","""event"",""trial"",""time""
""fullscreenenter"",""1"",""4209""
","
","","","","","","1312.4000000059605","images/plane1.png","","","memory_trial","4","definitely_new",""
"html-keyboard-response","200","451553","0.0-18.0-0.78","4129","approach_avoid_sv1","""event"",""trial"",""time""
""fullscreenenter"",""1"",""4209""
","
","
","""event"",""trial"",""time""
""fullscreenenter"",""1"",""4209""
","
","","","","","","null","<div style=""font-size:60px;"">+</div>","null","","fixation","","",""
"memory-trial","201","453616","0.0-18.0-1.78","4129","approach_avoid_sv1","""event"",""trial"",""time""
""fullscreenenter"",""1"",""4209""
","
","
","""event"",""trial"",""time""
""fullscreenenter"",""1"",""4209""
","
","","","","","","1058.2999999970198","images/train4.png","","","memory_trial","1","definitely_old",""
"html-keyboard-response","202","454120","0.0-18.0-0.79","4129","approach_avoid_sv1","""event"",""trial"",""time""
""fullscreenenter"",""1"",""4209""
","
","
","""event"",""trial"",""time""
""fullscreenenter"",""1"",""4209""
","
","","","","","","null","<div style=""font-size:60px;"">+</div>","null","","fixation","","",""
"memory-trial","203","456706","0.0-18.0-1.79","4129","approach_avoid_sv1","""event"",""trial"",""time""
""fullscreenenter"",""1"",""4209""
","
","
","""event"",""trial"",""time""
""fullscreenenter"",""1"",""4209""
","
","","","","","","1580.5999999940395","images/train3.png","","","memory_trial","4","definitely_new",""
"html-keyboard-response","204","457223","0.0-18.0-0.80","4129","approach_avoid_sv1","""event"",""trial"",""time""
""fullscreenenter"",""1"",""4209""
","
","
","""event"",""trial"",""time""
""fullscreenenter"",""1"",""4209""
","
","","","","","","null","<div style=""font-size:60px;"">+</div>","null","","fixation","","",""
"memory-trial","205","460624","0.0-18.0-1.80","4129","approach_avoid_sv1","""event"",""trial"",""time""
""fullscreenenter"",""1"",""4209""
","
","
","""event"",""trial"",""time""
""fullscreenenter"",""1"",""4209""
","
","","","","","","2398.5","images/sofa4.png","","","memory_trial","4","definitely_new",""
"html-keyboard-response","206","461130","0.0-18.0-0.81","4129","approach_avoid_sv1","""event"",""trial"",""time""
""fullscreenenter"",""1"",""4209""
","
","
","""event"",""trial"",""time""
""fullscreenenter"",""1"",""4209""
","
","","","","","","null","<div style=""font-size:60px;"">+</div>","null","","fixation","","",""
"memory-trial","207","463903","0.0-18.0-1.81","4129","approach_avoid_sv1","""event"",""trial"",""time""
""fullscreenenter"",""1"",""4209""
","
","
","""event"",""trial"",""time""
""fullscreenenter"",""1"",""4209""
","
","","","","","","1750.2999999970198","images/banana4.png","","","memory_trial","1","definitely_old",""
"html-keyboard-response","208","464408","0.0-18.0-0.82","4129","approach_avoid_sv1","""event"",""trial"",""time""
""fullscreenenter"",""1"",""4209""
","
","
","""event"",""trial"",""time""
""fullscreenenter"",""1"",""4209""
","
","","","","","","null","<div style=""font-size:60px;"">+</div>","null","","fixation","","",""
"memory-trial","209","467777","0.0-18.0-1.82","4129","approach_avoid_sv1","""event"",""trial"",""time""
""fullscreenenter"",""1"",""4209""
","
","
","""event"",""trial"",""time""
""fullscreenenter"",""1"",""4209""
","
","","","","","","2362.6000000089407","images/cow2.png","","","memory_trial","1","definitely_old",""
"html-keyboard-response","210","468280","0.0-18.0-0.83","4129","approach_avoid_sv1","""event"",""trial"",""time""
""fullscreenenter"",""1"",""4209""
","
","
","""event"",""trial"",""time""
""fullscreenenter"",""1"",""4209""
","
","","","","","","null","<div style=""font-size:60px;"">+</div>","null","","fixation","","",""
"memory-trial","211","470865","0.0-18.0-1.83","4129","approach_avoid_sv1","""event"",""trial"",""time""
""fullscreenenter"",""1"",""4209""
","
","
","""event"",""trial"",""time""
""fullscreenenter"",""1"",""4209""
","
","","","","","","1580.2000000029802","images/boat4.png","","","memory_trial","4","definitely_new",""
"html-keyboard-response","212","471368","0.0-18.0-0.84","4129","approach_avoid_sv1","""event"",""trial"",""time""
""fullscreenenter"",""1"",""4209""
","
","
","""event"",""trial"",""time""
""fullscreenenter"",""1"",""4209""
","
","","","","","","null","<div style=""font-size:60px;"">+</div>","null","","fixation","","",""
"memory-trial","213","474112","0.0-18.0-1.84","4129","approach_avoid_sv1","""event"",""trial"",""time""
""fullscreenenter"",""1"",""4209""
","
","
","""event"",""trial"",""time""
""fullscreenenter"",""1"",""4209""
","
","","","","","","1733","images/truck3.png","","","memory_trial","4","definitely_new",""
"html-keyboard-response","214","474616","0.0-18.0-0.85","4129","approach_avoid_sv1","""event"",""trial"",""time""
""fullscreenenter"",""1"",""4209""
","
","
","""event"",""trial"",""time""
""fullscreenenter"",""1"",""4209""
","
","","","","","","null","<div style=""font-size:60px;"">+</div>","null","","fixation","","",""
"memory-trial","215","478666","0.0-18.0-1.85","4129","approach_avoid_sv1","""event"",""trial"",""time""
""fullscreenenter"",""1"",""4209""
","
","
","""event"",""trial"",""time""
""fullscreenenter"",""1"",""4209""
","
","","","","","","3044.2999999970198","images/rabbit5.png","","","memory_trial","3","maybe_new",""
"html-keyboard-response","216","479175","0.0-18.0-0.86","4129","approach_avoid_sv1","""event"",""trial"",""time""
""fullscreenenter"",""1"",""4209""
","
","
","""event"",""trial"",""time""
""fullscreenenter"",""1"",""4209""
","
","","","","","","null","<div style=""font-size:60px;"">+</div>","null","","fixation","","",""
"memory-trial","217","482825","0.0-18.0-1.86","4129","approach_avoid_sv1","""event"",""trial"",""time""
""fullscreenenter"",""1"",""4209""
","
","
","""event"",""trial"",""time""
""fullscreenenter"",""1"",""4209""
","
","","","","","","2645.2999999970198","images/goat1.png","","","memory_trial","3","maybe_new",""
"html-keyboard-response","218","483328","0.0-18.0-0.87","4129","approach_avoid_sv1","""event"",""trial"",""time""
""fullscreenenter"",""1"",""4209""
","
","
","""event"",""trial"",""time""
""fullscreenenter"",""1"",""4209""
","
","","","","","","null","<div style=""font-size:60px;"">+</div>","null","","fixation","","",""
"memory-trial","219","486457","0.0-18.0-1.87","4129","approach_avoid_sv1","""event"",""trial"",""time""
""fullscreenenter"",""1"",""4209""
","
","
","""event"",""trial"",""time""
""fullscreenenter"",""1"",""4209""
","
","","","","","","2122.2999999970198","images/truck6.png","","","memory_trial","4","definitely_new",""
"html-keyboard-response","220","486960","0.0-18.0-0.88","4129","approach_avoid_sv1","""event"",""trial"",""time""
""fullscreenenter"",""1"",""4209""
","
","
","""event"",""trial"",""time""
""fullscreenenter"",""1"",""4209""
","
","","","","","","null","<div style=""font-size:60px;"">+</div>","null","","fixation","","",""
"memory-trial","221","491678","0.0-18.0-1.88","4129","approach_avoid_sv1","""event"",""trial"",""time""
""fullscreenenter"",""1"",""4209""
","
","
","""event"",""trial"",""time""
""fullscreenenter"",""1"",""4209""
","
","","","","","","3700.9000000059605","images/apple2.png","","","memory_trial","3","maybe_new",""
"html-keyboard-response","222","492184","0.0-18.0-0.89","4129","approach_avoid_sv1","""event"",""trial"",""time""
""fullscreenenter"",""1"",""4209""
","
","
","""event"",""trial"",""time""
""fullscreenenter"",""1"",""4209""
","
","","","","","","null","<div style=""font-size:60px;"">+</div>","null","","fixation","","",""
"memory-trial","223","494352","0.0-18.0-1.89","4129","approach_avoid_sv1","""event"",""trial"",""time""
""fullscreenenter"",""1"",""4209""
","
","
","""event"",""trial"",""time""
""fullscreenenter"",""1"",""4209""
","
","","","","","","1165.0999999940395","images/horse3.png","","","memory_trial","4","definitely_new",""
"html-keyboard-response","224","494857","0.0-18.0-0.90","4129","approach_avoid_sv1","""event"",""trial"",""time""
""fullscreenenter"",""1"",""4209""
","
","
","""event"",""trial"",""time""
""fullscreenenter"",""1"",""4209""
","
","","","","","","null","<div style=""font-size:60px;"">+</div>","null","","fixation","","",""
"memory-trial","225","497412","0.0-18.0-1.90","4129","approach_avoid_sv1","""event"",""trial"",""time""
""fullscreenenter"",""1"",""4209""
","
","
","""event"",""trial"",""time""
""fullscreenenter"",""1"",""4209""
","
","","","","","","1543.9000000059605","images/cactus7.png","","","memory_trial","1","definitely_old",""
"html-keyboard-response","226","497921","0.0-18.0-0.91","4129","approach_avoid_sv1","""event"",""trial"",""time""
""fullscreenenter"",""1"",""4209""
","
","
","""event"",""trial"",""time""
""fullscreenenter"",""1"",""4209""
","
","","","","","","null","<div style=""font-size:60px;"">+</div>","null","","fixation","","",""
"memory-trial","227","500856","0.0-18.0-1.91","4129","approach_avoid_sv1","""event"",""trial"",""time""
""fullscreenenter"",""1"",""4209""
","
","
","""event"",""trial"",""time""
""fullscreenenter"",""1"",""4209""
","
","","","","","","1929.5","images/bed6.png","","","memory_trial","4","definitely_new",""
"html-button-response","228","504186","0.0-18.0-2.91-0.91","4129","approach_avoid_sv1","""event"",""trial"",""time""
""fullscreenenter"",""1"",""4209""
","
","
","""event"",""trial"",""time""
""fullscreenenter"",""1"",""4209""
","
","","","","","","3329.199999988079","<p> Take a break! </p><p> Click the button to continue. </p>","0","","break","","",""
"html-keyboard-response","229","504697","0.0-18.0-0.92","4129","approach_avoid_sv1","""event"",""trial"",""time""
""fullscreenenter"",""1"",""4209""
","
","
","""event"",""trial"",""time""
""fullscreenenter"",""1"",""4209""
","
","","","","","","null","<div style=""font-size:60px;"">+</div>","null","","fixation","","",""
"memory-trial","230","507865","0.0-18.0-1.92","4129","approach_avoid_sv1","""event"",""trial"",""time""
""fullscreenenter"",""1"",""4209""
","
","
","""event"",""trial"",""time""
""fullscreenenter"",""1"",""4209""
","
","","","","","","2163.7000000029802","images/boat1.png","","","memory_trial","4","definitely_new",""
"html-keyboard-response","231","508384","0.0-18.0-0.93","4129","approach_avoid_sv1","""event"",""trial"",""time""
""fullscreenenter"",""1"",""4209""
","
","
","""event"",""trial"",""time""
""fullscreenenter"",""1"",""4209""
","
","","","","","","null","<div style=""font-size:60px;"">+</div>","null","","fixation","","",""
"memory-trial","232","510602","0.0-18.0-1.93","4129","approach_avoid_sv1","""event"",""trial"",""time""
""fullscreenenter"",""1"",""4209""
","
","
","""event"",""trial"",""time""
""fullscreenenter"",""1"",""4209""
","
","","","","","","1206.2999999970198","images/sofa8.png","","","memory_trial","4","definitely_new",""
"html-keyboard-response","233","511104","0.0-18.0-0.94","4129","approach_avoid_sv1","""event"",""trial"",""time""
""fullscreenenter"",""1"",""4209""
","
","
","""event"",""trial"",""time""
""fullscreenenter"",""1"",""4209""
","
","","","","","","null","<div style=""font-size:60px;"">+</div>","null","","fixation","","",""
"memory-trial","234","513168","0.0-18.0-1.94","4129","approach_avoid_sv1","""event"",""trial"",""time""
""fullscreenenter"",""1"",""4209""
","
","
","""event"",""trial"",""time""
""fullscreenenter"",""1"",""4209""
","
","","","","","","1056.5999999940395","images/sofa2.png","","","memory_trial","4","definitely_new",""
"html-keyboard-response","235","513672","0.0-18.0-0.95","4129","approach_avoid_sv1","""event"",""trial"",""time""
""fullscreenenter"",""1"",""4209""
","
","
","""event"",""trial"",""time""
""fullscreenenter"",""1"",""4209""
","
","","","","","","null","<div style=""font-size:60px;"">+</div>","null","","fixation","","",""
"memory-trial","236","516178","0.0-18.0-1.95","4129","approach_avoid_sv1","""event"",""trial"",""time""
""fullscreenenter"",""1"",""4209""
","
","
","""event"",""trial"",""time""
""fullscreenenter"",""1"",""4209""
","
","","","","","","1499.4000000059605","images/plane2.png","","","memory_trial","4","definitely_new",""
"html-keyboard-response","237","516680","0.0-18.0-0.96","4129","approach_avoid_sv1","""event"",""trial"",""time""
""fullscreenenter"",""1"",""4209""
","
","
","""event"",""trial"",""time""
""fullscreenenter"",""1"",""4209""
","
","","","","","","null","<div style=""font-size:60px;"">+</div>","null","","fixation","","",""
"memory-trial","238","519081","0.0-18.0-1.96","4129","approach_avoid_sv1","""event"",""trial"",""time""
""fullscreenenter"",""1"",""4209""
","
","
","""event"",""trial"",""time""
""fullscreenenter"",""1"",""4209""
","
","","","","","","1390.7000000029802","images/dog8.png","","","memory_trial","2","maybe_old",""
"html-keyboard-response","239","519599","0.0-18.0-0.97","4129","approach_avoid_sv1","""event"",""trial"",""time""
""fullscreenenter"",""1"",""4209""
","
","
","""event"",""trial"",""time""
""fullscreenenter"",""1"",""4209""
","
","","","","","","null","<div style=""font-size:60px;"">+</div>","null","","fixation","","",""
"memory-trial","240","521809","0.0-18.0-1.97","4129","approach_avoid_sv1","""event"",""trial"",""time""
""fullscreenenter"",""1"",""4209""
","
","
","""event"",""trial"",""time""
""fullscreenenter"",""1"",""4209""
","
","","","","","","1201.7000000029802","images/table1.png","","","memory_trial","1","definitely_old",""
"html-keyboard-response","241","522322","0.0-18.0-0.98","4129","approach_avoid_sv1","""event"",""trial"",""time""
""fullscreenenter"",""1"",""4209""
","
","
","""event"",""trial"",""time""
""fullscreenenter"",""1"",""4209""
","
","","","","","","null","<div style=""font-size:60px;"">+</div>","null","","fixation","","",""
"memory-trial","242","524281","0.0-18.0-1.98","4129","approach_avoid_sv1","""event"",""trial"",""time""
""fullscreenenter"",""1"",""4209""
","
","
","""event"",""trial"",""time""
""fullscreenenter"",""1"",""4209""
","
","","","","","","947.8999999910593","images/chair3.png","","","memory_trial","1","definitely_old",""
"html-keyboard-response","243","524793","0.0-18.0-0.99","4129","approach_avoid_sv1","""event"",""trial"",""time""
""fullscreenenter"",""1"",""4209""
","
","
","""event"",""trial"",""time""
""fullscreenenter"",""1"",""4209""
","
","","","","","","null","<div style=""font-size:60px;"">+</div>","null","","fixation","","",""
"memory-trial","244","527944","0.0-18.0-1.99","4129","approach_avoid_sv1","""event"",""trial"",""time""
""fullscreenenter"",""1"",""4209""
","
","
","""event"",""trial"",""time""
""fullscreenenter"",""1"",""4209""
","
","","","","","","2149","images/banana1.png","","","memory_trial","4","definitely_new",""
"html-keyboard-response","245","528450","0.0-18.0-0.100","4129","approach_avoid_sv1","""event"",""trial"",""time""
""fullscreenenter"",""1"",""4209""
","
","
","""event"",""trial"",""time""
""fullscreenenter"",""1"",""4209""
","
","","","","","","null","<div style=""font-size:60px;"">+</div>","null","","fixation","","",""
"memory-trial","246","531337","0.0-18.0-1.100","4129","approach_avoid_sv1","""event"",""trial"",""time""
""fullscreenenter"",""1"",""4209""
","
","
","""event"",""trial"",""time""
""fullscreenenter"",""1"",""4209""
","
","","","","","","1870.2999999970198","images/cow7.png","","","memory_trial","1","definitely_old",""
"html-keyboard-response","247","531841","0.0-18.0-0.101","4129","approach_avoid_sv1","""event"",""trial"",""time""
""fullscreenenter"",""1"",""4209""
","
","
","""event"",""trial"",""time""
""fullscreenenter"",""1"",""4209""
","
","","","","","","null","<div style=""font-size:60px;"">+</div>","null","","fixation","","",""
"memory-trial","248","535425","0.0-18.0-1.101","4129","approach_avoid_sv1","""event"",""trial"",""time""
""fullscreenenter"",""1"",""4209""
","
","
","""event"",""trial"",""time""
""fullscreenenter"",""1"",""4209""
","
","","","","","","2580.3999999910593","images/straw6.png","","","memory_trial","4","definitely_new",""
"html-keyboard-response","249","535928","0.0-18.0-0.102","4129","approach_avoid_sv1","""event"",""trial"",""time""
""fullscreenenter"",""1"",""4209""
","
","
","""event"",""trial"",""time""
""fullscreenenter"",""1"",""4209""
","
","","","","","","null","<div style=""font-size:60px;"">+</div>","null","","fixation","","",""
"memory-trial","250","539705","0.0-18.0-1.102","4129","approach_avoid_sv1","""event"",""trial"",""time""
""fullscreenenter"",""1"",""4209""
","
","
","""event"",""trial"",""time""
""fullscreenenter"",""1"",""4209""
","
","","","","","","2772.7000000029802","images/rodent6.png","","","memory_trial","3","maybe_new",""
"html-keyboard-response","251","540208","0.0-18.0-0.103","4129","approach_avoid_sv1","""event"",""trial"",""time""
""fullscreenenter"",""1"",""4209""
","
","
","""event"",""trial"",""time""
""fullscreenenter"",""1"",""4209""
","
","","","","","","null","<div style=""font-size:60px;"">+</div>","null","","fixation","","",""
"memory-trial","252","543000","0.0-18.0-1.103","4129","approach_avoid_sv1","""event"",""trial"",""time""
""fullscreenenter"",""1"",""4209""
","
","
","""event"",""trial"",""time""
""fullscreenenter"",""1"",""4209""
","
","","","","","","1782.2000000029802","images/goat7.png","","","memory_trial","4","definitely_new",""
"html-keyboard-response","253","543506","0.0-18.0-0.104","4129","approach_avoid_sv1","""event"",""trial"",""time""
""fullscreenenter"",""1"",""4209""
","
","
","""event"",""trial"",""time""
""fullscreenenter"",""1"",""4209""
","
","","","","","","null","<div style=""font-size:60px;"">+</div>","null","","fixation","","",""
"memory-trial","254","545809","0.0-18.0-1.104","4129","approach_avoid_sv1","""event"",""trial"",""time""
""fullscreenenter"",""1"",""4209""
","
","
","""event"",""trial"",""time""
""fullscreenenter"",""1"",""4209""
","
","","","","","","1294.7999999970198","images/horse6.png","","","memory_trial","1","definitely_old",""
"html-keyboard-response","255","546312","0.0-18.0-0.105","4129","approach_avoid_sv1","""event"",""trial"",""time""
""fullscreenenter"",""1"",""4209""
","
","
","""event"",""trial"",""time""
""fullscreenenter"",""1"",""4209""
","
","","","","","","null","<div style=""font-size:60px;"">+</div>","null","","fixation","","",""
"memory-trial","256","548808","0.0-18.0-1.105","4129","approach_avoid_sv1","""event"",""trial"",""time""
""fullscreenenter"",""1"",""4209""
","
","
","""event"",""trial"",""time""
""fullscreenenter"",""1"",""4209""
","
","","","","","","1488","images/boat3.png","","","memory_trial","4","definitely_new",""
"html-keyboard-response","257","549313","0.0-18.0-0.106","4129","approach_avoid_sv1","""event"",""trial"",""time""
""fullscreenenter"",""1"",""4209""
","
","
","""event"",""trial"",""time""
""fullscreenenter"",""1"",""4209""
","
","","","","","","null","<div style=""font-size:60px;"">+</div>","null","","fixation","","",""
"memory-trial","258","551456","0.0-18.0-1.106","4129","approach_avoid_sv1","""event"",""trial"",""time""
""fullscreenenter"",""1"",""4209""
","
","
","""event"",""trial"",""time""
""fullscreenenter"",""1"",""4209""
","
","","","","","","1138.5","images/dog6.png","","","memory_trial","1","definitely_old",""
"html-keyboard-response","259","551968","0.0-18.0-0.107","4129","approach_avoid_sv1","""event"",""trial"",""time""
""fullscreenenter"",""1"",""4209""
","
","
","""event"",""trial"",""time""
""fullscreenenter"",""1"",""4209""
","
","","","","","","null","<div style=""font-size:60px;"">+</div>","null","","fixation","","",""
"memory-trial","260","555200","0.0-18.0-1.107","4129","approach_avoid_sv1","""event"",""trial"",""time""
""fullscreenenter"",""1"",""4209""
","
","
","""event"",""trial"",""time""
""fullscreenenter"",""1"",""4209""
","
","","","","","","2222.5","images/apple6.png","","","memory_trial","3","maybe_new",""
"html-keyboard-response","261","555704","0.0-18.0-0.108","4129","approach_avoid_sv1","""event"",""trial"",""time""
""fullscreenenter"",""1"",""4209""
","
","
","""event"",""trial"",""time""
""fullscreenenter"",""1"",""4209""
","
","","","","","","null","<div style=""font-size:60px;"">+</div>","null","","fixation","","",""
"memory-trial","262","558624","0.0-18.0-1.108","4129","approach_avoid_sv1","""event"",""trial"",""time""
""fullscreenenter"",""1"",""4209""
","
","
","""event"",""trial"",""time""
""fullscreenenter"",""1"",""4209""
","
","","","","","","1916.1000000089407","images/orange3.png","","","memory_trial","1","definitely_old",""
"html-keyboard-response","263","559137","0.0-18.0-0.109","4129","approach_avoid_sv1","""event"",""trial"",""time""
""fullscreenenter"",""1"",""4209""
","
","
","""event"",""trial"",""time""
""fullscreenenter"",""1"",""4209""
","
","","","","","","null","<div style=""font-size:60px;"">+</div>","null","","fixation","","",""
"memory-trial","264","561281","0.0-18.0-1.109","4129","approach_avoid_sv1","""event"",""trial"",""time""
""fullscreenenter"",""1"",""4209""
","
","
","""event"",""trial"",""time""
""fullscreenenter"",""1"",""4209""
","
","","","","","","1132.8999999910593","images/train7.png","","","memory_trial","1","definitely_old",""
"html-keyboard-response","265","561784","0.0-18.0-0.110","4129","approach_avoid_sv1","""event"",""trial"",""time""
""fullscreenenter"",""1"",""4209""
","
","
","""event"",""trial"",""time""
""fullscreenenter"",""1"",""4209""
","
","","","","","","null","<div style=""font-size:60px;"">+</div>","null","","fixation","","",""
"memory-trial","266","564177","0.0-18.0-1.110","4129","approach_avoid_sv1","""event"",""trial"",""time""
""fullscreenenter"",""1"",""4209""
","
","
","""event"",""trial"",""time""
""fullscreenenter"",""1"",""4209""
","
","","","","","","1376.2999999970198","images/tree1.png","","","memory_trial","4","definitely_new",""
"html-keyboard-response","267","564680","0.0-18.0-0.111","4129","approach_avoid_sv1","""event"",""trial"",""time""
""fullscreenenter"",""1"",""4209""
","
","
","""event"",""trial"",""time""
""fullscreenenter"",""1"",""4209""
","
","","","","","","null","<div style=""font-size:60px;"">+</div>","null","","fixation","","",""
"memory-trial","268","568537","0.0-18.0-1.111","4129","approach_avoid_sv1","""event"",""trial"",""time""
""fullscreenenter"",""1"",""4209""
","
","
","""event"",""trial"",""time""
""fullscreenenter"",""1"",""4209""
","
","","","","","","2850.2000000029802","images/dog5.png","","","memory_trial","4","definitely_new",""
"html-keyboard-response","269","569046","0.0-18.0-0.112","4129","approach_avoid_sv1","""event"",""trial"",""time""
""fullscreenenter"",""1"",""4209""
","
","
","""event"",""trial"",""time""
""fullscreenenter"",""1"",""4209""
","
","","","","","","null","<div style=""font-size:60px;"">+</div>","null","","fixation","","",""
"memory-trial","270","571639","0.0-18.0-1.112","4129","approach_avoid_sv1","""event"",""trial"",""time""
""fullscreenenter"",""1"",""4209""
","
","
","""event"",""trial"",""time""
""fullscreenenter"",""1"",""4209""
","
","","","","","","1574.1000000089407","images/flower1.png","","","memory_trial","2","maybe_old",""
"html-keyboard-response","271","572144","0.0-18.0-0.113","4129","approach_avoid_sv1","""event"",""trial"",""time""
""fullscreenenter"",""1"",""4209""
","
","
","""event"",""trial"",""time""
""fullscreenenter"",""1"",""4209""
","
","","","","","","null","<div style=""font-size:60px;"">+</div>","null","","fixation","","",""
"memory-trial","272","575064","0.0-18.0-1.113","4129","approach_avoid_sv1","""event"",""trial"",""time""
""fullscreenenter"",""1"",""4209""
","
","
","""event"",""trial"",""time""
""fullscreenenter"",""1"",""4209""
","
","","","","","","1917.2999999970198","images/sofa6.png","","","memory_trial","4","definitely_new",""
"html-keyboard-response","273","575568","0.0-18.0-0.114","4129","approach_avoid_sv1","""event"",""trial"",""time""
""fullscreenenter"",""1"",""4209""
","
","
","""event"",""trial"",""time""
""fullscreenenter"",""1"",""4209""
","
","","","","","","null","<div style=""font-size:60px;"">+</div>","null","","fixation","","",""
"memory-trial","274","578573","0.0-18.0-1.114","4129","approach_avoid_sv1","""event"",""trial"",""time""
""fullscreenenter"",""1"",""4209""
","
","
","""event"",""trial"",""time""
""fullscreenenter"",""1"",""4209""
","
","","","","","","1982.8999999910593","images/straw5.png","","","memory_trial","4","definitely_new",""
"html-keyboard-response","275","579094","0.0-18.0-0.115","4129","approach_avoid_sv1","""event"",""trial"",""time""
""fullscreenenter"",""1"",""4209""
","
","
","""event"",""trial"",""time""
""fullscreenenter"",""1"",""4209""
","
","","","","","","null","<div style=""font-size:60px;"">+</div>","null","","fixation","","",""
"memory-trial","276","583449","0.0-18.0-1.115","4129","approach_avoid_sv1","""event"",""trial"",""time""
""fullscreenenter"",""1"",""4209""
","
","
","""event"",""trial"",""time""
""fullscreenenter"",""1"",""4209""
","
","","","","","","3346.5999999940395","images/truck1.png","","","memory_trial","3","maybe_new",""
"html-keyboard-response","277","583952","0.0-18.0-0.116","4129","approach_avoid_sv1","""event"",""trial"",""time""
""fullscreenenter"",""1"",""4209""
","
","
","""event"",""trial"",""time""
""fullscreenenter"",""1"",""4209""
","
","","","","","","null","<div style=""font-size:60px;"">+</div>","null","","fixation","","",""
"memory-trial","278","586912","0.0-18.0-1.116","4129","approach_avoid_sv1","""event"",""trial"",""time""
""fullscreenenter"",""1"",""4209""
","
","
","""event"",""trial"",""time""
""fullscreenenter"",""1"",""4209""
","
","","","","","","1948.7000000029802","images/banana6.png","","","memory_trial","4","definitely_new",""
"html-keyboard-response","279","587415","0.0-18.0-0.117","4129","approach_avoid_sv1","""event"",""trial"",""time""
""fullscreenenter"",""1"",""4209""
","
","
","""event"",""trial"",""time""
""fullscreenenter"",""1"",""4209""
","
","","","","","","null","<div style=""font-size:60px;"">+</div>","null","","fixation","","",""
"memory-trial","280","589776","0.0-18.0-1.117","4129","approach_avoid_sv1","""event"",""trial"",""time""
""fullscreenenter"",""1"",""4209""
","
","
","""event"",""trial"",""time""
""fullscreenenter"",""1"",""4209""
","
","","","","","","1355.0999999940395","images/bed1.png","","","memory_trial","1","definitely_old",""
"html-keyboard-response","281","590288","0.0-18.0-0.118","4129","approach_avoid_sv1","""event"",""trial"",""time""
""fullscreenenter"",""1"",""4209""
","
","
","""event"",""trial"",""time""
""fullscreenenter"",""1"",""4209""
","
","","","","","","null","<div style=""font-size:60px;"">+</div>","null","","fixation","","",""
"memory-trial","282","593024","0.0-18.0-1.118","4129","approach_avoid_sv1","""event"",""trial"",""time""
""fullscreenenter"",""1"",""4209""
","
","
","""event"",""trial"",""time""
""fullscreenenter"",""1"",""4209""
","
","","","","","","1732.3999999910593","images/table6.png","","","memory_trial","4","definitely_new",""
"html-keyboard-response","283","593528","0.0-18.0-0.119","4129","approach_avoid_sv1","""event"",""trial"",""time""
""fullscreenenter"",""1"",""4209""
","
","
","""event"",""trial"",""time""
""fullscreenenter"",""1"",""4209""
","
","","","","","","null","<div style=""font-size:60px;"">+</div>","null","","fixation","","",""
"memory-trial","284","595800","0.0-18.0-1.119","4129","approach_avoid_sv1","""event"",""trial"",""time""
""fullscreenenter"",""1"",""4209""
","
","
","""event"",""trial"",""time""
""fullscreenenter"",""1"",""4209""
","
","","","","","","1262.8999999910593","images/rabbit7.png","","","memory_trial","1","definitely_old",""
"html-keyboard-response","285","596303","0.0-18.0-0.120","4129","approach_avoid_sv1","""event"",""trial"",""time""
""fullscreenenter"",""1"",""4209""
","
","
","""event"",""trial"",""time""
""fullscreenenter"",""1"",""4209""
","
","","","","","","null","<div style=""font-size:60px;"">+</div>","null","","fixation","","",""
"memory-trial","286","599367","0.0-18.0-1.120","4129","approach_avoid_sv1","""event"",""trial"",""time""
""fullscreenenter"",""1"",""4209""
","
","
","""event"",""trial"",""time""
""fullscreenenter"",""1"",""4209""
","
","","","","","","2057.6000000089407","images/bed4.png","","","memory_trial","4","definitely_new",""
"html-keyboard-response","287","599872","0.0-18.0-0.121","4129","approach_avoid_sv1","""event"",""trial"",""time""
""fullscreenenter"",""1"",""4209""
","
","
","""event"",""trial"",""time""
""fullscreenenter"",""1"",""4209""
","
","","","","","","null","<div style=""font-size:60px;"">+</div>","null","","fixation","","",""
"memory-trial","288","602856","0.0-18.0-1.121","4129","approach_avoid_sv1","""event"",""trial"",""time""
""fullscreenenter"",""1"",""4209""
","
","
","""event"",""trial"",""time""
""fullscreenenter"",""1"",""4209""
","
","","","","","","1978.5","images/rodent4.png","","","memory_trial","1","definitely_old",""
"html-keyboard-response","289","603359","0.0-18.0-0.122","4129","approach_avoid_sv1","""event"",""trial"",""time""
""fullscreenenter"",""1"",""4209""
","
","
","""event"",""trial"",""time""
""fullscreenenter"",""1"",""4209""
","
","","","","","","null","<div style=""font-size:60px;"">+</div>","null","","fixation","","",""
"memory-trial","290","606064","0.0-18.0-1.122","4129","approach_avoid_sv1","""event"",""trial"",""time""
""fullscreenenter"",""1"",""4209""
","
","
","""event"",""trial"",""time""
""fullscreenenter"",""1"",""4209""
","
","","","","","","1701.2999999970198","images/tree3.png","","","memory_trial","4","definitely_new",""
"html-keyboard-response","291","606568","0.0-18.0-0.123","4129","approach_avoid_sv1","""event"",""trial"",""time""
""fullscreenenter"",""1"",""4209""
","
","
","""event"",""trial"",""time""
""fullscreenenter"",""1"",""4209""
","
","","","","","","null","<div style=""font-size:60px;"">+</div>","null","","fixation","","",""
"memory-trial","292","609392","0.0-18.0-1.123","4129","approach_avoid_sv1","""event"",""trial"",""time""
""fullscreenenter"",""1"",""4209""
","
","
","""event"",""trial"",""time""
""fullscreenenter"",""1"",""4209""
","
","","","","","","1812.9000000059605","images/orange1.png","","","memory_trial","1","definitely_old",""
"html-keyboard-response","293","609896","0.0-18.0-0.124","4129","approach_avoid_sv1","""event"",""trial"",""time""
""fullscreenenter"",""1"",""4209""
","
","
","""event"",""trial"",""time""
""fullscreenenter"",""1"",""4209""
","
","","","","","","null","<div style=""font-size:60px;"">+</div>","null","","fixation","","",""
"memory-trial","294","612841","0.0-18.0-1.124","4129","approach_avoid_sv1","""event"",""trial"",""time""
""fullscreenenter"",""1"",""4209""
","
","
","""event"",""trial"",""time""
""fullscreenenter"",""1"",""4209""
","
","","","","","","1935.2000000029802","images/orange7.png","","","memory_trial","4","definitely_new",""
"html-keyboard-response","295","613344","0.0-18.0-0.125","4129","approach_avoid_sv1","""event"",""trial"",""time""
""fullscreenenter"",""1"",""4209""
","
","
","""event"",""trial"",""time""
""fullscreenenter"",""1"",""4209""
","
","","","","","","null","<div style=""font-size:60px;"">+</div>","null","","fixation","","",""
"memory-trial","296","616168","0.0-18.0-1.125","4129","approach_avoid_sv1","""event"",""trial"",""time""
""fullscreenenter"",""1"",""4209""
","
","
","""event"",""trial"",""time""
""fullscreenenter"",""1"",""4209""
","
