"trial_type","trial_index","time_elapsed","internal_node_id","subject_id","task_version","interactions","blur_events","focus_events","fullscreenenter_events","fullscreenexit_events","success","timeout","failed_images","failed_audio","failed_video","rt","stimulus","response","button_pressed","task_part","key_press","answer","correct"
"pavlovia","0","3","0.0-0.0","5737","approach_avoid_sv1","""event"",""trial"",""time""
""fullscreenenter"",""1"",""9557""
","
","
","""event"",""trial"",""time""
""fullscreenenter"",""1"",""9557""
","
","","","","","","","","","","","","",""
"fullscreen","1","10545","0.0-1.0","5737","approach_avoid_sv1","""event"",""trial"",""time""
""fullscreenenter"",""1"",""9557""
","
","
","""event"",""trial"",""time""
""fullscreenenter"",""1"",""9557""
","
","true","","","","","","","","","","","",""
"preload","2","25632","0.0-2.0","5737","approach_avoid_sv1","""event"",""trial"",""time""
""fullscreenenter"",""1"",""9557""
","
","
","""event"",""trial"",""time""
""fullscreenenter"",""1"",""9557""
","
","true","false","[]","[]","[]","","","","","","","",""
"preload","3","37777","0.0-3.0","5737","approach_avoid_sv1","""event"",""trial"",""time""
""fullscreenenter"",""1"",""9557""
","
","
","""event"",""trial"",""time""
""fullscreenenter"",""1"",""9557""
","
","true","false","[]","[]","[]","","","","","","","",""
"preload","4","38677","0.0-4.0","5737","approach_avoid_sv1","""event"",""trial"",""time""
""fullscreenenter"",""1"",""9557""
","
","
","""event"",""trial"",""time""
""fullscreenenter"",""1"",""9557""
","
","true","false","[]","[]","[]","","","","","","","",""
"audio-keyboard-response","5","44976","0.0-5.0","5737","approach_avoid_sv1","""event"",""trial"",""time""
""fullscreenenter"",""1"",""9557""
","
","
","""event"",""trial"",""time""
""fullscreenenter"",""1"",""9557""
","
","","","","","","6292.6077097505695","audio/beep_loop.wav"," ","","","","",""
"audio-button-response","6","50526","0.0-6.0","5737","approach_avoid_sv1","""event"",""trial"",""time""
""fullscreenenter"",""1"",""9557""
","
","
","""event"",""trial"",""time""
""fullscreenenter"",""1"",""9557""
","
","","","","","","5550","audio/turtle.wav","0","","","","",""
"audio-button-response","7","52775","0.0-7.0","5737","approach_avoid_sv1","""event"",""trial"",""time""
""fullscreenenter"",""1"",""9557""
","
","
","""event"",""trial"",""time""
""fullscreenenter"",""1"",""9557""
","
","","","","","","1242","audio/shark.wav","2","","","","",""
"preload","8","78645","0.0-8.0","5737","approach_avoid_sv1","""event"",""trial"",""time""
""fullscreenenter"",""1"",""9557""
","
","
","""event"",""trial"",""time""
""fullscreenenter"",""1"",""9557""
","
","true","false","[]","[]","[]","","","","","","","",""
"learning-instructions","9","85049","0.0-9.0-0.0","5737","approach_avoid_sv1","""event"",""trial"",""time""
""fullscreenenter"",""1"",""9557""
","
","
","""event"",""trial"",""time""
""fullscreenenter"",""1"",""9557""
","
","","","","","","1929.5","<p> Welcome back! </p><p> Last week, you had to make choices about lots of different items.  </p>","","0","instructions","","",""
"learning-instructions","10","90576","0.0-9.0-0.1","5737","approach_avoid_sv1","""event"",""trial"",""time""
""fullscreenenter"",""1"",""9557""
","
","
","""event"",""trial"",""time""
""fullscreenenter"",""1"",""9557""
","
","","","","","","1413.9000000001397","<p> Today, we are going to ask you to try to remember all the items. </p>","","0","instructions","","",""
"learning-instructions","11","102217","0.0-9.0-0.2","5737","approach_avoid_sv1","""event"",""trial"",""time""
""fullscreenenter"",""1"",""9557""
","
","
","""event"",""trial"",""time""
""fullscreenenter"",""1"",""9557""
","
","","","","","","1508.3999999999069","<p> On every trial, you will see an image. </p><p> The image may be an OLD image you saw during the games last week or it may be a NEW image that was not presented. </p>","","0","instructions","","",""
"learning-instructions","12","111443","0.0-9.0-0.3","5737","approach_avoid_sv1","""event"",""trial"",""time""
""fullscreenenter"",""1"",""9557""
","
","
","""event"",""trial"",""time""
""fullscreenenter"",""1"",""9557""
","
","","","","","","732.3000000000466","<p> You need to select whether the image is:  </p><p>  'Definitely old', 'Maybe old', 'Maybe new', or 'Definitely new.'  </p><div class=""mem-choice-instructions-grid""><div class=""choice-option"" id=""choice-option-1"" ><img src=""images/definitely_old_1.png"" id=""choice-option-img-1"" class=""choice-option-img"" stage=""1""></div><div class=""choice-option"" id=""choice-option-2"" ><img src=""images/maybe_old_1.png"" id=""choice-option-img-2"" class=""choice-option-img"" stage=""1""></div><div class=""choice-option"" id=""choice-option-3"" ><img src=""images/maybe_new_1.png"" id=""choice-option-img-3"" class=""choice-option-img"" stage=""1""></div><div class=""choice-option"" id=""choice-option-4"" > <img src=""images/definitely_new_1.png"" id=""choice-option-img-4"" class=""choice-option-img"" stage=""1""></div></div>","","0","instructions","","",""
"learning-instructions","13","118771","0.0-9.0-0.4","5737","approach_avoid_sv1","""event"",""trial"",""time""
""fullscreenenter"",""1"",""9557""
","
","
","""event"",""trial"",""time""
""fullscreenenter"",""1"",""9557""
","
","","","","","","815.6000000000931","<p> You should use the 1, 2, 3, and 4 keys to make your responses.  </p><div class=""mem-choice-instructions-grid""><div class=""choice-option"" id=""choice-option-1"" ><img src=""images/definitely_old.png"" id=""choice-option-img-1"" class=""choice-option-img"" stage=""1""></div><div class=""choice-option"" id=""choice-option-2"" ><img src=""images/maybe_old.png"" id=""choice-option-img-2"" class=""choice-option-img"" stage=""1""></div><div class=""choice-option"" id=""choice-option-3"" ><img src=""images/maybe_new.png"" id=""choice-option-img-3"" class=""choice-option-img"" stage=""1""></div><div class=""choice-option"" id=""choice-option-4"" > <img src=""images/definitely_new.png"" id=""choice-option-img-4"" class=""choice-option-img"" stage=""1""></div></div>","","0","instructions","","",""
"learning-instructions","14","125399","0.0-9.0-0.5","5737","approach_avoid_sv1","""event"",""trial"",""time""
""fullscreenenter"",""1"",""9557""
","
","
","""event"",""trial"",""time""
""fullscreenenter"",""1"",""9557""
","
","","","","","","303.5","<p> You will have 10 seconds to make each response.  </p><p>  Make sure to respond before time runs out! </p>","","0","instructions","","",""
"learning-instructions","15","134198","0.0-9.0-0.6","5737","approach_avoid_sv1","""event"",""trial"",""time""
""fullscreenenter"",""1"",""9557""
","
","
","""event"",""trial"",""time""
""fullscreenenter"",""1"",""9557""
","
","","","","","","1725.3000000000466","<p> Today, you will see each image ONCE only.  </p><p>  That means none of the images will repeat. </p>","","0","instructions","","",""
"learning-instructions","16","147735","0.0-9.0-0.7","5737","approach_avoid_sv1","""event"",""trial"",""time""
""fullscreenenter"",""1"",""9557""
","
","
","""event"",""trial"",""time""
""fullscreenenter"",""1"",""9557""
","
","","","","","","871","<p> Before you play the real game, it is time to practice. </p><p>  Just like in the real game, some of the images in the practice will be ones you have seen before. </p><p>  Others will be entirely new. </p>","","0","instructions","","",""
"html-button-response","17","149243","0.0-10.0","5737","approach_avoid_sv1","""event"",""trial"",""time""
""fullscreenenter"",""1"",""9557""
","
","
","""event"",""trial"",""time""
""fullscreenenter"",""1"",""9557""
","
","","","","","","1403.1999999999534","<p> Ready to practice? </p><p> Remember, use the 1, 2, 3, and 4 keys to make your responses. </p>","0","","instructions","","",""
"html-keyboard-response","18","149848","0.0-11.0-0.0","5737","approach_avoid_sv1","""event"",""trial"",""time""
""fullscreenenter"",""1"",""9557""
","
","
","""event"",""trial"",""time""
""fullscreenenter"",""1"",""9557""
","
","","","","","","null","<div style=""font-size:60px;"">+</div>","null","","fixation","","",""
"memory-trial","19","154567","0.0-11.0-1.0","5737","approach_avoid_sv1","""event"",""trial"",""time""
""fullscreenenter"",""1"",""9557""
","
","
","""event"",""trial"",""time""
""fullscreenenter"",""1"",""9557""
","
","","","","","","3715.899999999907","images/racket3.png","","","practice","4","definitely_new",""
"html-keyboard-response","20","155070","0.0-11.0-0.1","5737","approach_avoid_sv1","""event"",""trial"",""time""
""fullscreenenter"",""1"",""9557""
","
","
","""event"",""trial"",""time""
""fullscreenenter"",""1"",""9557""
","
","","","","","","null","<div style=""font-size:60px;"">+</div>","null","","fixation","","",""
"memory-trial","21","158632","0.0-11.0-1.1","5737","approach_avoid_sv1","""event"",""trial"",""time""
""fullscreenenter"",""1"",""9557""
","
","
","""event"",""trial"",""time""
""fullscreenenter"",""1"",""9557""
","
","","","","","","2560.1999999999534","images/ball1.png","","","practice","3","maybe_new",""
"html-keyboard-response","22","159135","0.0-11.0-0.2","5737","approach_avoid_sv1","""event"",""trial"",""time""
""fullscreenenter"",""1"",""9557""
","
","
","""event"",""trial"",""time""
""fullscreenenter"",""1"",""9557""
","
","","","","","","null","<div style=""font-size:60px;"">+</div>","null","","fixation","","",""
"memory-trial","23","164354","0.0-11.0-1.2","5737","approach_avoid_sv1","""event"",""trial"",""time""
""fullscreenenter"",""1"",""9557""
","
","
","""event"",""trial"",""time""
""fullscreenenter"",""1"",""9557""
","
","","","","","","4214.300000000047","images/racket1.png","","","practice","3","maybe_new",""
"html-keyboard-response","24","164859","0.0-11.0-0.3","5737","approach_avoid_sv1","""event"",""trial"",""time""
""fullscreenenter"",""1"",""9557""
","
","
","""event"",""trial"",""time""
""fullscreenenter"",""1"",""9557""
","
","","","","","","null","<div style=""font-size:60px;"">+</div>","null","","fixation","","",""
"memory-trial","25","168580","0.0-11.0-1.3","5737","approach_avoid_sv1","""event"",""trial"",""time""
""fullscreenenter"",""1"",""9557""
","
","
","""event"",""trial"",""time""
""fullscreenenter"",""1"",""9557""
","
","","","","","","2716.899999999907","images/racket5.png","","","practice","1","definitely_old",""
"html-keyboard-response","26","169084","0.0-11.0-0.4","5737","approach_avoid_sv1","""event"",""trial"",""time""
""fullscreenenter"",""1"",""9557""
","
","
","""event"",""trial"",""time""
""fullscreenenter"",""1"",""9557""
","
","","","","","","null","<div style=""font-size:60px;"">+</div>","null","","fixation","","",""
"memory-trial","27","172674","0.0-11.0-1.4","5737","approach_avoid_sv1","""event"",""trial"",""time""
""fullscreenenter"",""1"",""9557""
","
","
","""event"",""trial"",""time""
""fullscreenenter"",""1"",""9557""
","
","","","","","","2586.1999999999534","images/ball2.png","","","practice","2","maybe_old",""
"html-keyboard-response","28","173177","0.0-11.0-0.5","5737","approach_avoid_sv1","""event"",""trial"",""time""
""fullscreenenter"",""1"",""9557""
","
","
","""event"",""trial"",""time""
""fullscreenenter"",""1"",""9557""
","
","","","","","","null","<div style=""font-size:60px;"">+</div>","null","","fixation","","",""
"memory-trial","29","176364","0.0-11.0-1.5","5737","approach_avoid_sv1","""event"",""trial"",""time""
""fullscreenenter"",""1"",""9557""
","
","
","""event"",""trial"",""time""
""fullscreenenter"",""1"",""9557""
","
","","","","","","2183.5","images/racket2.png","","","practice","2","maybe_old",""
"html-keyboard-response","30","176864","0.0-11.0-0.6","5737","approach_avoid_sv1","""event"",""trial"",""time""
""fullscreenenter"",""1"",""9557""
","
","
","""event"",""trial"",""time""
""fullscreenenter"",""1"",""9557""
","
","","","","","","null","<div style=""font-size:60px;"">+</div>","null","","fixation","","",""
"memory-trial","31","180055","0.0-11.0-1.6","5737","approach_avoid_sv1","""event"",""trial"",""time""
""fullscreenenter"",""1"",""9557""
","
","
","""event"",""trial"",""time""
""fullscreenenter"",""1"",""9557""
","
","","","","","","2185.8000000000466","images/ball3.png","","","practice","4","definitely_new",""
"html-keyboard-response","32","180556","0.0-11.0-0.7","5737","approach_avoid_sv1","""event"",""trial"",""time""
""fullscreenenter"",""1"",""9557""
","
","
","""event"",""trial"",""time""
""fullscreenenter"",""1"",""9557""
","
","","","","","","null","<div style=""font-size:60px;"">+</div>","null","","fixation","","",""
"memory-trial","33","182577","0.0-11.0-1.7","5737","approach_avoid_sv1","""event"",""trial"",""time""
""fullscreenenter"",""1"",""9557""
","
","
","""event"",""trial"",""time""
""fullscreenenter"",""1"",""9557""
","
","","","","","","1014.6999999999534","images/ball5.png","","","practice","4","definitely_new",""
"learning-instructions","34","190902","0.0-12.0-0.0","5737","approach_avoid_sv1","""event"",""trial"",""time""
""fullscreenenter"",""1"",""9557""
","
","
","""event"",""trial"",""time""
""fullscreenenter"",""1"",""9557""
","
","","","","","","1013.0999999998603","<p> Great! You have completed the practice. </p><p> Before you start, we're going to ask you a few questions about how the game works.  </p>","","0","instructions","","",""
"preload","35","195820","0.0-13.0","5737","approach_avoid_sv1","""event"",""trial"",""time""
""fullscreenenter"",""1"",""9557""
","
","
","""event"",""trial"",""time""
""fullscreenenter"",""1"",""9557""
","
","true","false","[]","[]","[]","","","","","","","",""
"comp-q","36","203475","0.0-14.0-0.0","5737","approach_avoid_sv1","""event"",""trial"",""time""
""fullscreenenter"",""1"",""9557""
","
","
","""event"",""trial"",""time""
""fullscreenenter"",""1"",""9557""
","
","","","","","","1830.1999999999534","<p> <b> True or False? </b> </p><p> In this game, you will only see each image once. </p>","","0","comp_question","","","true"
"comp-q","37","211759","0.0-14.0-1.0","5737","approach_avoid_sv1","""event"",""trial"",""time""
""fullscreenenter"",""1"",""9557""
","
","
","""event"",""trial"",""time""
""fullscreenenter"",""1"",""9557""
","
","","","","","","1946.5999999998603","<p> <b> That's right! </b> You will see many different images <i> one time each </i> in this game. </p>","","0","comp_answer","","",""
"comp-q","38","219210","0.0-15.0-0.0","5737","approach_avoid_sv1","""event"",""trial"",""time""
""fullscreenenter"",""1"",""9557""
","
","
","""event"",""trial"",""time""
""fullscreenenter"",""1"",""9557""
","
","","","","","","2444.1999999999534","<p> <b> True or False? </b> </p><p> You should use the mouse and click to make your response. </p>","","1","comp_question","","","true"
"comp-q","39","226274","0.0-15.0-1.0","5737","approach_avoid_sv1","""event"",""trial"",""time""
""fullscreenenter"",""1"",""9557""
","
","
","""event"",""trial"",""time""
""fullscreenenter"",""1"",""9557""
","
","","","","","","562.5","<p><b> That's right! </b> You should use the '1', '2', '3', and '4' keys to make your response. </p>","","0","comp_answer","","",""
"comp-q","40","232536","0.0-16.0-0.0","5737","approach_avoid_sv1","""event"",""trial"",""time""
""fullscreenenter"",""1"",""9557""
","
","
","""event"",""trial"",""time""
""fullscreenenter"",""1"",""9557""
","
","","","","","","589.8999999999069","<p> <b> True or False? </b> </p><p> You will have as much time as you want to make each choice. </p>","","1","comp_question","","","true"
"comp-q","41","239132","0.0-16.0-1.0","5737","approach_avoid_sv1","""event"",""trial"",""time""
""fullscreenenter"",""1"",""9557""
","
","
","""event"",""trial"",""time""
""fullscreenenter"",""1"",""9557""
","
","","","","","","1903.3000000000466","<p> <b> That's right! </b> You will only have 10 seconds to make each choice. </p>","","0","comp_answer","","",""
"learning-instructions","42","249013","0.0-17.0","5737","approach_avoid_sv1","""event"",""trial"",""time""
""fullscreenenter"",""1"",""9557""
","
","
","""event"",""trial"",""time""
""fullscreenenter"",""1"",""9557""
","
","","","","","","1207","<p> Great! You are now ready to begin the game. </p><p> Remember, use the 1, 2, 3, and 4 keys to make your responses. </p>","","0","instructions","","",""
"html-keyboard-response","43","249622","0.0-18.0-0.0","5737","approach_avoid_sv1","""event"",""trial"",""time""
""fullscreenenter"",""1"",""9557""
","
","
","""event"",""trial"",""time""
""fullscreenenter"",""1"",""9557""
","
","","","","","","null","<div style=""font-size:60px;"">+</div>","null","","fixation","","",""
"memory-trial","44","252629","0.0-18.0-1.0","5737","approach_avoid_sv1","""event"",""trial"",""time""
""fullscreenenter"",""1"",""9557""
","
","
","""event"",""trial"",""time""
""fullscreenenter"",""1"",""9557""
","
","","","","","","2002.1999999999534","images/goat1.png","","","memory_trial","4","definitely_new",""
"html-keyboard-response","45","253134","0.0-18.0-0.1","5737","approach_avoid_sv1","""event"",""trial"",""time""
""fullscreenenter"",""1"",""9557""
","
","
","""event"",""trial"",""time""
""fullscreenenter"",""1"",""9557""
","
","","","","","","null","<div style=""font-size:60px;"">+</div>","null","","fixation","","",""
"memory-trial","46","255224","0.0-18.0-1.1","5737","approach_avoid_sv1","""event"",""trial"",""time""
""fullscreenenter"",""1"",""9557""
","
","
","""event"",""trial"",""time""
""fullscreenenter"",""1"",""9557""
","
","","","","","","1084.8999999999069","images/chair8.png","","","memory_trial","4","definitely_new",""
"html-keyboard-response","47","255729","0.0-18.0-0.2","5737","approach_avoid_sv1","""event"",""trial"",""time""
""fullscreenenter"",""1"",""9557""
","
","
","""event"",""trial"",""time""
""fullscreenenter"",""1"",""9557""
","
","","","","","","null","<div style=""font-size:60px;"">+</div>","null","","fixation","","",""
"memory-trial","48","258613","0.0-18.0-1.2","5737","approach_avoid_sv1","""event"",""trial"",""time""
""fullscreenenter"",""1"",""9557""
","
","
","""event"",""trial"",""time""
""fullscreenenter"",""1"",""9557""
","
","","","","","","1880.9000000001397","images/apple7.png","","","memory_trial","1","definitely_old",""
"html-keyboard-response","49","259118","0.0-18.0-0.3","5737","approach_avoid_sv1","""event"",""trial"",""time""
""fullscreenenter"",""1"",""9557""
","
","
","""event"",""trial"",""time""
""fullscreenenter"",""1"",""9557""
","
","","","","","","null","<div style=""font-size:60px;"">+</div>","null","","fixation","","",""
"memory-trial","50","262933","0.0-18.0-1.3","5737","approach_avoid_sv1","""event"",""trial"",""time""
""fullscreenenter"",""1"",""9557""
","
","
","""event"",""trial"",""time""
""fullscreenenter"",""1"",""9557""
","
","","","","","","2811.600000000093","images/truck8.png","","","memory_trial","2","maybe_old",""
"html-keyboard-response","51","263437","0.0-18.0-0.4","5737","approach_avoid_sv1","""event"",""trial"",""time""
""fullscreenenter"",""1"",""9557""
","
","
","""event"",""trial"",""time""
""fullscreenenter"",""1"",""9557""
","
","","","","","","null","<div style=""font-size:60px;"">+</div>","null","","fixation","","",""
"memory-trial","52","266085","0.0-18.0-1.4","5737","approach_avoid_sv1","""event"",""trial"",""time""
""fullscreenenter"",""1"",""9557""
","
","
","""event"",""trial"",""time""
""fullscreenenter"",""1"",""9557""
","
","","","","","","1643.3000000000466","images/flower3.png","","","memory_trial","4","definitely_new",""
"html-keyboard-response","53","266590","0.0-18.0-0.5","5737","approach_avoid_sv1","""event"",""trial"",""time""
""fullscreenenter"",""1"",""9557""
","
","
","""event"",""trial"",""time""
""fullscreenenter"",""1"",""9557""
","
","","","","","","null","<div style=""font-size:60px;"">+</div>","null","","fixation","","",""
"memory-trial","54","269639","0.0-18.0-1.5","5737","approach_avoid_sv1","""event"",""trial"",""time""
""fullscreenenter"",""1"",""9557""
","
","
","""event"",""trial"",""time""
""fullscreenenter"",""1"",""9557""
","
","","","","","","2045.1000000000931","images/truck5.png","","","memory_trial","2","maybe_old",""
"html-keyboard-response","55","270144","0.0-18.0-0.6","5737","approach_avoid_sv1","""event"",""trial"",""time""
""fullscreenenter"",""1"",""9557""
","
","
","""event"",""trial"",""time""
""fullscreenenter"",""1"",""9557""
","
","","","","","","null","<div style=""font-size:60px;"">+</div>","null","","fixation","","",""
"memory-trial","56","272878","0.0-18.0-1.6","5737","approach_avoid_sv1","""event"",""trial"",""time""
""fullscreenenter"",""1"",""9557""
","
","
","""event"",""trial"",""time""
""fullscreenenter"",""1"",""9557""
","
","","","","","","1730.1999999999534","images/chair2.png","","","memory_trial","2","maybe_old",""
"html-keyboard-response","57","273382","0.0-18.0-0.7","5737","approach_avoid_sv1","""event"",""trial"",""time""
""fullscreenenter"",""1"",""9557""
","
","
","""event"",""trial"",""time""
""fullscreenenter"",""1"",""9557""
","
","","","","","","null","<div style=""font-size:60px;"">+</div>","null","","fixation","","",""
"memory-trial","58","274438","0.0-18.0-1.7","5737","approach_avoid_sv1","""event"",""trial"",""time""
""fullscreenenter"",""1"",""9557""
","
","
","""event"",""trial"",""time""
""fullscreenenter"",""1"",""9557""
","
","","","","","","53.60000000009313","images/sheep1.png","","","memory_trial","2","maybe_old",""
"html-keyboard-response","59","274944","0.0-18.0-0.8","5737","approach_avoid_sv1","""event"",""trial"",""time""
""fullscreenenter"",""1"",""9557""
","
","
","""event"",""trial"",""time""
""fullscreenenter"",""1"",""9557""
","
","","","","","","null","<div style=""font-size:60px;"">+</div>","null","","fixation","","",""
"memory-trial","60","278683","0.0-18.0-1.8","5737","approach_avoid_sv1","""event"",""trial"",""time""
""fullscreenenter"",""1"",""9557""
","
","
","""event"",""trial"",""time""
""fullscreenenter"",""1"",""9557""
","
","","","","","","2737.4000000001397","images/flower8.png","","","memory_trial","2","maybe_old",""
"html-keyboard-response","61","279188","0.0-18.0-0.9","5737","approach_avoid_sv1","""event"",""trial"",""time""
""fullscreenenter"",""1"",""9557""
","
","
","""event"",""trial"",""time""
""fullscreenenter"",""1"",""9557""
","
","","","","","","null","<div style=""font-size:60px;"">+</div>","null","","fixation","","",""
"memory-trial","62","281922","0.0-18.0-1.9","5737","approach_avoid_sv1","""event"",""trial"",""time""
""fullscreenenter"",""1"",""9557""
","
","
","""event"",""trial"",""time""
""fullscreenenter"",""1"",""9557""
","
","","","","","","1732.6999999999534","images/bush4.png","","","memory_trial","4","definitely_new",""
"html-keyboard-response","63","282426","0.0-18.0-0.10","5737","approach_avoid_sv1","""event"",""trial"",""time""
""fullscreenenter"",""1"",""9557""
","
","
","""event"",""trial"",""time""
""fullscreenenter"",""1"",""9557""
","
","","","","","","null","<div style=""font-size:60px;"">+</div>","null","","fixation","","",""
"memory-trial","64","284354","0.0-18.0-1.10","5737","approach_avoid_sv1","""event"",""trial"",""time""
""fullscreenenter"",""1"",""9557""
","
","
","""event"",""trial"",""time""
""fullscreenenter"",""1"",""9557""
","
","","","","","","924.1000000000931","images/goat4.png","","","memory_trial","4","definitely_new",""
"html-keyboard-response","65","284859","0.0-18.0-0.11","5737","approach_avoid_sv1","""event"",""trial"",""time""
""fullscreenenter"",""1"",""9557""
","
","
","""event"",""trial"",""time""
""fullscreenenter"",""1"",""9557""
","
","","","","","","null","<div style=""font-size:60px;"">+</div>","null","","fixation","","",""
"memory-trial","66","286787","0.0-18.0-1.11","5737","approach_avoid_sv1","""event"",""trial"",""time""
""fullscreenenter"",""1"",""9557""
","
","
","""event"",""trial"",""time""
""fullscreenenter"",""1"",""9557""
","
","","","","","","922.1000000000931","images/truck6.png","","","memory_trial","4","definitely_new",""
"html-keyboard-response","67","287291","0.0-18.0-0.12","5737","approach_avoid_sv1","""event"",""trial"",""time""
""fullscreenenter"",""1"",""9557""
""blur"",""68"",""288572""
""focus"",""68"",""288573""
","""event"",""trial"",""time""
""blur"",""68"",""288572""
","""event"",""trial"",""time""
""focus"",""68"",""288573""
","""event"",""trial"",""time""
""fullscreenenter"",""1"",""9557""
","
","","","","","","null","<div style=""font-size:60px;"">+</div>","null","","fixation","","",""
"memory-trial","68","289561","0.0-18.0-1.12","5737","approach_avoid_sv1","""event"",""trial"",""time""
""fullscreenenter"",""1"",""9557""
""blur"",""68"",""288572""
""focus"",""68"",""288573""
","""event"",""trial"",""time""
""blur"",""68"",""288572""
","""event"",""trial"",""time""
""focus"",""68"",""288573""
","""event"",""trial"",""time""
""fullscreenenter"",""1"",""9557""
","
","","","","","","1265.1999999999534","images/tree2.png","","","memory_trial","1","definitely_old",""
"html-keyboard-response","69","290066","0.0-18.0-0.13","5737","approach_avoid_sv1","""event"",""trial"",""time""
""fullscreenenter"",""1"",""9557""
""blur"",""68"",""288572""
""focus"",""68"",""288573""
","""event"",""trial"",""time""
""blur"",""68"",""288572""
","""event"",""trial"",""time""
""focus"",""68"",""288573""
","""event"",""trial"",""time""
""fullscreenenter"",""1"",""9557""
","
","","","","","","null","<div style=""font-size:60px;"">+</div>","null","","fixation","","",""
"memory-trial","70","293387","0.0-18.0-1.13","5737","approach_avoid_sv1","""event"",""trial"",""time""
""fullscreenenter"",""1"",""9557""
""blur"",""68"",""288572""
""focus"",""68"",""288573""
","""event"",""trial"",""time""
""blur"",""68"",""288572""
","""event"",""trial"",""time""
""focus"",""68"",""288573""
","""event"",""trial"",""time""
""fullscreenenter"",""1"",""9557""
","
","","","","","","2314.6999999999534","images/sheep8.png","","","memory_trial","2","maybe_old",""
"html-keyboard-response","71","293891","0.0-18.0-0.14","5737","approach_avoid_sv1","""event"",""trial"",""time""
""fullscreenenter"",""1"",""9557""
""blur"",""68"",""288572""
""focus"",""68"",""288573""
","""event"",""trial"",""time""
""blur"",""68"",""288572""
","""event"",""trial"",""time""
""focus"",""68"",""288573""
","""event"",""trial"",""time""
""fullscreenenter"",""1"",""9557""
","
","","","","","","null","<div style=""font-size:60px;"">+</div>","null","","fixation","","",""
"memory-trial","72","296342","0.0-18.0-1.14","5737","approach_avoid_sv1","""event"",""trial"",""time""
""fullscreenenter"",""1"",""9557""
""blur"",""68"",""288572""
""focus"",""68"",""288573""
","""event"",""trial"",""time""
""blur"",""68"",""288572""
","""event"",""trial"",""time""
""focus"",""68"",""288573""
","""event"",""trial"",""time""
""fullscreenenter"",""1"",""9557""
","
","","","","","","1445.1000000000931","images/bush2.png","","","memory_trial","4","definitely_new",""
"html-keyboard-response","73","296846","0.0-18.0-0.15","5737","approach_avoid_sv1","""event"",""trial"",""time""
""fullscreenenter"",""1"",""9557""
""blur"",""68"",""288572""
""focus"",""68"",""288573""
","""event"",""trial"",""time""
""blur"",""68"",""288572""
","""event"",""trial"",""time""
""focus"",""68"",""288573""
","""event"",""trial"",""time""
""fullscreenenter"",""1"",""9557""
","
","","","","","","null","<div style=""font-size:60px;"">+</div>","null","","fixation","","",""
"memory-trial","74","299969","0.0-18.0-1.15","5737","approach_avoid_sv1","""event"",""trial"",""time""
""fullscreenenter"",""1"",""9557""
""blur"",""68"",""288572""
""focus"",""68"",""288573""
","""event"",""trial"",""time""
""blur"",""68"",""288572""
","""event"",""trial"",""time""
""focus"",""68"",""288573""
","""event"",""trial"",""time""
""fullscreenenter"",""1"",""9557""
","
","","","","","","2120.8000000000466","images/cow6.png","","","memory_trial","2","maybe_old",""
"html-keyboard-response","75","300474","0.0-18.0-0.16","5737","approach_avoid_sv1","""event"",""trial"",""time""
""fullscreenenter"",""1"",""9557""
""blur"",""68"",""288572""
""focus"",""68"",""288573""
","""event"",""trial"",""time""
""blur"",""68"",""288572""
","""event"",""trial"",""time""
""focus"",""68"",""288573""
","""event"",""trial"",""time""
""fullscreenenter"",""1"",""9557""
","
","","","","","","null","<div style=""font-size:60px;"">+</div>","null","","fixation","","",""
"memory-trial","76","303209","0.0-18.0-1.16","5737","approach_avoid_sv1","""event"",""trial"",""time""
""fullscreenenter"",""1"",""9557""
""blur"",""68"",""288572""
""focus"",""68"",""288573""
","""event"",""trial"",""time""
""blur"",""68"",""288572""
","""event"",""trial"",""time""
""focus"",""68"",""288573""
","""event"",""trial"",""time""
""fullscreenenter"",""1"",""9557""
","
","","","","","","1732.1999999999534","images/sofa5.png","","","memory_trial","1","definitely_old",""
"html-keyboard-response","77","303712","0.0-18.0-0.17","5737","approach_avoid_sv1","""event"",""trial"",""time""
""fullscreenenter"",""1"",""9557""
""blur"",""68"",""288572""
""focus"",""68"",""288573""
","""event"",""trial"",""time""
""blur"",""68"",""288572""
","""event"",""trial"",""time""
""focus"",""68"",""288573""
","""event"",""trial"",""time""
""fullscreenenter"",""1"",""9557""
","
","","","","","","null","<div style=""font-size:60px;"">+</div>","null","","fixation","","",""
"memory-trial","78","305850","0.0-18.0-1.17","5737","approach_avoid_sv1","""event"",""trial"",""time""
""fullscreenenter"",""1"",""9557""
""blur"",""68"",""288572""
""focus"",""68"",""288573""
","""event"",""trial"",""time""
""blur"",""68"",""288572""
","""event"",""trial"",""time""
""focus"",""68"",""288573""
","""event"",""trial"",""time""
""fullscreenenter"",""1"",""9557""
","
","","","","","","1134","images/apple8.png","","","memory_trial","1","definitely_old",""
"html-keyboard-response","79","306355","0.0-18.0-0.18","5737","approach_avoid_sv1","""event"",""trial"",""time""
""fullscreenenter"",""1"",""9557""
""blur"",""68"",""288572""
""focus"",""68"",""288573""
","""event"",""trial"",""time""
""blur"",""68"",""288572""
","""event"",""trial"",""time""
""focus"",""68"",""288573""
","""event"",""trial"",""time""
""fullscreenenter"",""1"",""9557""
","
","","","","","","null","<div style=""font-size:60px;"">+</div>","null","","fixation","","",""
"memory-trial","80","309496","0.0-18.0-1.18","5737","approach_avoid_sv1","""event"",""trial"",""time""
""fullscreenenter"",""1"",""9557""
""blur"",""68"",""288572""
""focus"",""68"",""288573""
","""event"",""trial"",""time""
""blur"",""68"",""288572""
","""event"",""trial"",""time""
""focus"",""68"",""288573""
","""event"",""trial"",""time""
""fullscreenenter"",""1"",""9557""
","
","","","","","","2137.100000000093","images/flower6.png","","","memory_trial","4","definitely_new",""
"html-keyboard-response","81","310001","0.0-18.0-0.19","5737","approach_avoid_sv1","""event"",""trial"",""time""
""fullscreenenter"",""1"",""9557""
""blur"",""68"",""288572""
""focus"",""68"",""288573""
","""event"",""trial"",""time""
""blur"",""68"",""288572""
","""event"",""trial"",""time""
""focus"",""68"",""288573""
","""event"",""trial"",""time""
""fullscreenenter"",""1"",""9557""
","
","","","","","","null","<div style=""font-size:60px;"">+</div>","null","","fixation","","",""
"memory-trial","82","312328","0.0-18.0-1.19","5737","approach_avoid_sv1","""event"",""trial"",""time""
""fullscreenenter"",""1"",""9557""
""blur"",""68"",""288572""
""focus"",""68"",""288573""
","""event"",""trial"",""time""
""blur"",""68"",""288572""
","""event"",""trial"",""time""
""focus"",""68"",""288573""
","""event"",""trial"",""time""
""fullscreenenter"",""1"",""9557""
","
","","","","","","1326.3000000000466","images/dog6.png","","","memory_trial","1","definitely_old",""
"html-keyboard-response","83","312833","0.0-18.0-0.20","5737","approach_avoid_sv1","""event"",""trial"",""time""
""fullscreenenter"",""1"",""9557""
""blur"",""68"",""288572""
""focus"",""68"",""288573""
","""event"",""trial"",""time""
""blur"",""68"",""288572""
","""event"",""trial"",""time""
""focus"",""68"",""288573""
","""event"",""trial"",""time""
""fullscreenenter"",""1"",""9557""
","
","","","","","","null","<div style=""font-size:60px;"">+</div>","null","","fixation","","",""
"memory-trial","84","314926","0.0-18.0-1.20","5737","approach_avoid_sv1","""event"",""trial"",""time""
""fullscreenenter"",""1"",""9557""
""blur"",""68"",""288572""
""focus"",""68"",""288573""
","""event"",""trial"",""time""
""blur"",""68"",""288572""
","""event"",""trial"",""time""
""focus"",""68"",""288573""
","""event"",""trial"",""time""
""fullscreenenter"",""1"",""9557""
","
","","","","","","1089.5","images/banana7.png","","","memory_trial","1","definitely_old",""
"html-keyboard-response","85","315431","0.0-18.0-0.21","5737","approach_avoid_sv1","""event"",""trial"",""time""
""fullscreenenter"",""1"",""9557""
""blur"",""68"",""288572""
""focus"",""68"",""288573""
","""event"",""trial"",""time""
""blur"",""68"",""288572""
","""event"",""trial"",""time""
""focus"",""68"",""288573""
","""event"",""trial"",""time""
""fullscreenenter"",""1"",""9557""
","
","","","","","","null","<div style=""font-size:60px;"">+</div>","null","","fixation","","",""
"memory-trial","86","318061","0.0-18.0-1.21","5737","approach_avoid_sv1","""event"",""trial"",""time""
""fullscreenenter"",""1"",""9557""
""blur"",""68"",""288572""
""focus"",""68"",""288573""
","""event"",""trial"",""time""
""blur"",""68"",""288572""
","""event"",""trial"",""time""
""focus"",""68"",""288573""
","""event"",""trial"",""time""
""fullscreenenter"",""1"",""9557""
","
","","","","","","1627.2000000001863","images/bed4.png","","","memory_trial","1","definitely_old",""
"html-keyboard-response","87","318563","0.0-18.0-0.22","5737","approach_avoid_sv1","""event"",""trial"",""time""
""fullscreenenter"",""1"",""9557""
""blur"",""68"",""288572""
""focus"",""68"",""288573""
","""event"",""trial"",""time""
""blur"",""68"",""288572""
","""event"",""trial"",""time""
""focus"",""68"",""288573""
","""event"",""trial"",""time""
""fullscreenenter"",""1"",""9557""
","
","","","","","","null","<div style=""font-size:60px;"">+</div>","null","","fixation","","",""
"memory-trial","88","321991","0.0-18.0-1.22","5737","approach_avoid_sv1","""event"",""trial"",""time""
""fullscreenenter"",""1"",""9557""
""blur"",""68"",""288572""
""focus"",""68"",""288573""
","""event"",""trial"",""time""
""blur"",""68"",""288572""
","""event"",""trial"",""time""
""focus"",""68"",""288573""
","""event"",""trial"",""time""
""fullscreenenter"",""1"",""9557""
","
","","","","","","2424.2999999998137","images/sheep7.png","","","memory_trial","2","maybe_old",""
"html-keyboard-response","89","322493","0.0-18.0-0.23","5737","approach_avoid_sv1","""event"",""trial"",""time""
""fullscreenenter"",""1"",""9557""
""blur"",""68"",""288572""
""focus"",""68"",""288573""
","""event"",""trial"",""time""
""blur"",""68"",""288572""
","""event"",""trial"",""time""
""focus"",""68"",""288573""
","""event"",""trial"",""time""
""fullscreenenter"",""1"",""9557""
","
","","","","","","null","<div style=""font-size:60px;"">+</div>","null","","fixation","","",""
"memory-trial","90","325459","0.0-18.0-1.23","5737","approach_avoid_sv1","""event"",""trial"",""time""
""fullscreenenter"",""1"",""9557""
""blur"",""68"",""288572""
""focus"",""68"",""288573""
","""event"",""trial"",""time""
""blur"",""68"",""288572""
","""event"",""trial"",""time""
""focus"",""68"",""288573""
","""event"",""trial"",""time""
""fullscreenenter"",""1"",""9557""
","
","","","","","","1960.1000000000931","images/flower7.png","","","memory_trial","2","maybe_old",""
"html-keyboard-response","91","325964","0.0-18.0-0.24","5737","approach_avoid_sv1","""event"",""trial"",""time""
""fullscreenenter"",""1"",""9557""
""blur"",""68"",""288572""
""focus"",""68"",""288573""
","""event"",""trial"",""time""
""blur"",""68"",""288572""
","""event"",""trial"",""time""
""focus"",""68"",""288573""
","""event"",""trial"",""time""
""fullscreenenter"",""1"",""9557""
","
","","","","","","null","<div style=""font-size:60px;"">+</div>","null","","fixation","","",""
"memory-trial","92","327990","0.0-18.0-1.24","5737","approach_avoid_sv1","""event"",""trial"",""time""
""fullscreenenter"",""1"",""9557""
""blur"",""68"",""288572""
""focus"",""68"",""288573""
","""event"",""trial"",""time""
""blur"",""68"",""288572""
","""event"",""trial"",""time""
""focus"",""68"",""288573""
","""event"",""trial"",""time""
""fullscreenenter"",""1"",""9557""
","
","","","","","","1023","images/banana6.png","","","memory_trial","1","definitely_old",""
"html-keyboard-response","93","328491","0.0-18.0-0.25","5737","approach_avoid_sv1","""event"",""trial"",""time""
""fullscreenenter"",""1"",""9557""
""blur"",""68"",""288572""
""focus"",""68"",""288573""
","""event"",""trial"",""time""
""blur"",""68"",""288572""
","""event"",""trial"",""time""
""focus"",""68"",""288573""
","""event"",""trial"",""time""
""fullscreenenter"",""1"",""9557""
","
","","","","","","null","<div style=""font-size:60px;"">+</div>","null","","fixation","","",""
"memory-trial","94","332298","0.0-18.0-1.25","5737","approach_avoid_sv1","""event"",""trial"",""time""
""fullscreenenter"",""1"",""9557""
""blur"",""68"",""288572""
""focus"",""68"",""288573""
","""event"",""trial"",""time""
""blur"",""68"",""288572""
","""event"",""trial"",""time""
""focus"",""68"",""288573""
","""event"",""trial"",""time""
""fullscreenenter"",""1"",""9557""
","
","","","","","","2802.100000000093","images/chair5.png","","","memory_trial","1","definitely_old",""
"html-keyboard-response","95","332802","0.0-18.0-0.26","5737","approach_avoid_sv1","""event"",""trial"",""time""
""fullscreenenter"",""1"",""9557""
""blur"",""68"",""288572""
""focus"",""68"",""288573""
","""event"",""trial"",""time""
""blur"",""68"",""288572""
","""event"",""trial"",""time""
""focus"",""68"",""288573""
","""event"",""trial"",""time""
""fullscreenenter"",""1"",""9557""
","
","","","","","","null","<div style=""font-size:60px;"">+</div>","null","","fixation","","",""
"memory-trial","96","334771","0.0-18.0-1.26","5737","approach_avoid_sv1","""event"",""trial"",""time""
""fullscreenenter"",""1"",""9557""
""blur"",""68"",""288572""
""focus"",""68"",""288573""
","""event"",""trial"",""time""
""blur"",""68"",""288572""
","""event"",""trial"",""time""
""focus"",""68"",""288573""
","""event"",""trial"",""time""
""fullscreenenter"",""1"",""9557""
","
","","","","","","965.8000000000466","images/bush6.png","","","memory_trial","4","definitely_new",""
"html-keyboard-response","97","335276","0.0-18.0-0.27","5737","approach_avoid_sv1","""event"",""trial"",""time""
""fullscreenenter"",""1"",""9557""
""blur"",""68"",""288572""
""focus"",""68"",""288573""
","""event"",""trial"",""time""
""blur"",""68"",""288572""
","""event"",""trial"",""time""
""focus"",""68"",""288573""
","""event"",""trial"",""time""
""fullscreenenter"",""1"",""9557""
","
","","","","","","null","<div style=""font-size:60px;"">+</div>","null","","fixation","","",""
"memory-trial","98","340088","0.0-18.0-1.27","5737","approach_avoid_sv1","""event"",""trial"",""time""
""fullscreenenter"",""1"",""9557""
""blur"",""68"",""288572""
""focus"",""68"",""288573""
","""event"",""trial"",""time""
""blur"",""68"",""288572""
","""event"",""trial"",""time""
""focus"",""68"",""288573""
","""event"",""trial"",""time""
""fullscreenenter"",""1"",""9557""
","
","","","","","","3806.899999999907","images/straw2.png","","","memory_trial","4","definitely_new",""
"html-keyboard-response","99","340593","0.0-18.0-0.28","5737","approach_avoid_sv1","""event"",""trial"",""time""
""fullscreenenter"",""1"",""9557""
""blur"",""68"",""288572""
""focus"",""68"",""288573""
","""event"",""trial"",""time""
""blur"",""68"",""288572""
","""event"",""trial"",""time""
""focus"",""68"",""288573""
","""event"",""trial"",""time""
""fullscreenenter"",""1"",""9557""
","
","","","","","","null","<div style=""font-size:60px;"">+</div>","null","","fixation","","",""
"memory-trial","100","343019","0.0-18.0-1.28","5737","approach_avoid_sv1","""event"",""trial"",""time""
""fullscreenenter"",""1"",""9557""
""blur"",""68"",""288572""
""focus"",""68"",""288573""
","""event"",""trial"",""time""
""blur"",""68"",""288572""
","""event"",""trial"",""time""
""focus"",""68"",""288573""
","""event"",""trial"",""time""
""fullscreenenter"",""1"",""9557""
","
","","","","","","1424.9000000001397","images/sofa3.png","","","memory_trial","1","definitely_old",""
"html-keyboard-response","101","343524","0.0-18.0-0.29","5737","approach_avoid_sv1","""event"",""trial"",""time""
""fullscreenenter"",""1"",""9557""
""blur"",""68"",""288572""
""focus"",""68"",""288573""
","""event"",""trial"",""time""
""blur"",""68"",""288572""
","""event"",""trial"",""time""
""focus"",""68"",""288573""
","""event"",""trial"",""time""
""fullscreenenter"",""1"",""9557""
","
","","","","","","null","<div style=""font-size:60px;"">+</div>","null","","fixation","","",""
"memory-trial","102","346053","0.0-18.0-1.29","5737","approach_avoid_sv1","""event"",""trial"",""time""
""fullscreenenter"",""1"",""9557""
""blur"",""68"",""288572""
""focus"",""68"",""288573""
","""event"",""trial"",""time""
""blur"",""68"",""288572""
","""event"",""trial"",""time""
""focus"",""68"",""288573""
","""event"",""trial"",""time""
""fullscreenenter"",""1"",""9557""
","
","","","","","","1524.3000000000466","images/cow5.png","","","memory_trial","2","maybe_old",""
"html-keyboard-response","103","346555","0.0-18.0-0.30","5737","approach_avoid_sv1","""event"",""trial"",""time""
""fullscreenenter"",""1"",""9557""
""blur"",""68"",""288572""
""focus"",""68"",""288573""
","""event"",""trial"",""time""
""blur"",""68"",""288572""
","""event"",""trial"",""time""
""focus"",""68"",""288573""
","""event"",""trial"",""time""
""fullscreenenter"",""1"",""9557""
","
","","","","","","null","<div style=""font-size:60px;"">+</div>","null","","fixation","","",""
"memory-trial","104","348993","0.0-18.0-1.30","5737","approach_avoid_sv1","""event"",""trial"",""time""
""fullscreenenter"",""1"",""9557""
""blur"",""68"",""288572""
""focus"",""68"",""288573""
","""event"",""trial"",""time""
""blur"",""68"",""288572""
","""event"",""trial"",""time""
""focus"",""68"",""288573""
","""event"",""trial"",""time""
""fullscreenenter"",""1"",""9557""
","
","","","","","","1434.1999999999534","images/cow1.png","","","memory_trial","4","definitely_new",""
"html-keyboard-response","105","349497","0.0-18.0-0.31","5737","approach_avoid_sv1","""event"",""trial"",""time""
""fullscreenenter"",""1"",""9557""
""blur"",""68"",""288572""
""focus"",""68"",""288573""
","""event"",""trial"",""time""
""blur"",""68"",""288572""
","""event"",""trial"",""time""
""focus"",""68"",""288573""
","""event"",""trial"",""time""
""fullscreenenter"",""1"",""9557""
","
","","","","","","null","<div style=""font-size:60px;"">+</div>","null","","fixation","","",""
"memory-trial","106","353027","0.0-18.0-1.31","5737","approach_avoid_sv1","""event"",""trial"",""time""
""fullscreenenter"",""1"",""9557""
""blur"",""68"",""288572""
""focus"",""68"",""288573""
","""event"",""trial"",""time""
""blur"",""68"",""288572""
","""event"",""trial"",""time""
""focus"",""68"",""288573""
","""event"",""trial"",""time""
""fullscreenenter"",""1"",""9557""
","
","","","","","","2526.899999999907","images/cactus2.png","","","memory_trial","4","definitely_new",""
"html-keyboard-response","107","353532","0.0-18.0-0.32","5737","approach_avoid_sv1","""event"",""trial"",""time""
""fullscreenenter"",""1"",""9557""
""blur"",""68"",""288572""
""focus"",""68"",""288573""
","""event"",""trial"",""time""
""blur"",""68"",""288572""
","""event"",""trial"",""time""
""focus"",""68"",""288573""
","""event"",""trial"",""time""
""fullscreenenter"",""1"",""9557""
","
","","","","","","null","<div style=""font-size:60px;"">+</div>","null","","fixation","","",""
"memory-trial","108","355848","0.0-18.0-1.32","5737","approach_avoid_sv1","""event"",""trial"",""time""
""fullscreenenter"",""1"",""9557""
""blur"",""68"",""288572""
""focus"",""68"",""288573""
","""event"",""trial"",""time""
""blur"",""68"",""288572""
","""event"",""trial"",""time""
""focus"",""68"",""288573""
","""event"",""trial"",""time""
""fullscreenenter"",""1"",""9557""
","
","","","","","","1311.8000000000466","images/chair3.png","","","memory_trial","4","definitely_new",""
"html-keyboard-response","109","356354","0.0-18.0-0.33","5737","approach_avoid_sv1","""event"",""trial"",""time""
""fullscreenenter"",""1"",""9557""
""blur"",""68"",""288572""
""focus"",""68"",""288573""
","""event"",""trial"",""time""
""blur"",""68"",""288572""
","""event"",""trial"",""time""
""focus"",""68"",""288573""
","""event"",""trial"",""time""
""fullscreenenter"",""1"",""9557""
","
","","","","","","null","<div style=""font-size:60px;"">+</div>","null","","fixation","","",""
"memory-trial","110","358292","0.0-18.0-1.33","5737","approach_avoid_sv1","""event"",""trial"",""time""
""fullscreenenter"",""1"",""9557""
""blur"",""68"",""288572""
""focus"",""68"",""288573""
","""event"",""trial"",""time""
""blur"",""68"",""288572""
","""event"",""trial"",""time""
""focus"",""68"",""288573""
","""event"",""trial"",""time""
""fullscreenenter"",""1"",""9557""
","
","","","","","","935.5","images/cow3.png","","","memory_trial","4","definitely_new",""
"html-keyboard-response","111","358797","0.0-18.0-0.34","5737","approach_avoid_sv1","""event"",""trial"",""time""
""fullscreenenter"",""1"",""9557""
""blur"",""68"",""288572""
""focus"",""68"",""288573""
","""event"",""trial"",""time""
""blur"",""68"",""288572""
","""event"",""trial"",""time""
""focus"",""68"",""288573""
","""event"",""trial"",""time""
""fullscreenenter"",""1"",""9557""
","
","","","","","","null","<div style=""font-size:60px;"">+</div>","null","","fixation","","",""
"memory-trial","112","360661","0.0-18.0-1.34","5737","approach_avoid_sv1","""event"",""trial"",""time""
""fullscreenenter"",""1"",""9557""
""blur"",""68"",""288572""
""focus"",""68"",""288573""
","""event"",""trial"",""time""
""blur"",""68"",""288572""
","""event"",""trial"",""time""
""focus"",""68"",""288573""
","""event"",""trial"",""time""
""fullscreenenter"",""1"",""9557""
","
","","","","","","861.6999999999534","images/rodent1.png","","","memory_trial","4","definitely_new",""
"html-keyboard-response","113","361166","0.0-18.0-0.35","5737","approach_avoid_sv1","""event"",""trial"",""time""
""fullscreenenter"",""1"",""9557""
""blur"",""68"",""288572""
""focus"",""68"",""288573""
","""event"",""trial"",""time""
""blur"",""68"",""288572""
","""event"",""trial"",""time""
""focus"",""68"",""288573""
","""event"",""trial"",""time""
""fullscreenenter"",""1"",""9557""
","
","","","","","","null","<div style=""font-size:60px;"">+</div>","null","","fixation","","",""
"memory-trial","114","363259","0.0-18.0-1.35","5737","approach_avoid_sv1","""event"",""trial"",""time""
""fullscreenenter"",""1"",""9557""
""blur"",""68"",""288572""
""focus"",""68"",""288573""
","""event"",""trial"",""time""
""blur"",""68"",""288572""
","""event"",""trial"",""time""
""focus"",""68"",""288573""
","""event"",""trial"",""time""
""fullscreenenter"",""1"",""9557""
","
","","","","","","1089.1000000000931","images/banana8.png","","","memory_trial","4","definitely_new",""
"html-keyboard-response","115","363761","0.0-18.0-0.36","5737","approach_avoid_sv1","""event"",""trial"",""time""
""fullscreenenter"",""1"",""9557""
""blur"",""68"",""288572""
""focus"",""68"",""288573""
","""event"",""trial"",""time""
""blur"",""68"",""288572""
","""event"",""trial"",""time""
""focus"",""68"",""288573""
","""event"",""trial"",""time""
""fullscreenenter"",""1"",""9557""
","
","","","","","","null","<div style=""font-size:60px;"">+</div>","null","","fixation","","",""
"memory-trial","116","365734","0.0-18.0-1.36","5737","approach_avoid_sv1","""event"",""trial"",""time""
""fullscreenenter"",""1"",""9557""
""blur"",""68"",""288572""
""focus"",""68"",""288573""
","""event"",""trial"",""time""
""blur"",""68"",""288572""
","""event"",""trial"",""time""
""focus"",""68"",""288573""
","""event"",""trial"",""time""
""fullscreenenter"",""1"",""9557""
","
","","","","","","968.8000000000466","images/straw1.png","","","memory_trial","4","definitely_new",""
"html-keyboard-response","117","366239","0.0-18.0-0.37","5737","approach_avoid_sv1","""event"",""trial"",""time""
""fullscreenenter"",""1"",""9557""
""blur"",""68"",""288572""
""focus"",""68"",""288573""
","""event"",""trial"",""time""
""blur"",""68"",""288572""
","""event"",""trial"",""time""
""focus"",""68"",""288573""
","""event"",""trial"",""time""
""fullscreenenter"",""1"",""9557""
","
","","","","","","null","<div style=""font-size:60px;"">+</div>","null","","fixation","","",""
"memory-trial","118","368419","0.0-18.0-1.37","5737","approach_avoid_sv1","""event"",""trial"",""time""
""fullscreenenter"",""1"",""9557""
""blur"",""68"",""288572""
""focus"",""68"",""288573""
","""event"",""trial"",""time""
""blur"",""68"",""288572""
","""event"",""trial"",""time""
""focus"",""68"",""288573""
","""event"",""trial"",""time""
""fullscreenenter"",""1"",""9557""
","
","","","","","","1174.9000000001397","images/orange8.png","","","memory_trial","1","definitely_old",""
"html-keyboard-response","119","368921","0.0-18.0-0.38","5737","approach_avoid_sv1","""event"",""trial"",""time""
""fullscreenenter"",""1"",""9557""
""blur"",""68"",""288572""
""focus"",""68"",""288573""
","""event"",""trial"",""time""
""blur"",""68"",""288572""
","""event"",""trial"",""time""
""focus"",""68"",""288573""
","""event"",""trial"",""time""
""fullscreenenter"",""1"",""9557""
","
","","","","","","null","<div style=""font-size:60px;"">+</div>","null","","fixation","","",""
"memory-trial","120","371702","0.0-18.0-1.38","5737","approach_avoid_sv1","""event"",""trial"",""time""
""fullscreenenter"",""1"",""9557""
""blur"",""68"",""288572""
""focus"",""68"",""288573""
","""event"",""trial"",""time""
""blur"",""68"",""288572""
","""event"",""trial"",""time""
""focus"",""68"",""288573""
","""event"",""trial"",""time""
""fullscreenenter"",""1"",""9557""
","
","","","","","","1778.8000000000466","images/sheep6.png","","","memory_trial","2","maybe_old",""
"html-keyboard-response","121","372207","0.0-18.0-0.39","5737","approach_avoid_sv1","""event"",""trial"",""time""
""fullscreenenter"",""1"",""9557""
""blur"",""68"",""288572""
""focus"",""68"",""288573""
","""event"",""trial"",""time""
""blur"",""68"",""288572""
","""event"",""trial"",""time""
""focus"",""68"",""288573""
","""event"",""trial"",""time""
""fullscreenenter"",""1"",""9557""
","
","","","","","","null","<div style=""font-size:60px;"">+</div>","null","","fixation","","",""
"memory-trial","122","375139","0.0-18.0-1.39","5737","approach_avoid_sv1","""event"",""trial"",""time""
""fullscreenenter"",""1"",""9557""
""blur"",""68"",""288572""
""focus"",""68"",""288573""
","""event"",""trial"",""time""
""blur"",""68"",""288572""
","""event"",""trial"",""time""
""focus"",""68"",""288573""
","""event"",""trial"",""time""
""fullscreenenter"",""1"",""9557""
","
","","","","","","1928.1999999999534","images/apple2.png","","","memory_trial","2","maybe_old",""
"html-keyboard-response","123","375643","0.0-18.0-0.40","5737","approach_avoid_sv1","""event"",""trial"",""time""
""fullscreenenter"",""1"",""9557""
""blur"",""68"",""288572""
""focus"",""68"",""288573""
","""event"",""trial"",""time""
""blur"",""68"",""288572""
","""event"",""trial"",""time""
""focus"",""68"",""288573""
","""event"",""trial"",""time""
""fullscreenenter"",""1"",""9557""
","
","","","","","","null","<div style=""font-size:60px;"">+</div>","null","","fixation","","",""
"memory-trial","124","378186","0.0-18.0-1.40","5737","approach_avoid_sv1","""event"",""trial"",""time""
""fullscreenenter"",""1"",""9557""
""blur"",""68"",""288572""
""focus"",""68"",""288573""
","""event"",""trial"",""time""
""blur"",""68"",""288572""
","""event"",""trial"",""time""
""focus"",""68"",""288573""
","""event"",""trial"",""time""
""fullscreenenter"",""1"",""9557""
","
","","","","","","1537.5","images/cat3.png","","","memory_trial","1","definitely_old",""
"html-keyboard-response","125","378690","0.0-18.0-0.41","5737","approach_avoid_sv1","""event"",""trial"",""time""
""fullscreenenter"",""1"",""9557""
""blur"",""68"",""288572""
""focus"",""68"",""288573""
","""event"",""trial"",""time""
""blur"",""68"",""288572""
","""event"",""trial"",""time""
""focus"",""68"",""288573""
","""event"",""trial"",""time""
""fullscreenenter"",""1"",""9557""
","
","","","","","","null","<div style=""font-size:60px;"">+</div>","null","","fixation","","",""
"memory-trial","126","381019","0.0-18.0-1.41","5737","approach_avoid_sv1","""event"",""trial"",""time""
""fullscreenenter"",""1"",""9557""
""blur"",""68"",""288572""
""focus"",""68"",""288573""
","""event"",""trial"",""time""
""blur"",""68"",""288572""
","""event"",""trial"",""time""
""focus"",""68"",""288573""
","""event"",""trial"",""time""
""fullscreenenter"",""1"",""9557""
","
","","","","","","1324.6000000000931","images/sofa8.png","","","memory_trial","4","definitely_new",""
"html-button-response","127","383445","0.0-18.0-2.41-0.41","5737","approach_avoid_sv1","""event"",""trial"",""time""
""fullscreenenter"",""1"",""9557""
""blur"",""68"",""288572""
""focus"",""68"",""288573""
","""event"",""trial"",""time""
""blur"",""68"",""288572""
","""event"",""trial"",""time""
""focus"",""68"",""288573""
","""event"",""trial"",""time""
""fullscreenenter"",""1"",""9557""
","
","","","","","","2424.899999999907","<p> Take a break! </p><p> Click the button to continue. </p>","0","","break","","",""
"html-keyboard-response","128","383951","0.0-18.0-0.42","5737","approach_avoid_sv1","""event"",""trial"",""time""
""fullscreenenter"",""1"",""9557""
""blur"",""68"",""288572""
""focus"",""68"",""288573""
","""event"",""trial"",""time""
""blur"",""68"",""288572""
","""event"",""trial"",""time""
""focus"",""68"",""288573""
","""event"",""trial"",""time""
""fullscreenenter"",""1"",""9557""
","
","","","","","","null","<div style=""font-size:60px;"">+</div>","null","","fixation","","",""
"memory-trial","129","386238","0.0-18.0-1.42","5737","approach_avoid_sv1","""event"",""trial"",""time""
""fullscreenenter"",""1"",""9557""
""blur"",""68"",""288572""
""focus"",""68"",""288573""
","""event"",""trial"",""time""
""blur"",""68"",""288572""
","""event"",""trial"",""time""
""focus"",""68"",""288573""
","""event"",""trial"",""time""
""fullscreenenter"",""1"",""9557""
","
","","","","","","1284.6999999999534","images/truck1.png","","","memory_trial","1","definitely_old",""
"html-keyboard-response","130","386743","0.0-18.0-0.43","5737","approach_avoid_sv1","""event"",""trial"",""time""
""fullscreenenter"",""1"",""9557""
""blur"",""68"",""288572""
""focus"",""68"",""288573""
","""event"",""trial"",""time""
""blur"",""68"",""288572""
","""event"",""trial"",""time""
""focus"",""68"",""288573""
","""event"",""trial"",""time""
""fullscreenenter"",""1"",""9557""
","
","","","","","","null","<div style=""font-size:60px;"">+</div>","null","","fixation","","",""
"memory-trial","131","389030","0.0-18.0-1.43","5737","approach_avoid_sv1","""event"",""trial"",""time""
""fullscreenenter"",""1"",""9557""
""blur"",""68"",""288572""
""focus"",""68"",""288573""
","""event"",""trial"",""time""
""blur"",""68"",""288572""
","""event"",""trial"",""time""
""focus"",""68"",""288573""
","""event"",""trial"",""time""
""fullscreenenter"",""1"",""9557""
","
","","","","","","1283.6000000000931","images/sheep4.png","","","memory_trial","2","maybe_old",""
"html-keyboard-response","132","389535","0.0-18.0-0.44","5737","approach_avoid_sv1","""event"",""trial"",""time""
""fullscreenenter"",""1"",""9557""
""blur"",""68"",""288572""
""focus"",""68"",""288573""
","""event"",""trial"",""time""
""blur"",""68"",""288572""
","""event"",""trial"",""time""
""focus"",""68"",""288573""
","""event"",""trial"",""time""
""fullscreenenter"",""1"",""9557""
","
","","","","","","null","<div style=""font-size:60px;"">+</div>","null","","fixation","","",""
"memory-trial","133","391654","0.0-18.0-1.44","5737","approach_avoid_sv1","""event"",""trial"",""time""
""fullscreenenter"",""1"",""9557""
""blur"",""68"",""288572""
""focus"",""68"",""288573""
","""event"",""trial"",""time""
""blur"",""68"",""288572""
","""event"",""trial"",""time""
""focus"",""68"",""288573""
","""event"",""trial"",""time""
""fullscreenenter"",""1"",""9557""
","
","","","","","","1116.1000000000931","images/rabbit3.png","","","memory_trial","1","definitely_old",""
"html-keyboard-response","134","392159","0.0-18.0-0.45","5737","approach_avoid_sv1","""event"",""trial"",""time""
""fullscreenenter"",""1"",""9557""
""blur"",""68"",""288572""
""focus"",""68"",""288573""
","""event"",""trial"",""time""
""blur"",""68"",""288572""
","""event"",""trial"",""time""
""focus"",""68"",""288573""
","""event"",""trial"",""time""
""fullscreenenter"",""1"",""9557""
","
","","","","","","null","<div style=""font-size:60px;"">+</div>","null","","fixation","","",""
"memory-trial","135","394296","0.0-18.0-1.45","5737","approach_avoid_sv1","""event"",""trial"",""time""
""fullscreenenter"",""1"",""9557""
""blur"",""68"",""288572""
""focus"",""68"",""288573""
","""event"",""trial"",""time""
""blur"",""68"",""288572""
","""event"",""trial"",""time""
""focus"",""68"",""288573""
","""event"",""trial"",""time""
""fullscreenenter"",""1"",""9557""
","
","","","","","","1132.1999999999534","images/bush8.png","","","memory_trial","4","definitely_new",""
"html-keyboard-response","136","394800","0.0-18.0-0.46","5737","approach_avoid_sv1","""event"",""trial"",""time""
""fullscreenenter"",""1"",""9557""
""blur"",""68"",""288572""
""focus"",""68"",""288573""
","""event"",""trial"",""time""
""blur"",""68"",""288572""
","""event"",""trial"",""time""
""focus"",""68"",""288573""
","""event"",""trial"",""time""
""fullscreenenter"",""1"",""9557""
","
","","","","","","null","<div style=""font-size:60px;"">+</div>","null","","fixation","","",""
"memory-trial","137","396814","0.0-18.0-1.46","5737","approach_avoid_sv1","""event"",""trial"",""time""
""fullscreenenter"",""1"",""9557""
""blur"",""68"",""288572""
""focus"",""68"",""288573""
","""event"",""trial"",""time""
""blur"",""68"",""288572""
","""event"",""trial"",""time""
""focus"",""68"",""288573""
","""event"",""trial"",""time""
""fullscreenenter"",""1"",""9557""
","
","","","","","","1011.5","images/rabbit5.png","","","memory_trial","1","definitely_old",""
"html-keyboard-response","138","397316","0.0-18.0-0.47","5737","approach_avoid_sv1","""event"",""trial"",""time""
""fullscreenenter"",""1"",""9557""
""blur"",""68"",""288572""
""focus"",""68"",""288573""
","""event"",""trial"",""time""
""blur"",""68"",""288572""
","""event"",""trial"",""time""
""focus"",""68"",""288573""
","""event"",""trial"",""time""
""fullscreenenter"",""1"",""9557""
","
","","","","","","null","<div style=""font-size:60px;"">+</div>","null","","fixation","","",""
"memory-trial","139","399153","0.0-18.0-1.47","5737","approach_avoid_sv1","""event"",""trial"",""time""
""fullscreenenter"",""1"",""9557""
""blur"",""68"",""288572""
""focus"",""68"",""288573""
","""event"",""trial"",""time""
""blur"",""68"",""288572""
","""event"",""trial"",""time""
""focus"",""68"",""288573""
","""event"",""trial"",""time""
""fullscreenenter"",""1"",""9557""
","
","","","","","","834.8000000000466","images/orange1.png","","","memory_trial","1","definitely_old",""
"html-keyboard-response","140","399658","0.0-18.0-0.48","5737","approach_avoid_sv1","""event"",""trial"",""time""
""fullscreenenter"",""1"",""9557""
""blur"",""68"",""288572""
""focus"",""68"",""288573""
","""event"",""trial"",""time""
""blur"",""68"",""288572""
","""event"",""trial"",""time""
""focus"",""68"",""288573""
","""event"",""trial"",""time""
""fullscreenenter"",""1"",""9557""
","
","","","","","","null","<div style=""font-size:60px;"">+</div>","null","","fixation","","",""
"memory-trial","141","402245","0.0-18.0-1.48","5737","approach_avoid_sv1","""event"",""trial"",""time""
""fullscreenenter"",""1"",""9557""
""blur"",""68"",""288572""
""focus"",""68"",""288573""
","""event"",""trial"",""time""
""blur"",""68"",""288572""
","""event"",""trial"",""time""
""focus"",""68"",""288573""
","""event"",""trial"",""time""
""fullscreenenter"",""1"",""9557""
","
","","","","","","1582.9000000001397","images/tree1.png","","","memory_trial","4","definitely_new",""
"html-keyboard-response","142","402747","0.0-18.0-0.49","5737","approach_avoid_sv1","""event"",""trial"",""time""
""fullscreenenter"",""1"",""9557""
""blur"",""68"",""288572""
""focus"",""68"",""288573""
","""event"",""trial"",""time""
""blur"",""68"",""288572""
","""event"",""trial"",""time""
""focus"",""68"",""288573""
","""event"",""trial"",""time""
""fullscreenenter"",""1"",""9557""
","
","","","","","","null","<div style=""font-size:60px;"">+</div>","null","","fixation","","",""
"memory-trial","143","405411","0.0-18.0-1.49","5737","approach_avoid_sv1","""event"",""trial"",""time""
""fullscreenenter"",""1"",""9557""
""blur"",""68"",""288572""
""focus"",""68"",""288573""
","""event"",""trial"",""time""
""blur"",""68"",""288572""
","""event"",""trial"",""time""
""focus"",""68"",""288573""
","""event"",""trial"",""time""
""fullscreenenter"",""1"",""9557""
","
","","","","","","1659.1000000000931","images/apple3.png","","","memory_trial","2","maybe_old",""
"html-keyboard-response","144","405916","0.0-18.0-0.50","5737","approach_avoid_sv1","""event"",""trial"",""time""
""fullscreenenter"",""1"",""9557""
""blur"",""68"",""288572""
""focus"",""68"",""288573""
","""event"",""trial"",""time""
""blur"",""68"",""288572""
","""event"",""trial"",""time""
""focus"",""68"",""288573""
","""event"",""trial"",""time""
""fullscreenenter"",""1"",""9557""
","
","","","","","","null","<div style=""font-size:60px;"">+</div>","null","","fixation","","",""
"memory-trial","145","408244","0.0-18.0-1.50","5737","approach_avoid_sv1","""event"",""trial"",""time""
""fullscreenenter"",""1"",""9557""
""blur"",""68"",""288572""
""focus"",""68"",""288573""
","""event"",""trial"",""time""
""blur"",""68"",""288572""
","""event"",""trial"",""time""
""focus"",""68"",""288573""
","""event"",""trial"",""time""
""fullscreenenter"",""1"",""9557""
","
","","","","","","1324.6000000000931","images/orange2.png","","","memory_trial","2","maybe_old",""
"html-keyboard-response","146","408749","0.0-18.0-0.51","5737","approach_avoid_sv1","""event"",""trial"",""time""
""fullscreenenter"",""1"",""9557""
""blur"",""68"",""288572""
""focus"",""68"",""288573""
","""event"",""trial"",""time""
""blur"",""68"",""288572""
","""event"",""trial"",""time""
""focus"",""68"",""288573""
","""event"",""trial"",""time""
""fullscreenenter"",""1"",""9557""
","
","","","","","","null","<div style=""font-size:60px;"">+</div>","null","","fixation","","",""
"memory-trial","147","411245","0.0-18.0-1.51","5737","approach_avoid_sv1","""event"",""trial"",""time""
""fullscreenenter"",""1"",""9557""
""blur"",""68"",""288572""
""focus"",""68"",""288573""
","""event"",""trial"",""time""
""blur"",""68"",""288572""
","""event"",""trial"",""time""
""focus"",""68"",""288573""
","""event"",""trial"",""time""
""fullscreenenter"",""1"",""9557""
","
","","","","","","1492.0999999998603","images/sheep5.png","","","memory_trial","4","definitely_new",""
"html-keyboard-response","148","411750","0.0-18.0-0.52","5737","approach_avoid_sv1","""event"",""trial"",""time""
""fullscreenenter"",""1"",""9557""
""blur"",""68"",""288572""
""focus"",""68"",""288573""
","""event"",""trial"",""time""
""blur"",""68"",""288572""
","""event"",""trial"",""time""
""focus"",""68"",""288573""
","""event"",""trial"",""time""
""fullscreenenter"",""1"",""9557""
","
","","","","","","null","<div style=""font-size:60px;"">+</div>","null","","fixation","","",""
"memory-trial","149","414363","0.0-18.0-1.52","5737","approach_avoid_sv1","""event"",""trial"",""time""
""fullscreenenter"",""1"",""9557""
""blur"",""68"",""288572""
""focus"",""68"",""288573""
","""event"",""trial"",""time""
""blur"",""68"",""288572""
","""event"",""trial"",""time""
""focus"",""68"",""288573""
","""event"",""trial"",""time""
""fullscreenenter"",""1"",""9557""
","
","","","","","","1611.5","images/flower5.png","","","memory_trial","1","definitely_old",""
"html-keyboard-response","150","414868","0.0-18.0-0.53","5737","approach_avoid_sv1","""event"",""trial"",""time""
""fullscreenenter"",""1"",""9557""
""blur"",""68"",""288572""
""focus"",""68"",""288573""
","""event"",""trial"",""time""
""blur"",""68"",""288572""
","""event"",""trial"",""time""
""focus"",""68"",""288573""
","""event"",""trial"",""time""
""fullscreenenter"",""1"",""9557""
","
","","","","","","null","<div style=""font-size:60px;"">+</div>","null","","fixation","","",""
"memory-trial","151","417381","0.0-18.0-1.53","5737","approach_avoid_sv1","""event"",""trial"",""time""
""fullscreenenter"",""1"",""9557""
""blur"",""68"",""288572""
""focus"",""68"",""288573""
","""event"",""trial"",""time""
""blur"",""68"",""288572""
","""event"",""trial"",""time""
""focus"",""68"",""288573""
","""event"",""trial"",""time""
""fullscreenenter"",""1"",""9557""
","
","","","","","","1508.6999999999534","images/straw8.png","","","memory_trial","2","maybe_old",""
"html-keyboard-response","152","417886","0.0-18.0-0.54","5737","approach_avoid_sv1","""event"",""trial"",""time""
""fullscreenenter"",""1"",""9557""
""blur"",""68"",""288572""
""focus"",""68"",""288573""
","""event"",""trial"",""time""
""blur"",""68"",""288572""
","""event"",""trial"",""time""
""focus"",""68"",""288573""
","""event"",""trial"",""time""
""fullscreenenter"",""1"",""9557""
","
","","","","","","null","<div style=""font-size:60px;"">+</div>","null","","fixation","","",""
"memory-trial","153","419959","0.0-18.0-1.54","5737","approach_avoid_sv1","""event"",""trial"",""time""
""fullscreenenter"",""1"",""9557""
""blur"",""68"",""288572""
""focus"",""68"",""288573""
","""event"",""trial"",""time""
""blur"",""68"",""288572""
","""event"",""trial"",""time""
""focus"",""68"",""288573""
","""event"",""trial"",""time""
""fullscreenenter"",""1"",""9557""
","
","","","","","","1070.1999999999534","images/chair1.png","","","memory_trial","3","maybe_new",""
"html-keyboard-response","154","420464","0.0-18.0-0.55","5737","approach_avoid_sv1","""event"",""trial"",""time""
""fullscreenenter"",""1"",""9557""
""blur"",""68"",""288572""
""focus"",""68"",""288573""
","""event"",""trial"",""time""
""blur"",""68"",""288572""
","""event"",""trial"",""time""
""focus"",""68"",""288573""
","""event"",""trial"",""time""
""fullscreenenter"",""1"",""9557""
","
","","","","","","null","<div style=""font-size:60px;"">+</div>","null","","fixation","","",""
"memory-trial","155","423349","0.0-18.0-1.55","5737","approach_avoid_sv1","""event"",""trial"",""time""
""fullscreenenter"",""1"",""9557""
""blur"",""68"",""288572""
""focus"",""68"",""288573""
","""event"",""trial"",""time""
""blur"",""68"",""288572""
","""event"",""trial"",""time""
""focus"",""68"",""288573""
","""event"",""trial"",""time""
""fullscreenenter"",""1"",""9557""
","
","","","","","","1883.5","images/table6.png","","","memory_trial","1","definitely_old",""
"html-keyboard-response","156","423854","0.0-18.0-0.56","5737","approach_avoid_sv1","""event"",""trial"",""time""
""fullscreenenter"",""1"",""9557""
""blur"",""68"",""288572""
""focus"",""68"",""288573""
","""event"",""trial"",""time""
""blur"",""68"",""288572""
","""event"",""trial"",""time""
""focus"",""68"",""288573""
","""event"",""trial"",""time""
""fullscreenenter"",""1"",""9557""
","
","","","","","","null","<div style=""font-size:60px;"">+</div>","null","","fixation","","",""
"memory-trial","157","426321","0.0-18.0-1.56","5737","approach_avoid_sv1","""event"",""trial"",""time""
""fullscreenenter"",""1"",""9557""
""blur"",""68"",""288572""
""focus"",""68"",""288573""
","""event"",""trial"",""time""
""blur"",""68"",""288572""
","""event"",""trial"",""time""
""focus"",""68"",""288573""
","""event"",""trial"",""time""
""fullscreenenter"",""1"",""9557""
","
","","","","","","1463.5999999998603","images/horse5.png","","","memory_trial","1","definitely_old",""
"html-keyboard-response","158","426826","0.0-18.0-0.57","5737","approach_avoid_sv1","""event"",""trial"",""time""
""fullscreenenter"",""1"",""9557""
""blur"",""68"",""288572""
""focus"",""68"",""288573""
","""event"",""trial"",""time""
""blur"",""68"",""288572""
","""event"",""trial"",""time""
""focus"",""68"",""288573""
","""event"",""trial"",""time""
""fullscreenenter"",""1"",""9557""
","
","","","","","","null","<div style=""font-size:60px;"">+</div>","null","","fixation","","",""
"memory-trial","159","429229","0.0-18.0-1.57","5737","approach_avoid_sv1","""event"",""trial"",""time""
""fullscreenenter"",""1"",""9557""
""blur"",""68"",""288572""
""focus"",""68"",""288573""
","""event"",""trial"",""time""
""blur"",""68"",""288572""
","""event"",""trial"",""time""
""focus"",""68"",""288573""
","""event"",""trial"",""time""
""fullscreenenter"",""1"",""9557""
","
","","","","","","1401.0999999998603","images/table8.png","","","memory_trial","4","definitely_new",""
"html-keyboard-response","160","429734","0.0-18.0-0.58","5737","approach_avoid_sv1","""event"",""trial"",""time""
""fullscreenenter"",""1"",""9557""
""blur"",""68"",""288572""
""focus"",""68"",""288573""
","""event"",""trial"",""time""
""blur"",""68"",""288572""
","""event"",""trial"",""time""
""focus"",""68"",""288573""
","""event"",""trial"",""time""
""fullscreenenter"",""1"",""9557""
","
","","","","","","null","<div style=""font-size:60px;"">+</div>","null","","fixation","","",""
"memory-trial","161","432172","0.0-18.0-1.58","5737","approach_avoid_sv1","""event"",""trial"",""time""
""fullscreenenter"",""1"",""9557""
""blur"",""68"",""288572""
""focus"",""68"",""288573""
","""event"",""trial"",""time""
""blur"",""68"",""288572""
","""event"",""trial"",""time""
""focus"",""68"",""288573""
","""event"",""trial"",""time""
""fullscreenenter"",""1"",""9557""
","
","","","","","","1433.4000000001397","images/cat1.png","","","memory_trial","1","definitely_old",""
"html-keyboard-response","162","432677","0.0-18.0-0.59","5737","approach_avoid_sv1","""event"",""trial"",""time""
""fullscreenenter"",""1"",""9557""
""blur"",""68"",""288572""
""focus"",""68"",""288573""
","""event"",""trial"",""time""
""blur"",""68"",""288572""
","""event"",""trial"",""time""
""focus"",""68"",""288573""
","""event"",""trial"",""time""
""fullscreenenter"",""1"",""9557""
","
","","","","","","null","<div style=""font-size:60px;"">+</div>","null","","fixation","","",""
"memory-trial","163","436027","0.0-18.0-1.59","5737","approach_avoid_sv1","""event"",""trial"",""time""
""fullscreenenter"",""1"",""9557""
""blur"",""68"",""288572""
""focus"",""68"",""288573""
","""event"",""trial"",""time""
""blur"",""68"",""288572""
","""event"",""trial"",""time""
""focus"",""68"",""288573""
","""event"",""trial"",""time""
""fullscreenenter"",""1"",""9557""
","
","","","","","","2345.1999999999534","images/apple5.png","","","memory_trial","1","definitely_old",""
"html-keyboard-response","164","436532","0.0-18.0-0.60","5737","approach_avoid_sv1","""event"",""trial"",""time""
""fullscreenenter"",""1"",""9557""
""blur"",""68"",""288572""
""focus"",""68"",""288573""
","""event"",""trial"",""time""
""blur"",""68"",""288572""
","""event"",""trial"",""time""
""focus"",""68"",""288573""
","""event"",""trial"",""time""
""fullscreenenter"",""1"",""9557""
","
","","","","","","null","<div style=""font-size:60px;"">+</div>","null","","fixation","","",""
"memory-trial","165","438457","0.0-18.0-1.60","5737","approach_avoid_sv1","""event"",""trial"",""time""
""fullscreenenter"",""1"",""9557""
""blur"",""68"",""288572""
""focus"",""68"",""288573""
","""event"",""trial"",""time""
""blur"",""68"",""288572""
","""event"",""trial"",""time""
""focus"",""68"",""288573""
","""event"",""trial"",""time""
""fullscreenenter"",""1"",""9557""
","
","","","","","","921","images/horse1.png","","","memory_trial","1","definitely_old",""
"html-keyboard-response","166","438958","0.0-18.0-0.61","5737","approach_avoid_sv1","""event"",""trial"",""time""
""fullscreenenter"",""1"",""9557""
""blur"",""68"",""288572""
""focus"",""68"",""288573""
","""event"",""trial"",""time""
""blur"",""68"",""288572""
","""event"",""trial"",""time""
""focus"",""68"",""288573""
","""event"",""trial"",""time""
""fullscreenenter"",""1"",""9557""
","
","","","","","","null","<div style=""font-size:60px;"">+</div>","null","","fixation","","",""
"memory-trial","167","440601","0.0-18.0-1.61","5737","approach_avoid_sv1","""event"",""trial"",""time""
""fullscreenenter"",""1"",""9557""
""blur"",""68"",""288572""
""focus"",""68"",""288573""
","""event"",""trial"",""time""
""blur"",""68"",""288572""
","""event"",""trial"",""time""
""focus"",""68"",""288573""
","""event"",""trial"",""time""
""fullscreenenter"",""1"",""9557""
","
","","","","","","639.6000000000931","images/banana4.png","","","memory_trial","1","definitely_old",""
"html-keyboard-response","168","441106","0.0-18.0-0.62","5737","approach_avoid_sv1","""event"",""trial"",""time""
""fullscreenenter"",""1"",""9557""
""blur"",""68"",""288572""
""focus"",""68"",""288573""
","""event"",""trial"",""time""
""blur"",""68"",""288572""
","""event"",""trial"",""time""
""focus"",""68"",""288573""
","""event"",""trial"",""time""
""fullscreenenter"",""1"",""9557""
","
","","","","","","null","<div style=""font-size:60px;"">+</div>","null","","fixation","","",""
"memory-trial","169","443060","0.0-18.0-1.62","5737","approach_avoid_sv1","""event"",""trial"",""time""
""fullscreenenter"",""1"",""9557""
""blur"",""68"",""288572""
""focus"",""68"",""288573""
","""event"",""trial"",""time""
""blur"",""68"",""288572""
","""event"",""trial"",""time""
""focus"",""68"",""288573""
","""event"",""trial"",""time""
""fullscreenenter"",""1"",""9557""
","
","","","","","","951.8000000000466","images/plane8.png","","","memory_trial","1","definitely_old",""
"html-keyboard-response","170","443562","0.0-18.0-0.63","5737","approach_avoid_sv1","""event"",""trial"",""time""
""fullscreenenter"",""1"",""9557""
""blur"",""68"",""288572""
""focus"",""68"",""288573""
","""event"",""trial"",""time""
""blur"",""68"",""288572""
","""event"",""trial"",""time""
""focus"",""68"",""288573""
","""event"",""trial"",""time""
""fullscreenenter"",""1"",""9557""
","
","","","","","","null","<div style=""font-size:60px;"">+</div>","null","","fixation","","",""
"memory-trial","171","445883","0.0-18.0-1.63","5737","approach_avoid_sv1","""event"",""trial"",""time""
""fullscreenenter"",""1"",""9557""
""blur"",""68"",""288572""
""focus"",""68"",""288573""
","""event"",""trial"",""time""
""blur"",""68"",""288572""
","""event"",""trial"",""time""
""focus"",""68"",""288573""
","""event"",""trial"",""time""
""fullscreenenter"",""1"",""9557""
","
","","","","","","1316.9000000001397","images/sofa1.png","","","memory_trial","4","definitely_new",""
"html-keyboard-response","172","446389","0.0-18.0-0.64","5737","approach_avoid_sv1","""event"",""trial"",""time""
""fullscreenenter"",""1"",""9557""
""blur"",""68"",""288572""
""focus"",""68"",""288573""
","""event"",""trial"",""time""
""blur"",""68"",""288572""
","""event"",""trial"",""time""
""focus"",""68"",""288573""
","""event"",""trial"",""time""
""fullscreenenter"",""1"",""9557""
","
","","","","","","null","<div style=""font-size:60px;"">+</div>","null","","fixation","","",""
"memory-trial","173","448507","0.0-18.0-1.64","5737","approach_avoid_sv1","""event"",""trial"",""time""
""fullscreenenter"",""1"",""9557""
""blur"",""68"",""288572""
""focus"",""68"",""288573""
","""event"",""trial"",""time""
""blur"",""68"",""288572""
","""event"",""trial"",""time""
""focus"",""68"",""288573""
","""event"",""trial"",""time""
""fullscreenenter"",""1"",""9557""
","
","","","","","","1114.5","images/table7.png","","","memory_trial","4","definitely_new",""
"html-keyboard-response","174","449013","0.0-18.0-0.65","5737","approach_avoid_sv1","""event"",""trial"",""time""
""fullscreenenter"",""1"",""9557""
""blur"",""68"",""288572""
""focus"",""68"",""288573""
","""event"",""trial"",""time""
""blur"",""68"",""288572""
","""event"",""trial"",""time""
""focus"",""68"",""288573""
","""event"",""trial"",""time""
""fullscreenenter"",""1"",""9557""
","
","","","","","","null","<div style=""font-size:60px;"">+</div>","null","","fixation","","",""
"memory-trial","175","451417","0.0-18.0-1.65","5737","approach_avoid_sv1","""event"",""trial"",""time""
""fullscreenenter"",""1"",""9557""
""blur"",""68"",""288572""
""focus"",""68"",""288573""
","""event"",""trial"",""time""
""blur"",""68"",""288572""
","""event"",""trial"",""time""
""focus"",""68"",""288573""
","""event"",""trial"",""time""
""fullscreenenter"",""1"",""9557""
","
","","","","","","1400.3000000000466","images/dog2.png","","","memory_trial","1","definitely_old",""
"html-keyboard-response","176","451921","0.0-18.0-0.66","5737","approach_avoid_sv1","""event"",""trial"",""time""
""fullscreenenter"",""1"",""9557""
""blur"",""68"",""288572""
""focus"",""68"",""288573""
","""event"",""trial"",""time""
""blur"",""68"",""288572""
","""event"",""trial"",""time""
""focus"",""68"",""288573""
","""event"",""trial"",""time""
""fullscreenenter"",""1"",""9557""
","
","","","","","","null","<div style=""font-size:60px;"">+</div>","null","","fixation","","",""
"memory-trial","177","454521","0.0-18.0-1.66","5737","approach_avoid_sv1","""event"",""trial"",""time""
""fullscreenenter"",""1"",""9557""
""blur"",""68"",""288572""
""focus"",""68"",""288573""
","""event"",""trial"",""time""
""blur"",""68"",""288572""
","""event"",""trial"",""time""
""focus"",""68"",""288573""
","""event"",""trial"",""time""
""fullscreenenter"",""1"",""9557""
","
","","","","","","1597.3000000000466","images/boat8.png","","","memory_trial","4","definitely_new",""
"html-keyboard-response","178","455025","0.0-18.0-0.67","5737","approach_avoid_sv1","""event"",""trial"",""time""
""fullscreenenter"",""1"",""9557""
""blur"",""68"",""288572""
""focus"",""68"",""288573""
","""event"",""trial"",""time""
""blur"",""68"",""288572""
","""event"",""trial"",""time""
""focus"",""68"",""288573""
","""event"",""trial"",""time""
""fullscreenenter"",""1"",""9557""
","
","","","","","","null","<div style=""font-size:60px;"">+</div>","null","","fixation","","",""
"memory-trial","179","457285","0.0-18.0-1.67","5737","approach_avoid_sv1","""event"",""trial"",""time""
""fullscreenenter"",""1"",""9557""
""blur"",""68"",""288572""
""focus"",""68"",""288573""
","""event"",""trial"",""time""
""blur"",""68"",""288572""
","""event"",""trial"",""time""
""focus"",""68"",""288573""
","""event"",""trial"",""time""
""fullscreenenter"",""1"",""9557""
","
","","","","","","1253.7999999998137","images/train1.png","","","memory_trial","1","definitely_old",""
"html-keyboard-response","180","457790","0.0-18.0-0.68","5737","approach_avoid_sv1","""event"",""trial"",""time""
""fullscreenenter"",""1"",""9557""
""blur"",""68"",""288572""
""focus"",""68"",""288573""
","""event"",""trial"",""time""
""blur"",""68"",""288572""
","""event"",""trial"",""time""
""focus"",""68"",""288573""
","""event"",""trial"",""time""
""fullscreenenter"",""1"",""9557""
","
","","","","","","null","<div style=""font-size:60px;"">+</div>","null","","fixation","","",""
"memory-trial","181","461992","0.0-18.0-1.68","5737","approach_avoid_sv1","""event"",""trial"",""time""
""fullscreenenter"",""1"",""9557""
""blur"",""68"",""288572""
""focus"",""68"",""288573""
","""event"",""trial"",""time""
""blur"",""68"",""288572""
","""event"",""trial"",""time""
""focus"",""68"",""288573""
","""event"",""trial"",""time""
""fullscreenenter"",""1"",""9557""
","
","","","","","","3198.1999999999534","images/rabbit4.png","","","memory_trial","4","definitely_new",""
"html-keyboard-response","182","462498","0.0-18.0-0.69","5737","approach_avoid_sv1","""event"",""trial"",""time""
""fullscreenenter"",""1"",""9557""
""blur"",""68"",""288572""
""focus"",""68"",""288573""
","""event"",""trial"",""time""
""blur"",""68"",""288572""
","""event"",""trial"",""time""
""focus"",""68"",""288573""
","""event"",""trial"",""time""
""fullscreenenter"",""1"",""9557""
","
","","","","","","null","<div style=""font-size:60px;"">+</div>","null","","fixation","","",""
"memory-trial","183","464662","0.0-18.0-1.69","5737","approach_avoid_sv1","""event"",""trial"",""time""
""fullscreenenter"",""1"",""9557""
""blur"",""68"",""288572""
""focus"",""68"",""288573""
","""event"",""trial"",""time""
""blur"",""68"",""288572""
","""event"",""trial"",""time""
""focus"",""68"",""288573""
","""event"",""trial"",""time""
""fullscreenenter"",""1"",""9557""
","
","","","","","","1160.9000000001397","images/bush1.png","","","memory_trial","4","definitely_new",""
"html-keyboard-response","184","465168","0.0-18.0-0.70","5737","approach_avoid_sv1","""event"",""trial"",""time""
""fullscreenenter"",""1"",""9557""
""blur"",""68"",""288572""
""focus"",""68"",""288573""
","""event"",""trial"",""time""
""blur"",""68"",""288572""
","""event"",""trial"",""time""
""focus"",""68"",""288573""
","""event"",""trial"",""time""
""fullscreenenter"",""1"",""9557""
","
","","","","","","null","<div style=""font-size:60px;"">+</div>","null","","fixation","","",""
"memory-trial","185","467200","0.0-18.0-1.70","5737","approach_avoid_sv1","""event"",""trial"",""time""
""fullscreenenter"",""1"",""9557""
""blur"",""68"",""288572""
""focus"",""68"",""288573""
","""event"",""trial"",""time""
""blur"",""68"",""288572""
","""event"",""trial"",""time""
""focus"",""68"",""288573""
","""event"",""trial"",""time""
""fullscreenenter"",""1"",""9557""
","
","","","","","","1025.8000000000466","images/bed8.png","","","memory_trial","1","definitely_old",""
"html-keyboard-response","186","467705","0.0-18.0-0.71","5737","approach_avoid_sv1","""event"",""trial"",""time""
""fullscreenenter"",""1"",""9557""
""blur"",""68"",""288572""
""focus"",""68"",""288573""
","""event"",""trial"",""time""
""blur"",""68"",""288572""
","""event"",""trial"",""time""
""focus"",""68"",""288573""
","""event"",""trial"",""time""
""fullscreenenter"",""1"",""9557""
","
","","","","","","null","<div style=""font-size:60px;"">+</div>","null","","fixation","","",""
"memory-trial","187","469986","0.0-18.0-1.71","5737","approach_avoid_sv1","""event"",""trial"",""time""
""fullscreenenter"",""1"",""9557""
""blur"",""68"",""288572""
""focus"",""68"",""288573""
","""event"",""trial"",""time""
""blur"",""68"",""288572""
","""event"",""trial"",""time""
""focus"",""68"",""288573""
","""event"",""trial"",""time""
""fullscreenenter"",""1"",""9557""
","
","","","","","","1279.1000000000931","images/goat5.png","","","memory_trial","4","definitely_new",""
"html-keyboard-response","188","470491","0.0-18.0-0.72","5737","approach_avoid_sv1","""event"",""trial"",""time""
""fullscreenenter"",""1"",""9557""
""blur"",""68"",""288572""
""focus"",""68"",""288573""
","""event"",""trial"",""time""
""blur"",""68"",""288572""
","""event"",""trial"",""time""
""focus"",""68"",""288573""
","""event"",""trial"",""time""
""fullscreenenter"",""1"",""9557""
","
","","","","","","null","<div style=""font-size:60px;"">+</div>","null","","fixation","","",""
"memory-trial","189","472656","0.0-18.0-1.72","5737","approach_avoid_sv1","""event"",""trial"",""time""
""fullscreenenter"",""1"",""9557""
""blur"",""68"",""288572""
""focus"",""68"",""288573""
","""event"",""trial"",""time""
""blur"",""68"",""288572""
","""event"",""trial"",""time""
""focus"",""68"",""288573""
","""event"",""trial"",""time""
""fullscreenenter"",""1"",""9557""
","
","","","","","","1163.3999999999069","images/boat7.png","","","memory_trial","4","definitely_new",""
"html-keyboard-response","190","473161","0.0-18.0-0.73","5737","approach_avoid_sv1","""event"",""trial"",""time""
""fullscreenenter"",""1"",""9557""
""blur"",""68"",""288572""
""focus"",""68"",""288573""
","""event"",""trial"",""time""
""blur"",""68"",""288572""
","""event"",""trial"",""time""
""focus"",""68"",""288573""
","""event"",""trial"",""time""
""fullscreenenter"",""1"",""9557""
","
","","","","","","null","<div style=""font-size:60px;"">+</div>","null","","fixation","","",""
"memory-trial","191","475071","0.0-18.0-1.73","5737","approach_avoid_sv1","""event"",""trial"",""time""
""fullscreenenter"",""1"",""9557""
""blur"",""68"",""288572""
""focus"",""68"",""288573""
","""event"",""trial"",""time""
""blur"",""68"",""288572""
","""event"",""trial"",""time""
""focus"",""68"",""288573""
","""event"",""trial"",""time""
""fullscreenenter"",""1"",""9557""
","
","","","","","","907.8000000000466","images/boat4.png","","","memory_trial","4","definitely_new",""
"html-keyboard-response","192","475576","0.0-18.0-0.74","5737","approach_avoid_sv1","""event"",""trial"",""time""
""fullscreenenter"",""1"",""9557""
""blur"",""68"",""288572""
""focus"",""68"",""288573""
","""event"",""trial"",""time""
""blur"",""68"",""288572""
","""event"",""trial"",""time""
""focus"",""68"",""288573""
","""event"",""trial"",""time""
""fullscreenenter"",""1"",""9557""
","
","","","","","","null","<div style=""font-size:60px;"">+</div>","null","","fixation","","",""
"memory-trial","193","477968","0.0-18.0-1.74","5737","approach_avoid_sv1","""event"",""trial"",""time""
""fullscreenenter"",""1"",""9557""
""blur"",""68"",""288572""
""focus"",""68"",""288573""
","""event"",""trial"",""time""
""blur"",""68"",""288572""
","""event"",""trial"",""time""
""focus"",""68"",""288573""
","""event"",""trial"",""time""
""fullscreenenter"",""1"",""9557""
","
","","","","","","1388.2000000001863","images/train5.png","","","memory_trial","2","maybe_old",""
"html-keyboard-response","194","478473","0.0-18.0-0.75","5737","approach_avoid_sv1","""event"",""trial"",""time""
""fullscreenenter"",""1"",""9557""
""blur"",""68"",""288572""
""focus"",""68"",""288573""
","""event"",""trial"",""time""
""blur"",""68"",""288572""
","""event"",""trial"",""time""
""focus"",""68"",""288573""
","""event"",""trial"",""time""
""fullscreenenter"",""1"",""9557""
","
","","","","","","null","<div style=""font-size:60px;"">+</div>","null","","fixation","","",""
"memory-trial","195","480621","0.0-18.0-1.75","5737","approach_avoid_sv1","""event"",""trial"",""time""
""fullscreenenter"",""1"",""9557""
""blur"",""68"",""288572""
""focus"",""68"",""288573""
","""event"",""trial"",""time""
""blur"",""68"",""288572""
","""event"",""trial"",""time""
""focus"",""68"",""288573""
","""event"",""trial"",""time""
""fullscreenenter"",""1"",""9557""
","
","","","","","","1146.3000000000466","images/cactus4.png","","","memory_trial","1","definitely_old",""
"html-keyboard-response","196","481126","0.0-18.0-0.76","5737","approach_avoid_sv1","""event"",""trial"",""time""
""fullscreenenter"",""1"",""9557""
""blur"",""68"",""288572""
""focus"",""68"",""288573""
","""event"",""trial"",""time""
""blur"",""68"",""288572""
","""event"",""trial"",""time""
""focus"",""68"",""288573""
","""event"",""trial"",""time""
""fullscreenenter"",""1"",""9557""
","
","","","","","","null","<div style=""font-size:60px;"">+</div>","null","","fixation","","",""
"memory-trial","197","484267","0.0-18.0-1.76","5737","approach_avoid_sv1","""event"",""trial"",""time""
""fullscreenenter"",""1"",""9557""
""blur"",""68"",""288572""
""focus"",""68"",""288573""
","""event"",""trial"",""time""
""blur"",""68"",""288572""
","""event"",""trial"",""time""
""focus"",""68"",""288573""
","""event"",""trial"",""time""
""fullscreenenter"",""1"",""9557""
","
","","","","","","2139.5","images/sofa4.png","","","memory_trial","4","definitely_new",""
"html-keyboard-response","198","484771","0.0-18.0-0.77","5737","approach_avoid_sv1","""event"",""trial"",""time""
""fullscreenenter"",""1"",""9557""
""blur"",""68"",""288572""
""focus"",""68"",""288573""
","""event"",""trial"",""time""
""blur"",""68"",""288572""
","""event"",""trial"",""time""
""focus"",""68"",""288573""
","""event"",""trial"",""time""
""fullscreenenter"",""1"",""9557""
","
","","","","","","null","<div style=""font-size:60px;"">+</div>","null","","fixation","","",""
"memory-trial","199","486861","0.0-18.0-1.77","5737","approach_avoid_sv1","""event"",""trial"",""time""
""fullscreenenter"",""1"",""9557""
""blur"",""68"",""288572""
""focus"",""68"",""288573""
","""event"",""trial"",""time""
""blur"",""68"",""288572""
","""event"",""trial"",""time""
""focus"",""68"",""288573""
","""event"",""trial"",""time""
""fullscreenenter"",""1"",""9557""
","
","","","","","","1088.6999999999534","images/bush7.png","","","memory_trial","4","definitely_new",""
"html-keyboard-response","200","487366","0.0-18.0-0.78","5737","approach_avoid_sv1","""event"",""trial"",""time""
""fullscreenenter"",""1"",""9557""
""blur"",""68"",""288572""
""focus"",""68"",""288573""
","""event"",""trial"",""time""
""blur"",""68"",""288572""
","""event"",""trial"",""time""
""focus"",""68"",""288573""
","""event"",""trial"",""time""
""fullscreenenter"",""1"",""9557""
","
","","","","","","null","<div style=""font-size:60px;"">+</div>","null","","fixation","","",""
"memory-trial","201","489880","0.0-18.0-1.78","5737","approach_avoid_sv1","""event"",""trial"",""time""
""fullscreenenter"",""1"",""9557""
""blur"",""68"",""288572""
""focus"",""68"",""288573""
","""event"",""trial"",""time""
""blur"",""68"",""288572""
","""event"",""trial"",""time""
""focus"",""68"",""288573""
","""event"",""trial"",""time""
""fullscreenenter"",""1"",""9557""
","
","","","","","","1509.1000000000931","images/dog5.png","","","memory_trial","1","definitely_old",""
"html-keyboard-response","202","490385","0.0-18.0-0.79","5737","approach_avoid_sv1","""event"",""trial"",""time""
""fullscreenenter"",""1"",""9557""
""blur"",""68"",""288572""
""focus"",""68"",""288573""
","""event"",""trial"",""time""
""blur"",""68"",""288572""
","""event"",""trial"",""time""
""focus"",""68"",""288573""
","""event"",""trial"",""time""
""fullscreenenter"",""1"",""9557""
","
","","","","","","null","<div style=""font-size:60px;"">+</div>","null","","fixation","","",""
"memory-trial","203","492323","0.0-18.0-1.79","5737","approach_avoid_sv1","""event"",""trial"",""time""
""fullscreenenter"",""1"",""9557""
""blur"",""68"",""288572""
""focus"",""68"",""288573""
","""event"",""trial"",""time""
""blur"",""68"",""288572""
","""event"",""trial"",""time""
""focus"",""68"",""288573""
","""event"",""trial"",""time""
""fullscreenenter"",""1"",""9557""
","
","","","","","","935","images/bush3.png","","","memory_trial","4","definitely_new",""
"html-keyboard-response","204","492829","0.0-18.0-0.80","5737","approach_avoid_sv1","""event"",""trial"",""time""
""fullscreenenter"",""1"",""9557""
""blur"",""68"",""288572""
""focus"",""68"",""288573""
","""event"",""trial"",""time""
""blur"",""68"",""288572""
","""event"",""trial"",""time""
""focus"",""68"",""288573""
","""event"",""trial"",""time""
""fullscreenenter"",""1"",""9557""
","
","","","","","","null","<div style=""font-size:60px;"">+</div>","null","","fixation","","",""
"memory-trial","205","494920","0.0-18.0-1.80","5737","approach_avoid_sv1","""event"",""trial"",""time""
""fullscreenenter"",""1"",""9557""
""blur"",""68"",""288572""
""focus"",""68"",""288573""
","""event"",""trial"",""time""
""blur"",""68"",""288572""
","""event"",""trial"",""time""
""focus"",""68"",""288573""
","""event"",""trial"",""time""
""fullscreenenter"",""1"",""9557""
","
","","","","","","1087.1999999999534","images/cactus1.png","","","memory_trial","2","maybe_old",""
"html-keyboard-response","206","495424","0.0-18.0-0.81","5737","approach_avoid_sv1","""event"",""trial"",""time""
""fullscreenenter"",""1"",""9557""
""blur"",""68"",""288572""
""focus"",""68"",""288573""
","""event"",""trial"",""time""
""blur"",""68"",""288572""
","""event"",""trial"",""time""
""focus"",""68"",""288573""
","""event"",""trial"",""time""
""fullscreenenter"",""1"",""9557""
","
","","","","","","null","<div style=""font-size:60px;"">+</div>","null","","fixation","","",""
"memory-trial","207","497455","0.0-18.0-1.81","5737","approach_avoid_sv1","""event"",""trial"",""time""
""fullscreenenter"",""1"",""9557""
""blur"",""68"",""288572""
""focus"",""68"",""288573""
","""event"",""trial"",""time""
""blur"",""68"",""288572""
","""event"",""trial"",""time""
""focus"",""68"",""288573""
","""event"",""trial"",""time""
""fullscreenenter"",""1"",""9557""
","
","","","","","","1027","images/cactus5.png","","","memory_trial","1","definitely_old",""
"html-keyboard-response","208","497960","0.0-18.0-0.82","5737","approach_avoid_sv1","""event"",""trial"",""time""
""fullscreenenter"",""1"",""9557""
""blur"",""68"",""288572""
""focus"",""68"",""288573""
","""event"",""trial"",""time""
""blur"",""68"",""288572""
","""event"",""trial"",""time""
""focus"",""68"",""288573""
","""event"",""trial"",""time""
""fullscreenenter"",""1"",""9557""
","
","","","","","","null","<div style=""font-size:60px;"">+</div>","null","","fixation","","",""
"memory-trial","209","499946","0.0-18.0-1.82","5737","approach_avoid_sv1","""event"",""trial"",""time""
""fullscreenenter"",""1"",""9557""
""blur"",""68"",""288572""
""focus"",""68"",""288573""
","""event"",""trial"",""time""
""blur"",""68"",""288572""
","""event"",""trial"",""time""
""focus"",""68"",""288573""
","""event"",""trial"",""time""
""fullscreenenter"",""1"",""9557""
","
","","","","","","980.6999999999534","images/plane6.png","","","memory_trial","1","definitely_old",""
"html-keyboard-response","210","500451","0.0-18.0-0.83","5737","approach_avoid_sv1","""event"",""trial"",""time""
""fullscreenenter"",""1"",""9557""
""blur"",""68"",""288572""
""focus"",""68"",""288573""
","""event"",""trial"",""time""
""blur"",""68"",""288572""
","""event"",""trial"",""time""
""focus"",""68"",""288573""
","""event"",""trial"",""time""
""fullscreenenter"",""1"",""9557""
","
","","","","","","null","<div style=""font-size:60px;"">+</div>","null","","fixation","","",""
"memory-trial","211","503695","0.0-18.0-1.83","5737","approach_avoid_sv1","""event"",""trial"",""time""
""fullscreenenter"",""1"",""9557""
""blur"",""68"",""288572""
""focus"",""68"",""288573""
","""event"",""trial"",""time""
""blur"",""68"",""288572""
","""event"",""trial"",""time""
""focus"",""68"",""288573""
","""event"",""trial"",""time""
""fullscreenenter"",""1"",""9557""
","
","","","","","","2239.8000000000466","images/horse7.png","","","memory_trial","4","definitely_new",""
"html-keyboard-response","212","504199","0.0-18.0-0.84","5737","approach_avoid_sv1","""event"",""trial"",""time""
""fullscreenenter"",""1"",""9557""
""blur"",""68"",""288572""
""focus"",""68"",""288573""
","""event"",""trial"",""time""
""blur"",""68"",""288572""
","""event"",""trial"",""time""
""focus"",""68"",""288573""
","""event"",""trial"",""time""
""fullscreenenter"",""1"",""9557""
","
","","","","","","null","<div style=""font-size:60px;"">+</div>","null","","fixation","","",""
"memory-trial","213","506273","0.0-18.0-1.84","5737","approach_avoid_sv1","""event"",""trial"",""time""
""fullscreenenter"",""1"",""9557""
""blur"",""68"",""288572""
""focus"",""68"",""288573""
","""event"",""trial"",""time""
""blur"",""68"",""288572""
","""event"",""trial"",""time""
""focus"",""68"",""288573""
","""event"",""trial"",""time""
""fullscreenenter"",""1"",""9557""
","
","","","","","","1072.5","images/cat5.png","","","memory_trial","1","definitely_old",""
"html-keyboard-response","214","506778","0.0-18.0-0.85","5737","approach_avoid_sv1","""event"",""trial"",""time""
""fullscreenenter"",""1"",""9557""
""blur"",""68"",""288572""
""focus"",""68"",""288573""
","""event"",""trial"",""time""
""blur"",""68"",""288572""
","""event"",""trial"",""time""
""focus"",""68"",""288573""
","""event"",""trial"",""time""
""fullscreenenter"",""1"",""9557""
","
","","","","","","null","<div style=""font-size:60px;"">+</div>","null","","fixation","","",""
"memory-trial","215","508781","0.0-18.0-1.85","5737","approach_avoid_sv1","""event"",""trial"",""time""
""fullscreenenter"",""1"",""9557""
""blur"",""68"",""288572""
""focus"",""68"",""288573""
","""event"",""trial"",""time""
""blur"",""68"",""288572""
","""event"",""trial"",""time""
""focus"",""68"",""288573""
","""event"",""trial"",""time""
""fullscreenenter"",""1"",""9557""
","
","","","","","","998.1999999999534","images/bush5.png","","","memory_trial","4","definitely_new",""
"html-keyboard-response","216","509286","0.0-18.0-0.86","5737","approach_avoid_sv1","""event"",""trial"",""time""
""fullscreenenter"",""1"",""9557""
""blur"",""68"",""288572""
""focus"",""68"",""288573""
","""event"",""trial"",""time""
""blur"",""68"",""288572""
","""event"",""trial"",""time""
""focus"",""68"",""288573""
","""event"",""trial"",""time""
""fullscreenenter"",""1"",""9557""
","
","","","","","","null","<div style=""font-size:60px;"">+</div>","null","","fixation","","",""
"memory-trial","217","512440","0.0-18.0-1.86","5737","approach_avoid_sv1","""event"",""trial"",""time""
""fullscreenenter"",""1"",""9557""
""blur"",""68"",""288572""
""focus"",""68"",""288573""
","""event"",""trial"",""time""
""blur"",""68"",""288572""
","""event"",""trial"",""time""
""focus"",""68"",""288573""
","""event"",""trial"",""time""
""fullscreenenter"",""1"",""9557""
","
","","","","","","2150.9000000001397","images/cow4.png","","","memory_trial","1","definitely_old",""
"html-keyboard-response","218","512945","0.0-18.0-0.87","5737","approach_avoid_sv1","""event"",""trial"",""time""
""fullscreenenter"",""1"",""9557""
""blur"",""68"",""288572""
""focus"",""68"",""288573""
","""event"",""trial"",""time""
""blur"",""68"",""288572""
","""event"",""trial"",""time""
""focus"",""68"",""288573""
","""event"",""trial"",""time""
