"trial_type","trial_index","time_elapsed","internal_node_id","subject_id","task_version","interactions","blur_events","focus_events","fullscreenenter_events","fullscreenexit_events","success","timeout","failed_images","failed_audio","failed_video","rt","stimulus","response","button_pressed","task_part","key_press","answer","correct"
"pavlovia","0","6","0.0-0.0","4267","approach_avoid_sv1","""event"",""trial"",""time""
""focus"",""0"",""0""
""blur"",""1"",""1467""
""focus"",""1"",""1480""
""fullscreenenter"",""1"",""1494""
","""event"",""trial"",""time""
""blur"",""1"",""1467""
","""event"",""trial"",""time""
""focus"",""0"",""0""
""focus"",""1"",""1480""
","""event"",""trial"",""time""
""fullscreenenter"",""1"",""1494""
","
","","","","","","","","","","","","",""
"fullscreen","1","2273","0.0-1.0","4267","approach_avoid_sv1","""event"",""trial"",""time""
""focus"",""0"",""0""
""blur"",""1"",""1467""
""focus"",""1"",""1480""
""fullscreenenter"",""1"",""1494""
","""event"",""trial"",""time""
""blur"",""1"",""1467""
","""event"",""trial"",""time""
""focus"",""0"",""0""
""focus"",""1"",""1480""
","""event"",""trial"",""time""
""fullscreenenter"",""1"",""1494""
","
","true","","","","","","","","","","","",""
"preload","2","4786","0.0-2.0","4267","approach_avoid_sv1","""event"",""trial"",""time""
""focus"",""0"",""0""
""blur"",""1"",""1467""
""focus"",""1"",""1480""
""fullscreenenter"",""1"",""1494""
","""event"",""trial"",""time""
""blur"",""1"",""1467""
","""event"",""trial"",""time""
""focus"",""0"",""0""
""focus"",""1"",""1480""
","""event"",""trial"",""time""
""fullscreenenter"",""1"",""1494""
","
","true","false","[]","[]","[]","","","","","","","",""
"preload","3","8645","0.0-3.0","4267","approach_avoid_sv1","""event"",""trial"",""time""
""focus"",""0"",""0""
""blur"",""1"",""1467""
""focus"",""1"",""1480""
""fullscreenenter"",""1"",""1494""
","""event"",""trial"",""time""
""blur"",""1"",""1467""
","""event"",""trial"",""time""
""focus"",""0"",""0""
""focus"",""1"",""1480""
","""event"",""trial"",""time""
""fullscreenenter"",""1"",""1494""
","
","true","false","[]","[]","[]","","","","","","","",""
"preload","4","9053","0.0-4.0","4267","approach_avoid_sv1","""event"",""trial"",""time""
""focus"",""0"",""0""
""blur"",""1"",""1467""
""focus"",""1"",""1480""
""fullscreenenter"",""1"",""1494""
","""event"",""trial"",""time""
""blur"",""1"",""1467""
","""event"",""trial"",""time""
""focus"",""0"",""0""
""focus"",""1"",""1480""
","""event"",""trial"",""time""
""fullscreenenter"",""1"",""1494""
","
","true","false","[]","[]","[]","","","","","","","",""
"audio-keyboard-response","5","10426","0.0-5.0","4267","approach_avoid_sv1","""event"",""trial"",""time""
""focus"",""0"",""0""
""blur"",""1"",""1467""
""focus"",""1"",""1480""
""fullscreenenter"",""1"",""1494""
","""event"",""trial"",""time""
""blur"",""1"",""1467""
","""event"",""trial"",""time""
""focus"",""0"",""0""
""focus"",""1"",""1480""
","""event"",""trial"",""time""
""fullscreenenter"",""1"",""1494""
","
","","","","","","1376","audio/beep_loop.wav"," ","","","","",""
"audio-button-response","6","11850","0.0-6.0","4267","approach_avoid_sv1","""event"",""trial"",""time""
""focus"",""0"",""0""
""blur"",""1"",""1467""
""focus"",""1"",""1480""
""fullscreenenter"",""1"",""1494""
","""event"",""trial"",""time""
""blur"",""1"",""1467""
","""event"",""trial"",""time""
""focus"",""0"",""0""
""focus"",""1"",""1480""
","""event"",""trial"",""time""
""fullscreenenter"",""1"",""1494""
","
","","","","","","1419","audio/turtle.wav","3","","","","",""
"audio-button-response","7","14133","0.0-7.0","4267","approach_avoid_sv1","""event"",""trial"",""time""
""focus"",""0"",""0""
""blur"",""1"",""1467""
""focus"",""1"",""1480""
""fullscreenenter"",""1"",""1494""
","""event"",""trial"",""time""
""blur"",""1"",""1467""
","""event"",""trial"",""time""
""focus"",""0"",""0""
""focus"",""1"",""1480""
","""event"",""trial"",""time""
""fullscreenenter"",""1"",""1494""
","
","","","","","","1280","audio/shark.wav","2","","","","",""
"preload","8","20390","0.0-8.0","4267","approach_avoid_sv1","""event"",""trial"",""time""
""focus"",""0"",""0""
""blur"",""1"",""1467""
""focus"",""1"",""1480""
""fullscreenenter"",""1"",""1494""
","""event"",""trial"",""time""
""blur"",""1"",""1467""
","""event"",""trial"",""time""
""focus"",""0"",""0""
""focus"",""1"",""1480""
","""event"",""trial"",""time""
""fullscreenenter"",""1"",""1494""
","
","true","false","[]","[]","[]","","","","","","","",""
"learning-instructions","9","25870","0.0-9.0-0.0","4267","approach_avoid_sv1","""event"",""trial"",""time""
""focus"",""0"",""0""
""blur"",""1"",""1467""
""focus"",""1"",""1480""
""fullscreenenter"",""1"",""1494""
","""event"",""trial"",""time""
""blur"",""1"",""1467""
","""event"",""trial"",""time""
""focus"",""0"",""0""
""focus"",""1"",""1480""
","""event"",""trial"",""time""
""fullscreenenter"",""1"",""1494""
","
","","","","","","992","<p> Welcome back! </p><p> Last week, you had to make choices about lots of different items.  </p>","","0","instructions","","",""
"learning-instructions","10","30468","0.0-9.0-0.1","4267","approach_avoid_sv1","""event"",""trial"",""time""
""focus"",""0"",""0""
""blur"",""1"",""1467""
""focus"",""1"",""1480""
""fullscreenenter"",""1"",""1494""
","""event"",""trial"",""time""
""blur"",""1"",""1467""
","""event"",""trial"",""time""
""focus"",""0"",""0""
""focus"",""1"",""1480""
","""event"",""trial"",""time""
""fullscreenenter"",""1"",""1494""
","
","","","","","","480","<p> Today, we are going to ask you to try to remember all the items. </p>","","0","instructions","","",""
"learning-instructions","11","51567","0.0-9.0-0.2","4267","approach_avoid_sv1","""event"",""trial"",""time""
""focus"",""0"",""0""
""blur"",""1"",""1467""
""focus"",""1"",""1480""
""fullscreenenter"",""1"",""1494""
","""event"",""trial"",""time""
""blur"",""1"",""1467""
","""event"",""trial"",""time""
""focus"",""0"",""0""
""focus"",""1"",""1480""
","""event"",""trial"",""time""
""fullscreenenter"",""1"",""1494""
","
","","","","","","10946","<p> On every trial, you will see an image. </p><p> The image may be an OLD image you saw during the games last week or it may be a NEW image that was not presented. </p>","","0","instructions","","",""
"learning-instructions","12","60717","0.0-9.0-0.3","4267","approach_avoid_sv1","""event"",""trial"",""time""
""focus"",""0"",""0""
""blur"",""1"",""1467""
""focus"",""1"",""1480""
""fullscreenenter"",""1"",""1494""
","""event"",""trial"",""time""
""blur"",""1"",""1467""
","""event"",""trial"",""time""
""focus"",""0"",""0""
""focus"",""1"",""1480""
","""event"",""trial"",""time""
""fullscreenenter"",""1"",""1494""
","
","","","","","","638","<p> You need to select whether the image is:  </p><p>  'Definitely old', 'Maybe old', 'Maybe new', or 'Definitely new.'  </p><div class=""mem-choice-instructions-grid""><div class=""choice-option"" id=""choice-option-1"" ><img src=""images/definitely_old_1.png"" id=""choice-option-img-1"" class=""choice-option-img"" stage=""1""></div><div class=""choice-option"" id=""choice-option-2"" ><img src=""images/maybe_old_1.png"" id=""choice-option-img-2"" class=""choice-option-img"" stage=""1""></div><div class=""choice-option"" id=""choice-option-3"" ><img src=""images/maybe_new_1.png"" id=""choice-option-img-3"" class=""choice-option-img"" stage=""1""></div><div class=""choice-option"" id=""choice-option-4"" > <img src=""images/definitely_new_1.png"" id=""choice-option-img-4"" class=""choice-option-img"" stage=""1""></div></div>","","0","instructions","","",""
"learning-instructions","13","67984","0.0-9.0-0.4","4267","approach_avoid_sv1","""event"",""trial"",""time""
""focus"",""0"",""0""
""blur"",""1"",""1467""
""focus"",""1"",""1480""
""fullscreenenter"",""1"",""1494""
","""event"",""trial"",""time""
""blur"",""1"",""1467""
","""event"",""trial"",""time""
""focus"",""0"",""0""
""focus"",""1"",""1480""
","""event"",""trial"",""time""
""fullscreenenter"",""1"",""1494""
","
","","","","","","738","<p> You should use the 1, 2, 3, and 4 keys to make your responses.  </p><div class=""mem-choice-instructions-grid""><div class=""choice-option"" id=""choice-option-1"" ><img src=""images/definitely_old.png"" id=""choice-option-img-1"" class=""choice-option-img"" stage=""1""></div><div class=""choice-option"" id=""choice-option-2"" ><img src=""images/maybe_old.png"" id=""choice-option-img-2"" class=""choice-option-img"" stage=""1""></div><div class=""choice-option"" id=""choice-option-3"" ><img src=""images/maybe_new.png"" id=""choice-option-img-3"" class=""choice-option-img"" stage=""1""></div><div class=""choice-option"" id=""choice-option-4"" > <img src=""images/definitely_new.png"" id=""choice-option-img-4"" class=""choice-option-img"" stage=""1""></div></div>","","0","instructions","","",""
"learning-instructions","14","75267","0.0-9.0-0.5","4267","approach_avoid_sv1","""event"",""trial"",""time""
""focus"",""0"",""0""
""blur"",""1"",""1467""
""focus"",""1"",""1480""
""fullscreenenter"",""1"",""1494""
","""event"",""trial"",""time""
""blur"",""1"",""1467""
","""event"",""trial"",""time""
""focus"",""0"",""0""
""focus"",""1"",""1480""
","""event"",""trial"",""time""
""fullscreenenter"",""1"",""1494""
","
","","","","","","939","<p> You will have 10 seconds to make each response.  </p><p>  Make sure to respond before time runs out! </p>","","0","instructions","","",""
"learning-instructions","15","82834","0.0-9.0-0.6","4267","approach_avoid_sv1","""event"",""trial"",""time""
""focus"",""0"",""0""
""blur"",""1"",""1467""
""focus"",""1"",""1480""
""fullscreenenter"",""1"",""1494""
","""event"",""trial"",""time""
""blur"",""1"",""1467""
","""event"",""trial"",""time""
""focus"",""0"",""0""
""focus"",""1"",""1480""
","""event"",""trial"",""time""
""fullscreenenter"",""1"",""1494""
","
","","","","","","474","<p> Today, you will see each image ONCE only.  </p><p>  That means none of the images will repeat. </p>","","0","instructions","","",""
"learning-instructions","16","96220","0.0-9.0-0.7","4267","approach_avoid_sv1","""event"",""trial"",""time""
""focus"",""0"",""0""
""blur"",""1"",""1467""
""focus"",""1"",""1480""
""fullscreenenter"",""1"",""1494""
","""event"",""trial"",""time""
""blur"",""1"",""1467""
","""event"",""trial"",""time""
""focus"",""0"",""0""
""focus"",""1"",""1480""
","""event"",""trial"",""time""
""fullscreenenter"",""1"",""1494""
","
","","","","","","708","<p> Before you play the real game, it is time to practice. </p><p>  Just like in the real game, some of the images in the practice will be ones you have seen before. </p><p>  Others will be entirely new. </p>","","0","instructions","","",""
"html-button-response","17","97596","0.0-10.0","4267","approach_avoid_sv1","""event"",""trial"",""time""
""focus"",""0"",""0""
""blur"",""1"",""1467""
""focus"",""1"",""1480""
""fullscreenenter"",""1"",""1494""
","""event"",""trial"",""time""
""blur"",""1"",""1467""
","""event"",""trial"",""time""
""focus"",""0"",""0""
""focus"",""1"",""1480""
","""event"",""trial"",""time""
""fullscreenenter"",""1"",""1494""
","
","","","","","","1272","<p> Ready to practice? </p><p> Remember, use the 1, 2, 3, and 4 keys to make your responses. </p>","0","","instructions","","",""
"html-keyboard-response","18","98204","0.0-11.0-0.0","4267","approach_avoid_sv1","""event"",""trial"",""time""
""focus"",""0"",""0""
""blur"",""1"",""1467""
""focus"",""1"",""1480""
""fullscreenenter"",""1"",""1494""
","""event"",""trial"",""time""
""blur"",""1"",""1467""
","""event"",""trial"",""time""
""focus"",""0"",""0""
""focus"",""1"",""1480""
","""event"",""trial"",""time""
""fullscreenenter"",""1"",""1494""
","
","","","","","","null","<div style=""font-size:60px;"">+</div>","null","","fixation","","",""
"memory-trial","19","101512","0.0-11.0-1.0","4267","approach_avoid_sv1","""event"",""trial"",""time""
""focus"",""0"",""0""
""blur"",""1"",""1467""
""focus"",""1"",""1480""
""fullscreenenter"",""1"",""1494""
","""event"",""trial"",""time""
""blur"",""1"",""1467""
","""event"",""trial"",""time""
""focus"",""0"",""0""
""focus"",""1"",""1480""
","""event"",""trial"",""time""
""fullscreenenter"",""1"",""1494""
","
","","","","","","2299","images/ball3.png","","","practice","1","definitely_old",""
"html-keyboard-response","20","102019","0.0-11.0-0.1","4267","approach_avoid_sv1","""event"",""trial"",""time""
""focus"",""0"",""0""
""blur"",""1"",""1467""
""focus"",""1"",""1480""
""fullscreenenter"",""1"",""1494""
","""event"",""trial"",""time""
""blur"",""1"",""1467""
","""event"",""trial"",""time""
""focus"",""0"",""0""
""focus"",""1"",""1480""
","""event"",""trial"",""time""
""fullscreenenter"",""1"",""1494""
","
","","","","","","null","<div style=""font-size:60px;"">+</div>","null","","fixation","","",""
"memory-trial","21","105285","0.0-11.0-1.1","4267","approach_avoid_sv1","""event"",""trial"",""time""
""focus"",""0"",""0""
""blur"",""1"",""1467""
""focus"",""1"",""1480""
""fullscreenenter"",""1"",""1494""
","""event"",""trial"",""time""
""blur"",""1"",""1467""
","""event"",""trial"",""time""
""focus"",""0"",""0""
""focus"",""1"",""1480""
","""event"",""trial"",""time""
""fullscreenenter"",""1"",""1494""
","
","","","","","","2259","images/racket1.png","","","practice","2","maybe_old",""
"html-keyboard-response","22","105791","0.0-11.0-0.2","4267","approach_avoid_sv1","""event"",""trial"",""time""
""focus"",""0"",""0""
""blur"",""1"",""1467""
""focus"",""1"",""1480""
""fullscreenenter"",""1"",""1494""
","""event"",""trial"",""time""
""blur"",""1"",""1467""
","""event"",""trial"",""time""
""focus"",""0"",""0""
""focus"",""1"",""1480""
","""event"",""trial"",""time""
""fullscreenenter"",""1"",""1494""
","
","","","","","","null","<div style=""font-size:60px;"">+</div>","null","","fixation","","",""
"memory-trial","23","107819","0.0-11.0-1.2","4267","approach_avoid_sv1","""event"",""trial"",""time""
""focus"",""0"",""0""
""blur"",""1"",""1467""
""focus"",""1"",""1480""
""fullscreenenter"",""1"",""1494""
","""event"",""trial"",""time""
""blur"",""1"",""1467""
","""event"",""trial"",""time""
""focus"",""0"",""0""
""focus"",""1"",""1480""
","""event"",""trial"",""time""
""fullscreenenter"",""1"",""1494""
","
","","","","","","1020","images/racket3.png","","","practice","1","definitely_old",""
"html-keyboard-response","24","108326","0.0-11.0-0.3","4267","approach_avoid_sv1","""event"",""trial"",""time""
""focus"",""0"",""0""
""blur"",""1"",""1467""
""focus"",""1"",""1480""
""fullscreenenter"",""1"",""1494""
","""event"",""trial"",""time""
""blur"",""1"",""1467""
","""event"",""trial"",""time""
""focus"",""0"",""0""
""focus"",""1"",""1480""
","""event"",""trial"",""time""
""fullscreenenter"",""1"",""1494""
","
","","","","","","null","<div style=""font-size:60px;"">+</div>","null","","fixation","","",""
"memory-trial","25","111594","0.0-11.0-1.3","4267","approach_avoid_sv1","""event"",""trial"",""time""
""focus"",""0"",""0""
""blur"",""1"",""1467""
""focus"",""1"",""1480""
""fullscreenenter"",""1"",""1494""
","""event"",""trial"",""time""
""blur"",""1"",""1467""
","""event"",""trial"",""time""
""focus"",""0"",""0""
""focus"",""1"",""1480""
","""event"",""trial"",""time""
""fullscreenenter"",""1"",""1494""
","
","","","","","","2260","images/ball1.png","","","practice","2","maybe_old",""
"html-keyboard-response","26","112100","0.0-11.0-0.4","4267","approach_avoid_sv1","""event"",""trial"",""time""
""focus"",""0"",""0""
""blur"",""1"",""1467""
""focus"",""1"",""1480""
""fullscreenenter"",""1"",""1494""
","""event"",""trial"",""time""
""blur"",""1"",""1467""
","""event"",""trial"",""time""
""focus"",""0"",""0""
""focus"",""1"",""1480""
","""event"",""trial"",""time""
""fullscreenenter"",""1"",""1494""
","
","","","","","","null","<div style=""font-size:60px;"">+</div>","null","","fixation","","",""
"memory-trial","27","114328","0.0-11.0-1.4","4267","approach_avoid_sv1","""event"",""trial"",""time""
""focus"",""0"",""0""
""blur"",""1"",""1467""
""focus"",""1"",""1480""
""fullscreenenter"",""1"",""1494""
","""event"",""trial"",""time""
""blur"",""1"",""1467""
","""event"",""trial"",""time""
""focus"",""0"",""0""
""focus"",""1"",""1480""
","""event"",""trial"",""time""
""fullscreenenter"",""1"",""1494""
","
","","","","","","1223","images/ball2.png","","","practice","1","definitely_old",""
"html-keyboard-response","28","114834","0.0-11.0-0.5","4267","approach_avoid_sv1","""event"",""trial"",""time""
""focus"",""0"",""0""
""blur"",""1"",""1467""
""focus"",""1"",""1480""
""fullscreenenter"",""1"",""1494""
","""event"",""trial"",""time""
""blur"",""1"",""1467""
","""event"",""trial"",""time""
""focus"",""0"",""0""
""focus"",""1"",""1480""
","""event"",""trial"",""time""
""fullscreenenter"",""1"",""1494""
","
","","","","","","null","<div style=""font-size:60px;"">+</div>","null","","fixation","","",""
"memory-trial","29","117730","0.0-11.0-1.5","4267","approach_avoid_sv1","""event"",""trial"",""time""
""focus"",""0"",""0""
""blur"",""1"",""1467""
""focus"",""1"",""1480""
""fullscreenenter"",""1"",""1494""
","""event"",""trial"",""time""
""blur"",""1"",""1467""
","""event"",""trial"",""time""
""focus"",""0"",""0""
""focus"",""1"",""1480""
","""event"",""trial"",""time""
""fullscreenenter"",""1"",""1494""
","
","","","","","","1890","images/racket5.png","","","practice","4","definitely_new",""
"html-keyboard-response","30","118232","0.0-11.0-0.6","4267","approach_avoid_sv1","""event"",""trial"",""time""
""focus"",""0"",""0""
""blur"",""1"",""1467""
""focus"",""1"",""1480""
""fullscreenenter"",""1"",""1494""
","""event"",""trial"",""time""
""blur"",""1"",""1467""
","""event"",""trial"",""time""
""focus"",""0"",""0""
""focus"",""1"",""1480""
","""event"",""trial"",""time""
""fullscreenenter"",""1"",""1494""
","
","","","","","","null","<div style=""font-size:60px;"">+</div>","null","","fixation","","",""
"memory-trial","31","120418","0.0-11.0-1.6","4267","approach_avoid_sv1","""event"",""trial"",""time""
""focus"",""0"",""0""
""blur"",""1"",""1467""
""focus"",""1"",""1480""
""fullscreenenter"",""1"",""1494""
","""event"",""trial"",""time""
""blur"",""1"",""1467""
","""event"",""trial"",""time""
""focus"",""0"",""0""
""focus"",""1"",""1480""
","""event"",""trial"",""time""
""fullscreenenter"",""1"",""1494""
","
","","","","","","1179","images/ball5.png","","","practice","4","definitely_new",""
"html-keyboard-response","32","120925","0.0-11.0-0.7","4267","approach_avoid_sv1","""event"",""trial"",""time""
""focus"",""0"",""0""
""blur"",""1"",""1467""
""focus"",""1"",""1480""
""fullscreenenter"",""1"",""1494""
","""event"",""trial"",""time""
""blur"",""1"",""1467""
","""event"",""trial"",""time""
""focus"",""0"",""0""
""focus"",""1"",""1480""
","""event"",""trial"",""time""
""fullscreenenter"",""1"",""1494""
","
","","","","","","null","<div style=""font-size:60px;"">+</div>","null","","fixation","","",""
"memory-trial","33","123362","0.0-11.0-1.7","4267","approach_avoid_sv1","""event"",""trial"",""time""
""focus"",""0"",""0""
""blur"",""1"",""1467""
""focus"",""1"",""1480""
""fullscreenenter"",""1"",""1494""
""blur"",""34"",""136398""
""focus"",""34"",""136414""
""fullscreenexit"",""34"",""136461""
""blur"",""34"",""137883""
""focus"",""34"",""174814""
""blur"",""34"",""174840""
""focus"",""34"",""246830""
","""event"",""trial"",""time""
""blur"",""1"",""1467""
""blur"",""34"",""136398""
""blur"",""34"",""137883""
""blur"",""34"",""174840""
","""event"",""trial"",""time""
""focus"",""0"",""0""
""focus"",""1"",""1480""
""focus"",""34"",""136414""
""focus"",""34"",""174814""
""focus"",""34"",""246830""
","""event"",""trial"",""time""
""fullscreenenter"",""1"",""1494""
","""event"",""trial"",""time""
""fullscreenexit"",""34"",""136461""
","","","","","","1435","images/racket2.png","","","practice","3","maybe_new",""
"learning-instructions","34","248230","0.0-12.0-0.0","4267","approach_avoid_sv1","""event"",""trial"",""time""
""focus"",""0"",""0""
""blur"",""1"",""1467""
""focus"",""1"",""1480""
""fullscreenenter"",""1"",""1494""
""blur"",""34"",""136398""
""focus"",""34"",""136414""
""fullscreenexit"",""34"",""136461""
""blur"",""34"",""137883""
""focus"",""34"",""174814""
""blur"",""34"",""174840""
""focus"",""34"",""246830""
","""event"",""trial"",""time""
""blur"",""1"",""1467""
""blur"",""34"",""136398""
""blur"",""34"",""137883""
""blur"",""34"",""174840""
","""event"",""trial"",""time""
""focus"",""0"",""0""
""focus"",""1"",""1480""
""focus"",""34"",""136414""
""focus"",""34"",""174814""
""focus"",""34"",""246830""
","""event"",""trial"",""time""
""fullscreenenter"",""1"",""1494""
","""event"",""trial"",""time""
""fullscreenexit"",""34"",""136461""
","","","","","","117555","<p> Great! You have completed the practice. </p><p> Before you start, we're going to ask you a few questions about how the game works.  </p>","","0","instructions","","",""
"preload","35","250574","0.0-13.0","4267","approach_avoid_sv1","""event"",""trial"",""time""
""focus"",""0"",""0""
""blur"",""1"",""1467""
""focus"",""1"",""1480""
""fullscreenenter"",""1"",""1494""
""blur"",""34"",""136398""
""focus"",""34"",""136414""
""fullscreenexit"",""34"",""136461""
""blur"",""34"",""137883""
""focus"",""34"",""174814""
""blur"",""34"",""174840""
""focus"",""34"",""246830""
""blur"",""36"",""251875""
""focus"",""36"",""252840""
","""event"",""trial"",""time""
""blur"",""1"",""1467""
""blur"",""34"",""136398""
""blur"",""34"",""137883""
""blur"",""34"",""174840""
""blur"",""36"",""251875""
","""event"",""trial"",""time""
""focus"",""0"",""0""
""focus"",""1"",""1480""
""focus"",""34"",""136414""
""focus"",""34"",""174814""
""focus"",""34"",""246830""
""focus"",""36"",""252840""
","""event"",""trial"",""time""
""fullscreenenter"",""1"",""1494""
","""event"",""trial"",""time""
""fullscreenexit"",""34"",""136461""
","true","false","[]","[]","[]","","","","","","","",""
"comp-q","36","258229","0.0-14.0-0.0","4267","approach_avoid_sv1","""event"",""trial"",""time""
""focus"",""0"",""0""
""blur"",""1"",""1467""
""focus"",""1"",""1480""
""fullscreenenter"",""1"",""1494""
""blur"",""34"",""136398""
""focus"",""34"",""136414""
""fullscreenexit"",""34"",""136461""
""blur"",""34"",""137883""
""focus"",""34"",""174814""
""blur"",""34"",""174840""
""focus"",""34"",""246830""
""blur"",""36"",""251875""
""focus"",""36"",""252840""
""blur"",""37"",""261048""
""focus"",""37"",""267348""
","""event"",""trial"",""time""
""blur"",""1"",""1467""
""blur"",""34"",""136398""
""blur"",""34"",""137883""
""blur"",""34"",""174840""
""blur"",""36"",""251875""
""blur"",""37"",""261048""
","""event"",""trial"",""time""
""focus"",""0"",""0""
""focus"",""1"",""1480""
""focus"",""34"",""136414""
""focus"",""34"",""174814""
""focus"",""34"",""246830""
""focus"",""36"",""252840""
""focus"",""37"",""267348""
","""event"",""trial"",""time""
""fullscreenenter"",""1"",""1494""
","""event"",""trial"",""time""
""fullscreenexit"",""34"",""136461""
","","","","","","1812","<p> <b> True or False? </b> </p><p> In this game, you will only see each image once. </p>","","0","comp_question","","","true"
"comp-q","37","268529","0.0-14.0-1.0","4267","approach_avoid_sv1","""event"",""trial"",""time""
""focus"",""0"",""0""
""blur"",""1"",""1467""
""focus"",""1"",""1480""
""fullscreenenter"",""1"",""1494""
""blur"",""34"",""136398""
""focus"",""34"",""136414""
""fullscreenexit"",""34"",""136461""
""blur"",""34"",""137883""
""focus"",""34"",""174814""
""blur"",""34"",""174840""
""focus"",""34"",""246830""
""blur"",""36"",""251875""
""focus"",""36"",""252840""
""blur"",""37"",""261048""
""focus"",""37"",""267348""
","""event"",""trial"",""time""
""blur"",""1"",""1467""
""blur"",""34"",""136398""
""blur"",""34"",""137883""
""blur"",""34"",""174840""
""blur"",""36"",""251875""
""blur"",""37"",""261048""
","""event"",""trial"",""time""
""focus"",""0"",""0""
""focus"",""1"",""1480""
""focus"",""34"",""136414""
""focus"",""34"",""174814""
""focus"",""34"",""246830""
""focus"",""36"",""252840""
""focus"",""37"",""267348""
","""event"",""trial"",""time""
""fullscreenenter"",""1"",""1494""
","""event"",""trial"",""time""
""fullscreenexit"",""34"",""136461""
","","","","","","3951","<p> <b> That's right! </b> You will see many different images <i> one time each </i> in this game. </p>","","0","comp_answer","","",""
"comp-q","38","274549","0.0-15.0-0.0","4267","approach_avoid_sv1","""event"",""trial"",""time""
""focus"",""0"",""0""
""blur"",""1"",""1467""
""focus"",""1"",""1480""
""fullscreenenter"",""1"",""1494""
""blur"",""34"",""136398""
""focus"",""34"",""136414""
""fullscreenexit"",""34"",""136461""
""blur"",""34"",""137883""
""focus"",""34"",""174814""
""blur"",""34"",""174840""
""focus"",""34"",""246830""
""blur"",""36"",""251875""
""focus"",""36"",""252840""
""blur"",""37"",""261048""
""focus"",""37"",""267348""
""blur"",""39"",""277685""
""focus"",""39"",""324474""
","""event"",""trial"",""time""
""blur"",""1"",""1467""
""blur"",""34"",""136398""
""blur"",""34"",""137883""
""blur"",""34"",""174840""
""blur"",""36"",""251875""
""blur"",""37"",""261048""
""blur"",""39"",""277685""
","""event"",""trial"",""time""
""focus"",""0"",""0""
""focus"",""1"",""1480""
""focus"",""34"",""136414""
""focus"",""34"",""174814""
""focus"",""34"",""246830""
""focus"",""36"",""252840""
""focus"",""37"",""267348""
""focus"",""39"",""324474""
","""event"",""trial"",""time""
""fullscreenenter"",""1"",""1494""
","""event"",""trial"",""time""
""fullscreenexit"",""34"",""136461""
","","","","","","1000","<p> <b> True or False? </b> </p><p> You should use the mouse and click to make your response. </p>","","1","comp_question","","","true"
"comp-q","39","325549","0.0-15.0-1.0","4267","approach_avoid_sv1","""event"",""trial"",""time""
""focus"",""0"",""0""
""blur"",""1"",""1467""
""focus"",""1"",""1480""
""fullscreenenter"",""1"",""1494""
""blur"",""34"",""136398""
""focus"",""34"",""136414""
""fullscreenexit"",""34"",""136461""
""blur"",""34"",""137883""
""focus"",""34"",""174814""
""blur"",""34"",""174840""
""focus"",""34"",""246830""
""blur"",""36"",""251875""
""focus"",""36"",""252840""
""blur"",""37"",""261048""
""focus"",""37"",""267348""
""blur"",""39"",""277685""
""focus"",""39"",""324474""
","""event"",""trial"",""time""
""blur"",""1"",""1467""
""blur"",""34"",""136398""
""blur"",""34"",""137883""
""blur"",""34"",""174840""
""blur"",""36"",""251875""
""blur"",""37"",""261048""
""blur"",""39"",""277685""
","""event"",""trial"",""time""
""focus"",""0"",""0""
""focus"",""1"",""1480""
""focus"",""34"",""136414""
""focus"",""34"",""174814""
""focus"",""34"",""246830""
""focus"",""36"",""252840""
""focus"",""37"",""267348""
""focus"",""39"",""324474""
","""event"",""trial"",""time""
""fullscreenenter"",""1"",""1494""
","""event"",""trial"",""time""
""fullscreenexit"",""34"",""136461""
","","","","","","44494","<p><b> That's right! </b> You should use the '1', '2', '3', and '4' keys to make your response. </p>","","0","comp_answer","","",""
"comp-q","40","331999","0.0-16.0-0.0","4267","approach_avoid_sv1","""event"",""trial"",""time""
""focus"",""0"",""0""
""blur"",""1"",""1467""
""focus"",""1"",""1480""
""fullscreenenter"",""1"",""1494""
""blur"",""34"",""136398""
""focus"",""34"",""136414""
""fullscreenexit"",""34"",""136461""
""blur"",""34"",""137883""
""focus"",""34"",""174814""
""blur"",""34"",""174840""
""focus"",""34"",""246830""
""blur"",""36"",""251875""
""focus"",""36"",""252840""
""blur"",""37"",""261048""
""focus"",""37"",""267348""
""blur"",""39"",""277685""
""focus"",""39"",""324474""
""blur"",""41"",""332970""
""focus"",""41"",""336572""
","""event"",""trial"",""time""
""blur"",""1"",""1467""
""blur"",""34"",""136398""
""blur"",""34"",""137883""
""blur"",""34"",""174840""
""blur"",""36"",""251875""
""blur"",""37"",""261048""
""blur"",""39"",""277685""
""blur"",""41"",""332970""
","""event"",""trial"",""time""
""focus"",""0"",""0""
""focus"",""1"",""1480""
""focus"",""34"",""136414""
""focus"",""34"",""174814""
""focus"",""34"",""246830""
""focus"",""36"",""252840""
""focus"",""37"",""267348""
""focus"",""39"",""324474""
""focus"",""41"",""336572""
","""event"",""trial"",""time""
""fullscreenenter"",""1"",""1494""
","""event"",""trial"",""time""
""fullscreenexit"",""34"",""136461""
","","","","","","755","<p> <b> True or False? </b> </p><p> You will have as much time as you want to make each choice. </p>","","1","comp_question","","","true"
"comp-q","41","337849","0.0-16.0-1.0","4267","approach_avoid_sv1","""event"",""trial"",""time""
""focus"",""0"",""0""
""blur"",""1"",""1467""
""focus"",""1"",""1480""
""fullscreenenter"",""1"",""1494""
""blur"",""34"",""136398""
""focus"",""34"",""136414""
""fullscreenexit"",""34"",""136461""
""blur"",""34"",""137883""
""focus"",""34"",""174814""
""blur"",""34"",""174840""
""focus"",""34"",""246830""
""blur"",""36"",""251875""
""focus"",""36"",""252840""
""blur"",""37"",""261048""
""focus"",""37"",""267348""
""blur"",""39"",""277685""
""focus"",""39"",""324474""
""blur"",""41"",""332970""
""focus"",""41"",""336572""
","""event"",""trial"",""time""
""blur"",""1"",""1467""
""blur"",""34"",""136398""
""blur"",""34"",""137883""
""blur"",""34"",""174840""
""blur"",""36"",""251875""
""blur"",""37"",""261048""
""blur"",""39"",""277685""
""blur"",""41"",""332970""
","""event"",""trial"",""time""
""focus"",""0"",""0""
""focus"",""1"",""1480""
""focus"",""34"",""136414""
""focus"",""34"",""174814""
""focus"",""34"",""246830""
""focus"",""36"",""252840""
""focus"",""37"",""267348""
""focus"",""39"",""324474""
""focus"",""41"",""336572""
","""event"",""trial"",""time""
""fullscreenenter"",""1"",""1494""
","""event"",""trial"",""time""
""fullscreenexit"",""34"",""136461""
","","","","","","1133","<p> <b> That's right! </b> You will only have 10 seconds to make each choice. </p>","","0","comp_answer","","",""
"learning-instructions","42","347496","0.0-17.0","4267","approach_avoid_sv1","""event"",""trial"",""time""
""focus"",""0"",""0""
""blur"",""1"",""1467""
""focus"",""1"",""1480""
""fullscreenenter"",""1"",""1494""
""blur"",""34"",""136398""
""focus"",""34"",""136414""
""fullscreenexit"",""34"",""136461""
""blur"",""34"",""137883""
""focus"",""34"",""174814""
""blur"",""34"",""174840""
""focus"",""34"",""246830""
""blur"",""36"",""251875""
""focus"",""36"",""252840""
""blur"",""37"",""261048""
""focus"",""37"",""267348""
""blur"",""39"",""277685""
""focus"",""39"",""324474""
""blur"",""41"",""332970""
""focus"",""41"",""336572""
","""event"",""trial"",""time""
""blur"",""1"",""1467""
""blur"",""34"",""136398""
""blur"",""34"",""137883""
""blur"",""34"",""174840""
""blur"",""36"",""251875""
""blur"",""37"",""261048""
""blur"",""39"",""277685""
""blur"",""41"",""332970""
","""event"",""trial"",""time""
""focus"",""0"",""0""
""focus"",""1"",""1480""
""focus"",""34"",""136414""
""focus"",""34"",""174814""
""focus"",""34"",""246830""
""focus"",""36"",""252840""
""focus"",""37"",""267348""
""focus"",""39"",""324474""
""focus"",""41"",""336572""
","""event"",""trial"",""time""
""fullscreenenter"",""1"",""1494""
","""event"",""trial"",""time""
""fullscreenexit"",""34"",""136461""
","","","","","","967","<p> Great! You are now ready to begin the game. </p><p> Remember, use the 1, 2, 3, and 4 keys to make your responses. </p>","","0","instructions","","",""
"html-keyboard-response","43","348107","0.0-18.0-0.0","4267","approach_avoid_sv1","""event"",""trial"",""time""
""focus"",""0"",""0""
""blur"",""1"",""1467""
""focus"",""1"",""1480""
""fullscreenenter"",""1"",""1494""
""blur"",""34"",""136398""
""focus"",""34"",""136414""
""fullscreenexit"",""34"",""136461""
""blur"",""34"",""137883""
""focus"",""34"",""174814""
""blur"",""34"",""174840""
""focus"",""34"",""246830""
""blur"",""36"",""251875""
""focus"",""36"",""252840""
""blur"",""37"",""261048""
""focus"",""37"",""267348""
""blur"",""39"",""277685""
""focus"",""39"",""324474""
""blur"",""41"",""332970""
""focus"",""41"",""336572""
","""event"",""trial"",""time""
""blur"",""1"",""1467""
""blur"",""34"",""136398""
""blur"",""34"",""137883""
""blur"",""34"",""174840""
""blur"",""36"",""251875""
""blur"",""37"",""261048""
""blur"",""39"",""277685""
""blur"",""41"",""332970""
","""event"",""trial"",""time""
""focus"",""0"",""0""
""focus"",""1"",""1480""
""focus"",""34"",""136414""
""focus"",""34"",""174814""
""focus"",""34"",""246830""
""focus"",""36"",""252840""
""focus"",""37"",""267348""
""focus"",""39"",""324474""
""focus"",""41"",""336572""
","""event"",""trial"",""time""
""fullscreenenter"",""1"",""1494""
","""event"",""trial"",""time""
""fullscreenexit"",""34"",""136461""
","","","","","","null","<div style=""font-size:60px;"">+</div>","null","","fixation","","",""
"memory-trial","44","351192","0.0-18.0-1.0","4267","approach_avoid_sv1","""event"",""trial"",""time""
""focus"",""0"",""0""
""blur"",""1"",""1467""
""focus"",""1"",""1480""
""fullscreenenter"",""1"",""1494""
""blur"",""34"",""136398""
""focus"",""34"",""136414""
""fullscreenexit"",""34"",""136461""
""blur"",""34"",""137883""
""focus"",""34"",""174814""
""blur"",""34"",""174840""
""focus"",""34"",""246830""
""blur"",""36"",""251875""
""focus"",""36"",""252840""
""blur"",""37"",""261048""
""focus"",""37"",""267348""
""blur"",""39"",""277685""
""focus"",""39"",""324474""
""blur"",""41"",""332970""
""focus"",""41"",""336572""
","""event"",""trial"",""time""
""blur"",""1"",""1467""
""blur"",""34"",""136398""
""blur"",""34"",""137883""
""blur"",""34"",""174840""
""blur"",""36"",""251875""
""blur"",""37"",""261048""
""blur"",""39"",""277685""
""blur"",""41"",""332970""
","""event"",""trial"",""time""
""focus"",""0"",""0""
""focus"",""1"",""1480""
""focus"",""34"",""136414""
""focus"",""34"",""174814""
""focus"",""34"",""246830""
""focus"",""36"",""252840""
""focus"",""37"",""267348""
""focus"",""39"",""324474""
""focus"",""41"",""336572""
","""event"",""trial"",""time""
""fullscreenenter"",""1"",""1494""
","""event"",""trial"",""time""
""fullscreenexit"",""34"",""136461""
","","","","","","2082","images/cactus5.png","","","memory_trial","4","definitely_new",""
"html-keyboard-response","45","351699","0.0-18.0-0.1","4267","approach_avoid_sv1","""event"",""trial"",""time""
""focus"",""0"",""0""
""blur"",""1"",""1467""
""focus"",""1"",""1480""
""fullscreenenter"",""1"",""1494""
""blur"",""34"",""136398""
""focus"",""34"",""136414""
""fullscreenexit"",""34"",""136461""
""blur"",""34"",""137883""
""focus"",""34"",""174814""
""blur"",""34"",""174840""
""focus"",""34"",""246830""
""blur"",""36"",""251875""
""focus"",""36"",""252840""
""blur"",""37"",""261048""
""focus"",""37"",""267348""
""blur"",""39"",""277685""
""focus"",""39"",""324474""
""blur"",""41"",""332970""
""focus"",""41"",""336572""
","""event"",""trial"",""time""
""blur"",""1"",""1467""
""blur"",""34"",""136398""
""blur"",""34"",""137883""
""blur"",""34"",""174840""
""blur"",""36"",""251875""
""blur"",""37"",""261048""
""blur"",""39"",""277685""
""blur"",""41"",""332970""
","""event"",""trial"",""time""
""focus"",""0"",""0""
""focus"",""1"",""1480""
""focus"",""34"",""136414""
""focus"",""34"",""174814""
""focus"",""34"",""246830""
""focus"",""36"",""252840""
""focus"",""37"",""267348""
""focus"",""39"",""324474""
""focus"",""41"",""336572""
","""event"",""trial"",""time""
""fullscreenenter"",""1"",""1494""
","""event"",""trial"",""time""
""fullscreenexit"",""34"",""136461""
","","","","","","null","<div style=""font-size:60px;"">+</div>","null","","fixation","","",""
"memory-trial","46","354372","0.0-18.0-1.1","4267","approach_avoid_sv1","""event"",""trial"",""time""
""focus"",""0"",""0""
""blur"",""1"",""1467""
""focus"",""1"",""1480""
""fullscreenenter"",""1"",""1494""
""blur"",""34"",""136398""
""focus"",""34"",""136414""
""fullscreenexit"",""34"",""136461""
""blur"",""34"",""137883""
""focus"",""34"",""174814""
""blur"",""34"",""174840""
""focus"",""34"",""246830""
""blur"",""36"",""251875""
""focus"",""36"",""252840""
""blur"",""37"",""261048""
""focus"",""37"",""267348""
""blur"",""39"",""277685""
""focus"",""39"",""324474""
""blur"",""41"",""332970""
""focus"",""41"",""336572""
","""event"",""trial"",""time""
""blur"",""1"",""1467""
""blur"",""34"",""136398""
""blur"",""34"",""137883""
""blur"",""34"",""174840""
""blur"",""36"",""251875""
""blur"",""37"",""261048""
""blur"",""39"",""277685""
""blur"",""41"",""332970""
","""event"",""trial"",""time""
""focus"",""0"",""0""
""focus"",""1"",""1480""
""focus"",""34"",""136414""
""focus"",""34"",""174814""
""focus"",""34"",""246830""
""focus"",""36"",""252840""
""focus"",""37"",""267348""
""focus"",""39"",""324474""
""focus"",""41"",""336572""
","""event"",""trial"",""time""
""fullscreenenter"",""1"",""1494""
","""event"",""trial"",""time""
""fullscreenexit"",""34"",""136461""
","","","","","","1665","images/cactus1.png","","","memory_trial","3","maybe_new",""
"html-keyboard-response","47","354876","0.0-18.0-0.2","4267","approach_avoid_sv1","""event"",""trial"",""time""
""focus"",""0"",""0""
""blur"",""1"",""1467""
""focus"",""1"",""1480""
""fullscreenenter"",""1"",""1494""
""blur"",""34"",""136398""
""focus"",""34"",""136414""
""fullscreenexit"",""34"",""136461""
""blur"",""34"",""137883""
""focus"",""34"",""174814""
""blur"",""34"",""174840""
""focus"",""34"",""246830""
""blur"",""36"",""251875""
""focus"",""36"",""252840""
""blur"",""37"",""261048""
""focus"",""37"",""267348""
""blur"",""39"",""277685""
""focus"",""39"",""324474""
""blur"",""41"",""332970""
""focus"",""41"",""336572""
","""event"",""trial"",""time""
""blur"",""1"",""1467""
""blur"",""34"",""136398""
""blur"",""34"",""137883""
""blur"",""34"",""174840""
""blur"",""36"",""251875""
""blur"",""37"",""261048""
""blur"",""39"",""277685""
""blur"",""41"",""332970""
","""event"",""trial"",""time""
""focus"",""0"",""0""
""focus"",""1"",""1480""
""focus"",""34"",""136414""
""focus"",""34"",""174814""
""focus"",""34"",""246830""
""focus"",""36"",""252840""
""focus"",""37"",""267348""
""focus"",""39"",""324474""
""focus"",""41"",""336572""
","""event"",""trial"",""time""
""fullscreenenter"",""1"",""1494""
","""event"",""trial"",""time""
""fullscreenexit"",""34"",""136461""
","","","","","","null","<div style=""font-size:60px;"">+</div>","null","","fixation","","",""
"memory-trial","48","357637","0.0-18.0-1.2","4267","approach_avoid_sv1","""event"",""trial"",""time""
""focus"",""0"",""0""
""blur"",""1"",""1467""
""focus"",""1"",""1480""
""fullscreenenter"",""1"",""1494""
""blur"",""34"",""136398""
""focus"",""34"",""136414""
""fullscreenexit"",""34"",""136461""
""blur"",""34"",""137883""
""focus"",""34"",""174814""
""blur"",""34"",""174840""
""focus"",""34"",""246830""
""blur"",""36"",""251875""
""focus"",""36"",""252840""
""blur"",""37"",""261048""
""focus"",""37"",""267348""
""blur"",""39"",""277685""
""focus"",""39"",""324474""
""blur"",""41"",""332970""
""focus"",""41"",""336572""
","""event"",""trial"",""time""
""blur"",""1"",""1467""
""blur"",""34"",""136398""
""blur"",""34"",""137883""
""blur"",""34"",""174840""
""blur"",""36"",""251875""
""blur"",""37"",""261048""
""blur"",""39"",""277685""
""blur"",""41"",""332970""
","""event"",""trial"",""time""
""focus"",""0"",""0""
""focus"",""1"",""1480""
""focus"",""34"",""136414""
""focus"",""34"",""174814""
""focus"",""34"",""246830""
""focus"",""36"",""252840""
""focus"",""37"",""267348""
""focus"",""39"",""324474""
""focus"",""41"",""336572""
","""event"",""trial"",""time""
""fullscreenenter"",""1"",""1494""
","""event"",""trial"",""time""
""fullscreenexit"",""34"",""136461""
","","","","","","1756","images/plane8.png","","","memory_trial","2","maybe_old",""
"html-keyboard-response","49","358143","0.0-18.0-0.3","4267","approach_avoid_sv1","""event"",""trial"",""time""
""focus"",""0"",""0""
""blur"",""1"",""1467""
""focus"",""1"",""1480""
""fullscreenenter"",""1"",""1494""
""blur"",""34"",""136398""
""focus"",""34"",""136414""
""fullscreenexit"",""34"",""136461""
""blur"",""34"",""137883""
""focus"",""34"",""174814""
""blur"",""34"",""174840""
""focus"",""34"",""246830""
""blur"",""36"",""251875""
""focus"",""36"",""252840""
""blur"",""37"",""261048""
""focus"",""37"",""267348""
""blur"",""39"",""277685""
""focus"",""39"",""324474""
""blur"",""41"",""332970""
""focus"",""41"",""336572""
","""event"",""trial"",""time""
""blur"",""1"",""1467""
""blur"",""34"",""136398""
""blur"",""34"",""137883""
""blur"",""34"",""174840""
""blur"",""36"",""251875""
""blur"",""37"",""261048""
""blur"",""39"",""277685""
""blur"",""41"",""332970""
","""event"",""trial"",""time""
""focus"",""0"",""0""
""focus"",""1"",""1480""
""focus"",""34"",""136414""
""focus"",""34"",""174814""
""focus"",""34"",""246830""
""focus"",""36"",""252840""
""focus"",""37"",""267348""
""focus"",""39"",""324474""
""focus"",""41"",""336572""
","""event"",""trial"",""time""
""fullscreenenter"",""1"",""1494""
","""event"",""trial"",""time""
""fullscreenexit"",""34"",""136461""
","","","","","","null","<div style=""font-size:60px;"">+</div>","null","","fixation","","",""
"memory-trial","50","360046","0.0-18.0-1.3","4267","approach_avoid_sv1","""event"",""trial"",""time""
""focus"",""0"",""0""
""blur"",""1"",""1467""
""focus"",""1"",""1480""
""fullscreenenter"",""1"",""1494""
""blur"",""34"",""136398""
""focus"",""34"",""136414""
""fullscreenexit"",""34"",""136461""
""blur"",""34"",""137883""
""focus"",""34"",""174814""
""blur"",""34"",""174840""
""focus"",""34"",""246830""
""blur"",""36"",""251875""
""focus"",""36"",""252840""
""blur"",""37"",""261048""
""focus"",""37"",""267348""
""blur"",""39"",""277685""
""focus"",""39"",""324474""
""blur"",""41"",""332970""
""focus"",""41"",""336572""
","""event"",""trial"",""time""
""blur"",""1"",""1467""
""blur"",""34"",""136398""
""blur"",""34"",""137883""
""blur"",""34"",""174840""
""blur"",""36"",""251875""
""blur"",""37"",""261048""
""blur"",""39"",""277685""
""blur"",""41"",""332970""
","""event"",""trial"",""time""
""focus"",""0"",""0""
""focus"",""1"",""1480""
""focus"",""34"",""136414""
""focus"",""34"",""174814""
""focus"",""34"",""246830""
""focus"",""36"",""252840""
""focus"",""37"",""267348""
""focus"",""39"",""324474""
""focus"",""41"",""336572""
","""event"",""trial"",""time""
""fullscreenenter"",""1"",""1494""
","""event"",""trial"",""time""
""fullscreenexit"",""34"",""136461""
","","","","","","900","images/cow8.png","","","memory_trial","1","definitely_old",""
"html-keyboard-response","51","360552","0.0-18.0-0.4","4267","approach_avoid_sv1","""event"",""trial"",""time""
""focus"",""0"",""0""
""blur"",""1"",""1467""
""focus"",""1"",""1480""
""fullscreenenter"",""1"",""1494""
""blur"",""34"",""136398""
""focus"",""34"",""136414""
""fullscreenexit"",""34"",""136461""
""blur"",""34"",""137883""
""focus"",""34"",""174814""
""blur"",""34"",""174840""
""focus"",""34"",""246830""
""blur"",""36"",""251875""
""focus"",""36"",""252840""
""blur"",""37"",""261048""
""focus"",""37"",""267348""
""blur"",""39"",""277685""
""focus"",""39"",""324474""
""blur"",""41"",""332970""
""focus"",""41"",""336572""
","""event"",""trial"",""time""
""blur"",""1"",""1467""
""blur"",""34"",""136398""
""blur"",""34"",""137883""
""blur"",""34"",""174840""
""blur"",""36"",""251875""
""blur"",""37"",""261048""
""blur"",""39"",""277685""
""blur"",""41"",""332970""
","""event"",""trial"",""time""
""focus"",""0"",""0""
""focus"",""1"",""1480""
""focus"",""34"",""136414""
""focus"",""34"",""174814""
""focus"",""34"",""246830""
""focus"",""36"",""252840""
""focus"",""37"",""267348""
""focus"",""39"",""324474""
""focus"",""41"",""336572""
","""event"",""trial"",""time""
""fullscreenenter"",""1"",""1494""
","""event"",""trial"",""time""
""fullscreenexit"",""34"",""136461""
","","","","","","null","<div style=""font-size:60px;"">+</div>","null","","fixation","","",""
"memory-trial","52","362707","0.0-18.0-1.4","4267","approach_avoid_sv1","""event"",""trial"",""time""
""focus"",""0"",""0""
""blur"",""1"",""1467""
""focus"",""1"",""1480""
""fullscreenenter"",""1"",""1494""
""blur"",""34"",""136398""
""focus"",""34"",""136414""
""fullscreenexit"",""34"",""136461""
""blur"",""34"",""137883""
""focus"",""34"",""174814""
""blur"",""34"",""174840""
""focus"",""34"",""246830""
""blur"",""36"",""251875""
""focus"",""36"",""252840""
""blur"",""37"",""261048""
""focus"",""37"",""267348""
""blur"",""39"",""277685""
""focus"",""39"",""324474""
""blur"",""41"",""332970""
""focus"",""41"",""336572""
","""event"",""trial"",""time""
""blur"",""1"",""1467""
""blur"",""34"",""136398""
""blur"",""34"",""137883""
""blur"",""34"",""174840""
""blur"",""36"",""251875""
""blur"",""37"",""261048""
""blur"",""39"",""277685""
""blur"",""41"",""332970""
","""event"",""trial"",""time""
""focus"",""0"",""0""
""focus"",""1"",""1480""
""focus"",""34"",""136414""
""focus"",""34"",""174814""
""focus"",""34"",""246830""
""focus"",""36"",""252840""
""focus"",""37"",""267348""
""focus"",""39"",""324474""
""focus"",""41"",""336572""
","""event"",""trial"",""time""
""fullscreenenter"",""1"",""1494""
","""event"",""trial"",""time""
""fullscreenexit"",""34"",""136461""
","","","","","","1148","images/dog2.png","","","memory_trial","4","definitely_new",""
"html-keyboard-response","53","363211","0.0-18.0-0.5","4267","approach_avoid_sv1","""event"",""trial"",""time""
""focus"",""0"",""0""
""blur"",""1"",""1467""
""focus"",""1"",""1480""
""fullscreenenter"",""1"",""1494""
""blur"",""34"",""136398""
""focus"",""34"",""136414""
""fullscreenexit"",""34"",""136461""
""blur"",""34"",""137883""
""focus"",""34"",""174814""
""blur"",""34"",""174840""
""focus"",""34"",""246830""
""blur"",""36"",""251875""
""focus"",""36"",""252840""
""blur"",""37"",""261048""
""focus"",""37"",""267348""
""blur"",""39"",""277685""
""focus"",""39"",""324474""
""blur"",""41"",""332970""
""focus"",""41"",""336572""
","""event"",""trial"",""time""
""blur"",""1"",""1467""
""blur"",""34"",""136398""
""blur"",""34"",""137883""
""blur"",""34"",""174840""
""blur"",""36"",""251875""
""blur"",""37"",""261048""
""blur"",""39"",""277685""
""blur"",""41"",""332970""
","""event"",""trial"",""time""
""focus"",""0"",""0""
""focus"",""1"",""1480""
""focus"",""34"",""136414""
""focus"",""34"",""174814""
""focus"",""34"",""246830""
""focus"",""36"",""252840""
""focus"",""37"",""267348""
""focus"",""39"",""324474""
""focus"",""41"",""336572""
","""event"",""trial"",""time""
""fullscreenenter"",""1"",""1494""
","""event"",""trial"",""time""
""fullscreenexit"",""34"",""136461""
","","","","","","null","<div style=""font-size:60px;"">+</div>","null","","fixation","","",""
"memory-trial","54","365609","0.0-18.0-1.5","4267","approach_avoid_sv1","""event"",""trial"",""time""
""focus"",""0"",""0""
""blur"",""1"",""1467""
""focus"",""1"",""1480""
""fullscreenenter"",""1"",""1494""
""blur"",""34"",""136398""
""focus"",""34"",""136414""
""fullscreenexit"",""34"",""136461""
""blur"",""34"",""137883""
""focus"",""34"",""174814""
""blur"",""34"",""174840""
""focus"",""34"",""246830""
""blur"",""36"",""251875""
""focus"",""36"",""252840""
""blur"",""37"",""261048""
""focus"",""37"",""267348""
""blur"",""39"",""277685""
""focus"",""39"",""324474""
""blur"",""41"",""332970""
""focus"",""41"",""336572""
","""event"",""trial"",""time""
""blur"",""1"",""1467""
""blur"",""34"",""136398""
""blur"",""34"",""137883""
""blur"",""34"",""174840""
""blur"",""36"",""251875""
""blur"",""37"",""261048""
""blur"",""39"",""277685""
""blur"",""41"",""332970""
","""event"",""trial"",""time""
""focus"",""0"",""0""
""focus"",""1"",""1480""
""focus"",""34"",""136414""
""focus"",""34"",""174814""
""focus"",""34"",""246830""
""focus"",""36"",""252840""
""focus"",""37"",""267348""
""focus"",""39"",""324474""
""focus"",""41"",""336572""
","""event"",""trial"",""time""
""fullscreenenter"",""1"",""1494""
","""event"",""trial"",""time""
""fullscreenexit"",""34"",""136461""
","","","","","","1396","images/sheep7.png","","","memory_trial","2","maybe_old",""
"html-keyboard-response","55","366112","0.0-18.0-0.6","4267","approach_avoid_sv1","""event"",""trial"",""time""
""focus"",""0"",""0""
""blur"",""1"",""1467""
""focus"",""1"",""1480""
""fullscreenenter"",""1"",""1494""
""blur"",""34"",""136398""
""focus"",""34"",""136414""
""fullscreenexit"",""34"",""136461""
""blur"",""34"",""137883""
""focus"",""34"",""174814""
""blur"",""34"",""174840""
""focus"",""34"",""246830""
""blur"",""36"",""251875""
""focus"",""36"",""252840""
""blur"",""37"",""261048""
""focus"",""37"",""267348""
""blur"",""39"",""277685""
""focus"",""39"",""324474""
""blur"",""41"",""332970""
""focus"",""41"",""336572""
","""event"",""trial"",""time""
""blur"",""1"",""1467""
""blur"",""34"",""136398""
""blur"",""34"",""137883""
""blur"",""34"",""174840""
""blur"",""36"",""251875""
""blur"",""37"",""261048""
""blur"",""39"",""277685""
""blur"",""41"",""332970""
","""event"",""trial"",""time""
""focus"",""0"",""0""
""focus"",""1"",""1480""
""focus"",""34"",""136414""
""focus"",""34"",""174814""
""focus"",""34"",""246830""
""focus"",""36"",""252840""
""focus"",""37"",""267348""
""focus"",""39"",""324474""
""focus"",""41"",""336572""
","""event"",""trial"",""time""
""fullscreenenter"",""1"",""1494""
","""event"",""trial"",""time""
""fullscreenexit"",""34"",""136461""
","","","","","","null","<div style=""font-size:60px;"">+</div>","null","","fixation","","",""
"memory-trial","56","368268","0.0-18.0-1.6","4267","approach_avoid_sv1","""event"",""trial"",""time""
""focus"",""0"",""0""
""blur"",""1"",""1467""
""focus"",""1"",""1480""
""fullscreenenter"",""1"",""1494""
""blur"",""34"",""136398""
""focus"",""34"",""136414""
""fullscreenexit"",""34"",""136461""
""blur"",""34"",""137883""
""focus"",""34"",""174814""
""blur"",""34"",""174840""
""focus"",""34"",""246830""
""blur"",""36"",""251875""
""focus"",""36"",""252840""
""blur"",""37"",""261048""
""focus"",""37"",""267348""
""blur"",""39"",""277685""
""focus"",""39"",""324474""
""blur"",""41"",""332970""
""focus"",""41"",""336572""
","""event"",""trial"",""time""
""blur"",""1"",""1467""
""blur"",""34"",""136398""
""blur"",""34"",""137883""
""blur"",""34"",""174840""
""blur"",""36"",""251875""
""blur"",""37"",""261048""
""blur"",""39"",""277685""
""blur"",""41"",""332970""
","""event"",""trial"",""time""
""focus"",""0"",""0""
""focus"",""1"",""1480""
""focus"",""34"",""136414""
""focus"",""34"",""174814""
""focus"",""34"",""246830""
""focus"",""36"",""252840""
""focus"",""37"",""267348""
""focus"",""39"",""324474""
""focus"",""41"",""336572""
","""event"",""trial"",""time""
""fullscreenenter"",""1"",""1494""
","""event"",""trial"",""time""
""fullscreenexit"",""34"",""136461""
","","","","","","1150","images/rabbit6.png","","","memory_trial","2","maybe_old",""
"html-keyboard-response","57","368774","0.0-18.0-0.7","4267","approach_avoid_sv1","""event"",""trial"",""time""
""focus"",""0"",""0""
""blur"",""1"",""1467""
""focus"",""1"",""1480""
""fullscreenenter"",""1"",""1494""
""blur"",""34"",""136398""
""focus"",""34"",""136414""
""fullscreenexit"",""34"",""136461""
""blur"",""34"",""137883""
""focus"",""34"",""174814""
""blur"",""34"",""174840""
""focus"",""34"",""246830""
""blur"",""36"",""251875""
""focus"",""36"",""252840""
""blur"",""37"",""261048""
""focus"",""37"",""267348""
""blur"",""39"",""277685""
""focus"",""39"",""324474""
""blur"",""41"",""332970""
""focus"",""41"",""336572""
","""event"",""trial"",""time""
""blur"",""1"",""1467""
""blur"",""34"",""136398""
""blur"",""34"",""137883""
""blur"",""34"",""174840""
""blur"",""36"",""251875""
""blur"",""37"",""261048""
""blur"",""39"",""277685""
""blur"",""41"",""332970""
","""event"",""trial"",""time""
""focus"",""0"",""0""
""focus"",""1"",""1480""
""focus"",""34"",""136414""
""focus"",""34"",""174814""
""focus"",""34"",""246830""
""focus"",""36"",""252840""
""focus"",""37"",""267348""
""focus"",""39"",""324474""
""focus"",""41"",""336572""
","""event"",""trial"",""time""
""fullscreenenter"",""1"",""1494""
","""event"",""trial"",""time""
""fullscreenexit"",""34"",""136461""
","","","","","","null","<div style=""font-size:60px;"">+</div>","null","","fixation","","",""
"memory-trial","58","370782","0.0-18.0-1.7","4267","approach_avoid_sv1","""event"",""trial"",""time""
""focus"",""0"",""0""
""blur"",""1"",""1467""
""focus"",""1"",""1480""
""fullscreenenter"",""1"",""1494""
""blur"",""34"",""136398""
""focus"",""34"",""136414""
""fullscreenexit"",""34"",""136461""
""blur"",""34"",""137883""
""focus"",""34"",""174814""
""blur"",""34"",""174840""
""focus"",""34"",""246830""
""blur"",""36"",""251875""
""focus"",""36"",""252840""
""blur"",""37"",""261048""
""focus"",""37"",""267348""
""blur"",""39"",""277685""
""focus"",""39"",""324474""
""blur"",""41"",""332970""
""focus"",""41"",""336572""
","""event"",""trial"",""time""
""blur"",""1"",""1467""
""blur"",""34"",""136398""
""blur"",""34"",""137883""
""blur"",""34"",""174840""
""blur"",""36"",""251875""
""blur"",""37"",""261048""
""blur"",""39"",""277685""
""blur"",""41"",""332970""
","""event"",""trial"",""time""
""focus"",""0"",""0""
""focus"",""1"",""1480""
""focus"",""34"",""136414""
""focus"",""34"",""174814""
""focus"",""34"",""246830""
""focus"",""36"",""252840""
""focus"",""37"",""267348""
""focus"",""39"",""324474""
""focus"",""41"",""336572""
","""event"",""trial"",""time""
""fullscreenenter"",""1"",""1494""
","""event"",""trial"",""time""
""fullscreenexit"",""34"",""136461""
","","","","","","1004","images/rodent3.png","","","memory_trial","1","definitely_old",""
"html-keyboard-response","59","371286","0.0-18.0-0.8","4267","approach_avoid_sv1","""event"",""trial"",""time""
""focus"",""0"",""0""
""blur"",""1"",""1467""
""focus"",""1"",""1480""
""fullscreenenter"",""1"",""1494""
""blur"",""34"",""136398""
""focus"",""34"",""136414""
""fullscreenexit"",""34"",""136461""
""blur"",""34"",""137883""
""focus"",""34"",""174814""
""blur"",""34"",""174840""
""focus"",""34"",""246830""
""blur"",""36"",""251875""
""focus"",""36"",""252840""
""blur"",""37"",""261048""
""focus"",""37"",""267348""
""blur"",""39"",""277685""
""focus"",""39"",""324474""
""blur"",""41"",""332970""
""focus"",""41"",""336572""
","""event"",""trial"",""time""
""blur"",""1"",""1467""
""blur"",""34"",""136398""
""blur"",""34"",""137883""
""blur"",""34"",""174840""
""blur"",""36"",""251875""
""blur"",""37"",""261048""
""blur"",""39"",""277685""
""blur"",""41"",""332970""
","""event"",""trial"",""time""
""focus"",""0"",""0""
""focus"",""1"",""1480""
""focus"",""34"",""136414""
""focus"",""34"",""174814""
""focus"",""34"",""246830""
""focus"",""36"",""252840""
""focus"",""37"",""267348""
""focus"",""39"",""324474""
""focus"",""41"",""336572""
","""event"",""trial"",""time""
""fullscreenenter"",""1"",""1494""
","""event"",""trial"",""time""
""fullscreenexit"",""34"",""136461""
","","","","","","null","<div style=""font-size:60px;"">+</div>","null","","fixation","","",""
"memory-trial","60","374214","0.0-18.0-1.8","4267","approach_avoid_sv1","""event"",""trial"",""time""
""focus"",""0"",""0""
""blur"",""1"",""1467""
""focus"",""1"",""1480""
""fullscreenenter"",""1"",""1494""
""blur"",""34"",""136398""
""focus"",""34"",""136414""
""fullscreenexit"",""34"",""136461""
""blur"",""34"",""137883""
""focus"",""34"",""174814""
""blur"",""34"",""174840""
""focus"",""34"",""246830""
""blur"",""36"",""251875""
""focus"",""36"",""252840""
""blur"",""37"",""261048""
""focus"",""37"",""267348""
""blur"",""39"",""277685""
""focus"",""39"",""324474""
""blur"",""41"",""332970""
""focus"",""41"",""336572""
","""event"",""trial"",""time""
""blur"",""1"",""1467""
""blur"",""34"",""136398""
""blur"",""34"",""137883""
""blur"",""34"",""174840""
""blur"",""36"",""251875""
""blur"",""37"",""261048""
""blur"",""39"",""277685""
""blur"",""41"",""332970""
","""event"",""trial"",""time""
""focus"",""0"",""0""
""focus"",""1"",""1480""
""focus"",""34"",""136414""
""focus"",""34"",""174814""
""focus"",""34"",""246830""
""focus"",""36"",""252840""
""focus"",""37"",""267348""
""focus"",""39"",""324474""
""focus"",""41"",""336572""
","""event"",""trial"",""time""
""fullscreenenter"",""1"",""1494""
","""event"",""trial"",""time""
""fullscreenexit"",""34"",""136461""
","","","","","","1921","images/flower7.png","","","memory_trial","1","definitely_old",""
"html-keyboard-response","61","374720","0.0-18.0-0.9","4267","approach_avoid_sv1","""event"",""trial"",""time""
""focus"",""0"",""0""
""blur"",""1"",""1467""
""focus"",""1"",""1480""
""fullscreenenter"",""1"",""1494""
""blur"",""34"",""136398""
""focus"",""34"",""136414""
""fullscreenexit"",""34"",""136461""
""blur"",""34"",""137883""
""focus"",""34"",""174814""
""blur"",""34"",""174840""
""focus"",""34"",""246830""
""blur"",""36"",""251875""
""focus"",""36"",""252840""
""blur"",""37"",""261048""
""focus"",""37"",""267348""
""blur"",""39"",""277685""
""focus"",""39"",""324474""
""blur"",""41"",""332970""
""focus"",""41"",""336572""
","""event"",""trial"",""time""
""blur"",""1"",""1467""
""blur"",""34"",""136398""
""blur"",""34"",""137883""
""blur"",""34"",""174840""
""blur"",""36"",""251875""
""blur"",""37"",""261048""
""blur"",""39"",""277685""
""blur"",""41"",""332970""
","""event"",""trial"",""time""
""focus"",""0"",""0""
""focus"",""1"",""1480""
""focus"",""34"",""136414""
""focus"",""34"",""174814""
""focus"",""34"",""246830""
""focus"",""36"",""252840""
""focus"",""37"",""267348""
""focus"",""39"",""324474""
""focus"",""41"",""336572""
","""event"",""trial"",""time""
""fullscreenenter"",""1"",""1494""
","""event"",""trial"",""time""
""fullscreenexit"",""34"",""136461""
","","","","","","null","<div style=""font-size:60px;"">+</div>","null","","fixation","","",""
"memory-trial","62","377103","0.0-18.0-1.9","4267","approach_avoid_sv1","""event"",""trial"",""time""
""focus"",""0"",""0""
""blur"",""1"",""1467""
""focus"",""1"",""1480""
""fullscreenenter"",""1"",""1494""
""blur"",""34"",""136398""
""focus"",""34"",""136414""
""fullscreenexit"",""34"",""136461""
""blur"",""34"",""137883""
""focus"",""34"",""174814""
""blur"",""34"",""174840""
""focus"",""34"",""246830""
""blur"",""36"",""251875""
""focus"",""36"",""252840""
""blur"",""37"",""261048""
""focus"",""37"",""267348""
""blur"",""39"",""277685""
""focus"",""39"",""324474""
""blur"",""41"",""332970""
""focus"",""41"",""336572""
","""event"",""trial"",""time""
""blur"",""1"",""1467""
""blur"",""34"",""136398""
""blur"",""34"",""137883""
""blur"",""34"",""174840""
""blur"",""36"",""251875""
""blur"",""37"",""261048""
""blur"",""39"",""277685""
""blur"",""41"",""332970""
","""event"",""trial"",""time""
""focus"",""0"",""0""
""focus"",""1"",""1480""
""focus"",""34"",""136414""
""focus"",""34"",""174814""
""focus"",""34"",""246830""
""focus"",""36"",""252840""
""focus"",""37"",""267348""
""focus"",""39"",""324474""
""focus"",""41"",""336572""
","""event"",""trial"",""time""
""fullscreenenter"",""1"",""1494""
","""event"",""trial"",""time""
""fullscreenexit"",""34"",""136461""
","","","","","","1382","images/dog4.png","","","memory_trial","4","definitely_new",""
"html-keyboard-response","63","377609","0.0-18.0-0.10","4267","approach_avoid_sv1","""event"",""trial"",""time""
""focus"",""0"",""0""
""blur"",""1"",""1467""
""focus"",""1"",""1480""
""fullscreenenter"",""1"",""1494""
""blur"",""34"",""136398""
""focus"",""34"",""136414""
""fullscreenexit"",""34"",""136461""
""blur"",""34"",""137883""
""focus"",""34"",""174814""
""blur"",""34"",""174840""
""focus"",""34"",""246830""
""blur"",""36"",""251875""
""focus"",""36"",""252840""
""blur"",""37"",""261048""
""focus"",""37"",""267348""
""blur"",""39"",""277685""
""focus"",""39"",""324474""
""blur"",""41"",""332970""
""focus"",""41"",""336572""
","""event"",""trial"",""time""
""blur"",""1"",""1467""
""blur"",""34"",""136398""
""blur"",""34"",""137883""
""blur"",""34"",""174840""
""blur"",""36"",""251875""
""blur"",""37"",""261048""
""blur"",""39"",""277685""
""blur"",""41"",""332970""
","""event"",""trial"",""time""
""focus"",""0"",""0""
""focus"",""1"",""1480""
""focus"",""34"",""136414""
""focus"",""34"",""174814""
""focus"",""34"",""246830""
""focus"",""36"",""252840""
""focus"",""37"",""267348""
""focus"",""39"",""324474""
""focus"",""41"",""336572""
","""event"",""trial"",""time""
""fullscreenenter"",""1"",""1494""
","""event"",""trial"",""time""
""fullscreenexit"",""34"",""136461""
","","","","","","null","<div style=""font-size:60px;"">+</div>","null","","fixation","","",""
"memory-trial","64","379498","0.0-18.0-1.10","4267","approach_avoid_sv1","""event"",""trial"",""time""
""focus"",""0"",""0""
""blur"",""1"",""1467""
""focus"",""1"",""1480""
""fullscreenenter"",""1"",""1494""
""blur"",""34"",""136398""
""focus"",""34"",""136414""
""fullscreenexit"",""34"",""136461""
""blur"",""34"",""137883""
""focus"",""34"",""174814""
""blur"",""34"",""174840""
""focus"",""34"",""246830""
""blur"",""36"",""251875""
""focus"",""36"",""252840""
""blur"",""37"",""261048""
""focus"",""37"",""267348""
""blur"",""39"",""277685""
""focus"",""39"",""324474""
""blur"",""41"",""332970""
""focus"",""41"",""336572""
","""event"",""trial"",""time""
""blur"",""1"",""1467""
""blur"",""34"",""136398""
""blur"",""34"",""137883""
""blur"",""34"",""174840""
""blur"",""36"",""251875""
""blur"",""37"",""261048""
""blur"",""39"",""277685""
""blur"",""41"",""332970""
","""event"",""trial"",""time""
""focus"",""0"",""0""
""focus"",""1"",""1480""
""focus"",""34"",""136414""
""focus"",""34"",""174814""
""focus"",""34"",""246830""
""focus"",""36"",""252840""
""focus"",""37"",""267348""
""focus"",""39"",""324474""
""focus"",""41"",""336572""
","""event"",""trial"",""time""
""fullscreenenter"",""1"",""1494""
","""event"",""trial"",""time""
""fullscreenexit"",""34"",""136461""
","","","","","","885","images/orange7.png","","","memory_trial","4","definitely_new",""
"html-keyboard-response","65","380005","0.0-18.0-0.11","4267","approach_avoid_sv1","""event"",""trial"",""time""
""focus"",""0"",""0""
""blur"",""1"",""1467""
""focus"",""1"",""1480""
""fullscreenenter"",""1"",""1494""
""blur"",""34"",""136398""
""focus"",""34"",""136414""
""fullscreenexit"",""34"",""136461""
""blur"",""34"",""137883""
""focus"",""34"",""174814""
""blur"",""34"",""174840""
""focus"",""34"",""246830""
""blur"",""36"",""251875""
""focus"",""36"",""252840""
""blur"",""37"",""261048""
""focus"",""37"",""267348""
""blur"",""39"",""277685""
""focus"",""39"",""324474""
""blur"",""41"",""332970""
""focus"",""41"",""336572""
","""event"",""trial"",""time""
""blur"",""1"",""1467""
""blur"",""34"",""136398""
""blur"",""34"",""137883""
""blur"",""34"",""174840""
""blur"",""36"",""251875""
""blur"",""37"",""261048""
""blur"",""39"",""277685""
""blur"",""41"",""332970""
","""event"",""trial"",""time""
""focus"",""0"",""0""
""focus"",""1"",""1480""
""focus"",""34"",""136414""
""focus"",""34"",""174814""
""focus"",""34"",""246830""
""focus"",""36"",""252840""
""focus"",""37"",""267348""
""focus"",""39"",""324474""
""focus"",""41"",""336572""
","""event"",""trial"",""time""
""fullscreenenter"",""1"",""1494""
","""event"",""trial"",""time""
""fullscreenexit"",""34"",""136461""
","","","","","","null","<div style=""font-size:60px;"">+</div>","null","","fixation","","",""
"memory-trial","66","382259","0.0-18.0-1.11","4267","approach_avoid_sv1","""event"",""trial"",""time""
""focus"",""0"",""0""
""blur"",""1"",""1467""
""focus"",""1"",""1480""
""fullscreenenter"",""1"",""1494""
""blur"",""34"",""136398""
""focus"",""34"",""136414""
""fullscreenexit"",""34"",""136461""
""blur"",""34"",""137883""
""focus"",""34"",""174814""
""blur"",""34"",""174840""
""focus"",""34"",""246830""
""blur"",""36"",""251875""
""focus"",""36"",""252840""
""blur"",""37"",""261048""
""focus"",""37"",""267348""
""blur"",""39"",""277685""
""focus"",""39"",""324474""
""blur"",""41"",""332970""
""focus"",""41"",""336572""
","""event"",""trial"",""time""
""blur"",""1"",""1467""
""blur"",""34"",""136398""
""blur"",""34"",""137883""
""blur"",""34"",""174840""
""blur"",""36"",""251875""
""blur"",""37"",""261048""
""blur"",""39"",""277685""
""blur"",""41"",""332970""
","""event"",""trial"",""time""
""focus"",""0"",""0""
""focus"",""1"",""1480""
""focus"",""34"",""136414""
""focus"",""34"",""174814""
""focus"",""34"",""246830""
""focus"",""36"",""252840""
""focus"",""37"",""267348""
""focus"",""39"",""324474""
""focus"",""41"",""336572""
","""event"",""trial"",""time""
""fullscreenenter"",""1"",""1494""
","""event"",""trial"",""time""
""fullscreenexit"",""34"",""136461""
","","","","","","1248","images/flower2.png","","","memory_trial","1","definitely_old",""
"html-keyboard-response","67","382765","0.0-18.0-0.12","4267","approach_avoid_sv1","""event"",""trial"",""time""
""focus"",""0"",""0""
""blur"",""1"",""1467""
""focus"",""1"",""1480""
""fullscreenenter"",""1"",""1494""
""blur"",""34"",""136398""
""focus"",""34"",""136414""
""fullscreenexit"",""34"",""136461""
""blur"",""34"",""137883""
""focus"",""34"",""174814""
""blur"",""34"",""174840""
""focus"",""34"",""246830""
""blur"",""36"",""251875""
""focus"",""36"",""252840""
""blur"",""37"",""261048""
""focus"",""37"",""267348""
""blur"",""39"",""277685""
""focus"",""39"",""324474""
""blur"",""41"",""332970""
""focus"",""41"",""336572""
","""event"",""trial"",""time""
""blur"",""1"",""1467""
""blur"",""34"",""136398""
""blur"",""34"",""137883""
""blur"",""34"",""174840""
""blur"",""36"",""251875""
""blur"",""37"",""261048""
""blur"",""39"",""277685""
""blur"",""41"",""332970""
","""event"",""trial"",""time""
""focus"",""0"",""0""
""focus"",""1"",""1480""
""focus"",""34"",""136414""
""focus"",""34"",""174814""
""focus"",""34"",""246830""
""focus"",""36"",""252840""
""focus"",""37"",""267348""
""focus"",""39"",""324474""
""focus"",""41"",""336572""
","""event"",""trial"",""time""
""fullscreenenter"",""1"",""1494""
","""event"",""trial"",""time""
""fullscreenexit"",""34"",""136461""
","","","","","","null","<div style=""font-size:60px;"">+</div>","null","","fixation","","",""
"memory-trial","68","384757","0.0-18.0-1.12","4267","approach_avoid_sv1","""event"",""trial"",""time""
""focus"",""0"",""0""
""blur"",""1"",""1467""
""focus"",""1"",""1480""
""fullscreenenter"",""1"",""1494""
""blur"",""34"",""136398""
""focus"",""34"",""136414""
""fullscreenexit"",""34"",""136461""
""blur"",""34"",""137883""
""focus"",""34"",""174814""
""blur"",""34"",""174840""
""focus"",""34"",""246830""
""blur"",""36"",""251875""
""focus"",""36"",""252840""
""blur"",""37"",""261048""
""focus"",""37"",""267348""
""blur"",""39"",""277685""
""focus"",""39"",""324474""
""blur"",""41"",""332970""
""focus"",""41"",""336572""
","""event"",""trial"",""time""
""blur"",""1"",""1467""
""blur"",""34"",""136398""
""blur"",""34"",""137883""
""blur"",""34"",""174840""
""blur"",""36"",""251875""
""blur"",""37"",""261048""
""blur"",""39"",""277685""
""blur"",""41"",""332970""
","""event"",""trial"",""time""
""focus"",""0"",""0""
""focus"",""1"",""1480""
""focus"",""34"",""136414""
""focus"",""34"",""174814""
""focus"",""34"",""246830""
""focus"",""36"",""252840""
""focus"",""37"",""267348""
""focus"",""39"",""324474""
""focus"",""41"",""336572""
","""event"",""trial"",""time""
""fullscreenenter"",""1"",""1494""
","""event"",""trial"",""time""
""fullscreenexit"",""34"",""136461""
","","","","","","987","images/boat7.png","","","memory_trial","1","definitely_old",""
"html-keyboard-response","69","385263","0.0-18.0-0.13","4267","approach_avoid_sv1","""event"",""trial"",""time""
""focus"",""0"",""0""
""blur"",""1"",""1467""
""focus"",""1"",""1480""
""fullscreenenter"",""1"",""1494""
""blur"",""34"",""136398""
""focus"",""34"",""136414""
""fullscreenexit"",""34"",""136461""
""blur"",""34"",""137883""
""focus"",""34"",""174814""
""blur"",""34"",""174840""
""focus"",""34"",""246830""
""blur"",""36"",""251875""
""focus"",""36"",""252840""
""blur"",""37"",""261048""
""focus"",""37"",""267348""
""blur"",""39"",""277685""
""focus"",""39"",""324474""
""blur"",""41"",""332970""
""focus"",""41"",""336572""
","""event"",""trial"",""time""
""blur"",""1"",""1467""
""blur"",""34"",""136398""
""blur"",""34"",""137883""
""blur"",""34"",""174840""
""blur"",""36"",""251875""
""blur"",""37"",""261048""
""blur"",""39"",""277685""
""blur"",""41"",""332970""
","""event"",""trial"",""time""
""focus"",""0"",""0""
""focus"",""1"",""1480""
""focus"",""34"",""136414""
""focus"",""34"",""174814""
""focus"",""34"",""246830""
""focus"",""36"",""252840""
""focus"",""37"",""267348""
""focus"",""39"",""324474""
""focus"",""41"",""336572""
","""event"",""trial"",""time""
""fullscreenenter"",""1"",""1494""
","""event"",""trial"",""time""
""fullscreenexit"",""34"",""136461""
","","","","","","null","<div style=""font-size:60px;"">+</div>","null","","fixation","","",""
"memory-trial","70","387330","0.0-18.0-1.13","4267","approach_avoid_sv1","""event"",""trial"",""time""
""focus"",""0"",""0""
""blur"",""1"",""1467""
""focus"",""1"",""1480""
""fullscreenenter"",""1"",""1494""
""blur"",""34"",""136398""
""focus"",""34"",""136414""
""fullscreenexit"",""34"",""136461""
""blur"",""34"",""137883""
""focus"",""34"",""174814""
""blur"",""34"",""174840""
""focus"",""34"",""246830""
""blur"",""36"",""251875""
""focus"",""36"",""252840""
""blur"",""37"",""261048""
""focus"",""37"",""267348""
""blur"",""39"",""277685""
""focus"",""39"",""324474""
""blur"",""41"",""332970""
""focus"",""41"",""336572""
","""event"",""trial"",""time""
""blur"",""1"",""1467""
""blur"",""34"",""136398""
""blur"",""34"",""137883""
""blur"",""34"",""174840""
""blur"",""36"",""251875""
""blur"",""37"",""261048""
""blur"",""39"",""277685""
""blur"",""41"",""332970""
","""event"",""trial"",""time""
""focus"",""0"",""0""
""focus"",""1"",""1480""
""focus"",""34"",""136414""
""focus"",""34"",""174814""
""focus"",""34"",""246830""
""focus"",""36"",""252840""
""focus"",""37"",""267348""
""focus"",""39"",""324474""
""focus"",""41"",""336572""
","""event"",""trial"",""time""
""fullscreenenter"",""1"",""1494""
","""event"",""trial"",""time""
""fullscreenexit"",""34"",""136461""
","","","","","","1063","images/bed2.png","","","memory_trial","4","definitely_new",""
"html-keyboard-response","71","387836","0.0-18.0-0.14","4267","approach_avoid_sv1","""event"",""trial"",""time""
""focus"",""0"",""0""
""blur"",""1"",""1467""
""focus"",""1"",""1480""
""fullscreenenter"",""1"",""1494""
""blur"",""34"",""136398""
""focus"",""34"",""136414""
""fullscreenexit"",""34"",""136461""
""blur"",""34"",""137883""
""focus"",""34"",""174814""
""blur"",""34"",""174840""
""focus"",""34"",""246830""
""blur"",""36"",""251875""
""focus"",""36"",""252840""
""blur"",""37"",""261048""
""focus"",""37"",""267348""
""blur"",""39"",""277685""
""focus"",""39"",""324474""
""blur"",""41"",""332970""
""focus"",""41"",""336572""
","""event"",""trial"",""time""
""blur"",""1"",""1467""
""blur"",""34"",""136398""
""blur"",""34"",""137883""
""blur"",""34"",""174840""
""blur"",""36"",""251875""
""blur"",""37"",""261048""
""blur"",""39"",""277685""
""blur"",""41"",""332970""
","""event"",""trial"",""time""
""focus"",""0"",""0""
""focus"",""1"",""1480""
""focus"",""34"",""136414""
""focus"",""34"",""174814""
""focus"",""34"",""246830""
""focus"",""36"",""252840""
""focus"",""37"",""267348""
""focus"",""39"",""324474""
""focus"",""41"",""336572""
","""event"",""trial"",""time""
""fullscreenenter"",""1"",""1494""
","""event"",""trial"",""time""
""fullscreenexit"",""34"",""136461""
","","","","","","null","<div style=""font-size:60px;"">+</div>","null","","fixation","","",""
"memory-trial","72","389937","0.0-18.0-1.14","4267","approach_avoid_sv1","""event"",""trial"",""time""
""focus"",""0"",""0""
""blur"",""1"",""1467""
""focus"",""1"",""1480""
""fullscreenenter"",""1"",""1494""
""blur"",""34"",""136398""
""focus"",""34"",""136414""
""fullscreenexit"",""34"",""136461""
""blur"",""34"",""137883""
""focus"",""34"",""174814""
""blur"",""34"",""174840""
""focus"",""34"",""246830""
""blur"",""36"",""251875""
""focus"",""36"",""252840""
""blur"",""37"",""261048""
""focus"",""37"",""267348""
""blur"",""39"",""277685""
""focus"",""39"",""324474""
""blur"",""41"",""332970""
""focus"",""41"",""336572""
","""event"",""trial"",""time""
""blur"",""1"",""1467""
""blur"",""34"",""136398""
""blur"",""34"",""137883""
""blur"",""34"",""174840""
""blur"",""36"",""251875""
""blur"",""37"",""261048""
""blur"",""39"",""277685""
""blur"",""41"",""332970""
","""event"",""trial"",""time""
""focus"",""0"",""0""
""focus"",""1"",""1480""
""focus"",""34"",""136414""
""focus"",""34"",""174814""
""focus"",""34"",""246830""
""focus"",""36"",""252840""
""focus"",""37"",""267348""
""focus"",""39"",""324474""
""focus"",""41"",""336572""
","""event"",""trial"",""time""
""fullscreenenter"",""1"",""1494""
","""event"",""trial"",""time""
""fullscreenexit"",""34"",""136461""
","","","","","","1094","images/rodent8.png","","","memory_trial","1","definitely_old",""
"html-keyboard-response","73","390442","0.0-18.0-0.15","4267","approach_avoid_sv1","""event"",""trial"",""time""
""focus"",""0"",""0""
""blur"",""1"",""1467""
""focus"",""1"",""1480""
""fullscreenenter"",""1"",""1494""
""blur"",""34"",""136398""
""focus"",""34"",""136414""
""fullscreenexit"",""34"",""136461""
""blur"",""34"",""137883""
""focus"",""34"",""174814""
""blur"",""34"",""174840""
""focus"",""34"",""246830""
""blur"",""36"",""251875""
""focus"",""36"",""252840""
""blur"",""37"",""261048""
""focus"",""37"",""267348""
""blur"",""39"",""277685""
""focus"",""39"",""324474""
""blur"",""41"",""332970""
""focus"",""41"",""336572""
","""event"",""trial"",""time""
""blur"",""1"",""1467""
""blur"",""34"",""136398""
""blur"",""34"",""137883""
""blur"",""34"",""174840""
""blur"",""36"",""251875""
""blur"",""37"",""261048""
""blur"",""39"",""277685""
""blur"",""41"",""332970""
","""event"",""trial"",""time""
""focus"",""0"",""0""
""focus"",""1"",""1480""
""focus"",""34"",""136414""
""focus"",""34"",""174814""
""focus"",""34"",""246830""
""focus"",""36"",""252840""
""focus"",""37"",""267348""
""focus"",""39"",""324474""
""focus"",""41"",""336572""
","""event"",""trial"",""time""
""fullscreenenter"",""1"",""1494""
","""event"",""trial"",""time""
""fullscreenexit"",""34"",""136461""
","","","","","","null","<div style=""font-size:60px;"">+</div>","null","","fixation","","",""
"memory-trial","74","392214","0.0-18.0-1.15","4267","approach_avoid_sv1","""event"",""trial"",""time""
""focus"",""0"",""0""
""blur"",""1"",""1467""
""focus"",""1"",""1480""
""fullscreenenter"",""1"",""1494""
""blur"",""34"",""136398""
""focus"",""34"",""136414""
""fullscreenexit"",""34"",""136461""
""blur"",""34"",""137883""
""focus"",""34"",""174814""
""blur"",""34"",""174840""
""focus"",""34"",""246830""
""blur"",""36"",""251875""
""focus"",""36"",""252840""
""blur"",""37"",""261048""
""focus"",""37"",""267348""
""blur"",""39"",""277685""
""focus"",""39"",""324474""
""blur"",""41"",""332970""
""focus"",""41"",""336572""
","""event"",""trial"",""time""
""blur"",""1"",""1467""
""blur"",""34"",""136398""
""blur"",""34"",""137883""
""blur"",""34"",""174840""
""blur"",""36"",""251875""
""blur"",""37"",""261048""
""blur"",""39"",""277685""
""blur"",""41"",""332970""
","""event"",""trial"",""time""
""focus"",""0"",""0""
""focus"",""1"",""1480""
""focus"",""34"",""136414""
""focus"",""34"",""174814""
""focus"",""34"",""246830""
""focus"",""36"",""252840""
""focus"",""37"",""267348""
""focus"",""39"",""324474""
""focus"",""41"",""336572""
","""event"",""trial"",""time""
""fullscreenenter"",""1"",""1494""
","""event"",""trial"",""time""
""fullscreenexit"",""34"",""136461""
","","","","","","766","images/orange8.png","","","memory_trial","4","definitely_new",""
"html-keyboard-response","75","392721","0.0-18.0-0.16","4267","approach_avoid_sv1","""event"",""trial"",""time""
""focus"",""0"",""0""
""blur"",""1"",""1467""
""focus"",""1"",""1480""
""fullscreenenter"",""1"",""1494""
""blur"",""34"",""136398""
""focus"",""34"",""136414""
""fullscreenexit"",""34"",""136461""
""blur"",""34"",""137883""
""focus"",""34"",""174814""
""blur"",""34"",""174840""
""focus"",""34"",""246830""
""blur"",""36"",""251875""
""focus"",""36"",""252840""
""blur"",""37"",""261048""
""focus"",""37"",""267348""
""blur"",""39"",""277685""
""focus"",""39"",""324474""
""blur"",""41"",""332970""
""focus"",""41"",""336572""
","""event"",""trial"",""time""
""blur"",""1"",""1467""
""blur"",""34"",""136398""
""blur"",""34"",""137883""
""blur"",""34"",""174840""
""blur"",""36"",""251875""
""blur"",""37"",""261048""
""blur"",""39"",""277685""
""blur"",""41"",""332970""
","""event"",""trial"",""time""
""focus"",""0"",""0""
""focus"",""1"",""1480""
""focus"",""34"",""136414""
""focus"",""34"",""174814""
""focus"",""34"",""246830""
""focus"",""36"",""252840""
""focus"",""37"",""267348""
""focus"",""39"",""324474""
""focus"",""41"",""336572""
","""event"",""trial"",""time""
""fullscreenenter"",""1"",""1494""
","""event"",""trial"",""time""
""fullscreenexit"",""34"",""136461""
","","","","","","null","<div style=""font-size:60px;"">+</div>","null","","fixation","","",""
"memory-trial","76","394698","0.0-18.0-1.16","4267","approach_avoid_sv1","""event"",""trial"",""time""
""focus"",""0"",""0""
""blur"",""1"",""1467""
""focus"",""1"",""1480""
""fullscreenenter"",""1"",""1494""
""blur"",""34"",""136398""
""focus"",""34"",""136414""
""fullscreenexit"",""34"",""136461""
""blur"",""34"",""137883""
""focus"",""34"",""174814""
""blur"",""34"",""174840""
""focus"",""34"",""246830""
""blur"",""36"",""251875""
""focus"",""36"",""252840""
""blur"",""37"",""261048""
""focus"",""37"",""267348""
""blur"",""39"",""277685""
""focus"",""39"",""324474""
""blur"",""41"",""332970""
""focus"",""41"",""336572""
","""event"",""trial"",""time""
""blur"",""1"",""1467""
""blur"",""34"",""136398""
""blur"",""34"",""137883""
""blur"",""34"",""174840""
""blur"",""36"",""251875""
""blur"",""37"",""261048""
""blur"",""39"",""277685""
""blur"",""41"",""332970""
","""event"",""trial"",""time""
""focus"",""0"",""0""
""focus"",""1"",""1480""
""focus"",""34"",""136414""
""focus"",""34"",""174814""
""focus"",""34"",""246830""
""focus"",""36"",""252840""
""focus"",""37"",""267348""
""focus"",""39"",""324474""
""focus"",""41"",""336572""
","""event"",""trial"",""time""
""fullscreenenter"",""1"",""1494""
","""event"",""trial"",""time""
""fullscreenexit"",""34"",""136461""
","","","","","","974","images/sheep4.png","","","memory_trial","1","definitely_old",""
"html-keyboard-response","77","395200","0.0-18.0-0.17","4267","approach_avoid_sv1","""event"",""trial"",""time""
""focus"",""0"",""0""
""blur"",""1"",""1467""
""focus"",""1"",""1480""
""fullscreenenter"",""1"",""1494""
""blur"",""34"",""136398""
""focus"",""34"",""136414""
""fullscreenexit"",""34"",""136461""
""blur"",""34"",""137883""
""focus"",""34"",""174814""
""blur"",""34"",""174840""
""focus"",""34"",""246830""
""blur"",""36"",""251875""
""focus"",""36"",""252840""
""blur"",""37"",""261048""
""focus"",""37"",""267348""
""blur"",""39"",""277685""
""focus"",""39"",""324474""
""blur"",""41"",""332970""
""focus"",""41"",""336572""
","""event"",""trial"",""time""
""blur"",""1"",""1467""
""blur"",""34"",""136398""
""blur"",""34"",""137883""
""blur"",""34"",""174840""
""blur"",""36"",""251875""
""blur"",""37"",""261048""
""blur"",""39"",""277685""
""blur"",""41"",""332970""
","""event"",""trial"",""time""
""focus"",""0"",""0""
""focus"",""1"",""1480""
""focus"",""34"",""136414""
""focus"",""34"",""174814""
""focus"",""34"",""246830""
""focus"",""36"",""252840""
""focus"",""37"",""267348""
""focus"",""39"",""324474""
""focus"",""41"",""336572""
","""event"",""trial"",""time""
""fullscreenenter"",""1"",""1494""
","""event"",""trial"",""time""
""fullscreenexit"",""34"",""136461""
","","","","","","null","<div style=""font-size:60px;"">+</div>","null","","fixation","","",""
"memory-trial","78","397429","0.0-18.0-1.17","4267","approach_avoid_sv1","""event"",""trial"",""time""
""focus"",""0"",""0""
""blur"",""1"",""1467""
""focus"",""1"",""1480""
""fullscreenenter"",""1"",""1494""
""blur"",""34"",""136398""
""focus"",""34"",""136414""
""fullscreenexit"",""34"",""136461""
""blur"",""34"",""137883""
""focus"",""34"",""174814""
""blur"",""34"",""174840""
""focus"",""34"",""246830""
""blur"",""36"",""251875""
""focus"",""36"",""252840""
""blur"",""37"",""261048""
""focus"",""37"",""267348""
""blur"",""39"",""277685""
""focus"",""39"",""324474""
""blur"",""41"",""332970""
""focus"",""41"",""336572""
","""event"",""trial"",""time""
""blur"",""1"",""1467""
""blur"",""34"",""136398""
""blur"",""34"",""137883""
""blur"",""34"",""174840""
""blur"",""36"",""251875""
""blur"",""37"",""261048""
""blur"",""39"",""277685""
""blur"",""41"",""332970""
","""event"",""trial"",""time""
""focus"",""0"",""0""
""focus"",""1"",""1480""
""focus"",""34"",""136414""
""focus"",""34"",""174814""
""focus"",""34"",""246830""
""focus"",""36"",""252840""
""focus"",""37"",""267348""
""focus"",""39"",""324474""
""focus"",""41"",""336572""
","""event"",""trial"",""time""
""fullscreenenter"",""1"",""1494""
","""event"",""trial"",""time""
""fullscreenexit"",""34"",""136461""
","","","","","","1226","images/sofa2.png","","","memory_trial","3","maybe_new",""
"html-keyboard-response","79","397935","0.0-18.0-0.18","4267","approach_avoid_sv1","""event"",""trial"",""time""
""focus"",""0"",""0""
""blur"",""1"",""1467""
""focus"",""1"",""1480""
""fullscreenenter"",""1"",""1494""
""blur"",""34"",""136398""
""focus"",""34"",""136414""
""fullscreenexit"",""34"",""136461""
""blur"",""34"",""137883""
""focus"",""34"",""174814""
""blur"",""34"",""174840""
""focus"",""34"",""246830""
""blur"",""36"",""251875""
""focus"",""36"",""252840""
""blur"",""37"",""261048""
""focus"",""37"",""267348""
""blur"",""39"",""277685""
""focus"",""39"",""324474""
""blur"",""41"",""332970""
""focus"",""41"",""336572""
","""event"",""trial"",""time""
""blur"",""1"",""1467""
""blur"",""34"",""136398""
""blur"",""34"",""137883""
""blur"",""34"",""174840""
""blur"",""36"",""251875""
""blur"",""37"",""261048""
""blur"",""39"",""277685""
""blur"",""41"",""332970""
","""event"",""trial"",""time""
""focus"",""0"",""0""
""focus"",""1"",""1480""
""focus"",""34"",""136414""
""focus"",""34"",""174814""
""focus"",""34"",""246830""
""focus"",""36"",""252840""
""focus"",""37"",""267348""
""focus"",""39"",""324474""
""focus"",""41"",""336572""
","""event"",""trial"",""time""
""fullscreenenter"",""1"",""1494""
","""event"",""trial"",""time""
""fullscreenexit"",""34"",""136461""
","","","","","","null","<div style=""font-size:60px;"">+</div>","null","","fixation","","",""
"memory-trial","80","399889","0.0-18.0-1.18","4267","approach_avoid_sv1","""event"",""trial"",""time""
""focus"",""0"",""0""
""blur"",""1"",""1467""
""focus"",""1"",""1480""
""fullscreenenter"",""1"",""1494""
""blur"",""34"",""136398""
""focus"",""34"",""136414""
""fullscreenexit"",""34"",""136461""
""blur"",""34"",""137883""
""focus"",""34"",""174814""
""blur"",""34"",""174840""
""focus"",""34"",""246830""
""blur"",""36"",""251875""
""focus"",""36"",""252840""
""blur"",""37"",""261048""
""focus"",""37"",""267348""
""blur"",""39"",""277685""
""focus"",""39"",""324474""
""blur"",""41"",""332970""
""focus"",""41"",""336572""
","""event"",""trial"",""time""
""blur"",""1"",""1467""
""blur"",""34"",""136398""
""blur"",""34"",""137883""
""blur"",""34"",""174840""
""blur"",""36"",""251875""
""blur"",""37"",""261048""
""blur"",""39"",""277685""
""blur"",""41"",""332970""
","""event"",""trial"",""time""
""focus"",""0"",""0""
""focus"",""1"",""1480""
""focus"",""34"",""136414""
""focus"",""34"",""174814""
""focus"",""34"",""246830""
""focus"",""36"",""252840""
""focus"",""37"",""267348""
""focus"",""39"",""324474""
""focus"",""41"",""336572""
","""event"",""trial"",""time""
""fullscreenenter"",""1"",""1494""
","""event"",""trial"",""time""
""fullscreenexit"",""34"",""136461""
","","","","","","945","images/horse4.png","","","memory_trial","4","definitely_new",""
"html-keyboard-response","81","400390","0.0-18.0-0.19","4267","approach_avoid_sv1","""event"",""trial"",""time""
""focus"",""0"",""0""
""blur"",""1"",""1467""
""focus"",""1"",""1480""
""fullscreenenter"",""1"",""1494""
""blur"",""34"",""136398""
""focus"",""34"",""136414""
""fullscreenexit"",""34"",""136461""
""blur"",""34"",""137883""
""focus"",""34"",""174814""
""blur"",""34"",""174840""
""focus"",""34"",""246830""
""blur"",""36"",""251875""
""focus"",""36"",""252840""
""blur"",""37"",""261048""
""focus"",""37"",""267348""
""blur"",""39"",""277685""
""focus"",""39"",""324474""
""blur"",""41"",""332970""
""focus"",""41"",""336572""
","""event"",""trial"",""time""
""blur"",""1"",""1467""
""blur"",""34"",""136398""
""blur"",""34"",""137883""
""blur"",""34"",""174840""
""blur"",""36"",""251875""
""blur"",""37"",""261048""
""blur"",""39"",""277685""
""blur"",""41"",""332970""
","""event"",""trial"",""time""
""focus"",""0"",""0""
""focus"",""1"",""1480""
""focus"",""34"",""136414""
""focus"",""34"",""174814""
""focus"",""34"",""246830""
""focus"",""36"",""252840""
""focus"",""37"",""267348""
""focus"",""39"",""324474""
""focus"",""41"",""336572""
","""event"",""trial"",""time""
""fullscreenenter"",""1"",""1494""
","""event"",""trial"",""time""
""fullscreenexit"",""34"",""136461""
","","","","","","null","<div style=""font-size:60px;"">+</div>","null","","fixation","","",""
"memory-trial","82","402101","0.0-18.0-1.19","4267","approach_avoid_sv1","""event"",""trial"",""time""
""focus"",""0"",""0""
""blur"",""1"",""1467""
""focus"",""1"",""1480""
""fullscreenenter"",""1"",""1494""
""blur"",""34"",""136398""
""focus"",""34"",""136414""
""fullscreenexit"",""34"",""136461""
""blur"",""34"",""137883""
""focus"",""34"",""174814""
""blur"",""34"",""174840""
""focus"",""34"",""246830""
""blur"",""36"",""251875""
""focus"",""36"",""252840""
""blur"",""37"",""261048""
""focus"",""37"",""267348""
""blur"",""39"",""277685""
""focus"",""39"",""324474""
""blur"",""41"",""332970""
""focus"",""41"",""336572""
","""event"",""trial"",""time""
""blur"",""1"",""1467""
""blur"",""34"",""136398""
""blur"",""34"",""137883""
""blur"",""34"",""174840""
""blur"",""36"",""251875""
""blur"",""37"",""261048""
""blur"",""39"",""277685""
""blur"",""41"",""332970""
","""event"",""trial"",""time""
""focus"",""0"",""0""
""focus"",""1"",""1480""
""focus"",""34"",""136414""
""focus"",""34"",""174814""
""focus"",""34"",""246830""
""focus"",""36"",""252840""
""focus"",""37"",""267348""
""focus"",""39"",""324474""
""focus"",""41"",""336572""
","""event"",""trial"",""time""
""fullscreenenter"",""1"",""1494""
","""event"",""trial"",""time""
""fullscreenexit"",""34"",""136461""
","","","","","","704","images/truck1.png","","","memory_trial","4","definitely_new",""
"html-keyboard-response","83","402608","0.0-18.0-0.20","4267","approach_avoid_sv1","""event"",""trial"",""time""
""focus"",""0"",""0""
""blur"",""1"",""1467""
""focus"",""1"",""1480""
""fullscreenenter"",""1"",""1494""
""blur"",""34"",""136398""
""focus"",""34"",""136414""
""fullscreenexit"",""34"",""136461""
""blur"",""34"",""137883""
""focus"",""34"",""174814""
""blur"",""34"",""174840""
""focus"",""34"",""246830""
""blur"",""36"",""251875""
""focus"",""36"",""252840""
""blur"",""37"",""261048""
""focus"",""37"",""267348""
""blur"",""39"",""277685""
""focus"",""39"",""324474""
""blur"",""41"",""332970""
""focus"",""41"",""336572""
","""event"",""trial"",""time""
""blur"",""1"",""1467""
""blur"",""34"",""136398""
""blur"",""34"",""137883""
""blur"",""34"",""174840""
""blur"",""36"",""251875""
""blur"",""37"",""261048""
""blur"",""39"",""277685""
""blur"",""41"",""332970""
","""event"",""trial"",""time""
""focus"",""0"",""0""
""focus"",""1"",""1480""
""focus"",""34"",""136414""
""focus"",""34"",""174814""
""focus"",""34"",""246830""
""focus"",""36"",""252840""
""focus"",""37"",""267348""
""focus"",""39"",""324474""
""focus"",""41"",""336572""
","""event"",""trial"",""time""
""fullscreenenter"",""1"",""1494""
","""event"",""trial"",""time""
""fullscreenexit"",""34"",""136461""
","","","","","","null","<div style=""font-size:60px;"">+</div>","null","","fixation","","",""
"memory-trial","84","404893","0.0-18.0-1.20","4267","approach_avoid_sv1","""event"",""trial"",""time""
""focus"",""0"",""0""
""blur"",""1"",""1467""
""focus"",""1"",""1480""
""fullscreenenter"",""1"",""1494""
""blur"",""34"",""136398""
""focus"",""34"",""136414""
""fullscreenexit"",""34"",""136461""
""blur"",""34"",""137883""
""focus"",""34"",""174814""
""blur"",""34"",""174840""
""focus"",""34"",""246830""
""blur"",""36"",""251875""
""focus"",""36"",""252840""
""blur"",""37"",""261048""
""focus"",""37"",""267348""
""blur"",""39"",""277685""
""focus"",""39"",""324474""
""blur"",""41"",""332970""
""focus"",""41"",""336572""
","""event"",""trial"",""time""
""blur"",""1"",""1467""
""blur"",""34"",""136398""
""blur"",""34"",""137883""
""blur"",""34"",""174840""
""blur"",""36"",""251875""
""blur"",""37"",""261048""
""blur"",""39"",""277685""
""blur"",""41"",""332970""
","""event"",""trial"",""time""
""focus"",""0"",""0""
""focus"",""1"",""1480""
""focus"",""34"",""136414""
""focus"",""34"",""174814""
""focus"",""34"",""246830""
""focus"",""36"",""252840""
""focus"",""37"",""267348""
""focus"",""39"",""324474""
""focus"",""41"",""336572""
","""event"",""trial"",""time""
""fullscreenenter"",""1"",""1494""
","""event"",""trial"",""time""
""fullscreenexit"",""34"",""136461""
","","","","","","1279","images/sheep6.png","","","memory_trial","4","definitely_new",""
"html-keyboard-response","85","405397","0.0-18.0-0.21","4267","approach_avoid_sv1","""event"",""trial"",""time""
""focus"",""0"",""0""
""blur"",""1"",""1467""
""focus"",""1"",""1480""
""fullscreenenter"",""1"",""1494""
""blur"",""34"",""136398""
""focus"",""34"",""136414""
""fullscreenexit"",""34"",""136461""
""blur"",""34"",""137883""
""focus"",""34"",""174814""
""blur"",""34"",""174840""
""focus"",""34"",""246830""
""blur"",""36"",""251875""
""focus"",""36"",""252840""
""blur"",""37"",""261048""
""focus"",""37"",""267348""
""blur"",""39"",""277685""
""focus"",""39"",""324474""
""blur"",""41"",""332970""
""focus"",""41"",""336572""
","""event"",""trial"",""time""
""blur"",""1"",""1467""
""blur"",""34"",""136398""
""blur"",""34"",""137883""
""blur"",""34"",""174840""
""blur"",""36"",""251875""
""blur"",""37"",""261048""
""blur"",""39"",""277685""
""blur"",""41"",""332970""
","""event"",""trial"",""time""
""focus"",""0"",""0""
""focus"",""1"",""1480""
""focus"",""34"",""136414""
""focus"",""34"",""174814""
""focus"",""34"",""246830""
""focus"",""36"",""252840""
""focus"",""37"",""267348""
""focus"",""39"",""324474""
""focus"",""41"",""336572""
","""event"",""trial"",""time""
""fullscreenenter"",""1"",""1494""
","""event"",""trial"",""time""
""fullscreenexit"",""34"",""136461""
","","","","","","null","<div style=""font-size:60px;"">+</div>","null","","fixation","","",""
"memory-trial","86","407650","0.0-18.0-1.21","4267","approach_avoid_sv1","""event"",""trial"",""time""
""focus"",""0"",""0""
""blur"",""1"",""1467""
""focus"",""1"",""1480""
""fullscreenenter"",""1"",""1494""
""blur"",""34"",""136398""
""focus"",""34"",""136414""
""fullscreenexit"",""34"",""136461""
""blur"",""34"",""137883""
""focus"",""34"",""174814""
""blur"",""34"",""174840""
""focus"",""34"",""246830""
""blur"",""36"",""251875""
""focus"",""36"",""252840""
""blur"",""37"",""261048""
""focus"",""37"",""267348""
""blur"",""39"",""277685""
""focus"",""39"",""324474""
""blur"",""41"",""332970""
""focus"",""41"",""336572""
","""event"",""trial"",""time""
""blur"",""1"",""1467""
""blur"",""34"",""136398""
""blur"",""34"",""137883""
""blur"",""34"",""174840""
""blur"",""36"",""251875""
""blur"",""37"",""261048""
""blur"",""39"",""277685""
""blur"",""41"",""332970""
","""event"",""trial"",""time""
""focus"",""0"",""0""
""focus"",""1"",""1480""
""focus"",""34"",""136414""
""focus"",""34"",""174814""
""focus"",""34"",""246830""
""focus"",""36"",""252840""
""focus"",""37"",""267348""
""focus"",""39"",""324474""
""focus"",""41"",""336572""
","""event"",""trial"",""time""
""fullscreenenter"",""1"",""1494""
","""event"",""trial"",""time""
""fullscreenexit"",""34"",""136461""
","","","","","","1248","images/rabbit4.png","","","memory_trial","2","maybe_old",""
"html-keyboard-response","87","408156","0.0-18.0-0.22","4267","approach_avoid_sv1","""event"",""trial"",""time""
""focus"",""0"",""0""
""blur"",""1"",""1467""
""focus"",""1"",""1480""
""fullscreenenter"",""1"",""1494""
""blur"",""34"",""136398""
""focus"",""34"",""136414""
""fullscreenexit"",""34"",""136461""
""blur"",""34"",""137883""
""focus"",""34"",""174814""
""blur"",""34"",""174840""
""focus"",""34"",""246830""
""blur"",""36"",""251875""
""focus"",""36"",""252840""
""blur"",""37"",""261048""
""focus"",""37"",""267348""
""blur"",""39"",""277685""
""focus"",""39"",""324474""
""blur"",""41"",""332970""
""focus"",""41"",""336572""
","""event"",""trial"",""time""
""blur"",""1"",""1467""
""blur"",""34"",""136398""
""blur"",""34"",""137883""
""blur"",""34"",""174840""
""blur"",""36"",""251875""
""blur"",""37"",""261048""
""blur"",""39"",""277685""
""blur"",""41"",""332970""
","""event"",""trial"",""time""
""focus"",""0"",""0""
""focus"",""1"",""1480""
""focus"",""34"",""136414""
""focus"",""34"",""174814""
""focus"",""34"",""246830""
""focus"",""36"",""252840""
""focus"",""37"",""267348""
""focus"",""39"",""324474""
""focus"",""41"",""336572""
","""event"",""trial"",""time""
""fullscreenenter"",""1"",""1494""
","""event"",""trial"",""time""
""fullscreenexit"",""34"",""136461""
","","","","","","null","<div style=""font-size:60px;"">+</div>","null","","fixation","","",""
"memory-trial","88","410453","0.0-18.0-1.22","4267","approach_avoid_sv1","""event"",""trial"",""time""
""focus"",""0"",""0""
""blur"",""1"",""1467""
""focus"",""1"",""1480""
""fullscreenenter"",""1"",""1494""
""blur"",""34"",""136398""
""focus"",""34"",""136414""
""fullscreenexit"",""34"",""136461""
""blur"",""34"",""137883""
""focus"",""34"",""174814""
""blur"",""34"",""174840""
""focus"",""34"",""246830""
""blur"",""36"",""251875""
""focus"",""36"",""252840""
""blur"",""37"",""261048""
""focus"",""37"",""267348""
""blur"",""39"",""277685""
""focus"",""39"",""324474""
""blur"",""41"",""332970""
""focus"",""41"",""336572""
","""event"",""trial"",""time""
""blur"",""1"",""1467""
""blur"",""34"",""136398""
""blur"",""34"",""137883""
""blur"",""34"",""174840""
""blur"",""36"",""251875""
""blur"",""37"",""261048""
""blur"",""39"",""277685""
""blur"",""41"",""332970""
","""event"",""trial"",""time""
""focus"",""0"",""0""
""focus"",""1"",""1480""
""focus"",""34"",""136414""
""focus"",""34"",""174814""
""focus"",""34"",""246830""
""focus"",""36"",""252840""
""focus"",""37"",""267348""
""focus"",""39"",""324474""
""focus"",""41"",""336572""
","""event"",""trial"",""time""
""fullscreenenter"",""1"",""1494""
","""event"",""trial"",""time""
""fullscreenexit"",""34"",""136461""
","","","","","","1291","images/cow1.png","","","memory_trial","4","definitely_new",""
"html-keyboard-response","89","410954","0.0-18.0-0.23","4267","approach_avoid_sv1","""event"",""trial"",""time""
""focus"",""0"",""0""
""blur"",""1"",""1467""
""focus"",""1"",""1480""
""fullscreenenter"",""1"",""1494""
""blur"",""34"",""136398""
""focus"",""34"",""136414""
""fullscreenexit"",""34"",""136461""
""blur"",""34"",""137883""
""focus"",""34"",""174814""
""blur"",""34"",""174840""
""focus"",""34"",""246830""
""blur"",""36"",""251875""
""focus"",""36"",""252840""
""blur"",""37"",""261048""
""focus"",""37"",""267348""
""blur"",""39"",""277685""
""focus"",""39"",""324474""
""blur"",""41"",""332970""
""focus"",""41"",""336572""
","""event"",""trial"",""time""
""blur"",""1"",""1467""
""blur"",""34"",""136398""
""blur"",""34"",""137883""
""blur"",""34"",""174840""
""blur"",""36"",""251875""
""blur"",""37"",""261048""
""blur"",""39"",""277685""
""blur"",""41"",""332970""
","""event"",""trial"",""time""
""focus"",""0"",""0""
""focus"",""1"",""1480""
""focus"",""34"",""136414""
""focus"",""34"",""174814""
""focus"",""34"",""246830""
""focus"",""36"",""252840""
""focus"",""37"",""267348""
""focus"",""39"",""324474""
""focus"",""41"",""336572""
","""event"",""trial"",""time""
""fullscreenenter"",""1"",""1494""
","""event"",""trial"",""time""
""fullscreenexit"",""34"",""136461""
","","","","","","null","<div style=""font-size:60px;"">+</div>","null","","fixation","","",""
"memory-trial","90","413340","0.0-18.0-1.23","4267","approach_avoid_sv1","""event"",""trial"",""time""
""focus"",""0"",""0""
""blur"",""1"",""1467""
""focus"",""1"",""1480""
""fullscreenenter"",""1"",""1494""
""blur"",""34"",""136398""
""focus"",""34"",""136414""
""fullscreenexit"",""34"",""136461""
""blur"",""34"",""137883""
""focus"",""34"",""174814""
""blur"",""34"",""174840""
""focus"",""34"",""246830""
""blur"",""36"",""251875""
""focus"",""36"",""252840""
""blur"",""37"",""261048""
""focus"",""37"",""267348""
""blur"",""39"",""277685""
""focus"",""39"",""324474""
""blur"",""41"",""332970""
""focus"",""41"",""336572""
","""event"",""trial"",""time""
""blur"",""1"",""1467""
""blur"",""34"",""136398""
""blur"",""34"",""137883""
""blur"",""34"",""174840""
