"trial_type","trial_index","time_elapsed","internal_node_id","subject_id","task_version","interactions","blur_events","focus_events","fullscreenenter_events","fullscreenexit_events","success","timeout","failed_images","failed_audio","failed_video","rt","stimulus","response","button_pressed","task_part","key_press","answer","correct"
"pavlovia","0","4","0.0-0.0","5334","approach_avoid_sv1","""event"",""trial"",""time""
""fullscreenenter"",""1"",""1902""
","
","
","""event"",""trial"",""time""
""fullscreenenter"",""1"",""1902""
","
","","","","","","","","","","","","",""
"fullscreen","1","2863","0.0-1.0","5334","approach_avoid_sv1","""event"",""trial"",""time""
""fullscreenenter"",""1"",""1902""
","
","
","""event"",""trial"",""time""
""fullscreenenter"",""1"",""1902""
","
","true","","","","","","","","","","","",""
"preload","2","5240","0.0-2.0","5334","approach_avoid_sv1","""event"",""trial"",""time""
""fullscreenenter"",""1"",""1902""
","
","
","""event"",""trial"",""time""
""fullscreenenter"",""1"",""1902""
","
","true","false","[]","[]","[]","","","","","","","",""
"preload","3","7249","0.0-3.0","5334","approach_avoid_sv1","""event"",""trial"",""time""
""fullscreenenter"",""1"",""1902""
","
","
","""event"",""trial"",""time""
""fullscreenenter"",""1"",""1902""
","
","true","false","[]","[]","[]","","","","","","","",""
"preload","4","7471","0.0-4.0","5334","approach_avoid_sv1","""event"",""trial"",""time""
""fullscreenenter"",""1"",""1902""
","
","
","""event"",""trial"",""time""
""fullscreenenter"",""1"",""1902""
","
","true","false","[]","[]","[]","","","","","","","",""
"audio-keyboard-response","5","11356","0.0-5.0","5334","approach_avoid_sv1","""event"",""trial"",""time""
""fullscreenenter"",""1"",""1902""
","
","
","""event"",""trial"",""time""
""fullscreenenter"",""1"",""1902""
","
","","","","","","0","audio/beep_loop.wav"," ","","","","",""
"audio-button-response","6","14625","0.0-6.0","5334","approach_avoid_sv1","""event"",""trial"",""time""
""fullscreenenter"",""1"",""1902""
","
","
","""event"",""trial"",""time""
""fullscreenenter"",""1"",""1902""
","
","","","","","","3225","audio/turtle.wav","3","","","","",""
"audio-button-response","7","16752","0.0-7.0","5334","approach_avoid_sv1","""event"",""trial"",""time""
""fullscreenenter"",""1"",""1902""
","
","
","""event"",""trial"",""time""
""fullscreenenter"",""1"",""1902""
","
","","","","","","1126","audio/shark.wav","2","","","","",""
"preload","8","20248","0.0-8.0","5334","approach_avoid_sv1","""event"",""trial"",""time""
""fullscreenenter"",""1"",""1902""
","
","
","""event"",""trial"",""time""
""fullscreenenter"",""1"",""1902""
","
","true","false","[]","[]","[]","","","","","","","",""
"learning-instructions","9","27100","0.0-9.0-0.0","5334","approach_avoid_sv1","""event"",""trial"",""time""
""fullscreenenter"",""1"",""1902""
","
","
","""event"",""trial"",""time""
""fullscreenenter"",""1"",""1902""
","
","","","","","","2375","<p> Welcome back! </p><p> Last week, you had to make choices about lots of different items.  </p>","","0","instructions","","",""
"learning-instructions","10","32654","0.0-9.0-0.1","5334","approach_avoid_sv1","""event"",""trial"",""time""
""fullscreenenter"",""1"",""1902""
","
","
","""event"",""trial"",""time""
""fullscreenenter"",""1"",""1902""
","
","","","","","","1445","<p> Today, we are going to ask you to try to remember all the items. </p>","","0","instructions","","",""
"learning-instructions","11","43313","0.0-9.0-0.2","5334","approach_avoid_sv1","""event"",""trial"",""time""
""fullscreenenter"",""1"",""1902""
","
","
","""event"",""trial"",""time""
""fullscreenenter"",""1"",""1902""
","
","","","","","","529","<p> On every trial, you will see an image. </p><p> The image may be an OLD image you saw during the games last week or it may be a NEW image that was not presented. </p>","","0","instructions","","",""
"learning-instructions","12","53624","0.0-9.0-0.3","5334","approach_avoid_sv1","""event"",""trial"",""time""
""fullscreenenter"",""1"",""1902""
","
","
","""event"",""trial"",""time""
""fullscreenenter"",""1"",""1902""
","
","","","","","","1814","<p> You need to select whether the image is:  </p><p>  'Definitely old', 'Maybe old', 'Maybe new', or 'Definitely new.'  </p><div class=""mem-choice-instructions-grid""><div class=""choice-option"" id=""choice-option-1"" ><img src=""images/definitely_old_1.png"" id=""choice-option-img-1"" class=""choice-option-img"" stage=""1""></div><div class=""choice-option"" id=""choice-option-2"" ><img src=""images/maybe_old_1.png"" id=""choice-option-img-2"" class=""choice-option-img"" stage=""1""></div><div class=""choice-option"" id=""choice-option-3"" ><img src=""images/maybe_new_1.png"" id=""choice-option-img-3"" class=""choice-option-img"" stage=""1""></div><div class=""choice-option"" id=""choice-option-4"" > <img src=""images/definitely_new_1.png"" id=""choice-option-img-4"" class=""choice-option-img"" stage=""1""></div></div>","","0","instructions","","",""
"learning-instructions","13","60460","0.0-9.0-0.4","5334","approach_avoid_sv1","""event"",""trial"",""time""
""fullscreenenter"",""1"",""1902""
","
","
","""event"",""trial"",""time""
""fullscreenenter"",""1"",""1902""
","
","","","","","","328","<p> You should use the 1, 2, 3, and 4 keys to make your responses.  </p><div class=""mem-choice-instructions-grid""><div class=""choice-option"" id=""choice-option-1"" ><img src=""images/definitely_old.png"" id=""choice-option-img-1"" class=""choice-option-img"" stage=""1""></div><div class=""choice-option"" id=""choice-option-2"" ><img src=""images/maybe_old.png"" id=""choice-option-img-2"" class=""choice-option-img"" stage=""1""></div><div class=""choice-option"" id=""choice-option-3"" ><img src=""images/maybe_new.png"" id=""choice-option-img-3"" class=""choice-option-img"" stage=""1""></div><div class=""choice-option"" id=""choice-option-4"" > <img src=""images/definitely_new.png"" id=""choice-option-img-4"" class=""choice-option-img"" stage=""1""></div></div>","","0","instructions","","",""
"learning-instructions","14","67214","0.0-9.0-0.5","5334","approach_avoid_sv1","""event"",""trial"",""time""
""fullscreenenter"",""1"",""1902""
","
","
","""event"",""trial"",""time""
""fullscreenenter"",""1"",""1902""
","
","","","","","","429.00000000001455","<p> You will have 10 seconds to make each response.  </p><p>  Make sure to respond before time runs out! </p>","","0","instructions","","",""
"learning-instructions","15","74630","0.0-9.0-0.6","5334","approach_avoid_sv1","""event"",""trial"",""time""
""fullscreenenter"",""1"",""1902""
","
","
","""event"",""trial"",""time""
""fullscreenenter"",""1"",""1902""
","
","","","","","","340","<p> Today, you will see each image ONCE only.  </p><p>  That means none of the images will repeat. </p>","","0","instructions","","",""
"learning-instructions","16","87677","0.0-9.0-0.7","5334","approach_avoid_sv1","""event"",""trial"",""time""
""fullscreenenter"",""1"",""1902""
","
","
","""event"",""trial"",""time""
""fullscreenenter"",""1"",""1902""
","
","","","","","","383","<p> Before you play the real game, it is time to practice. </p><p>  Just like in the real game, some of the images in the practice will be ones you have seen before. </p><p>  Others will be entirely new. </p>","","0","instructions","","",""
"html-button-response","17","90121","0.0-10.0","5334","approach_avoid_sv1","""event"",""trial"",""time""
""fullscreenenter"",""1"",""1902""
","
","
","""event"",""trial"",""time""
""fullscreenenter"",""1"",""1902""
","
","","","","","","2342","<p> Ready to practice? </p><p> Remember, use the 1, 2, 3, and 4 keys to make your responses. </p>","0","","instructions","","",""
"html-keyboard-response","18","90723","0.0-11.0-0.0","5334","approach_avoid_sv1","""event"",""trial"",""time""
""fullscreenenter"",""1"",""1902""
","
","
","""event"",""trial"",""time""
""fullscreenenter"",""1"",""1902""
","
","","","","","","null","<div style=""font-size:60px;"">+</div>","null","","fixation","","",""
"memory-trial","19","95784","0.0-11.0-1.0","5334","approach_avoid_sv1","""event"",""trial"",""time""
""fullscreenenter"",""1"",""1902""
","
","
","""event"",""trial"",""time""
""fullscreenenter"",""1"",""1902""
","
","","","","","","4058","images/racket5.png","","","practice","2","maybe_old",""
"html-keyboard-response","20","96286","0.0-11.0-0.1","5334","approach_avoid_sv1","""event"",""trial"",""time""
""fullscreenenter"",""1"",""1902""
","
","
","""event"",""trial"",""time""
""fullscreenenter"",""1"",""1902""
","
","","","","","","null","<div style=""font-size:60px;"">+</div>","null","","fixation","","",""
"memory-trial","21","100360","0.0-11.0-1.1","5334","approach_avoid_sv1","""event"",""trial"",""time""
""fullscreenenter"",""1"",""1902""
","
","
","""event"",""trial"",""time""
""fullscreenenter"",""1"",""1902""
","
","","","","","","3071","images/ball5.png","","","practice","4","definitely_new",""
"html-keyboard-response","22","100861","0.0-11.0-0.2","5334","approach_avoid_sv1","""event"",""trial"",""time""
""fullscreenenter"",""1"",""1902""
","
","
","""event"",""trial"",""time""
""fullscreenenter"",""1"",""1902""
","
","","","","","","null","<div style=""font-size:60px;"">+</div>","null","","fixation","","",""
"memory-trial","23","105615","0.0-11.0-1.2","5334","approach_avoid_sv1","""event"",""trial"",""time""
""fullscreenenter"",""1"",""1902""
","
","
","""event"",""trial"",""time""
""fullscreenenter"",""1"",""1902""
","
","","","","","","3751.9999999999854","images/racket3.png","","","practice","3","maybe_new",""
"html-keyboard-response","24","106117","0.0-11.0-0.3","5334","approach_avoid_sv1","""event"",""trial"",""time""
""fullscreenenter"",""1"",""1902""
","
","
","""event"",""trial"",""time""
""fullscreenenter"",""1"",""1902""
","
","","","","","","null","<div style=""font-size:60px;"">+</div>","null","","fixation","","",""
"memory-trial","25","109006","0.0-11.0-1.3","5334","approach_avoid_sv1","""event"",""trial"",""time""
""fullscreenenter"",""1"",""1902""
","
","
","""event"",""trial"",""time""
""fullscreenenter"",""1"",""1902""
","
","","","","","","1887.9999999999854","images/ball2.png","","","practice","2","maybe_old",""
"html-keyboard-response","26","109507","0.0-11.0-0.4","5334","approach_avoid_sv1","""event"",""trial"",""time""
""fullscreenenter"",""1"",""1902""
","
","
","""event"",""trial"",""time""
""fullscreenenter"",""1"",""1902""
","
","","","","","","null","<div style=""font-size:60px;"">+</div>","null","","fixation","","",""
"memory-trial","27","113583","0.0-11.0-1.4","5334","approach_avoid_sv1","""event"",""trial"",""time""
""fullscreenenter"",""1"",""1902""
","
","
","""event"",""trial"",""time""
""fullscreenenter"",""1"",""1902""
","
","","","","","","3073.0000000000146","images/racket2.png","","","practice","3","maybe_new",""
"html-keyboard-response","28","114085","0.0-11.0-0.5","5334","approach_avoid_sv1","""event"",""trial"",""time""
""fullscreenenter"",""1"",""1902""
","
","
","""event"",""trial"",""time""
""fullscreenenter"",""1"",""1902""
","
","","","","","","null","<div style=""font-size:60px;"">+</div>","null","","fixation","","",""
"memory-trial","29","116631","0.0-11.0-1.5","5334","approach_avoid_sv1","""event"",""trial"",""time""
""fullscreenenter"",""1"",""1902""
","
","
","""event"",""trial"",""time""
""fullscreenenter"",""1"",""1902""
","
","","","","","","1544.0000000000146","images/ball1.png","","","practice","1","definitely_old",""
"html-keyboard-response","30","117133","0.0-11.0-0.6","5334","approach_avoid_sv1","""event"",""trial"",""time""
""fullscreenenter"",""1"",""1902""
","
","
","""event"",""trial"",""time""
""fullscreenenter"",""1"",""1902""
","
","","","","","","null","<div style=""font-size:60px;"">+</div>","null","","fixation","","",""
"memory-trial","31","119615","0.0-11.0-1.6","5334","approach_avoid_sv1","""event"",""trial"",""time""
""fullscreenenter"",""1"",""1902""
","
","
","""event"",""trial"",""time""
""fullscreenenter"",""1"",""1902""
","
","","","","","","1480","images/ball3.png","","","practice","2","maybe_old",""
"html-keyboard-response","32","120116","0.0-11.0-0.7","5334","approach_avoid_sv1","""event"",""trial"",""time""
""fullscreenenter"",""1"",""1902""
","
","
","""event"",""trial"",""time""
""fullscreenenter"",""1"",""1902""
","
","","","","","","null","<div style=""font-size:60px;"">+</div>","null","","fixation","","",""
"memory-trial","33","122657","0.0-11.0-1.7","5334","approach_avoid_sv1","""event"",""trial"",""time""
""fullscreenenter"",""1"",""1902""
","
","
","""event"",""trial"",""time""
""fullscreenenter"",""1"",""1902""
","
","","","","","","1537.9999999999854","images/racket1.png","","","practice","2","maybe_old",""
"learning-instructions","34","132052","0.0-12.0-0.0","5334","approach_avoid_sv1","""event"",""trial"",""time""
""fullscreenenter"",""1"",""1902""
","
","
","""event"",""trial"",""time""
""fullscreenenter"",""1"",""1902""
","
","","","","","","2085","<p> Great! You have completed the practice. </p><p> Before you start, we're going to ask you a few questions about how the game works.  </p>","","0","instructions","","",""
"preload","35","134079","0.0-13.0","5334","approach_avoid_sv1","""event"",""trial"",""time""
""fullscreenenter"",""1"",""1902""
","
","
","""event"",""trial"",""time""
""fullscreenenter"",""1"",""1902""
","
","true","false","[]","[]","[]","","","","","","","",""
"comp-q","36","141070","0.0-14.0-0.0","5334","approach_avoid_sv1","""event"",""trial"",""time""
""fullscreenenter"",""1"",""1902""
","
","
","""event"",""trial"",""time""
""fullscreenenter"",""1"",""1902""
","
","","","","","","1159.999999999971","<p> <b> True or False? </b> </p><p> In this game, you will only see each image once. </p>","","0","comp_question","","","true"
"comp-q","37","148645","0.0-14.0-1.0","5334","approach_avoid_sv1","""event"",""trial"",""time""
""fullscreenenter"",""1"",""1902""
","
","
","""event"",""trial"",""time""
""fullscreenenter"",""1"",""1902""
","
","","","","","","1243","<p> <b> That's right! </b> You will see many different images <i> one time each </i> in this game. </p>","","0","comp_answer","","",""
"comp-q","38","154247","0.0-15.0-0.0","5334","approach_avoid_sv1","""event"",""trial"",""time""
""fullscreenenter"",""1"",""1902""
","
","
","""event"",""trial"",""time""
""fullscreenenter"",""1"",""1902""
","
","","","","","","595","<p> <b> True or False? </b> </p><p> You should use the mouse and click to make your response. </p>","","1","comp_question","","","true"
"comp-q","39","162084","0.0-15.0-1.0","5334","approach_avoid_sv1","""event"",""trial"",""time""
""fullscreenenter"",""1"",""1902""
","
","
","""event"",""trial"",""time""
""fullscreenenter"",""1"",""1902""
","
","","","","","","1340","<p><b> That's right! </b> You should use the '1', '2', '3', and '4' keys to make your response. </p>","","0","comp_answer","","",""
"comp-q","40","170716","0.0-16.0-0.0","5334","approach_avoid_sv1","""event"",""trial"",""time""
""fullscreenenter"",""1"",""1902""
","
","
","""event"",""trial"",""time""
""fullscreenenter"",""1"",""1902""
","
","","","","","","2959","<p> <b> True or False? </b> </p><p> You will have as much time as you want to make each choice. </p>","","1","comp_question","","","true"
"comp-q","41","179188","0.0-16.0-1.0","5334","approach_avoid_sv1","""event"",""trial"",""time""
""fullscreenenter"",""1"",""1902""
","
","
","""event"",""trial"",""time""
""fullscreenenter"",""1"",""1902""
","
","","","","","","3780","<p> <b> That's right! </b> You will only have 10 seconds to make each choice. </p>","","0","comp_answer","","",""
"learning-instructions","42","190728","0.0-17.0","5334","approach_avoid_sv1","""event"",""trial"",""time""
""fullscreenenter"",""1"",""1902""
","
","
","""event"",""trial"",""time""
""fullscreenenter"",""1"",""1902""
","
","","","","","","2875","<p> Great! You are now ready to begin the game. </p><p> Remember, use the 1, 2, 3, and 4 keys to make your responses. </p>","","0","instructions","","",""
"html-keyboard-response","43","191330","0.0-18.0-0.0","5334","approach_avoid_sv1","""event"",""trial"",""time""
""fullscreenenter"",""1"",""1902""
","
","
","""event"",""trial"",""time""
""fullscreenenter"",""1"",""1902""
","
","","","","","","null","<div style=""font-size:60px;"">+</div>","null","","fixation","","",""
"memory-trial","44","195044","0.0-18.0-1.0","5334","approach_avoid_sv1","""event"",""trial"",""time""
""fullscreenenter"",""1"",""1902""
","
","
","""event"",""trial"",""time""
""fullscreenenter"",""1"",""1902""
","
","","","","","","2712","images/chair5.png","","","memory_trial","1","definitely_old",""
"html-keyboard-response","45","195546","0.0-18.0-0.1","5334","approach_avoid_sv1","""event"",""trial"",""time""
""fullscreenenter"",""1"",""1902""
","
","
","""event"",""trial"",""time""
""fullscreenenter"",""1"",""1902""
","
","","","","","","null","<div style=""font-size:60px;"">+</div>","null","","fixation","","",""
"memory-trial","46","198540","0.0-18.0-1.1","5334","approach_avoid_sv1","""event"",""trial"",""time""
""fullscreenenter"",""1"",""1902""
","
","
","""event"",""trial"",""time""
""fullscreenenter"",""1"",""1902""
","
","","","","","","1992.000000000029","images/apple7.png","","","memory_trial","3","maybe_new",""
"html-keyboard-response","47","199042","0.0-18.0-0.2","5334","approach_avoid_sv1","""event"",""trial"",""time""
""fullscreenenter"",""1"",""1902""
","
","
","""event"",""trial"",""time""
""fullscreenenter"",""1"",""1902""
","
","","","","","","null","<div style=""font-size:60px;"">+</div>","null","","fixation","","",""
"memory-trial","48","201892","0.0-18.0-1.2","5334","approach_avoid_sv1","""event"",""trial"",""time""
""fullscreenenter"",""1"",""1902""
","
","
","""event"",""trial"",""time""
""fullscreenenter"",""1"",""1902""
","
","","","","","","1847","images/tree5.png","","","memory_trial","2","maybe_old",""
"html-keyboard-response","49","202393","0.0-18.0-0.3","5334","approach_avoid_sv1","""event"",""trial"",""time""
""fullscreenenter"",""1"",""1902""
","
","
","""event"",""trial"",""time""
""fullscreenenter"",""1"",""1902""
","
","","","","","","null","<div style=""font-size:60px;"">+</div>","null","","fixation","","",""
"memory-trial","50","205972","0.0-18.0-1.3","5334","approach_avoid_sv1","""event"",""trial"",""time""
""fullscreenenter"",""1"",""1902""
","
","
","""event"",""trial"",""time""
""fullscreenenter"",""1"",""1902""
","
","","","","","","2576","images/rodent4.png","","","memory_trial","4","definitely_new",""
"html-keyboard-response","51","206473","0.0-18.0-0.4","5334","approach_avoid_sv1","""event"",""trial"",""time""
""fullscreenenter"",""1"",""1902""
","
","
","""event"",""trial"",""time""
""fullscreenenter"",""1"",""1902""
","
","","","","","","null","<div style=""font-size:60px;"">+</div>","null","","fixation","","",""
"memory-trial","52","209395","0.0-18.0-1.4","5334","approach_avoid_sv1","""event"",""trial"",""time""
""fullscreenenter"",""1"",""1902""
","
","
","""event"",""trial"",""time""
""fullscreenenter"",""1"",""1902""
","
","","","","","","1920","images/dog1.png","","","memory_trial","2","maybe_old",""
"html-keyboard-response","53","209897","0.0-18.0-0.5","5334","approach_avoid_sv1","""event"",""trial"",""time""
""fullscreenenter"",""1"",""1902""
","
","
","""event"",""trial"",""time""
""fullscreenenter"",""1"",""1902""
","
","","","","","","null","<div style=""font-size:60px;"">+</div>","null","","fixation","","",""
"memory-trial","54","212148","0.0-18.0-1.5","5334","approach_avoid_sv1","""event"",""trial"",""time""
""fullscreenenter"",""1"",""1902""
","
","
","""event"",""trial"",""time""
""fullscreenenter"",""1"",""1902""
","
","","","","","","1249","images/dog2.png","","","memory_trial","1","definitely_old",""
"html-keyboard-response","55","212649","0.0-18.0-0.6","5334","approach_avoid_sv1","""event"",""trial"",""time""
""fullscreenenter"",""1"",""1902""
","
","
","""event"",""trial"",""time""
""fullscreenenter"",""1"",""1902""
","
","","","","","","null","<div style=""font-size:60px;"">+</div>","null","","fixation","","",""
"memory-trial","56","214709","0.0-18.0-1.6","5334","approach_avoid_sv1","""event"",""trial"",""time""
""fullscreenenter"",""1"",""1902""
","
","
","""event"",""trial"",""time""
""fullscreenenter"",""1"",""1902""
","
","","","","","","1056.999999999971","images/flower7.png","","","memory_trial","1","definitely_old",""
"html-keyboard-response","57","215211","0.0-18.0-0.7","5334","approach_avoid_sv1","""event"",""trial"",""time""
""fullscreenenter"",""1"",""1902""
","
","
","""event"",""trial"",""time""
""fullscreenenter"",""1"",""1902""
","
","","","","","","null","<div style=""font-size:60px;"">+</div>","null","","fixation","","",""
"memory-trial","58","217747","0.0-18.0-1.7","5334","approach_avoid_sv1","""event"",""trial"",""time""
""fullscreenenter"",""1"",""1902""
","
","
","""event"",""trial"",""time""
""fullscreenenter"",""1"",""1902""
","
","","","","","","1535","images/chair8.png","","","memory_trial","2","maybe_old",""
"html-keyboard-response","59","218249","0.0-18.0-0.8","5334","approach_avoid_sv1","""event"",""trial"",""time""
""fullscreenenter"",""1"",""1902""
","
","
","""event"",""trial"",""time""
""fullscreenenter"",""1"",""1902""
","
","","","","","","null","<div style=""font-size:60px;"">+</div>","null","","fixation","","",""
"memory-trial","60","220763","0.0-18.0-1.8","5334","approach_avoid_sv1","""event"",""trial"",""time""
""fullscreenenter"",""1"",""1902""
","
","
","""event"",""trial"",""time""
""fullscreenenter"",""1"",""1902""
","
","","","","","","1512","images/banana5.png","","","memory_trial","4","definitely_new",""
"html-keyboard-response","61","221265","0.0-18.0-0.9","5334","approach_avoid_sv1","""event"",""trial"",""time""
""fullscreenenter"",""1"",""1902""
","
","
","""event"",""trial"",""time""
""fullscreenenter"",""1"",""1902""
","
","","","","","","null","<div style=""font-size:60px;"">+</div>","null","","fixation","","",""
"memory-trial","62","223443","0.0-18.0-1.9","5334","approach_avoid_sv1","""event"",""trial"",""time""
""fullscreenenter"",""1"",""1902""
","
","
","""event"",""trial"",""time""
""fullscreenenter"",""1"",""1902""
","
","","","","","","1177.000000000029","images/flower2.png","","","memory_trial","1","definitely_old",""
"html-keyboard-response","63","223945","0.0-18.0-0.10","5334","approach_avoid_sv1","""event"",""trial"",""time""
""fullscreenenter"",""1"",""1902""
","
","
","""event"",""trial"",""time""
""fullscreenenter"",""1"",""1902""
","
","","","","","","null","<div style=""font-size:60px;"">+</div>","null","","fixation","","",""
"memory-trial","64","227179","0.0-18.0-1.10","5334","approach_avoid_sv1","""event"",""trial"",""time""
""fullscreenenter"",""1"",""1902""
","
","
","""event"",""trial"",""time""
""fullscreenenter"",""1"",""1902""
","
","","","","","","2232","images/plane6.png","","","memory_trial","3","maybe_new",""
"html-keyboard-response","65","227681","0.0-18.0-0.11","5334","approach_avoid_sv1","""event"",""trial"",""time""
""fullscreenenter"",""1"",""1902""
","
","
","""event"",""trial"",""time""
""fullscreenenter"",""1"",""1902""
","
","","","","","","null","<div style=""font-size:60px;"">+</div>","null","","fixation","","",""
"memory-trial","66","229979","0.0-18.0-1.11","5334","approach_avoid_sv1","""event"",""trial"",""time""
""fullscreenenter"",""1"",""1902""
","
","
","""event"",""trial"",""time""
""fullscreenenter"",""1"",""1902""
","
","","","","","","1296","images/truck5.png","","","memory_trial","2","maybe_old",""
"html-keyboard-response","67","230480","0.0-18.0-0.12","5334","approach_avoid_sv1","""event"",""trial"",""time""
""fullscreenenter"",""1"",""1902""
","
","
","""event"",""trial"",""time""
""fullscreenenter"",""1"",""1902""
","
","","","","","","null","<div style=""font-size:60px;"">+</div>","null","","fixation","","",""
"memory-trial","68","232579","0.0-18.0-1.12","5334","approach_avoid_sv1","""event"",""trial"",""time""
""fullscreenenter"",""1"",""1902""
","
","
","""event"",""trial"",""time""
""fullscreenenter"",""1"",""1902""
","
","","","","","","1096","images/cat7.png","","","memory_trial","1","definitely_old",""
"html-keyboard-response","69","233080","0.0-18.0-0.13","5334","approach_avoid_sv1","""event"",""trial"",""time""
""fullscreenenter"",""1"",""1902""
","
","
","""event"",""trial"",""time""
""fullscreenenter"",""1"",""1902""
","
","","","","","","null","<div style=""font-size:60px;"">+</div>","null","","fixation","","",""
"memory-trial","70","235651","0.0-18.0-1.13","5334","approach_avoid_sv1","""event"",""trial"",""time""
""fullscreenenter"",""1"",""1902""
","
","
","""event"",""trial"",""time""
""fullscreenenter"",""1"",""1902""
","
","","","","","","1568","images/banana3.png","","","memory_trial","4","definitely_new",""
"html-keyboard-response","71","236153","0.0-18.0-0.14","5334","approach_avoid_sv1","""event"",""trial"",""time""
""fullscreenenter"",""1"",""1902""
","
","
","""event"",""trial"",""time""
""fullscreenenter"",""1"",""1902""
","
","","","","","","null","<div style=""font-size:60px;"">+</div>","null","","fixation","","",""
"memory-trial","72","239034","0.0-18.0-1.14","5334","approach_avoid_sv1","""event"",""trial"",""time""
""fullscreenenter"",""1"",""1902""
","
","
","""event"",""trial"",""time""
""fullscreenenter"",""1"",""1902""
","
","","","","","","1879","images/bush3.png","","","memory_trial","3","maybe_new",""
"html-keyboard-response","73","239536","0.0-18.0-0.15","5334","approach_avoid_sv1","""event"",""trial"",""time""
""fullscreenenter"",""1"",""1902""
","
","
","""event"",""trial"",""time""
""fullscreenenter"",""1"",""1902""
","
","","","","","","null","<div style=""font-size:60px;"">+</div>","null","","fixation","","",""
"memory-trial","74","242379","0.0-18.0-1.15","5334","approach_avoid_sv1","""event"",""trial"",""time""
""fullscreenenter"",""1"",""1902""
","
","
","""event"",""trial"",""time""
""fullscreenenter"",""1"",""1902""
","
","","","","","","1841.999999999971","images/sofa4.png","","","memory_trial","3","maybe_new",""
"html-keyboard-response","75","242881","0.0-18.0-0.16","5334","approach_avoid_sv1","""event"",""trial"",""time""
""fullscreenenter"",""1"",""1902""
","
","
","""event"",""trial"",""time""
""fullscreenenter"",""1"",""1902""
","
","","","","","","null","<div style=""font-size:60px;"">+</div>","null","","fixation","","",""
"memory-trial","76","244858","0.0-18.0-1.16","5334","approach_avoid_sv1","""event"",""trial"",""time""
""fullscreenenter"",""1"",""1902""
","
","
","""event"",""trial"",""time""
""fullscreenenter"",""1"",""1902""
","
","","","","","","975","images/banana2.png","","","memory_trial","3","maybe_new",""
"html-keyboard-response","77","245360","0.0-18.0-0.17","5334","approach_avoid_sv1","""event"",""trial"",""time""
""fullscreenenter"",""1"",""1902""
","
","
","""event"",""trial"",""time""
""fullscreenenter"",""1"",""1902""
","
","","","","","","null","<div style=""font-size:60px;"">+</div>","null","","fixation","","",""
"memory-trial","78","247586","0.0-18.0-1.17","5334","approach_avoid_sv1","""event"",""trial"",""time""
""fullscreenenter"",""1"",""1902""
","
","
","""event"",""trial"",""time""
""fullscreenenter"",""1"",""1902""
","
","","","","","","1224.000000000029","images/boat7.png","","","memory_trial","2","maybe_old",""
"html-keyboard-response","79","248088","0.0-18.0-0.18","5334","approach_avoid_sv1","""event"",""trial"",""time""
""fullscreenenter"",""1"",""1902""
","
","
","""event"",""trial"",""time""
""fullscreenenter"",""1"",""1902""
","
","","","","","","null","<div style=""font-size:60px;"">+</div>","null","","fixation","","",""
"memory-trial","80","251220","0.0-18.0-1.18","5334","approach_avoid_sv1","""event"",""trial"",""time""
""fullscreenenter"",""1"",""1902""
","
","
","""event"",""trial"",""time""
""fullscreenenter"",""1"",""1902""
","
","","","","","","2130","images/rodent1.png","","","memory_trial","2","maybe_old",""
"html-keyboard-response","81","251722","0.0-18.0-0.19","5334","approach_avoid_sv1","""event"",""trial"",""time""
""fullscreenenter"",""1"",""1902""
","
","
","""event"",""trial"",""time""
""fullscreenenter"",""1"",""1902""
","
","","","","","","null","<div style=""font-size:60px;"">+</div>","null","","fixation","","",""
"memory-trial","82","255306","0.0-18.0-1.19","5334","approach_avoid_sv1","""event"",""trial"",""time""
""fullscreenenter"",""1"",""1902""
","
","
","""event"",""trial"",""time""
""fullscreenenter"",""1"",""1902""
","
","","","","","","2582.000000000029","images/bed4.png","","","memory_trial","2","maybe_old",""
"html-keyboard-response","83","255807","0.0-18.0-0.20","5334","approach_avoid_sv1","""event"",""trial"",""time""
""fullscreenenter"",""1"",""1902""
","
","
","""event"",""trial"",""time""
""fullscreenenter"",""1"",""1902""
","
","","","","","","null","<div style=""font-size:60px;"">+</div>","null","","fixation","","",""
"memory-trial","84","258164","0.0-18.0-1.20","5334","approach_avoid_sv1","""event"",""trial"",""time""
""fullscreenenter"",""1"",""1902""
","
","
","""event"",""trial"",""time""
""fullscreenenter"",""1"",""1902""
","
","","","","","","1354.0000000000582","images/bed2.png","","","memory_trial","2","maybe_old",""
"html-keyboard-response","85","258664","0.0-18.0-0.21","5334","approach_avoid_sv1","""event"",""trial"",""time""
""fullscreenenter"",""1"",""1902""
","
","
","""event"",""trial"",""time""
""fullscreenenter"",""1"",""1902""
","
","","","","","","null","<div style=""font-size:60px;"">+</div>","null","","fixation","","",""
"memory-trial","86","260865","0.0-18.0-1.21","5334","approach_avoid_sv1","""event"",""trial"",""time""
""fullscreenenter"",""1"",""1902""
","
","
","""event"",""trial"",""time""
""fullscreenenter"",""1"",""1902""
","
","","","","","","1199.000000000029","images/bed6.png","","","memory_trial","3","maybe_new",""
"html-keyboard-response","87","261367","0.0-18.0-0.22","5334","approach_avoid_sv1","""event"",""trial"",""time""
""fullscreenenter"",""1"",""1902""
","
","
","""event"",""trial"",""time""
""fullscreenenter"",""1"",""1902""
","
","","","","","","null","<div style=""font-size:60px;"">+</div>","null","","fixation","","",""
"memory-trial","88","263857","0.0-18.0-1.22","5334","approach_avoid_sv1","""event"",""trial"",""time""
""fullscreenenter"",""1"",""1902""
","
","
","""event"",""trial"",""time""
""fullscreenenter"",""1"",""1902""
","
","","","","","","1488","images/chair6.png","","","memory_trial","1","definitely_old",""
"html-keyboard-response","89","264359","0.0-18.0-0.23","5334","approach_avoid_sv1","""event"",""trial"",""time""
""fullscreenenter"",""1"",""1902""
","
","
","""event"",""trial"",""time""
""fullscreenenter"",""1"",""1902""
","
","","","","","","null","<div style=""font-size:60px;"">+</div>","null","","fixation","","",""
"memory-trial","90","267092","0.0-18.0-1.23","5334","approach_avoid_sv1","""event"",""trial"",""time""
""fullscreenenter"",""1"",""1902""
","
","
","""event"",""trial"",""time""
""fullscreenenter"",""1"",""1902""
","
","","","","","","1731","images/table2.png","","","memory_trial","1","definitely_old",""
"html-keyboard-response","91","267593","0.0-18.0-0.24","5334","approach_avoid_sv1","""event"",""trial"",""time""
""fullscreenenter"",""1"",""1902""
","
","
","""event"",""trial"",""time""
""fullscreenenter"",""1"",""1902""
","
","","","","","","null","<div style=""font-size:60px;"">+</div>","null","","fixation","","",""
"memory-trial","92","270257","0.0-18.0-1.24","5334","approach_avoid_sv1","""event"",""trial"",""time""
""fullscreenenter"",""1"",""1902""
","
","
","""event"",""trial"",""time""
""fullscreenenter"",""1"",""1902""
","
","","","","","","1661","images/goat6.png","","","memory_trial","4","definitely_new",""
"html-keyboard-response","93","270758","0.0-18.0-0.25","5334","approach_avoid_sv1","""event"",""trial"",""time""
""fullscreenenter"",""1"",""1902""
","
","
","""event"",""trial"",""time""
""fullscreenenter"",""1"",""1902""
","
","","","","","","null","<div style=""font-size:60px;"">+</div>","null","","fixation","","",""
"memory-trial","94","273283","0.0-18.0-1.25","5334","approach_avoid_sv1","""event"",""trial"",""time""
""fullscreenenter"",""1"",""1902""
","
","
","""event"",""trial"",""time""
""fullscreenenter"",""1"",""1902""
","
","","","","","","1524","images/cactus6.png","","","memory_trial","4","definitely_new",""
"html-keyboard-response","95","273785","0.0-18.0-0.26","5334","approach_avoid_sv1","""event"",""trial"",""time""
""fullscreenenter"",""1"",""1902""
","
","
","""event"",""trial"",""time""
""fullscreenenter"",""1"",""1902""
","
","","","","","","null","<div style=""font-size:60px;"">+</div>","null","","fixation","","",""
"memory-trial","96","276025","0.0-18.0-1.26","5334","approach_avoid_sv1","""event"",""trial"",""time""
""fullscreenenter"",""1"",""1902""
","
","
","""event"",""trial"",""time""
""fullscreenenter"",""1"",""1902""
","
","","","","","","1238","images/tree8.png","","","memory_trial","2","maybe_old",""
"html-keyboard-response","97","276526","0.0-18.0-0.27","5334","approach_avoid_sv1","""event"",""trial"",""time""
""fullscreenenter"",""1"",""1902""
","
","
","""event"",""trial"",""time""
""fullscreenenter"",""1"",""1902""
","
","","","","","","null","<div style=""font-size:60px;"">+</div>","null","","fixation","","",""
"memory-trial","98","278985","0.0-18.0-1.27","5334","approach_avoid_sv1","""event"",""trial"",""time""
""fullscreenenter"",""1"",""1902""
","
","
","""event"",""trial"",""time""
""fullscreenenter"",""1"",""1902""
","
","","","","","","1456","images/bed7.png","","","memory_trial","3","maybe_new",""
"html-keyboard-response","99","279487","0.0-18.0-0.28","5334","approach_avoid_sv1","""event"",""trial"",""time""
""fullscreenenter"",""1"",""1902""
","
","
","""event"",""trial"",""time""
""fullscreenenter"",""1"",""1902""
","
","","","","","","null","<div style=""font-size:60px;"">+</div>","null","","fixation","","",""
"memory-trial","100","281473","0.0-18.0-1.28","5334","approach_avoid_sv1","""event"",""trial"",""time""
""fullscreenenter"",""1"",""1902""
","
","
","""event"",""trial"",""time""
""fullscreenenter"",""1"",""1902""
","
","","","","","","984","images/horse1.png","","","memory_trial","1","definitely_old",""
"html-keyboard-response","101","281974","0.0-18.0-0.29","5334","approach_avoid_sv1","""event"",""trial"",""time""
""fullscreenenter"",""1"",""1902""
","
","
","""event"",""trial"",""time""
""fullscreenenter"",""1"",""1902""
","
","","","","","","null","<div style=""font-size:60px;"">+</div>","null","","fixation","","",""
"memory-trial","102","285472","0.0-18.0-1.29","5334","approach_avoid_sv1","""event"",""trial"",""time""
""fullscreenenter"",""1"",""1902""
","
","
","""event"",""trial"",""time""
""fullscreenenter"",""1"",""1902""
","
","","","","","","2496","images/boat2.png","","","memory_trial","3","maybe_new",""
"html-keyboard-response","103","285973","0.0-18.0-0.30","5334","approach_avoid_sv1","""event"",""trial"",""time""
""fullscreenenter"",""1"",""1902""
","
","
","""event"",""trial"",""time""
""fullscreenenter"",""1"",""1902""
","
","","","","","","null","<div style=""font-size:60px;"">+</div>","null","","fixation","","",""
"memory-trial","104","288657","0.0-18.0-1.30","5334","approach_avoid_sv1","""event"",""trial"",""time""
""fullscreenenter"",""1"",""1902""
","
","
","""event"",""trial"",""time""
""fullscreenenter"",""1"",""1902""
","
","","","","","","1681","images/apple1.png","","","memory_trial","2","maybe_old",""
"html-keyboard-response","105","289158","0.0-18.0-0.31","5334","approach_avoid_sv1","""event"",""trial"",""time""
""fullscreenenter"",""1"",""1902""
","
","
","""event"",""trial"",""time""
""fullscreenenter"",""1"",""1902""
","
","","","","","","null","<div style=""font-size:60px;"">+</div>","null","","fixation","","",""
"memory-trial","106","291231","0.0-18.0-1.31","5334","approach_avoid_sv1","""event"",""trial"",""time""
""fullscreenenter"",""1"",""1902""
","
","
","""event"",""trial"",""time""
""fullscreenenter"",""1"",""1902""
","
","","","","","","1072","images/orange5.png","","","memory_trial","1","definitely_old",""
"html-keyboard-response","107","291733","0.0-18.0-0.32","5334","approach_avoid_sv1","""event"",""trial"",""time""
""fullscreenenter"",""1"",""1902""
","
","
","""event"",""trial"",""time""
""fullscreenenter"",""1"",""1902""
","
","","","","","","null","<div style=""font-size:60px;"">+</div>","null","","fixation","","",""
"memory-trial","108","294106","0.0-18.0-1.32","5334","approach_avoid_sv1","""event"",""trial"",""time""
""fullscreenenter"",""1"",""1902""
","
","
","""event"",""trial"",""time""
""fullscreenenter"",""1"",""1902""
","
","","","","","","1371","images/boat4.png","","","memory_trial","1","definitely_old",""
"html-keyboard-response","109","294608","0.0-18.0-0.33","5334","approach_avoid_sv1","""event"",""trial"",""time""
""fullscreenenter"",""1"",""1902""
","
","
","""event"",""trial"",""time""
""fullscreenenter"",""1"",""1902""
","
","","","","","","null","<div style=""font-size:60px;"">+</div>","null","","fixation","","",""
"memory-trial","110","296600","0.0-18.0-1.33","5334","approach_avoid_sv1","""event"",""trial"",""time""
""fullscreenenter"",""1"",""1902""
","
","
","""event"",""trial"",""time""
""fullscreenenter"",""1"",""1902""
","
","","","","","","990","images/train7.png","","","memory_trial","3","maybe_new",""
"html-keyboard-response","111","297102","0.0-18.0-0.34","5334","approach_avoid_sv1","""event"",""trial"",""time""
""fullscreenenter"",""1"",""1902""
","
","
","""event"",""trial"",""time""
""fullscreenenter"",""1"",""1902""
","
","","","","","","null","<div style=""font-size:60px;"">+</div>","null","","fixation","","",""
"memory-trial","112","299706","0.0-18.0-1.34","5334","approach_avoid_sv1","""event"",""trial"",""time""
""fullscreenenter"",""1"",""1902""
","
","
","""event"",""trial"",""time""
""fullscreenenter"",""1"",""1902""
","
","","","","","","1602","images/train1.png","","","memory_trial","3","maybe_new",""
"html-keyboard-response","113","300208","0.0-18.0-0.35","5334","approach_avoid_sv1","""event"",""trial"",""time""
""fullscreenenter"",""1"",""1902""
","
","
","""event"",""trial"",""time""
""fullscreenenter"",""1"",""1902""
","
","","","","","","null","<div style=""font-size:60px;"">+</div>","null","","fixation","","",""
"memory-trial","114","302448","0.0-18.0-1.35","5334","approach_avoid_sv1","""event"",""trial"",""time""
""fullscreenenter"",""1"",""1902""
","
","
","""event"",""trial"",""time""
""fullscreenenter"",""1"",""1902""
","
","","","","","","1237","images/dog5.png","","","memory_trial","3","maybe_new",""
"html-keyboard-response","115","302950","0.0-18.0-0.36","5334","approach_avoid_sv1","""event"",""trial"",""time""
""fullscreenenter"",""1"",""1902""
","
","
","""event"",""trial"",""time""
""fullscreenenter"",""1"",""1902""
","
","","","","","","null","<div style=""font-size:60px;"">+</div>","null","","fixation","","",""
"memory-trial","116","306760","0.0-18.0-1.36","5334","approach_avoid_sv1","""event"",""trial"",""time""
""fullscreenenter"",""1"",""1902""
","
","
","""event"",""trial"",""time""
""fullscreenenter"",""1"",""1902""
","
","","","","","","2808.000000000058","images/banana7.png","","","memory_trial","4","definitely_new",""
"html-keyboard-response","117","307261","0.0-18.0-0.37","5334","approach_avoid_sv1","""event"",""trial"",""time""
""fullscreenenter"",""1"",""1902""
","
","
","""event"",""trial"",""time""
""fullscreenenter"",""1"",""1902""
","
","","","","","","null","<div style=""font-size:60px;"">+</div>","null","","fixation","","",""
"memory-trial","118","311015","0.0-18.0-1.37","5334","approach_avoid_sv1","""event"",""trial"",""time""
""fullscreenenter"",""1"",""1902""
","
","
","""event"",""trial"",""time""
""fullscreenenter"",""1"",""1902""
","
","","","","","","2752","images/chair3.png","","","memory_trial","3","maybe_new",""
"html-keyboard-response","119","311516","0.0-18.0-0.38","5334","approach_avoid_sv1","""event"",""trial"",""time""
""fullscreenenter"",""1"",""1902""
","
","
","""event"",""trial"",""time""
""fullscreenenter"",""1"",""1902""
","
","","","","","","null","<div style=""font-size:60px;"">+</div>","null","","fixation","","",""
"memory-trial","120","315689","0.0-18.0-1.38","5334","approach_avoid_sv1","""event"",""trial"",""time""
""fullscreenenter"",""1"",""1902""
","
","
","""event"",""trial"",""time""
""fullscreenenter"",""1"",""1902""
","
","","","","","","3171","images/rodent5.png","","","memory_trial","3","maybe_new",""
"html-keyboard-response","121","316191","0.0-18.0-0.39","5334","approach_avoid_sv1","""event"",""trial"",""time""
""fullscreenenter"",""1"",""1902""
","
","
","""event"",""trial"",""time""
""fullscreenenter"",""1"",""1902""
","
","","","","","","null","<div style=""font-size:60px;"">+</div>","null","","fixation","","",""
"memory-trial","122","318120","0.0-18.0-1.39","5334","approach_avoid_sv1","""event"",""trial"",""time""
""fullscreenenter"",""1"",""1902""
","
","
","""event"",""trial"",""time""
""fullscreenenter"",""1"",""1902""
","
","","","","","","927","images/cat3.png","","","memory_trial","1","definitely_old",""
"html-keyboard-response","123","318620","0.0-18.0-0.40","5334","approach_avoid_sv1","""event"",""trial"",""time""
""fullscreenenter"",""1"",""1902""
","
","
","""event"",""trial"",""time""
""fullscreenenter"",""1"",""1902""
","
","","","","","","null","<div style=""font-size:60px;"">+</div>","null","","fixation","","",""
"memory-trial","124","320409","0.0-18.0-1.40","5334","approach_avoid_sv1","""event"",""trial"",""time""
""fullscreenenter"",""1"",""1902""
","
","
","""event"",""trial"",""time""
""fullscreenenter"",""1"",""1902""
","
","","","","","","786.9999999999418","images/cow8.png","","","memory_trial","1","definitely_old",""
"html-keyboard-response","125","320913","0.0-18.0-0.41","5334","approach_avoid_sv1","""event"",""trial"",""time""
""fullscreenenter"",""1"",""1902""
","
","
","""event"",""trial"",""time""
""fullscreenenter"",""1"",""1902""
","
","","","","","","null","<div style=""font-size:60px;"">+</div>","null","","fixation","","",""
"memory-trial","126","323232","0.0-18.0-1.41","5334","approach_avoid_sv1","""event"",""trial"",""time""
""fullscreenenter"",""1"",""1902""
","
","
","""event"",""trial"",""time""
""fullscreenenter"",""1"",""1902""
","
","","","","","","1316","images/truck6.png","","","memory_trial","4","definitely_new",""
"html-button-response","127","325110","0.0-18.0-2.41-0.41","5334","approach_avoid_sv1","""event"",""trial"",""time""
""fullscreenenter"",""1"",""1902""
","
","
","""event"",""trial"",""time""
""fullscreenenter"",""1"",""1902""
","
","","","","","","1878","<p> Take a break! </p><p> Click the button to continue. </p>","0","","break","","",""
"html-keyboard-response","128","325612","0.0-18.0-0.42","5334","approach_avoid_sv1","""event"",""trial"",""time""
""fullscreenenter"",""1"",""1902""
","
","
","""event"",""trial"",""time""
""fullscreenenter"",""1"",""1902""
","
","","","","","","null","<div style=""font-size:60px;"">+</div>","null","","fixation","","",""
"memory-trial","129","328863","0.0-18.0-1.42","5334","approach_avoid_sv1","""event"",""trial"",""time""
""fullscreenenter"",""1"",""1902""
","
","
","""event"",""trial"",""time""
""fullscreenenter"",""1"",""1902""
","
","","","","","","2249","images/rabbit4.png","","","memory_trial","2","maybe_old",""
"html-keyboard-response","130","329365","0.0-18.0-0.43","5334","approach_avoid_sv1","""event"",""trial"",""time""
""fullscreenenter"",""1"",""1902""
","
","
","""event"",""trial"",""time""
""fullscreenenter"",""1"",""1902""
","
","","","","","","null","<div style=""font-size:60px;"">+</div>","null","","fixation","","",""
"memory-trial","131","331335","0.0-18.0-1.43","5334","approach_avoid_sv1","""event"",""trial"",""time""
""fullscreenenter"",""1"",""1902""
","
","
","""event"",""trial"",""time""
""fullscreenenter"",""1"",""1902""
","
","","","","","","968","images/orange3.png","","","memory_trial","1","definitely_old",""
"html-keyboard-response","132","331836","0.0-18.0-0.44","5334","approach_avoid_sv1","""event"",""trial"",""time""
""fullscreenenter"",""1"",""1902""
","
","
","""event"",""trial"",""time""
""fullscreenenter"",""1"",""1902""
","
","","","","","","null","<div style=""font-size:60px;"">+</div>","null","","fixation","","",""
"memory-trial","133","334279","0.0-18.0-1.44","5334","approach_avoid_sv1","""event"",""trial"",""time""
""fullscreenenter"",""1"",""1902""
","
","
","""event"",""trial"",""time""
""fullscreenenter"",""1"",""1902""
","
","","","","","","1440","images/truck3.png","","","memory_trial","4","definitely_new",""
"html-keyboard-response","134","334780","0.0-18.0-0.45","5334","approach_avoid_sv1","""event"",""trial"",""time""
""fullscreenenter"",""1"",""1902""
","
","
","""event"",""trial"",""time""
""fullscreenenter"",""1"",""1902""
","
","","","","","","null","<div style=""font-size:60px;"">+</div>","null","","fixation","","",""
"memory-trial","135","337215","0.0-18.0-1.45","5334","approach_avoid_sv1","""event"",""trial"",""time""
""fullscreenenter"",""1"",""1902""
","
","
","""event"",""trial"",""time""
""fullscreenenter"",""1"",""1902""
","
","","","","","","1431.9999999999418","images/orange4.png","","","memory_trial","2","maybe_old",""
"html-keyboard-response","136","337716","0.0-18.0-0.46","5334","approach_avoid_sv1","""event"",""trial"",""time""
""fullscreenenter"",""1"",""1902""
","
","
","""event"",""trial"",""time""
""fullscreenenter"",""1"",""1902""
","
","","","","","","null","<div style=""font-size:60px;"">+</div>","null","","fixation","","",""
"memory-trial","137","340038","0.0-18.0-1.46","5334","approach_avoid_sv1","""event"",""trial"",""time""
""fullscreenenter"",""1"",""1902""
","
","
","""event"",""trial"",""time""
""fullscreenenter"",""1"",""1902""
","
","","","","","","1320","images/flower6.png","","","memory_trial","3","maybe_new",""
"html-keyboard-response","138","340540","0.0-18.0-0.47","5334","approach_avoid_sv1","""event"",""trial"",""time""
""fullscreenenter"",""1"",""1902""
","
","
","""event"",""trial"",""time""
""fullscreenenter"",""1"",""1902""
","
","","","","","","null","<div style=""font-size:60px;"">+</div>","null","","fixation","","",""
"memory-trial","139","342750","0.0-18.0-1.47","5334","approach_avoid_sv1","""event"",""trial"",""time""
""fullscreenenter"",""1"",""1902""
","
","
","""event"",""trial"",""time""
""fullscreenenter"",""1"",""1902""
","
","","","","","","1208","images/plane1.png","","","memory_trial","1","definitely_old",""
"html-keyboard-response","140","343252","0.0-18.0-0.48","5334","approach_avoid_sv1","""event"",""trial"",""time""
""fullscreenenter"",""1"",""1902""
","
","
","""event"",""trial"",""time""
""fullscreenenter"",""1"",""1902""
","
","","","","","","null","<div style=""font-size:60px;"">+</div>","null","","fixation","","",""
"memory-trial","141","346342","0.0-18.0-1.48","5334","approach_avoid_sv1","""event"",""trial"",""time""
""fullscreenenter"",""1"",""1902""
","
","
","""event"",""trial"",""time""
""fullscreenenter"",""1"",""1902""
","
","","","","","","2088","images/cat2.png","","","memory_trial","2","maybe_old",""
"html-keyboard-response","142","346843","0.0-18.0-0.49","5334","approach_avoid_sv1","""event"",""trial"",""time""
""fullscreenenter"",""1"",""1902""
","
","
","""event"",""trial"",""time""
""fullscreenenter"",""1"",""1902""
","
","","","","","","null","<div style=""font-size:60px;"">+</div>","null","","fixation","","",""
"memory-trial","143","349197","0.0-18.0-1.49","5334","approach_avoid_sv1","""event"",""trial"",""time""
""fullscreenenter"",""1"",""1902""
","
","
","""event"",""trial"",""time""
""fullscreenenter"",""1"",""1902""
","
","","","","","","1353.0000000000582","images/train5.png","","","memory_trial","4","definitely_new",""
"html-keyboard-response","144","349699","0.0-18.0-0.50","5334","approach_avoid_sv1","""event"",""trial"",""time""
""fullscreenenter"",""1"",""1902""
","
","
","""event"",""trial"",""time""
""fullscreenenter"",""1"",""1902""
","
","","","","","","null","<div style=""font-size:60px;"">+</div>","null","","fixation","","",""
"memory-trial","145","352486","0.0-18.0-1.50","5334","approach_avoid_sv1","""event"",""trial"",""time""
""fullscreenenter"",""1"",""1902""
","
","
","""event"",""trial"",""time""
""fullscreenenter"",""1"",""1902""
","
","","","","","","1785","images/cow3.png","","","memory_trial","3","maybe_new",""
"html-keyboard-response","146","352988","0.0-18.0-0.51","5334","approach_avoid_sv1","""event"",""trial"",""time""
""fullscreenenter"",""1"",""1902""
","
","
","""event"",""trial"",""time""
""fullscreenenter"",""1"",""1902""
","
","","","","","","null","<div style=""font-size:60px;"">+</div>","null","","fixation","","",""
"memory-trial","147","356320","0.0-18.0-1.51","5334","approach_avoid_sv1","""event"",""trial"",""time""
""fullscreenenter"",""1"",""1902""
","
","
","""event"",""trial"",""time""
""fullscreenenter"",""1"",""1902""
","
","","","","","","2330","images/banana1.png","","","memory_trial","3","maybe_new",""
"html-keyboard-response","148","356822","0.0-18.0-0.52","5334","approach_avoid_sv1","""event"",""trial"",""time""
""fullscreenenter"",""1"",""1902""
","
","
","""event"",""trial"",""time""
""fullscreenenter"",""1"",""1902""
","
","","","","","","null","<div style=""font-size:60px;"">+</div>","null","","fixation","","",""
"memory-trial","149","358925","0.0-18.0-1.52","5334","approach_avoid_sv1","""event"",""trial"",""time""
""fullscreenenter"",""1"",""1902""
","
","
","""event"",""trial"",""time""
""fullscreenenter"",""1"",""1902""
","
","","","","","","1102","images/chair1.png","","","memory_trial","2","maybe_old",""
"html-keyboard-response","150","359427","0.0-18.0-0.53","5334","approach_avoid_sv1","""event"",""trial"",""time""
""fullscreenenter"",""1"",""1902""
","
","
","""event"",""trial"",""time""
""fullscreenenter"",""1"",""1902""
","
","","","","","","null","<div style=""font-size:60px;"">+</div>","null","","fixation","","",""
"memory-trial","151","361278","0.0-18.0-1.53","5334","approach_avoid_sv1","""event"",""trial"",""time""
""fullscreenenter"",""1"",""1902""
","
","
","""event"",""trial"",""time""
""fullscreenenter"",""1"",""1902""
","
","","","","","","848","images/sofa7.png","","","memory_trial","1","definitely_old",""
"html-keyboard-response","152","361781","0.0-18.0-0.54","5334","approach_avoid_sv1","""event"",""trial"",""time""
""fullscreenenter"",""1"",""1902""
","
","
","""event"",""trial"",""time""
""fullscreenenter"",""1"",""1902""
","
","","","","","","null","<div style=""font-size:60px;"">+</div>","null","","fixation","","",""
"memory-trial","153","364750","0.0-18.0-1.54","5334","approach_avoid_sv1","""event"",""trial"",""time""
""fullscreenenter"",""1"",""1902""
","
","
","""event"",""trial"",""time""
""fullscreenenter"",""1"",""1902""
","
","","","","","","1966","images/goat1.png","","","memory_trial","4","definitely_new",""
"html-keyboard-response","154","365252","0.0-18.0-0.55","5334","approach_avoid_sv1","""event"",""trial"",""time""
""fullscreenenter"",""1"",""1902""
","
","
","""event"",""trial"",""time""
""fullscreenenter"",""1"",""1902""
","
","","","","","","null","<div style=""font-size:60px;"">+</div>","null","","fixation","","",""
"memory-trial","155","367790","0.0-18.0-1.55","5334","approach_avoid_sv1","""event"",""trial"",""time""
""fullscreenenter"",""1"",""1902""
","
","
","""event"",""trial"",""time""
""fullscreenenter"",""1"",""1902""
","
","","","","","","1536","images/flower4.png","","","memory_trial","3","maybe_new",""
"html-keyboard-response","156","368291","0.0-18.0-0.56","5334","approach_avoid_sv1","""event"",""trial"",""time""
""fullscreenenter"",""1"",""1902""
","
","
","""event"",""trial"",""time""
""fullscreenenter"",""1"",""1902""
","
","","","","","","null","<div style=""font-size:60px;"">+</div>","null","","fixation","","",""
"memory-trial","157","370917","0.0-18.0-1.56","5334","approach_avoid_sv1","""event"",""trial"",""time""
""fullscreenenter"",""1"",""1902""
","
","
","""event"",""trial"",""time""
""fullscreenenter"",""1"",""1902""
","
","","","","","","1623.9999999999418","images/bush2.png","","","memory_trial","2","maybe_old",""
"html-keyboard-response","158","371419","0.0-18.0-0.57","5334","approach_avoid_sv1","""event"",""trial"",""time""
""fullscreenenter"",""1"",""1902""
","
","
","""event"",""trial"",""time""
""fullscreenenter"",""1"",""1902""
","
","","","","","","null","<div style=""font-size:60px;"">+</div>","null","","fixation","","",""
"memory-trial","159","373813","0.0-18.0-1.57","5334","approach_avoid_sv1","""event"",""trial"",""time""
""fullscreenenter"",""1"",""1902""
","
","
","""event"",""trial"",""time""
""fullscreenenter"",""1"",""1902""
","
","","","","","","1392","images/orange1.png","","","memory_trial","3","maybe_new",""
"html-keyboard-response","160","374315","0.0-18.0-0.58","5334","approach_avoid_sv1","""event"",""trial"",""time""
""fullscreenenter"",""1"",""1902""
","
","
","""event"",""trial"",""time""
""fullscreenenter"",""1"",""1902""
","
","","","","","","null","<div style=""font-size:60px;"">+</div>","null","","fixation","","",""
"memory-trial","161","377325","0.0-18.0-1.58","5334","approach_avoid_sv1","""event"",""trial"",""time""
""fullscreenenter"",""1"",""1902""
","
","
","""event"",""trial"",""time""
""fullscreenenter"",""1"",""1902""
","
","","","","","","2007.9999999999418","images/sofa8.png","","","memory_trial","4","definitely_new",""
"html-keyboard-response","162","377827","0.0-18.0-0.59","5334","approach_avoid_sv1","""event"",""trial"",""time""
""fullscreenenter"",""1"",""1902""
","
","
","""event"",""trial"",""time""
""fullscreenenter"",""1"",""1902""
","
","","","","","","null","<div style=""font-size:60px;"">+</div>","null","","fixation","","",""
"memory-trial","163","381965","0.0-18.0-1.59","5334","approach_avoid_sv1","""event"",""trial"",""time""
""fullscreenenter"",""1"",""1902""
","
","
","""event"",""trial"",""time""
""fullscreenenter"",""1"",""1902""
","
","","","","","","3136","images/bed1.png","","","memory_trial","2","maybe_old",""
"html-keyboard-response","164","382467","0.0-18.0-0.60","5334","approach_avoid_sv1","""event"",""trial"",""time""
""fullscreenenter"",""1"",""1902""
","
","
","""event"",""trial"",""time""
""fullscreenenter"",""1"",""1902""
","
","","","","","","null","<div style=""font-size:60px;"">+</div>","null","","fixation","","",""
"memory-trial","165","384716","0.0-18.0-1.60","5334","approach_avoid_sv1","""event"",""trial"",""time""
""fullscreenenter"",""1"",""1902""
","
","
","""event"",""trial"",""time""
""fullscreenenter"",""1"",""1902""
","
","","","","","","1248","images/train2.png","","","memory_trial","4","definitely_new",""
"html-keyboard-response","166","385218","0.0-18.0-0.61","5334","approach_avoid_sv1","""event"",""trial"",""time""
""fullscreenenter"",""1"",""1902""
","
","
","""event"",""trial"",""time""
""fullscreenenter"",""1"",""1902""
","
","","","","","","null","<div style=""font-size:60px;"">+</div>","null","","fixation","","",""
"memory-trial","167","388061","0.0-18.0-1.61","5334","approach_avoid_sv1","""event"",""trial"",""time""
""fullscreenenter"",""1"",""1902""
","
","
","""event"",""trial"",""time""
""fullscreenenter"",""1"",""1902""
","
","","","","","","1841","images/plane4.png","","","memory_trial","1","definitely_old",""
"html-keyboard-response","168","388562","0.0-18.0-0.62","5334","approach_avoid_sv1","""event"",""trial"",""time""
""fullscreenenter"",""1"",""1902""
","
","
","""event"",""trial"",""time""
""fullscreenenter"",""1"",""1902""
","
","","","","","","null","<div style=""font-size:60px;"">+</div>","null","","fixation","","",""
"memory-trial","169","390663","0.0-18.0-1.62","5334","approach_avoid_sv1","""event"",""trial"",""time""
""fullscreenenter"",""1"",""1902""
","
","
","""event"",""trial"",""time""
""fullscreenenter"",""1"",""1902""
","
","","","","","","1099","images/boat3.png","","","memory_trial","1","definitely_old",""
"html-keyboard-response","170","391165","0.0-18.0-0.63","5334","approach_avoid_sv1","""event"",""trial"",""time""
""fullscreenenter"",""1"",""1902""
","
","
","""event"",""trial"",""time""
""fullscreenenter"",""1"",""1902""
","
","","","","","","null","<div style=""font-size:60px;"">+</div>","null","","fixation","","",""
"memory-trial","171","393237","0.0-18.0-1.63","5334","approach_avoid_sv1","""event"",""trial"",""time""
""fullscreenenter"",""1"",""1902""
","
","
","""event"",""trial"",""time""
""fullscreenenter"",""1"",""1902""
","
","","","","","","1070","images/cactus2.png","","","memory_trial","3","maybe_new",""
"html-keyboard-response","172","393738","0.0-18.0-0.64","5334","approach_avoid_sv1","""event"",""trial"",""time""
""fullscreenenter"",""1"",""1902""
","
","
","""event"",""trial"",""time""
""fullscreenenter"",""1"",""1902""
","
","","","","","","null","<div style=""font-size:60px;"">+</div>","null","","fixation","","",""
"memory-trial","173","399052","0.0-18.0-1.64","5334","approach_avoid_sv1","""event"",""trial"",""time""
""fullscreenenter"",""1"",""1902""
","
","
","""event"",""trial"",""time""
""fullscreenenter"",""1"",""1902""
","
","","","","","","4312","images/truck2.png","","","memory_trial","1","definitely_old",""
"html-keyboard-response","174","399554","0.0-18.0-0.65","5334","approach_avoid_sv1","""event"",""trial"",""time""
""fullscreenenter"",""1"",""1902""
","
","
","""event"",""trial"",""time""
""fullscreenenter"",""1"",""1902""
","
","","","","","","null","<div style=""font-size:60px;"">+</div>","null","","fixation","","",""
"memory-trial","175","401702","0.0-18.0-1.65","5334","approach_avoid_sv1","""event"",""trial"",""time""
""fullscreenenter"",""1"",""1902""
","
","
","""event"",""trial"",""time""
""fullscreenenter"",""1"",""1902""
","
","","","","","","1146","images/horse5.png","","","memory_trial","1","definitely_old",""
"html-keyboard-response","176","402204","0.0-18.0-0.66","5334","approach_avoid_sv1","""event"",""trial"",""time""
""fullscreenenter"",""1"",""1902""
","
","
","""event"",""trial"",""time""
""fullscreenenter"",""1"",""1902""
","
","","","","","","null","<div style=""font-size:60px;"">+</div>","null","","fixation","","",""
"memory-trial","177","404580","0.0-18.0-1.66","5334","approach_avoid_sv1","""event"",""trial"",""time""
""fullscreenenter"",""1"",""1902""
","
","
","""event"",""trial"",""time""
""fullscreenenter"",""1"",""1902""
","
","","","","","","1374","images/flower3.png","","","memory_trial","3","maybe_new",""
"html-keyboard-response","178","405082","0.0-18.0-0.67","5334","approach_avoid_sv1","""event"",""trial"",""time""
""fullscreenenter"",""1"",""1902""
","
","
","""event"",""trial"",""time""
""fullscreenenter"",""1"",""1902""
","
","","","","","","null","<div style=""font-size:60px;"">+</div>","null","","fixation","","",""
"memory-trial","179","407164","0.0-18.0-1.67","5334","approach_avoid_sv1","""event"",""trial"",""time""
""fullscreenenter"",""1"",""1902""
","
","
","""event"",""trial"",""time""
""fullscreenenter"",""1"",""1902""
","
","","","","","","1078","images/apple4.png","","","memory_trial","2","maybe_old",""
"html-keyboard-response","180","407666","0.0-18.0-0.68","5334","approach_avoid_sv1","""event"",""trial"",""time""
""fullscreenenter"",""1"",""1902""
","
","
","""event"",""trial"",""time""
""fullscreenenter"",""1"",""1902""
","
","","","","","","null","<div style=""font-size:60px;"">+</div>","null","","fixation","","",""
"memory-trial","181","410350","0.0-18.0-1.68","5334","approach_avoid_sv1","""event"",""trial"",""time""
""fullscreenenter"",""1"",""1902""
","
","
","""event"",""trial"",""time""
""fullscreenenter"",""1"",""1902""
","
","","","","","","1682","images/dog8.png","","","memory_trial","2","maybe_old",""
"html-keyboard-response","182","410852","0.0-18.0-0.69","5334","approach_avoid_sv1","""event"",""trial"",""time""
""fullscreenenter"",""1"",""1902""
","
","
","""event"",""trial"",""time""
""fullscreenenter"",""1"",""1902""
","
","","","","","","null","<div style=""font-size:60px;"">+</div>","null","","fixation","","",""
"memory-trial","183","413100","0.0-18.0-1.69","5334","approach_avoid_sv1","""event"",""trial"",""time""
""fullscreenenter"",""1"",""1902""
","
","
","""event"",""trial"",""time""
""fullscreenenter"",""1"",""1902""
","
","","","","","","1246","images/sheep1.png","","","memory_trial","2","maybe_old",""
"html-keyboard-response","184","413601","0.0-18.0-0.70","5334","approach_avoid_sv1","""event"",""trial"",""time""
""fullscreenenter"",""1"",""1902""
","
","
","""event"",""trial"",""time""
""fullscreenenter"",""1"",""1902""
","
","","","","","","null","<div style=""font-size:60px;"">+</div>","null","","fixation","","",""
"memory-trial","185","416052","0.0-18.0-1.70","5334","approach_avoid_sv1","""event"",""trial"",""time""
""fullscreenenter"",""1"",""1902""
","
","
","""event"",""trial"",""time""
""fullscreenenter"",""1"",""1902""
","
","","","","","","1448","images/banana6.png","","","memory_trial","4","definitely_new",""
"html-keyboard-response","186","416553","0.0-18.0-0.71","5334","approach_avoid_sv1","""event"",""trial"",""time""
""fullscreenenter"",""1"",""1902""
","
","
","""event"",""trial"",""time""
""fullscreenenter"",""1"",""1902""
","
","","","","","","null","<div style=""font-size:60px;"">+</div>","null","","fixation","","",""
"memory-trial","187","418884","0.0-18.0-1.71","5334","approach_avoid_sv1","""event"",""trial"",""time""
""fullscreenenter"",""1"",""1902""
","
","
","""event"",""trial"",""time""
""fullscreenenter"",""1"",""1902""
","
","","","","","","1328","images/boat6.png","","","memory_trial","3","maybe_new",""
"html-keyboard-response","188","419385","0.0-18.0-0.72","5334","approach_avoid_sv1","""event"",""trial"",""time""
""fullscreenenter"",""1"",""1902""
","
","
","""event"",""trial"",""time""
""fullscreenenter"",""1"",""1902""
","
","","","","","","null","<div style=""font-size:60px;"">+</div>","null","","fixation","","",""
"memory-trial","189","424323","0.0-18.0-1.72","5334","approach_avoid_sv1","""event"",""trial"",""time""
""fullscreenenter"",""1"",""1902""
","
","
","""event"",""trial"",""time""
""fullscreenenter"",""1"",""1902""
","
","","","","","","3936","images/straw3.png","","","memory_trial","2","maybe_old",""
"html-keyboard-response","190","424824","0.0-18.0-0.73","5334","approach_avoid_sv1","""event"",""trial"",""time""
""fullscreenenter"",""1"",""1902""
","
","
","""event"",""trial"",""time""
""fullscreenenter"",""1"",""1902""
","
","","","","","","null","<div style=""font-size:60px;"">+</div>","null","","fixation","","",""
"memory-trial","191","428147","0.0-18.0-1.73","5334","approach_avoid_sv1","""event"",""trial"",""time""
""fullscreenenter"",""1"",""1902""
","
","
","""event"",""trial"",""time""
""fullscreenenter"",""1"",""1902""
","
","","","","","","2321.000000000058","images/cow1.png","","","memory_trial","3","maybe_new",""
"html-keyboard-response","192","428649","0.0-18.0-0.74","5334","approach_avoid_sv1","""event"",""trial"",""time""
""fullscreenenter"",""1"",""1902""
","
","
","""event"",""trial"",""time""
""fullscreenenter"",""1"",""1902""
","
","","","","","","null","<div style=""font-size:60px;"">+</div>","null","","fixation","","",""
"memory-trial","193","431427","0.0-18.0-1.74","5334","approach_avoid_sv1","""event"",""trial"",""time""
""fullscreenenter"",""1"",""1902""
","
","
","""event"",""trial"",""time""
""fullscreenenter"",""1"",""1902""
","
","","","","","","1776","images/straw7.png","","","memory_trial","2","maybe_old",""
"html-keyboard-response","194","431929","0.0-18.0-0.75","5334","approach_avoid_sv1","""event"",""trial"",""time""
""fullscreenenter"",""1"",""1902""
","
","
","""event"",""trial"",""time""
""fullscreenenter"",""1"",""1902""
","
","","","","","","null","<div style=""font-size:60px;"">+</div>","null","","fixation","","",""
"memory-trial","195","434395","0.0-18.0-1.75","5334","approach_avoid_sv1","""event"",""trial"",""time""
""fullscreenenter"",""1"",""1902""
","
","
","""event"",""trial"",""time""
""fullscreenenter"",""1"",""1902""
","
","","","","","","1464","images/goat2.png","","","memory_trial","4","definitely_new",""
"html-keyboard-response","196","434897","0.0-18.0-0.76","5334","approach_avoid_sv1","""event"",""trial"",""time""
""fullscreenenter"",""1"",""1902""
","
","
","""event"",""trial"",""time""
""fullscreenenter"",""1"",""1902""
","
","","","","","","null","<div style=""font-size:60px;"">+</div>","null","","fixation","","",""
"memory-trial","197","436795","0.0-18.0-1.76","5334","approach_avoid_sv1","""event"",""trial"",""time""
""fullscreenenter"",""1"",""1902""
","
","
","""event"",""trial"",""time""
""fullscreenenter"",""1"",""1902""
","
","","","","","","896","images/sofa6.png","","","memory_trial","1","definitely_old",""
"html-keyboard-response","198","437297","0.0-18.0-0.77","5334","approach_avoid_sv1","""event"",""trial"",""time""
""fullscreenenter"",""1"",""1902""
","
","
","""event"",""trial"",""time""
""fullscreenenter"",""1"",""1902""
","
","","","","","","null","<div style=""font-size:60px;"">+</div>","null","","fixation","","",""
"memory-trial","199","439731","0.0-18.0-1.77","5334","approach_avoid_sv1","""event"",""trial"",""time""
""fullscreenenter"",""1"",""1902""
","
","
","""event"",""trial"",""time""
""fullscreenenter"",""1"",""1902""
","
","","","","","","1432.0000000000582","images/chair7.png","","","memory_trial","3","maybe_new",""
"html-keyboard-response","200","440232","0.0-18.0-0.78","5334","approach_avoid_sv1","""event"",""trial"",""time""
""fullscreenenter"",""1"",""1902""
","
","
","""event"",""trial"",""time""
""fullscreenenter"",""1"",""1902""
","
","","","","","","null","<div style=""font-size:60px;"">+</div>","null","","fixation","","",""
"memory-trial","201","443349","0.0-18.0-1.78","5334","approach_avoid_sv1","""event"",""trial"",""time""
""fullscreenenter"",""1"",""1902""
","
","
","""event"",""trial"",""time""
""fullscreenenter"",""1"",""1902""
","
","","","","","","2114","images/bed3.png","","","memory_trial","3","maybe_new",""
"html-keyboard-response","202","443851","0.0-18.0-0.79","5334","approach_avoid_sv1","""event"",""trial"",""time""
""fullscreenenter"",""1"",""1902""
","
","
","""event"",""trial"",""time""
""fullscreenenter"",""1"",""1902""
","
","","","","","","null","<div style=""font-size:60px;"">+</div>","null","","fixation","","",""
"memory-trial","203","445907","0.0-18.0-1.79","5334","approach_avoid_sv1","""event"",""trial"",""time""
""fullscreenenter"",""1"",""1902""
","
","
","""event"",""trial"",""time""
""fullscreenenter"",""1"",""1902""
","
","","","","","","1053","images/chair2.png","","","memory_trial","1","definitely_old",""
"html-keyboard-response","204","446408","0.0-18.0-0.80","5334","approach_avoid_sv1","""event"",""trial"",""time""
""fullscreenenter"",""1"",""1902""
","
","
","""event"",""trial"",""time""
""fullscreenenter"",""1"",""1902""
","
","","","","","","null","<div style=""font-size:60px;"">+</div>","null","","fixation","","",""
"memory-trial","205","450179","0.0-18.0-1.80","5334","approach_avoid_sv1","""event"",""trial"",""time""
""fullscreenenter"",""1"",""1902""
","
","
","""event"",""trial"",""time""
""fullscreenenter"",""1"",""1902""
","
","","","","","","2768","images/plane7.png","","","memory_trial","3","maybe_new",""
"html-keyboard-response","206","450680","0.0-18.0-0.81","5334","approach_avoid_sv1","""event"",""trial"",""time""
""fullscreenenter"",""1"",""1902""
","
","
","""event"",""trial"",""time""
""fullscreenenter"",""1"",""1902""
","
","","","","","","null","<div style=""font-size:60px;"">+</div>","null","","fixation","","",""
"memory-trial","207","453850","0.0-18.0-1.81","5334","approach_avoid_sv1","""event"",""trial"",""time""
""fullscreenenter"",""1"",""1902""
","
","
","""event"",""trial"",""time""
""fullscreenenter"",""1"",""1902""
","
","","","","","","2167.000000000058","images/horse7.png","","","memory_trial","4","definitely_new",""
"html-keyboard-response","208","454352","0.0-18.0-0.82","5334","approach_avoid_sv1","""event"",""trial"",""time""
""fullscreenenter"",""1"",""1902""
","
","
","""event"",""trial"",""time""
""fullscreenenter"",""1"",""1902""
","
","","","","","","null","<div style=""font-size:60px;"">+</div>","null","","fixation","","",""
"memory-trial","209","456476","0.0-18.0-1.82","5334","approach_avoid_sv1","""event"",""trial"",""time""
""fullscreenenter"",""1"",""1902""
","
","
","""event"",""trial"",""time""
""fullscreenenter"",""1"",""1902""
","
","","","","","","1123","images/horse2.png","","","memory_trial","4","definitely_new",""
"html-keyboard-response","210","456978","0.0-18.0-0.83","5334","approach_avoid_sv1","""event"",""trial"",""time""
""fullscreenenter"",""1"",""1902""
","
","
","""event"",""trial"",""time""
""fullscreenenter"",""1"",""1902""
","
","","","","","","null","<div style=""font-size:60px;"">+</div>","null","","fixation","","",""
"memory-trial","211","459354","0.0-18.0-1.83","5334","approach_avoid_sv1","""event"",""trial"",""time""
""fullscreenenter"",""1"",""1902""
","
","
","""event"",""trial"",""time""
""fullscreenenter"",""1"",""1902""
","
","","","","","","1373","images/cactus8.png","","","memory_trial","4","definitely_new",""
"html-keyboard-response","212","459856","0.0-18.0-0.84","5334","approach_avoid_sv1","""event"",""trial"",""time""
""fullscreenenter"",""1"",""1902""
","
","
","""event"",""trial"",""time""
""fullscreenenter"",""1"",""1902""
","
","","","","","","null","<div style=""font-size:60px;"">+</div>","null","","fixation","","",""
"memory-trial","213","463434","0.0-18.0-1.84","5334","approach_avoid_sv1","""event"",""trial"",""time""
""fullscreenenter"",""1"",""1902""
","
","
","""event"",""trial"",""time""
""fullscreenenter"",""1"",""1902""
","
","","","","","","2576","images/rabbit7.png","","","memory_trial","3","maybe_new",""
"html-keyboard-response","214","463935","0.0-18.0-0.85","5334","approach_avoid_sv1","""event"",""trial"",""time""
""fullscreenenter"",""1"",""1902""
","
","
","""event"",""trial"",""time""
""fullscreenenter"",""1"",""1902""
","
","","","","","","null","<div style=""font-size:60px;"">+</div>","null","","fixation","","",""
"memory-trial","215","467514","0.0-18.0-1.85","5334","approach_avoid_sv1","""event"",""trial"",""time""
""fullscreenenter"",""1"",""1902""
","
","
","""event"",""trial"",""time""
""fullscreenenter"",""1"",""1902""
","
","","","","","","2576","images/boat5.png","","","memory_trial","2","maybe_old",""
"html-keyboard-response","216","468015","0.0-18.0-0.86","5334","approach_avoid_sv1","""event"",""trial"",""time""
""fullscreenenter"",""1"",""1902""
","
","
","""event"",""trial"",""time""
""fullscreenenter"",""1"",""1902""
","
","","","","","","null","<div style=""font-size:60px;"">+</div>","null","","fixation","","",""
"memory-trial","217","472058","0.0-18.0-1.86","5334","approach_avoid_sv1","""event"",""trial"",""time""
""fullscreenenter"",""1"",""1902""
","
","
","""event"",""trial"",""time""
""fullscreenenter"",""1"",""1902""
","
","","","","","","3040","images/bush1.png","","","memory_trial","3","maybe_new",""
"html-keyboard-response","218","472558","0.0-18.0-0.87","5334","approach_avoid_sv1","""event"",""trial"",""time""
""fullscreenenter"",""1"",""1902""
","
","
","""event"",""trial"",""time""
""fullscreenenter"",""1"",""1902""
","
","","","","","","null","<div style=""font-size:60px;"">+</div>","null","","fixation","","",""
"memory-trial","219","474961","0.0-18.0-1.87","5334","approach_avoid_sv1","""event"",""trial"",""time""
""fullscreenenter"",""1"",""1902""
","
","
","""event"",""trial"",""time""
""fullscreenenter"",""1"",""1902""
","
","","","","","","1401","images/table8.png","","","memory_trial","1","definitely_old",""
"html-keyboard-response","220","475463","0.0-18.0-0.88","5334","approach_avoid_sv1","""event"",""trial"",""time""
""fullscreenenter"",""1"",""1902""
","
","
","""event"",""trial"",""time""
""fullscreenenter"",""1"",""1902""
","
","","","","","","null","<div style=""font-size:60px;"">+</div>","null","","fixation","","",""
"memory-trial","221","477577","0.0-18.0-1.88","5334","approach_avoid_sv1","""event"",""trial"",""time""
""fullscreenenter"",""1"",""1902""
","
","
","""event"",""trial"",""time""
""fullscreenenter"",""1"",""1902""
","
","","","","","","1112","images/rodent2.png","","","memory_trial","4","definitely_new",""
"html-keyboard-response","222","478079","0.0-18.0-0.89","5334","approach_avoid_sv1","""event"",""trial"",""time""
""fullscreenenter"",""1"",""1902""
","
","
","""event"",""trial"",""time""
""fullscreenenter"",""1"",""1902""
","
","","","","","","null","<div style=""font-size:60px;"">+</div>","null","","fixation","","",""
"memory-trial","223","480449","0.0-18.0-1.89","5334","approach_avoid_sv1","""event"",""trial"",""time""
""fullscreenenter"",""1"",""1902""
","
","
","""event"",""trial"",""time""
""fullscreenenter"",""1"",""1902""
","
","","","","","","1368","images/straw6.png","","","memory_trial","2","maybe_old",""
"html-keyboard-response","224","480951","0.0-18.0-0.90","5334","approach_avoid_sv1","""event"",""trial"",""time""
""fullscreenenter"",""1"",""1902""
","
","
","""event"",""trial"",""time""
""fullscreenenter"",""1"",""1902""
","
","","","","","","null","<div style=""font-size:60px;"">+</div>","null","","fixation","","",""
"memory-trial","225","483985","0.0-18.0-1.90","5334","approach_avoid_sv1","""event"",""trial"",""time""
""fullscreenenter"",""1"",""1902""
","
","
","""event"",""trial"",""time""
""fullscreenenter"",""1"",""1902""
","
","","","","","","2032.0000000000582","images/sofa1.png","","","memory_trial","3","maybe_new",""
"html-keyboard-response","226","484487","0.0-18.0-0.91","5334","approach_avoid_sv1","""event"",""trial"",""time""
""fullscreenenter"",""1"",""1902""
","
","
","""event"",""trial"",""time""
""fullscreenenter"",""1"",""1902""
","
","","","","","","null","<div style=""font-size:60px;"">+</div>","null","","fixation","","",""
"memory-trial","227","486849","0.0-18.0-1.91","5334","approach_avoid_sv1","""event"",""trial"",""time""
""fullscreenenter"",""1"",""1902""
","
","
","""event"",""trial"",""time""
""fullscreenenter"",""1"",""1902""
","
","","","","","","1360.0000000000582","images/cat4.png","","","memory_trial","2","maybe_old",""
"html-button-response","228","488510","0.0-18.0-2.91-0.91","5334","approach_avoid_sv1","""event"",""trial"",""time""
""fullscreenenter"",""1"",""1902""
","
","
","""event"",""trial"",""time""
""fullscreenenter"",""1"",""1902""
","
","","","","","","1661","<p> Take a break! </p><p> Click the button to continue. </p>","0","","break","","",""
"html-keyboard-response","229","489012","0.0-18.0-0.92","5334","approach_avoid_sv1","""event"",""trial"",""time""
""fullscreenenter"",""1"",""1902""
","
","
","""event"",""trial"",""time""
""fullscreenenter"",""1"",""1902""
","
","","","","","","null","<div style=""font-size:60px;"">+</div>","null","","fixation","","",""
"memory-trial","230","491529","0.0-18.0-1.92","5334","approach_avoid_sv1","""event"",""trial"",""time""
""fullscreenenter"",""1"",""1902""
","
","
","""event"",""trial"",""time""
""fullscreenenter"",""1"",""1902""
","
","","","","","","1513.9999999999418","images/sheep8.png","","","memory_trial","3","maybe_new",""
"html-keyboard-response","231","492030","0.0-18.0-0.93","5334","approach_avoid_sv1","""event"",""trial"",""time""
""fullscreenenter"",""1"",""1902""
","
","
","""event"",""trial"",""time""
""fullscreenenter"",""1"",""1902""
","
","","","","","","null","<div style=""font-size:60px;"">+</div>","null","","fixation","","",""
"memory-trial","232","494153","0.0-18.0-1.93","5334","approach_avoid_sv1","""event"",""trial"",""time""
""fullscreenenter"",""1"",""1902""
","
","
","""event"",""trial"",""time""
""fullscreenenter"",""1"",""1902""
","
","","","","","","1120","images/rabbit2.png","","","memory_trial","2","maybe_old",""
"html-keyboard-response","233","494654","0.0-18.0-0.94","5334","approach_avoid_sv1","""event"",""trial"",""time""
""fullscreenenter"",""1"",""1902""
","
","
","""event"",""trial"",""time""
""fullscreenenter"",""1"",""1902""
","
","","","","","","null","<div style=""font-size:60px;"">+</div>","null","","fixation","","",""
"memory-trial","234","496712","0.0-18.0-1.94","5334","approach_avoid_sv1","""event"",""trial"",""time""
""fullscreenenter"",""1"",""1902""
","
","
","""event"",""trial"",""time""
""fullscreenenter"",""1"",""1902""
","
","","","","","","1055.9999999999418","images/straw5.png","","","memory_trial","1","definitely_old",""
"html-keyboard-response","235","497214","0.0-18.0-0.95","5334","approach_avoid_sv1","""event"",""trial"",""time""
""fullscreenenter"",""1"",""1902""
","
","
","""event"",""trial"",""time""
""fullscreenenter"",""1"",""1902""
","
","","","","","","null","<div style=""font-size:60px;"">+</div>","null","","fixation","","",""
"memory-trial","236","499217","0.0-18.0-1.95","5334","approach_avoid_sv1","""event"",""trial"",""time""
""fullscreenenter"",""1"",""1902""
","
","
","""event"",""trial"",""time""
""fullscreenenter"",""1"",""1902""
","
","","","","","","1000","images/bush8.png","","","memory_trial","3","maybe_new",""
"html-keyboard-response","237","499718","0.0-18.0-0.96","5334","approach_avoid_sv1","""event"",""trial"",""time""
""fullscreenenter"",""1"",""1902""
","
","
","""event"",""trial"",""time""
""fullscreenenter"",""1"",""1902""
","
","","","","","","null","<div style=""font-size:60px;"">+</div>","null","","fixation","","",""
"memory-trial","238","502760","0.0-18.0-1.96","5334","approach_avoid_sv1","""event"",""trial"",""time""
""fullscreenenter"",""1"",""1902""
","
","
","""event"",""trial"",""time""
""fullscreenenter"",""1"",""1902""
","
","","","","","","2040","images/rodent8.png","","","memory_trial","4","definitely_new",""
"html-keyboard-response","239","503261","0.0-18.0-0.97","5334","approach_avoid_sv1","""event"",""trial"",""time""
""fullscreenenter"",""1"",""1902""
","
","
","""event"",""trial"",""time""
""fullscreenenter"",""1"",""1902""
","
","","","","","","null","<div style=""font-size:60px;"">+</div>","null","","fixation","","",""
"memory-trial","240","505727","0.0-18.0-1.97","5334","approach_avoid_sv1","""event"",""trial"",""time""
""fullscreenenter"",""1"",""1902""
","
","
","""event"",""trial"",""time""
""fullscreenenter"",""1"",""1902""
","
","","","","","","1465.0000000000582","images/plane2.png","","","memory_trial","2","maybe_old",""
"html-keyboard-response","241","506229","0.0-18.0-0.98","5334","approach_avoid_sv1","""event"",""trial"",""time""
""fullscreenenter"",""1"",""1902""
","
","
","""event"",""trial"",""time""
""fullscreenenter"",""1"",""1902""
","
","","","","","","null","<div style=""font-size:60px;"">+</div>","null","","fixation","","",""
"memory-trial","242","508536","0.0-18.0-1.98","5334","approach_avoid_sv1","""event"",""trial"",""time""
""fullscreenenter"",""1"",""1902""
","
","
","""event"",""trial"",""time""
""fullscreenenter"",""1"",""1902""
","
","","","","","","1305","images/horse3.png","","","memory_trial","3","maybe_new",""
"html-keyboard-response","243","509038","0.0-18.0-0.99","5334","approach_avoid_sv1","""event"",""trial"",""time""
""fullscreenenter"",""1"",""1902""
","
","
","""event"",""trial"",""time""
""fullscreenenter"",""1"",""1902""
","
","","","","","","null","<div style=""font-size:60px;"">+</div>","null","","fixation","","",""
"memory-trial","244","511544","0.0-18.0-1.99","5334","approach_avoid_sv1","""event"",""trial"",""time""
""fullscreenenter"",""1"",""1902""
","
","
","""event"",""trial"",""time""
""fullscreenenter"",""1"",""1902""
","
","","","","","","1504.0000000000582","images/train6.png","","","memory_trial","4","definitely_new",""
"html-keyboard-response","245","512046","0.0-18.0-0.100","5334","approach_avoid_sv1","""event"",""trial"",""time""
""fullscreenenter"",""1"",""1902""
","
","
","""event"",""trial"",""time""
""fullscreenenter"",""1"",""1902""
","
","","","","","","null","<div style=""font-size:60px;"">+</div>","null","","fixation","","",""
"memory-trial","246","516904","0.0-18.0-1.100","5334","approach_avoid_sv1","""event"",""trial"",""time""
""fullscreenenter"",""1"",""1902""
","
","
","""event"",""trial"",""time""
""fullscreenenter"",""1"",""1902""
","
","","","","","","3857.0000000001164","images/dog6.png","","","memory_trial","2","maybe_old",""
"html-keyboard-response","247","517405","0.0-18.0-0.101","5334","approach_avoid_sv1","""event"",""trial"",""time""
""fullscreenenter"",""1"",""1902""
","
","
","""event"",""trial"",""time""
""fullscreenenter"",""1"",""1902""
","
","","","","","","null","<div style=""font-size:60px;"">+</div>","null","","fixation","","",""
"memory-trial","248","519464","0.0-18.0-1.101","5334","approach_avoid_sv1","""event"",""trial"",""time""
""fullscreenenter"",""1"",""1902""
","
","
","""event"",""trial"",""time""
""fullscreenenter"",""1"",""1902""
","
","","","","","","1056","images/bed8.png","","","memory_trial","4","definitely_new",""
"html-keyboard-response","249","519966","0.0-18.0-0.102","5334","approach_avoid_sv1","""event"",""trial"",""time""
""fullscreenenter"",""1"",""1902""
","
","
","""event"",""trial"",""time""
""fullscreenenter"",""1"",""1902""
","
","","","","","","null","<div style=""font-size:60px;"">+</div>","null","","fixation","","",""
"memory-trial","250","523808","0.0-18.0-1.102","5334","approach_avoid_sv1","""event"",""trial"",""time""
""fullscreenenter"",""1"",""1902""
","
","
","""event"",""trial"",""time""
""fullscreenenter"",""1"",""1902""
","
","","","","","","2838","images/straw2.png","","","memory_trial","3","maybe_new",""
"html-keyboard-response","251","524309","0.0-18.0-0.103","5334","approach_avoid_sv1","""event"",""trial"",""time""
""fullscreenenter"",""1"",""1902""
","
","
","""event"",""trial"",""time""
""fullscreenenter"",""1"",""1902""
","
","","","","","","null","<div style=""font-size:60px;"">+</div>","null","","fixation","","",""
"memory-trial","252","526352","0.0-18.0-1.103","5334","approach_avoid_sv1","""event"",""trial"",""time""
""fullscreenenter"",""1"",""1902""
","
","
","""event"",""trial"",""time""
""fullscreenenter"",""1"",""1902""
","
","","","","","","1040","images/apple2.png","","","memory_trial","1","definitely_old",""
"html-keyboard-response","253","526853","0.0-18.0-0.104","5334","approach_avoid_sv1","""event"",""trial"",""time""
""fullscreenenter"",""1"",""1902""
","
","
","""event"",""trial"",""time""
""fullscreenenter"",""1"",""1902""
","
","","","","","","null","<div style=""font-size:60px;"">+</div>","null","","fixation","","",""
"memory-trial","254","528879","0.0-18.0-1.104","5334","approach_avoid_sv1","""event"",""trial"",""time""
""fullscreenenter"",""1"",""1902""
","
","
","""event"",""trial"",""time""
""fullscreenenter"",""1"",""1902""
","
","","","","","","1024","images/cat1.png","","","memory_trial","4","definitely_new",""
"html-keyboard-response","255","529381","0.0-18.0-0.105","5334","approach_avoid_sv1","""event"",""trial"",""time""
""fullscreenenter"",""1"",""1902""
","
","
","""event"",""trial"",""time""
""fullscreenenter"",""1"",""1902""
","
","","","","","","null","<div style=""font-size:60px;"">+</div>","null","","fixation","","",""
"memory-trial","256","532551","0.0-18.0-1.105","5334","approach_avoid_sv1","""event"",""trial"",""time""
""fullscreenenter"",""1"",""1902""
","
","
","""event"",""trial"",""time""
""fullscreenenter"",""1"",""1902""
","
","","","","","","2168","images/apple6.png","","","memory_trial","2","maybe_old",""
"html-keyboard-response","257","533053","0.0-18.0-0.106","5334","approach_avoid_sv1","""event"",""trial"",""time""
""fullscreenenter"",""1"",""1902""
","
","
","""event"",""trial"",""time""
""fullscreenenter"",""1"",""1902""
","
","","","","","","null","<div style=""font-size:60px;"">+</div>","null","","fixation","","",""
"memory-trial","258","535079","0.0-18.0-1.106","5334","approach_avoid_sv1","""event"",""trial"",""time""
""fullscreenenter"",""1"",""1902""
","
","
","""event"",""trial"",""time""
""fullscreenenter"",""1"",""1902""
","
","","","","","","1024","images/train3.png","","","memory_trial","4","definitely_new",""
"html-keyboard-response","259","535581","0.0-18.0-0.107","5334","approach_avoid_sv1","""event"",""trial"",""time""
""fullscreenenter"",""1"",""1902""
","
","
","""event"",""trial"",""time""
""fullscreenenter"",""1"",""1902""
","
","","","","","","null","<div style=""font-size:60px;"">+</div>","null","","fixation","","",""
"memory-trial","260","537839","0.0-18.0-1.107","5334","approach_avoid_sv1","""event"",""trial"",""time""
""fullscreenenter"",""1"",""1902""
","
","
","""event"",""trial"",""time""
""fullscreenenter"",""1"",""1902""
","
","","","","","","1256","images/table1.png","","","memory_trial","1","definitely_old",""
"html-keyboard-response","261","538340","0.0-18.0-0.108","5334","approach_avoid_sv1","""event"",""trial"",""time""
""fullscreenenter"",""1"",""1902""
","
","
","""event"",""trial"",""time""
""fullscreenenter"",""1"",""1902""
","
","","","","","","null","<div style=""font-size:60px;"">+</div>","null","","fixation","","",""
"memory-trial","262","540423","0.0-18.0-1.108","5334","approach_avoid_sv1","""event"",""trial"",""time""
""fullscreenenter"",""1"",""1902""
","
","
","""event"",""trial"",""time""
""fullscreenenter"",""1"",""1902""
","
","","","","","","1080.0000000001164","images/cactus3.png","","","memory_trial","4","definitely_new",""
"html-keyboard-response","263","540925","0.0-18.0-0.109","5334","approach_avoid_sv1","""event"",""trial"",""time""
""fullscreenenter"",""1"",""1902""
","
","
","""event"",""trial"",""time""
""fullscreenenter"",""1"",""1902""
","
","","","","","","null","<div style=""font-size:60px;"">+</div>","null","","fixation","","",""
"memory-trial","264","544494","0.0-18.0-1.109","5334","approach_avoid_sv1","""event"",""trial"",""time""
""fullscreenenter"",""1"",""1902""
","
","
","""event"",""trial"",""time""
""fullscreenenter"",""1"",""1902""
","
","","","","","","2568.0000000001164","images/rabbit5.png","","","memory_trial","2","maybe_old",""
"html-keyboard-response","265","544996","0.0-18.0-0.110","5334","approach_avoid_sv1","""event"",""trial"",""time""
""fullscreenenter"",""1"",""1902""
","
","
","""event"",""trial"",""time""
""fullscreenenter"",""1"",""1902""
","
","","","","","","null","<div style=""font-size:60px;"">+</div>","null","","fixation","","",""
"memory-trial","266","547095","0.0-18.0-1.110","5334","approach_avoid_sv1","""event"",""trial"",""time""
""fullscreenenter"",""1"",""1902""
","
","
","""event"",""trial"",""time""
""fullscreenenter"",""1"",""1902""
","
","","","","","","1096","images/apple8.png","","","memory_trial","1","definitely_old",""
"html-keyboard-response","267","547597","0.0-18.0-0.111","5334","approach_avoid_sv1","""event"",""trial"",""time""
""fullscreenenter"",""1"",""1902""
","
","
","""event"",""trial"",""time""
""fullscreenenter"",""1"",""1902""
","
","","","","","","null","<div style=""font-size:60px;"">+</div>","null","","fixation","","",""
"memory-trial","268","551519","0.0-18.0-1.111","5334","approach_avoid_sv1","""event"",""trial"",""time""
""fullscreenenter"",""1"",""1902""
","
","
","""event"",""trial"",""time""
""fullscreenenter"",""1"",""1902""
","
","","","","","","2920.0000000001164","images/sheep7.png","","","memory_trial","2","maybe_old",""
"html-keyboard-response","269","552019","0.0-18.0-0.112","5334","approach_avoid_sv1","""event"",""trial"",""time""
""fullscreenenter"",""1"",""1902""
","
","
","""event"",""trial"",""time""
""fullscreenenter"",""1"",""1902""
","
","","","","","","null","<div style=""font-size:60px;"">+</div>","null","","fixation","","",""
"memory-trial","270","554046","0.0-18.0-1.112","5334","approach_avoid_sv1","""event"",""trial"",""time""
""fullscreenenter"",""1"",""1902""
","
","
","""event"",""trial"",""time""
""fullscreenenter"",""1"",""1902""
","
","","","","","","1025","images/rodent6.png","","","memory_trial","4","definitely_new",""
"html-keyboard-response","271","554548","0.0-18.0-0.113","5334","approach_avoid_sv1","""event"",""trial"",""time""
""fullscreenenter"",""1"",""1902""
","
","
","""event"",""trial"",""time""
""fullscreenenter"",""1"",""1902""
","
","","","","","","null","<div style=""font-size:60px;"">+</div>","null","","fixation","","",""
"memory-trial","272","556854","0.0-18.0-1.113","5334","approach_avoid_sv1","""event"",""trial"",""time""
""fullscreenenter"",""1"",""1902""
","
","
","""event"",""trial"",""time""
""fullscreenenter"",""1"",""1902""
","
","","","","","","1304","images/sofa5.png","","","memory_trial","3","maybe_new",""
"html-keyboard-response","273","557356","0.0-18.0-0.114","5334","approach_avoid_sv1","""event"",""trial"",""time""
""fullscreenenter"",""1"",""1902""
","
","
","""event"",""trial"",""time""
""fullscreenenter"",""1"",""1902""
","
","","","","","","null","<div style=""font-size:60px;"">+</div>","null","","fixation","","",""
"memory-trial","274","559486","0.0-18.0-1.114","5334","approach_avoid_sv1","""event"",""trial"",""time""
""fullscreenenter"",""1"",""1902""
","
","
","""event"",""trial"",""time""
""fullscreenenter"",""1"",""1902""
","
","","","","","","1128","images/apple5.png","","","memory_trial","4","definitely_new",""
"html-keyboard-response","275","559990","0.0-18.0-0.115","5334","approach_avoid_sv1","""event"",""trial"",""time""
""fullscreenenter"",""1"",""1902""
","
","
","""event"",""trial"",""time""
""fullscreenenter"",""1"",""1902""
","
","","","","","","null","<div style=""font-size:60px;"">+</div>","null","","fixation","","",""
"memory-trial","276","561825","0.0-18.0-1.115","5334","approach_avoid_sv1","""event"",""trial"",""time""
""fullscreenenter"",""1"",""1902""
","
","
","""event"",""trial"",""time""
""fullscreenenter"",""1"",""1902""
","
","","","","","","833","images/tree2.png","","","memory_trial","4","definitely_new",""
"html-keyboard-response","277","562326","0.0-18.0-0.116","5334","approach_avoid_sv1","""event"",""trial"",""time""
""fullscreenenter"",""1"",""1902""
","
","
","""event"",""trial"",""time""
""fullscreenenter"",""1"",""1902""
","
","","","","","","null","<div style=""font-size:60px;"">+</div>","null","","fixation","","",""
"memory-trial","278","564390","0.0-18.0-1.116","5334","approach_avoid_sv1","""event"",""trial"",""time""
""fullscreenenter"",""1"",""1902""
","
","
","""event"",""trial"",""time""
""fullscreenenter"",""1"",""1902""
","
","","","","","","1061","images/flower8.png","","","memory_trial","1","definitely_old",""
"html-keyboard-response","279","564892","0.0-18.0-0.117","5334","approach_avoid_sv1","""event"",""trial"",""time""
""fullscreenenter"",""1"",""1902""
","
","
","""event"",""trial"",""time""
""fullscreenenter"",""1"",""1902""
","
","","","","","","null","<div style=""font-size:60px;"">+</div>","null","","fixation","","",""
"memory-trial","280","567934","0.0-18.0-1.117","5334","approach_avoid_sv1","""event"",""trial"",""time""
""fullscreenenter"",""1"",""1902""
","
","
","""event"",""trial"",""time""
""fullscreenenter"",""1"",""1902""
","
","","","","","","2039","images/goat5.png","","","memory_trial","3","maybe_new",""
"html-keyboard-response","281","568435","0.0-18.0-0.118","5334","approach_avoid_sv1","""event"",""trial"",""time""
""fullscreenenter"",""1"",""1902""
","
","
","""event"",""trial"",""time""
""fullscreenenter"",""1"",""1902""
","
","","","","","","null","<div style=""font-size:60px;"">+</div>","null","","fixation","","",""
"memory-trial","282","570518","0.0-18.0-1.118","5334","approach_avoid_sv1","""event"",""trial"",""time""
""fullscreenenter"",""1"",""1902""
","
","
","""event"",""trial"",""time""
""fullscreenenter"",""1"",""1902""
","
","","","","","","1080.0000000001164","images/bush4.png","","","memory_trial","4","definitely_new",""
"html-keyboard-response","283","571019","0.0-18.0-0.119","5334","approach_avoid_sv1","""event"",""trial"",""time""
""fullscreenenter"",""1"",""1902""
","
","
","""event"",""trial"",""time""
""fullscreenenter"",""1"",""1902""
","
","","","","","","null","<div style=""font-size:60px;"">+</div>","null","","fixation","","",""
"memory-trial","284","572872","0.0-18.0-1.119","5334","approach_avoid_sv1","""event"",""trial"",""time""
""fullscreenenter"",""1"",""1902""
","
","
","""event"",""trial"",""time""
""fullscreenenter"",""1"",""1902""
","
","","","","","","850","images/goat3.png","","","memory_trial","4","definitely_new",""
"html-keyboard-response","285","573374","0.0-18.0-0.120","5334","approach_avoid_sv1","""event"",""trial"",""time""
""fullscreenenter"",""1"",""1902""
","
","
","""event"",""trial"",""time""
""fullscreenenter"",""1"",""1902""
","
","","","","","","null","<div style=""font-size:60px;"">+</div>","null","","fixation","","",""
"memory-trial","286","575750","0.0-18.0-1.120","5334","approach_avoid_sv1","""event"",""trial"",""time""
""fullscreenenter"",""1"",""1902""
","
","
","""event"",""trial"",""time""
""fullscreenenter"",""1"",""1902""
","
","","","","","","1374","images/tree1.png","","","memory_trial","3","maybe_new",""
"html-keyboard-response","287","576251","0.0-18.0-0.121","5334","approach_avoid_sv1","""event"",""trial"",""time""
""fullscreenenter"",""1"",""1902""
","
","
","""event"",""trial"",""time""
""fullscreenenter"",""1"",""1902""
","
","","","","","","null","<div style=""font-size:60px;"">+</div>","null","","fixation","","",""
"memory-trial","288","578416","0.0-18.0-1.121","5334","approach_avoid_sv1","""event"",""trial"",""time""
""fullscreenenter"",""1"",""1902""
","
","
","""event"",""trial"",""time""
""fullscreenenter"",""1"",""1902""
","
","","","","","","1161","images/flower1.png","","","memory_trial","3","maybe_new",""
"html-keyboard-response","289","578917","0.0-18.0-0.122","5334","approach_avoid_sv1","""event"",""trial"",""time""
""fullscreenenter"",""1"",""1902""
","
","
","""event"",""trial"",""time""
""fullscreenenter"",""1"",""1902""
","
","","","","","","null","<div style=""font-size:60px;"">+</div>","null","","fixation","","",""
"memory-trial","290","582525","0.0-18.0-1.122","5334","approach_avoid_sv1","""event"",""trial"",""time""
""fullscreenenter"",""1"",""1902""
","
","
","""event"",""trial"",""time""
""fullscreenenter"",""1"",""1902""
","
","","","","","","2606","images/sofa3.png","","","memory_trial","4","definitely_new",""
"html-keyboard-response","291","583027","0.0-18.0-0.123","5334","approach_avoid_sv1","""event"",""trial"",""time""
""fullscreenenter"",""1"",""1902""
","
","
","""event"",""trial"",""time""
""fullscreenenter"",""1"",""1902""
","
","","","","","","null","<div style=""font-size:60px;"">+</div>","null","","fixation","","",""
"memory-trial","292","587103","0.0-18.0-1.123","5334","approach_avoid_sv1","""event"",""trial"",""time""
""fullscreenenter"",""1"",""1902""
","
","
","""event"",""trial"",""time""
""fullscreenenter"",""1"",""1902""
","
","","","","","","3074","images/cat8.png","","","memory_trial","4","definitely_new",""
"html-keyboard-response","293","587605","0.0-18.0-0.124","5334","approach_avoid_sv1","""event"",""trial"",""time""
""fullscreenenter"",""1"",""1902""
","
","
","""event"",""trial"",""time""
""fullscreenenter"",""1"",""1902""
","
","","","","","","null","<div style=""font-size:60px;"">+</div>","null","","fixation","","",""
"memory-trial","294","591253","0.0-18.0-1.124","5334","approach_avoid_sv1","""event"",""trial"",""time""
""fullscreenenter"",""1"",""1902""
","
","
","""event"",""trial"",""time""
""fullscreenenter"",""1"",""1902""
","
","","","","","","2646","images/cow2.png","","","memory_trial","3","maybe_new",""
"html-keyboard-response","295","591755","0.0-18.0-0.125","5334","approach_avoid_sv1","""event"",""trial"",""time""
""fullscreenenter"",""1"",""1902""
","
","
","""event"",""trial"",""time""
""fullscreenenter"",""1"",""1902""
","
","","","","","","null","<div style=""font-size:60px;"">+</div>","null","","fixation","","",""
"memory-trial","296","594109","0.0-18.0-1.125","5334","approach_avoid_sv1","""event"",""trial"",""time""
""fullscreenenter"",""1"",""1902""
","
","
","""event"",""trial"",""time""
""fullscreenenter"",""1"",""1902""
","
","","","","","","1352","images/sheep4.png","","","memory_trial","1","definitely_old",""
"html-keyboard-response","297","594610","0.0-18.0-0.126","5334","approach_avoid_sv1","""event"",""trial"",""time""
""fullscreenenter"",""1"",""1902""
","
","
","""event"",""trial"",""time""
""fullscreenenter"",""1"",""1902""
","
","","","","","","null","<div style=""font-size:60px;"">+</div>","null","","fixation","","",""
"memory-trial","298","596941","0.0-18.0-1.126","5334","approach_avoid_sv1","""event"",""trial"",""time""
""fullscreenenter"",""1"",""1902""
","
","
","""event"",""trial"",""time""
""fullscreenenter"",""1"",""1902""
","
","","","","","","1327.9999999998836","images/dog4.png","","","memory_trial","2","maybe_old",""
"html-keyboard-response","299","597442","0.0-18.0-0.127","5334","approach_avoid_sv1","""event"",""trial"",""time""
""fullscreenenter"",""1"",""1902""
","
","
","""event"",""trial"",""time""
""fullscreenenter"",""1"",""1902""
","
","","","","","","null","<div style=""font-size:60px;"">+</div>","null","","fixation","","",""
"memory-trial","300","599214","0.0-18.0-1.127","5334","approach_avoid_sv1","""event"",""trial"",""time""
""fullscreenenter"",""1"",""1902""
","
","
","""event"",""trial"",""time""
""fullscreenenter"",""1"",""1902""
","
","","","","","","767.0000000001164","images/table4.png","","","memory_trial","1","definitely_old",""
"html-keyboard-response","301","599714","0.0-18.0-0.128","5334","approach_avoid_sv1","""event"",""trial"",""time""
""fullscreenenter"",""1"",""1902""
","
","
","""event"",""trial"",""time""
""fullscreenenter"",""1"",""1902""
","
