"trial_type","trial_index","time_elapsed","internal_node_id","subject_id","task_version","interactions","blur_events","focus_events","fullscreenenter_events","fullscreenexit_events","success","timeout","failed_images","failed_audio","failed_video","rt","stimulus","response","button_pressed","task_part","key_press","answer","correct"
"pavlovia","0","3","0.0-0.0","5931","approach_avoid_sv1","""event"",""trial"",""time""
""fullscreenenter"",""1"",""3304""
","
","
","""event"",""trial"",""time""
""fullscreenenter"",""1"",""3304""
","
","","","","","","","","","","","","",""
"fullscreen","1","4293","0.0-1.0","5931","approach_avoid_sv1","""event"",""trial"",""time""
""fullscreenenter"",""1"",""3304""
","
","
","""event"",""trial"",""time""
""fullscreenenter"",""1"",""3304""
","
","true","","","","","","","","","","","",""
"preload","2","4377","0.0-2.0","5931","approach_avoid_sv1","""event"",""trial"",""time""
""fullscreenenter"",""1"",""3304""
","
","
","""event"",""trial"",""time""
""fullscreenenter"",""1"",""3304""
","
","true","false","[]","[]","[]","","","","","","","",""
"preload","3","4452","0.0-3.0","5931","approach_avoid_sv1","""event"",""trial"",""time""
""fullscreenenter"",""1"",""3304""
","
","
","""event"",""trial"",""time""
""fullscreenenter"",""1"",""3304""
","
","true","false","[]","[]","[]","","","","","","","",""
"preload","4","4471","0.0-4.0","5931","approach_avoid_sv1","""event"",""trial"",""time""
""fullscreenenter"",""1"",""3304""
""fullscreenexit"",""5"",""6194""
","
","
","""event"",""trial"",""time""
""fullscreenenter"",""1"",""3304""
","""event"",""trial"",""time""
""fullscreenexit"",""5"",""6194""
","true","false","[]","[]","[]","","","","","","","",""
"audio-keyboard-response","5","22652","0.0-5.0","5931","approach_avoid_sv1","""event"",""trial"",""time""
""fullscreenenter"",""1"",""3304""
""fullscreenexit"",""5"",""6194""
","
","
","""event"",""trial"",""time""
""fullscreenenter"",""1"",""3304""
","""event"",""trial"",""time""
""fullscreenexit"",""5"",""6194""
","","","","","","18170.666666666664","audio/beep_loop.wav"," ","","","","",""
"audio-button-response","6","26659","0.0-6.0","5931","approach_avoid_sv1","""event"",""trial"",""time""
""fullscreenenter"",""1"",""3304""
""fullscreenexit"",""5"",""6194""
","
","
","""event"",""trial"",""time""
""fullscreenenter"",""1"",""3304""
","""event"",""trial"",""time""
""fullscreenexit"",""5"",""6194""
","","","","","","4000","audio/turtle.wav","3","","","","",""
"audio-button-response","7","29387","0.0-7.0","5931","approach_avoid_sv1","""event"",""trial"",""time""
""fullscreenenter"",""1"",""3304""
""fullscreenexit"",""5"",""6194""
","
","
","""event"",""trial"",""time""
""fullscreenenter"",""1"",""3304""
","""event"",""trial"",""time""
""fullscreenexit"",""5"",""6194""
","","","","","","1701","audio/shark.wav","2","","","","",""
"preload","8","30541","0.0-8.0","5931","approach_avoid_sv1","""event"",""trial"",""time""
""fullscreenenter"",""1"",""3304""
""fullscreenexit"",""5"",""6194""
","
","
","""event"",""trial"",""time""
""fullscreenenter"",""1"",""3304""
","""event"",""trial"",""time""
""fullscreenexit"",""5"",""6194""
","true","false","[]","[]","[]","","","","","","","",""
"learning-instructions","9","36700","0.0-9.0-0.0","5931","approach_avoid_sv1","""event"",""trial"",""time""
""fullscreenenter"",""1"",""3304""
""fullscreenexit"",""5"",""6194""
","
","
","""event"",""trial"",""time""
""fullscreenenter"",""1"",""3304""
","""event"",""trial"",""time""
""fullscreenexit"",""5"",""6194""
","","","","","","1678.7999999523163","<p> Welcome back! </p><p> Last week, you had to make choices about lots of different items.  </p>","","0","instructions","","",""
"learning-instructions","10","42708","0.0-9.0-0.1","5931","approach_avoid_sv1","""event"",""trial"",""time""
""fullscreenenter"",""1"",""3304""
""fullscreenexit"",""5"",""6194""
","
","
","""event"",""trial"",""time""
""fullscreenenter"",""1"",""3304""
","""event"",""trial"",""time""
""fullscreenexit"",""5"",""6194""
","","","","","","1897.2000000476837","<p> Today, we are going to ask you to try to remember all the items. </p>","","0","instructions","","",""
"learning-instructions","11","53636","0.0-9.0-0.2","5931","approach_avoid_sv1","""event"",""trial"",""time""
""fullscreenenter"",""1"",""3304""
""fullscreenexit"",""5"",""6194""
","
","
","""event"",""trial"",""time""
""fullscreenenter"",""1"",""3304""
","""event"",""trial"",""time""
""fullscreenexit"",""5"",""6194""
","","","","","","804.8999999761581","<p> On every trial, you will see an image. </p><p> The image may be an OLD image you saw during the games last week or it may be a NEW image that was not presented. </p>","","0","instructions","","",""
"learning-instructions","12","63052","0.0-9.0-0.3","5931","approach_avoid_sv1","""event"",""trial"",""time""
""fullscreenenter"",""1"",""3304""
""fullscreenexit"",""5"",""6194""
","
","
","""event"",""trial"",""time""
""fullscreenenter"",""1"",""3304""
","""event"",""trial"",""time""
""fullscreenexit"",""5"",""6194""
","","","","","","909.7000000476837","<p> You need to select whether the image is:  </p><p>  'Definitely old', 'Maybe old', 'Maybe new', or 'Definitely new.'  </p><div class=""mem-choice-instructions-grid""><div class=""choice-option"" id=""choice-option-1"" ><img src=""images/definitely_old_1.png"" id=""choice-option-img-1"" class=""choice-option-img"" stage=""1""></div><div class=""choice-option"" id=""choice-option-2"" ><img src=""images/maybe_old_1.png"" id=""choice-option-img-2"" class=""choice-option-img"" stage=""1""></div><div class=""choice-option"" id=""choice-option-3"" ><img src=""images/maybe_new_1.png"" id=""choice-option-img-3"" class=""choice-option-img"" stage=""1""></div><div class=""choice-option"" id=""choice-option-4"" > <img src=""images/definitely_new_1.png"" id=""choice-option-img-4"" class=""choice-option-img"" stage=""1""></div></div>","","0","instructions","","",""
"learning-instructions","13","71133","0.0-9.0-0.4","5931","approach_avoid_sv1","""event"",""trial"",""time""
""fullscreenenter"",""1"",""3304""
""fullscreenexit"",""5"",""6194""
","
","
","""event"",""trial"",""time""
""fullscreenenter"",""1"",""3304""
","""event"",""trial"",""time""
""fullscreenexit"",""5"",""6194""
","","","","","","1569.6000000238419","<p> You should use the 1, 2, 3, and 4 keys to make your responses.  </p><div class=""mem-choice-instructions-grid""><div class=""choice-option"" id=""choice-option-1"" ><img src=""images/definitely_old.png"" id=""choice-option-img-1"" class=""choice-option-img"" stage=""1""></div><div class=""choice-option"" id=""choice-option-2"" ><img src=""images/maybe_old.png"" id=""choice-option-img-2"" class=""choice-option-img"" stage=""1""></div><div class=""choice-option"" id=""choice-option-3"" ><img src=""images/maybe_new.png"" id=""choice-option-img-3"" class=""choice-option-img"" stage=""1""></div><div class=""choice-option"" id=""choice-option-4"" > <img src=""images/definitely_new.png"" id=""choice-option-img-4"" class=""choice-option-img"" stage=""1""></div></div>","","0","instructions","","",""
"learning-instructions","14","80437","0.0-9.0-0.5","5931","approach_avoid_sv1","""event"",""trial"",""time""
""fullscreenenter"",""1"",""3304""
""fullscreenexit"",""5"",""6194""
","
","
","""event"",""trial"",""time""
""fullscreenenter"",""1"",""3304""
","""event"",""trial"",""time""
""fullscreenexit"",""5"",""6194""
","","","","","","2975","<p> You will have 10 seconds to make each response.  </p><p>  Make sure to respond before time runs out! </p>","","0","instructions","","",""
"learning-instructions","15","92221","0.0-9.0-0.6","5931","approach_avoid_sv1","""event"",""trial"",""time""
""fullscreenenter"",""1"",""3304""
""fullscreenexit"",""5"",""6194""
","
","
","""event"",""trial"",""time""
""fullscreenenter"",""1"",""3304""
","""event"",""trial"",""time""
""fullscreenexit"",""5"",""6194""
","","","","","","4698.899999976158","<p> Today, you will see each image ONCE only.  </p><p>  That means none of the images will repeat. </p>","","0","instructions","","",""
"learning-instructions","16","105766","0.0-9.0-0.7","5931","approach_avoid_sv1","""event"",""trial"",""time""
""fullscreenenter"",""1"",""3304""
""fullscreenexit"",""5"",""6194""
","
","
","""event"",""trial"",""time""
""fullscreenenter"",""1"",""3304""
","""event"",""trial"",""time""
""fullscreenexit"",""5"",""6194""
","","","","","","862.8000000715256","<p> Before you play the real game, it is time to practice. </p><p>  Just like in the real game, some of the images in the practice will be ones you have seen before. </p><p>  Others will be entirely new. </p>","","0","instructions","","",""
"html-button-response","17","108590","0.0-10.0","5931","approach_avoid_sv1","""event"",""trial"",""time""
""fullscreenenter"",""1"",""3304""
""fullscreenexit"",""5"",""6194""
","
","
","""event"",""trial"",""time""
""fullscreenenter"",""1"",""3304""
","""event"",""trial"",""time""
""fullscreenexit"",""5"",""6194""
","","","","","","2701.0999999046326","<p> Ready to practice? </p><p> Remember, use the 1, 2, 3, and 4 keys to make your responses. </p>","0","","instructions","","",""
"html-keyboard-response","18","109216","0.0-11.0-0.0","5931","approach_avoid_sv1","""event"",""trial"",""time""
""fullscreenenter"",""1"",""3304""
""fullscreenexit"",""5"",""6194""
","
","
","""event"",""trial"",""time""
""fullscreenenter"",""1"",""3304""
","""event"",""trial"",""time""
""fullscreenexit"",""5"",""6194""
","","","","","","null","<div style=""font-size:60px;"">+</div>","null","","fixation","","",""
"memory-trial","19","111758","0.0-11.0-1.0","5931","approach_avoid_sv1","""event"",""trial"",""time""
""fullscreenenter"",""1"",""3304""
""fullscreenexit"",""5"",""6194""
","
","
","""event"",""trial"",""time""
""fullscreenenter"",""1"",""3304""
","""event"",""trial"",""time""
""fullscreenexit"",""5"",""6194""
","","","","","","1523.8000000715256","images/ball3.png","","","practice","1","definitely_old",""
"html-keyboard-response","20","112282","0.0-11.0-0.1","5931","approach_avoid_sv1","""event"",""trial"",""time""
""fullscreenenter"",""1"",""3304""
""fullscreenexit"",""5"",""6194""
","
","
","""event"",""trial"",""time""
""fullscreenenter"",""1"",""3304""
","""event"",""trial"",""time""
""fullscreenexit"",""5"",""6194""
","","","","","","null","<div style=""font-size:60px;"">+</div>","null","","fixation","","",""
"memory-trial","21","114297","0.0-11.0-1.1","5931","approach_avoid_sv1","""event"",""trial"",""time""
""fullscreenenter"",""1"",""3304""
""fullscreenexit"",""5"",""6194""
","
","
","""event"",""trial"",""time""
""fullscreenenter"",""1"",""3304""
","""event"",""trial"",""time""
""fullscreenexit"",""5"",""6194""
","","","","","","991.7999999523163","images/racket5.png","","","practice","4","definitely_new",""
"html-keyboard-response","22","114817","0.0-11.0-0.2","5931","approach_avoid_sv1","""event"",""trial"",""time""
""fullscreenenter"",""1"",""3304""
""fullscreenexit"",""5"",""6194""
","
","
","""event"",""trial"",""time""
""fullscreenenter"",""1"",""3304""
","""event"",""trial"",""time""
""fullscreenexit"",""5"",""6194""
","","","","","","null","<div style=""font-size:60px;"">+</div>","null","","fixation","","",""
"memory-trial","23","116497","0.0-11.0-1.2","5931","approach_avoid_sv1","""event"",""trial"",""time""
""fullscreenenter"",""1"",""3304""
""fullscreenexit"",""5"",""6194""
","
","
","""event"",""trial"",""time""
""fullscreenenter"",""1"",""3304""
","""event"",""trial"",""time""
""fullscreenexit"",""5"",""6194""
","","","","","","668","images/ball5.png","","","practice","4","definitely_new",""
"html-keyboard-response","24","117017","0.0-11.0-0.3","5931","approach_avoid_sv1","""event"",""trial"",""time""
""fullscreenenter"",""1"",""3304""
""fullscreenexit"",""5"",""6194""
","
","
","""event"",""trial"",""time""
""fullscreenenter"",""1"",""3304""
","""event"",""trial"",""time""
""fullscreenexit"",""5"",""6194""
","","","","","","null","<div style=""font-size:60px;"">+</div>","null","","fixation","","",""
"memory-trial","25","118747","0.0-11.0-1.3","5931","approach_avoid_sv1","""event"",""trial"",""time""
""fullscreenenter"",""1"",""3304""
""fullscreenexit"",""5"",""6194""
","
","
","""event"",""trial"",""time""
""fullscreenenter"",""1"",""3304""
","""event"",""trial"",""time""
""fullscreenexit"",""5"",""6194""
","","","","","","706.7000000476837","images/ball2.png","","","practice","4","definitely_new",""
"html-keyboard-response","26","119267","0.0-11.0-0.4","5931","approach_avoid_sv1","""event"",""trial"",""time""
""fullscreenenter"",""1"",""3304""
""fullscreenexit"",""5"",""6194""
","
","
","""event"",""trial"",""time""
""fullscreenenter"",""1"",""3304""
","""event"",""trial"",""time""
""fullscreenexit"",""5"",""6194""
","","","","","","null","<div style=""font-size:60px;"">+</div>","null","","fixation","","",""
"memory-trial","27","121077","0.0-11.0-1.4","5931","approach_avoid_sv1","""event"",""trial"",""time""
""fullscreenenter"",""1"",""3304""
""fullscreenexit"",""5"",""6194""
","
","
","""event"",""trial"",""time""
""fullscreenenter"",""1"",""3304""
","""event"",""trial"",""time""
""fullscreenexit"",""5"",""6194""
","","","","","","791.7999999523163","images/racket3.png","","","practice","4","definitely_new",""
"html-keyboard-response","28","121597","0.0-11.0-0.5","5931","approach_avoid_sv1","""event"",""trial"",""time""
""fullscreenenter"",""1"",""3304""
""fullscreenexit"",""5"",""6194""
","
","
","""event"",""trial"",""time""
""fullscreenenter"",""1"",""3304""
","""event"",""trial"",""time""
""fullscreenexit"",""5"",""6194""
","","","","","","null","<div style=""font-size:60px;"">+</div>","null","","fixation","","",""
"memory-trial","29","123228","0.0-11.0-1.5","5931","approach_avoid_sv1","""event"",""trial"",""time""
""fullscreenenter"",""1"",""3304""
""fullscreenexit"",""5"",""6194""
","
","
","""event"",""trial"",""time""
""fullscreenenter"",""1"",""3304""
","""event"",""trial"",""time""
""fullscreenexit"",""5"",""6194""
","","","","","","611.7000000476837","images/racket2.png","","","practice","4","definitely_new",""
"html-keyboard-response","30","123747","0.0-11.0-0.6","5931","approach_avoid_sv1","""event"",""trial"",""time""
""fullscreenenter"",""1"",""3304""
""fullscreenexit"",""5"",""6194""
","
","
","""event"",""trial"",""time""
""fullscreenenter"",""1"",""3304""
","""event"",""trial"",""time""
""fullscreenexit"",""5"",""6194""
","","","","","","null","<div style=""font-size:60px;"">+</div>","null","","fixation","","",""
"memory-trial","31","125318","0.0-11.0-1.6","5931","approach_avoid_sv1","""event"",""trial"",""time""
""fullscreenenter"",""1"",""3304""
""fullscreenexit"",""5"",""6194""
","
","
","""event"",""trial"",""time""
""fullscreenenter"",""1"",""3304""
","""event"",""trial"",""time""
""fullscreenexit"",""5"",""6194""
","","","","","","544.2999999523163","images/racket1.png","","","practice","4","definitely_new",""
"html-keyboard-response","32","125827","0.0-11.0-0.7","5931","approach_avoid_sv1","""event"",""trial"",""time""
""fullscreenenter"",""1"",""3304""
""fullscreenexit"",""5"",""6194""
","
","
","""event"",""trial"",""time""
""fullscreenenter"",""1"",""3304""
","""event"",""trial"",""time""
""fullscreenexit"",""5"",""6194""
","","","","","","null","<div style=""font-size:60px;"">+</div>","null","","fixation","","",""
"memory-trial","33","128038","0.0-11.0-1.7","5931","approach_avoid_sv1","""event"",""trial"",""time""
""fullscreenenter"",""1"",""3304""
""fullscreenexit"",""5"",""6194""
","
","
","""event"",""trial"",""time""
""fullscreenenter"",""1"",""3304""
","""event"",""trial"",""time""
""fullscreenexit"",""5"",""6194""
","","","","","","1192.3000000715256","images/ball1.png","","","practice","4","definitely_new",""
"learning-instructions","34","136951","0.0-12.0-0.0","5931","approach_avoid_sv1","""event"",""trial"",""time""
""fullscreenenter"",""1"",""3304""
""fullscreenexit"",""5"",""6194""
","
","
","""event"",""trial"",""time""
""fullscreenenter"",""1"",""3304""
","""event"",""trial"",""time""
""fullscreenexit"",""5"",""6194""
","","","","","","1606.9000000953674","<p> Great! You have completed the practice. </p><p> Before you start, we're going to ask you a few questions about how the game works.  </p>","","0","instructions","","",""
"preload","35","137160","0.0-13.0","5931","approach_avoid_sv1","""event"",""trial"",""time""
""fullscreenenter"",""1"",""3304""
""fullscreenexit"",""5"",""6194""
","
","
","""event"",""trial"",""time""
""fullscreenenter"",""1"",""3304""
","""event"",""trial"",""time""
""fullscreenexit"",""5"",""6194""
","true","false","[]","[]","[]","","","","","","","",""
"comp-q","36","144664","0.0-14.0-0.0","5931","approach_avoid_sv1","""event"",""trial"",""time""
""fullscreenenter"",""1"",""3304""
""fullscreenexit"",""5"",""6194""
","
","
","""event"",""trial"",""time""
""fullscreenenter"",""1"",""3304""
","""event"",""trial"",""time""
""fullscreenexit"",""5"",""6194""
","","","","","","1678.6000000238419","<p> <b> True or False? </b> </p><p> In this game, you will only see each image once. </p>","","0","comp_question","","","true"
"comp-q","37","154504","0.0-14.0-1.0","5931","approach_avoid_sv1","""event"",""trial"",""time""
""fullscreenenter"",""1"",""3304""
""fullscreenexit"",""5"",""6194""
","
","
","""event"",""trial"",""time""
""fullscreenenter"",""1"",""3304""
","""event"",""trial"",""time""
""fullscreenexit"",""5"",""6194""
","","","","","","3488.7000000476837","<p> <b> That's right! </b> You will see many different images <i> one time each </i> in this game. </p>","","0","comp_answer","","",""
"comp-q","38","160712","0.0-15.0-0.0","5931","approach_avoid_sv1","""event"",""trial"",""time""
""fullscreenenter"",""1"",""3304""
""fullscreenexit"",""5"",""6194""
","
","
","""event"",""trial"",""time""
""fullscreenenter"",""1"",""3304""
","""event"",""trial"",""time""
""fullscreenexit"",""5"",""6194""
","","","","","","1186.7000000476837","<p> <b> True or False? </b> </p><p> You should use the mouse and click to make your response. </p>","","1","comp_question","","","true"
"comp-q","39","169792","0.0-15.0-1.0","5931","approach_avoid_sv1","""event"",""trial"",""time""
""fullscreenenter"",""1"",""3304""
""fullscreenexit"",""5"",""6194""
","
","
","""event"",""trial"",""time""
""fullscreenenter"",""1"",""3304""
","""event"",""trial"",""time""
""fullscreenexit"",""5"",""6194""
","","","","","","2567.1999999284744","<p><b> That's right! </b> You should use the '1', '2', '3', and '4' keys to make your response. </p>","","0","comp_answer","","",""
"comp-q","40","176704","0.0-16.0-0.0","5931","approach_avoid_sv1","""event"",""trial"",""time""
""fullscreenenter"",""1"",""3304""
""fullscreenexit"",""5"",""6194""
","
","
","""event"",""trial"",""time""
""fullscreenenter"",""1"",""3304""
","""event"",""trial"",""time""
""fullscreenexit"",""5"",""6194""
","","","","","","1218.6000000238419","<p> <b> True or False? </b> </p><p> You will have as much time as you want to make each choice. </p>","","1","comp_question","","","true"
"comp-q","41","182793","0.0-16.0-1.0","5931","approach_avoid_sv1","""event"",""trial"",""time""
""fullscreenenter"",""1"",""3304""
""fullscreenexit"",""5"",""6194""
","
","
","""event"",""trial"",""time""
""fullscreenenter"",""1"",""3304""
","""event"",""trial"",""time""
""fullscreenexit"",""5"",""6194""
","","","","","","1377","<p> <b> That's right! </b> You will only have 10 seconds to make each choice. </p>","","0","comp_answer","","",""
"learning-instructions","42","194137","0.0-17.0","5931","approach_avoid_sv1","""event"",""trial"",""time""
""fullscreenenter"",""1"",""3304""
""fullscreenexit"",""5"",""6194""
","
","
","""event"",""trial"",""time""
""fullscreenenter"",""1"",""3304""
","""event"",""trial"",""time""
""fullscreenexit"",""5"",""6194""
","","","","","","2660.7000000476837","<p> Great! You are now ready to begin the game. </p><p> Remember, use the 1, 2, 3, and 4 keys to make your responses. </p>","","0","instructions","","",""
"html-keyboard-response","43","194755","0.0-18.0-0.0","5931","approach_avoid_sv1","""event"",""trial"",""time""
""fullscreenenter"",""1"",""3304""
""fullscreenexit"",""5"",""6194""
","
","
","""event"",""trial"",""time""
""fullscreenenter"",""1"",""3304""
","""event"",""trial"",""time""
""fullscreenexit"",""5"",""6194""
","","","","","","null","<div style=""font-size:60px;"">+</div>","null","","fixation","","",""
"memory-trial","44","196741","0.0-18.0-1.0","5931","approach_avoid_sv1","""event"",""trial"",""time""
""fullscreenenter"",""1"",""3304""
""fullscreenexit"",""5"",""6194""
","
","
","""event"",""trial"",""time""
""fullscreenenter"",""1"",""3304""
","""event"",""trial"",""time""
""fullscreenexit"",""5"",""6194""
","","","","","","979.3999999761581","images/boat7.png","","","memory_trial","1","definitely_old",""
"html-keyboard-response","45","197261","0.0-18.0-0.1","5931","approach_avoid_sv1","""event"",""trial"",""time""
""fullscreenenter"",""1"",""3304""
""fullscreenexit"",""5"",""6194""
","
","
","""event"",""trial"",""time""
""fullscreenenter"",""1"",""3304""
","""event"",""trial"",""time""
""fullscreenexit"",""5"",""6194""
","","","","","","null","<div style=""font-size:60px;"">+</div>","null","","fixation","","",""
"memory-trial","46","199231","0.0-18.0-1.1","5931","approach_avoid_sv1","""event"",""trial"",""time""
""fullscreenenter"",""1"",""3304""
""fullscreenexit"",""5"",""6194""
","
","
","""event"",""trial"",""time""
""fullscreenenter"",""1"",""3304""
","""event"",""trial"",""time""
""fullscreenexit"",""5"",""6194""
","","","","","","953.4000000953674","images/tree2.png","","","memory_trial","4","definitely_new",""
"html-keyboard-response","47","199751","0.0-18.0-0.2","5931","approach_avoid_sv1","""event"",""trial"",""time""
""fullscreenenter"",""1"",""3304""
""fullscreenexit"",""5"",""6194""
","
","
","""event"",""trial"",""time""
""fullscreenenter"",""1"",""3304""
","""event"",""trial"",""time""
""fullscreenexit"",""5"",""6194""
","","","","","","null","<div style=""font-size:60px;"">+</div>","null","","fixation","","",""
"memory-trial","48","201851","0.0-18.0-1.2","5931","approach_avoid_sv1","""event"",""trial"",""time""
""fullscreenenter"",""1"",""3304""
""fullscreenexit"",""5"",""6194""
","
","
","""event"",""trial"",""time""
""fullscreenenter"",""1"",""3304""
","""event"",""trial"",""time""
""fullscreenexit"",""5"",""6194""
","","","","","","1087.8000000715256","images/rabbit7.png","","","memory_trial","1","definitely_old",""
"html-keyboard-response","49","202371","0.0-18.0-0.3","5931","approach_avoid_sv1","""event"",""trial"",""time""
""fullscreenenter"",""1"",""3304""
""fullscreenexit"",""5"",""6194""
","
","
","""event"",""trial"",""time""
""fullscreenenter"",""1"",""3304""
","""event"",""trial"",""time""
""fullscreenexit"",""5"",""6194""
","","","","","","null","<div style=""font-size:60px;"">+</div>","null","","fixation","","",""
"memory-trial","50","205245","0.0-18.0-1.3","5931","approach_avoid_sv1","""event"",""trial"",""time""
""fullscreenenter"",""1"",""3304""
""fullscreenexit"",""5"",""6194""
","
","
","""event"",""trial"",""time""
""fullscreenenter"",""1"",""3304""
","""event"",""trial"",""time""
""fullscreenexit"",""5"",""6194""
","","","","","","1866.7999999523163","images/cactus7.png","","","memory_trial","1","definitely_old",""
"html-keyboard-response","51","205761","0.0-18.0-0.4","5931","approach_avoid_sv1","""event"",""trial"",""time""
""fullscreenenter"",""1"",""3304""
""fullscreenexit"",""5"",""6194""
","
","
","""event"",""trial"",""time""
""fullscreenenter"",""1"",""3304""
","""event"",""trial"",""time""
""fullscreenexit"",""5"",""6194""
","","","","","","null","<div style=""font-size:60px;"">+</div>","null","","fixation","","",""
"memory-trial","52","208271","0.0-18.0-1.4","5931","approach_avoid_sv1","""event"",""trial"",""time""
""fullscreenenter"",""1"",""3304""
""fullscreenexit"",""5"",""6194""
","
","
","""event"",""trial"",""time""
""fullscreenenter"",""1"",""3304""
","""event"",""trial"",""time""
""fullscreenexit"",""5"",""6194""
","","","","","","1492.3999999761581","images/bed7.png","","","memory_trial","2","maybe_old",""
"html-keyboard-response","53","208781","0.0-18.0-0.5","5931","approach_avoid_sv1","""event"",""trial"",""time""
""fullscreenenter"",""1"",""3304""
""fullscreenexit"",""5"",""6194""
","
","
","""event"",""trial"",""time""
""fullscreenenter"",""1"",""3304""
","""event"",""trial"",""time""
""fullscreenexit"",""5"",""6194""
","","","","","","null","<div style=""font-size:60px;"">+</div>","null","","fixation","","",""
"memory-trial","54","210841","0.0-18.0-1.5","5931","approach_avoid_sv1","""event"",""trial"",""time""
""fullscreenenter"",""1"",""3304""
""fullscreenexit"",""5"",""6194""
","
","
","""event"",""trial"",""time""
""fullscreenenter"",""1"",""3304""
","""event"",""trial"",""time""
""fullscreenexit"",""5"",""6194""
","","","","","","1042.2999999523163","images/sheep1.png","","","memory_trial","4","definitely_new",""
"html-keyboard-response","55","211351","0.0-18.0-0.6","5931","approach_avoid_sv1","""event"",""trial"",""time""
""fullscreenenter"",""1"",""3304""
""fullscreenexit"",""5"",""6194""
","
","
","""event"",""trial"",""time""
""fullscreenenter"",""1"",""3304""
","""event"",""trial"",""time""
""fullscreenexit"",""5"",""6194""
","","","","","","null","<div style=""font-size:60px;"">+</div>","null","","fixation","","",""
"memory-trial","56","213871","0.0-18.0-1.6","5931","approach_avoid_sv1","""event"",""trial"",""time""
""fullscreenenter"",""1"",""3304""
""fullscreenexit"",""5"",""6194""
","
","
","""event"",""trial"",""time""
""fullscreenenter"",""1"",""3304""
","""event"",""trial"",""time""
""fullscreenexit"",""5"",""6194""
","","","","","","1495","images/flower3.png","","","memory_trial","4","definitely_new",""
"html-keyboard-response","57","214391","0.0-18.0-0.7","5931","approach_avoid_sv1","""event"",""trial"",""time""
""fullscreenenter"",""1"",""3304""
""fullscreenexit"",""5"",""6194""
","
","
","""event"",""trial"",""time""
""fullscreenenter"",""1"",""3304""
","""event"",""trial"",""time""
""fullscreenexit"",""5"",""6194""
","","","","","","null","<div style=""font-size:60px;"">+</div>","null","","fixation","","",""
"memory-trial","58","216771","0.0-18.0-1.7","5931","approach_avoid_sv1","""event"",""trial"",""time""
""fullscreenenter"",""1"",""3304""
""fullscreenexit"",""5"",""6194""
","
","
","""event"",""trial"",""time""
""fullscreenenter"",""1"",""3304""
","""event"",""trial"",""time""
""fullscreenexit"",""5"",""6194""
","","","","","","1368.6000000238419","images/cat4.png","","","memory_trial","4","definitely_new",""
"html-keyboard-response","59","217291","0.0-18.0-0.8","5931","approach_avoid_sv1","""event"",""trial"",""time""
""fullscreenenter"",""1"",""3304""
""fullscreenexit"",""5"",""6194""
","
","
","""event"",""trial"",""time""
""fullscreenenter"",""1"",""3304""
","""event"",""trial"",""time""
""fullscreenexit"",""5"",""6194""
","","","","","","null","<div style=""font-size:60px;"">+</div>","null","","fixation","","",""
"memory-trial","60","219271","0.0-18.0-1.8","5931","approach_avoid_sv1","""event"",""trial"",""time""
""fullscreenenter"",""1"",""3304""
""fullscreenexit"",""5"",""6194""
","
","
","""event"",""trial"",""time""
""fullscreenenter"",""1"",""3304""
","""event"",""trial"",""time""
""fullscreenexit"",""5"",""6194""
","","","","","","962.7999999523163","images/cactus6.png","","","memory_trial","4","definitely_new",""
"html-keyboard-response","61","219791","0.0-18.0-0.9","5931","approach_avoid_sv1","""event"",""trial"",""time""
""fullscreenenter"",""1"",""3304""
""fullscreenexit"",""5"",""6194""
","
","
","""event"",""trial"",""time""
""fullscreenenter"",""1"",""3304""
","""event"",""trial"",""time""
""fullscreenexit"",""5"",""6194""
","","","","","","null","<div style=""font-size:60px;"">+</div>","null","","fixation","","",""
"memory-trial","62","221861","0.0-18.0-1.9","5931","approach_avoid_sv1","""event"",""trial"",""time""
""fullscreenenter"",""1"",""3304""
""fullscreenexit"",""5"",""6194""
","
","
","""event"",""trial"",""time""
""fullscreenenter"",""1"",""3304""
","""event"",""trial"",""time""
""fullscreenexit"",""5"",""6194""
","","","","","","1063.7999999523163","images/train5.png","","","memory_trial","4","definitely_new",""
"html-keyboard-response","63","222364","0.0-18.0-0.10","5931","approach_avoid_sv1","""event"",""trial"",""time""
""fullscreenenter"",""1"",""3304""
""fullscreenexit"",""5"",""6194""
","
","
","""event"",""trial"",""time""
""fullscreenenter"",""1"",""3304""
","""event"",""trial"",""time""
""fullscreenexit"",""5"",""6194""
","","","","","","null","<div style=""font-size:60px;"">+</div>","null","","fixation","","",""
"memory-trial","64","224557","0.0-18.0-1.10","5931","approach_avoid_sv1","""event"",""trial"",""time""
""fullscreenenter"",""1"",""3304""
""fullscreenexit"",""5"",""6194""
","
","
","""event"",""trial"",""time""
""fullscreenenter"",""1"",""3304""
","""event"",""trial"",""time""
""fullscreenexit"",""5"",""6194""
","","","","","","1189.1000000238419","images/sofa2.png","","","memory_trial","1","definitely_old",""
"html-keyboard-response","65","225061","0.0-18.0-0.11","5931","approach_avoid_sv1","""event"",""trial"",""time""
""fullscreenenter"",""1"",""3304""
""fullscreenexit"",""5"",""6194""
","
","
","""event"",""trial"",""time""
""fullscreenenter"",""1"",""3304""
","""event"",""trial"",""time""
""fullscreenexit"",""5"",""6194""
","","","","","","null","<div style=""font-size:60px;"">+</div>","null","","fixation","","",""
"memory-trial","66","226997","0.0-18.0-1.11","5931","approach_avoid_sv1","""event"",""trial"",""time""
""fullscreenenter"",""1"",""3304""
""fullscreenexit"",""5"",""6194""
","
","
","""event"",""trial"",""time""
""fullscreenenter"",""1"",""3304""
","""event"",""trial"",""time""
""fullscreenexit"",""5"",""6194""
","","","","","","930","images/sheep4.png","","","memory_trial","4","definitely_new",""
"html-keyboard-response","67","227500","0.0-18.0-0.12","5931","approach_avoid_sv1","""event"",""trial"",""time""
""fullscreenenter"",""1"",""3304""
""fullscreenexit"",""5"",""6194""
","
","
","""event"",""trial"",""time""
""fullscreenenter"",""1"",""3304""
","""event"",""trial"",""time""
""fullscreenexit"",""5"",""6194""
","","","","","","null","<div style=""font-size:60px;"">+</div>","null","","fixation","","",""
"memory-trial","68","229845","0.0-18.0-1.12","5931","approach_avoid_sv1","""event"",""trial"",""time""
""fullscreenenter"",""1"",""3304""
""fullscreenexit"",""5"",""6194""
","
","
","""event"",""trial"",""time""
""fullscreenenter"",""1"",""3304""
","""event"",""trial"",""time""
""fullscreenexit"",""5"",""6194""
","","","","","","1340.3000000715256","images/apple2.png","","","memory_trial","4","definitely_new",""
"html-keyboard-response","69","230350","0.0-18.0-0.13","5931","approach_avoid_sv1","""event"",""trial"",""time""
""fullscreenenter"",""1"",""3304""
""fullscreenexit"",""5"",""6194""
","
","
","""event"",""trial"",""time""
""fullscreenenter"",""1"",""3304""
","""event"",""trial"",""time""
""fullscreenexit"",""5"",""6194""
","","","","","","null","<div style=""font-size:60px;"">+</div>","null","","fixation","","",""
"memory-trial","70","232535","0.0-18.0-1.13","5931","approach_avoid_sv1","""event"",""trial"",""time""
""fullscreenenter"",""1"",""3304""
""fullscreenexit"",""5"",""6194""
","
","
","""event"",""trial"",""time""
""fullscreenenter"",""1"",""3304""
","""event"",""trial"",""time""
""fullscreenexit"",""5"",""6194""
","","","","","","1168.5","images/dog4.png","","","memory_trial","4","definitely_new",""
"html-keyboard-response","71","233055","0.0-18.0-0.14","5931","approach_avoid_sv1","""event"",""trial"",""time""
""fullscreenenter"",""1"",""3304""
""fullscreenexit"",""5"",""6194""
","
","
","""event"",""trial"",""time""
""fullscreenenter"",""1"",""3304""
","""event"",""trial"",""time""
""fullscreenexit"",""5"",""6194""
","","","","","","null","<div style=""font-size:60px;"">+</div>","null","","fixation","","",""
"memory-trial","72","235485","0.0-18.0-1.14","5931","approach_avoid_sv1","""event"",""trial"",""time""
""fullscreenenter"",""1"",""3304""
""fullscreenexit"",""5"",""6194""
","
","
","""event"",""trial"",""time""
""fullscreenenter"",""1"",""3304""
","""event"",""trial"",""time""
""fullscreenexit"",""5"",""6194""
","","","","","","1424.2999999523163","images/tree5.png","","","memory_trial","1","definitely_old",""
"html-keyboard-response","73","235989","0.0-18.0-0.15","5931","approach_avoid_sv1","""event"",""trial"",""time""
""fullscreenenter"",""1"",""3304""
""fullscreenexit"",""5"",""6194""
","
","
","""event"",""trial"",""time""
""fullscreenenter"",""1"",""3304""
","""event"",""trial"",""time""
""fullscreenexit"",""5"",""6194""
","","","","","","null","<div style=""font-size:60px;"">+</div>","null","","fixation","","",""
"memory-trial","74","238221","0.0-18.0-1.15","5931","approach_avoid_sv1","""event"",""trial"",""time""
""fullscreenenter"",""1"",""3304""
""fullscreenexit"",""5"",""6194""
","
","
","""event"",""trial"",""time""
""fullscreenenter"",""1"",""3304""
","""event"",""trial"",""time""
""fullscreenexit"",""5"",""6194""
","","","","","","1225.8000000715256","images/cat2.png","","","memory_trial","1","definitely_old",""
"html-keyboard-response","75","238724","0.0-18.0-0.16","5931","approach_avoid_sv1","""event"",""trial"",""time""
""fullscreenenter"",""1"",""3304""
""fullscreenexit"",""5"",""6194""
","
","
","""event"",""trial"",""time""
""fullscreenenter"",""1"",""3304""
","""event"",""trial"",""time""
""fullscreenexit"",""5"",""6194""
","","","","","","null","<div style=""font-size:60px;"">+</div>","null","","fixation","","",""
"memory-trial","76","241165","0.0-18.0-1.16","5931","approach_avoid_sv1","""event"",""trial"",""time""
""fullscreenenter"",""1"",""3304""
""fullscreenexit"",""5"",""6194""
","
","
","""event"",""trial"",""time""
""fullscreenenter"",""1"",""3304""
","""event"",""trial"",""time""
""fullscreenexit"",""5"",""6194""
","","","","","","1435.7999999523163","images/apple4.png","","","memory_trial","4","definitely_new",""
"html-keyboard-response","77","241668","0.0-18.0-0.17","5931","approach_avoid_sv1","""event"",""trial"",""time""
""fullscreenenter"",""1"",""3304""
""fullscreenexit"",""5"",""6194""
","
","
","""event"",""trial"",""time""
""fullscreenenter"",""1"",""3304""
","""event"",""trial"",""time""
""fullscreenexit"",""5"",""6194""
","","","","","","null","<div style=""font-size:60px;"">+</div>","null","","fixation","","",""
"memory-trial","78","243973","0.0-18.0-1.17","5931","approach_avoid_sv1","""event"",""trial"",""time""
""fullscreenenter"",""1"",""3304""
""fullscreenexit"",""5"",""6194""
","
","
","""event"",""trial"",""time""
""fullscreenenter"",""1"",""3304""
","""event"",""trial"",""time""
""fullscreenexit"",""5"",""6194""
","","","","","","1298.3999999761581","images/cow8.png","","","memory_trial","1","definitely_old",""
"html-keyboard-response","79","244487","0.0-18.0-0.18","5931","approach_avoid_sv1","""event"",""trial"",""time""
""fullscreenenter"",""1"",""3304""
""fullscreenexit"",""5"",""6194""
","
","
","""event"",""trial"",""time""
""fullscreenenter"",""1"",""3304""
","""event"",""trial"",""time""
""fullscreenexit"",""5"",""6194""
","","","","","","null","<div style=""font-size:60px;"">+</div>","null","","fixation","","",""
"memory-trial","80","246549","0.0-18.0-1.18","5931","approach_avoid_sv1","""event"",""trial"",""time""
""fullscreenenter"",""1"",""3304""
""fullscreenexit"",""5"",""6194""
","
","
","""event"",""trial"",""time""
""fullscreenenter"",""1"",""3304""
","""event"",""trial"",""time""
""fullscreenexit"",""5"",""6194""
","","","","","","1055.3999999761581","images/flower4.png","","","memory_trial","4","definitely_new",""
"html-keyboard-response","81","247052","0.0-18.0-0.19","5931","approach_avoid_sv1","""event"",""trial"",""time""
""fullscreenenter"",""1"",""3304""
""fullscreenexit"",""5"",""6194""
","
","
","""event"",""trial"",""time""
""fullscreenenter"",""1"",""3304""
","""event"",""trial"",""time""
""fullscreenexit"",""5"",""6194""
","","","","","","null","<div style=""font-size:60px;"">+</div>","null","","fixation","","",""
"memory-trial","82","249548","0.0-18.0-1.19","5931","approach_avoid_sv1","""event"",""trial"",""time""
""fullscreenenter"",""1"",""3304""
""fullscreenexit"",""5"",""6194""
","
","
","""event"",""trial"",""time""
""fullscreenenter"",""1"",""3304""
","""event"",""trial"",""time""
""fullscreenexit"",""5"",""6194""
","","","","","","1492.2000000476837","images/sofa7.png","","","memory_trial","1","definitely_old",""
"html-keyboard-response","83","250052","0.0-18.0-0.20","5931","approach_avoid_sv1","""event"",""trial"",""time""
""fullscreenenter"",""1"",""3304""
""fullscreenexit"",""5"",""6194""
","
","
","""event"",""trial"",""time""
""fullscreenenter"",""1"",""3304""
","""event"",""trial"",""time""
""fullscreenexit"",""5"",""6194""
","","","","","","null","<div style=""font-size:60px;"">+</div>","null","","fixation","","",""
"memory-trial","84","252757","0.0-18.0-1.20","5931","approach_avoid_sv1","""event"",""trial"",""time""
""fullscreenenter"",""1"",""3304""
""fullscreenexit"",""5"",""6194""
","
","
","""event"",""trial"",""time""
""fullscreenenter"",""1"",""3304""
","""event"",""trial"",""time""
""fullscreenexit"",""5"",""6194""
","","","","","","1701.3999999761581","images/cat7.png","","","memory_trial","3","maybe_new",""
"html-keyboard-response","85","253261","0.0-18.0-0.21","5931","approach_avoid_sv1","""event"",""trial"",""time""
""fullscreenenter"",""1"",""3304""
""fullscreenexit"",""5"",""6194""
","
","
","""event"",""trial"",""time""
""fullscreenenter"",""1"",""3304""
","""event"",""trial"",""time""
""fullscreenexit"",""5"",""6194""
","","","","","","null","<div style=""font-size:60px;"">+</div>","null","","fixation","","",""
"memory-trial","86","255428","0.0-18.0-1.21","5931","approach_avoid_sv1","""event"",""trial"",""time""
""fullscreenenter"",""1"",""3304""
""fullscreenexit"",""5"",""6194""
","
","
","""event"",""trial"",""time""
""fullscreenenter"",""1"",""3304""
","""event"",""trial"",""time""
""fullscreenexit"",""5"",""6194""
","","","","","","1163.2999999523163","images/chair7.png","","","memory_trial","4","definitely_new",""
"html-keyboard-response","87","255932","0.0-18.0-0.22","5931","approach_avoid_sv1","""event"",""trial"",""time""
""fullscreenenter"",""1"",""3304""
""fullscreenexit"",""5"",""6194""
","
","
","""event"",""trial"",""time""
""fullscreenenter"",""1"",""3304""
","""event"",""trial"",""time""
""fullscreenexit"",""5"",""6194""
","","","","","","null","<div style=""font-size:60px;"">+</div>","null","","fixation","","",""
"memory-trial","88","258204","0.0-18.0-1.22","5931","approach_avoid_sv1","""event"",""trial"",""time""
""fullscreenenter"",""1"",""3304""
""fullscreenexit"",""5"",""6194""
","
","
","""event"",""trial"",""time""
""fullscreenenter"",""1"",""3304""
","""event"",""trial"",""time""
""fullscreenexit"",""5"",""6194""
","","","","","","1268.3000000715256","images/cat6.png","","","memory_trial","1","definitely_old",""
"html-keyboard-response","89","258708","0.0-18.0-0.23","5931","approach_avoid_sv1","""event"",""trial"",""time""
""fullscreenenter"",""1"",""3304""
""fullscreenexit"",""5"",""6194""
","
","
","""event"",""trial"",""time""
""fullscreenenter"",""1"",""3304""
","""event"",""trial"",""time""
""fullscreenexit"",""5"",""6194""
","","","","","","null","<div style=""font-size:60px;"">+</div>","null","","fixation","","",""
"memory-trial","90","260694","0.0-18.0-1.23","5931","approach_avoid_sv1","""event"",""trial"",""time""
""fullscreenenter"",""1"",""3304""
""fullscreenexit"",""5"",""6194""
","
","
","""event"",""trial"",""time""
""fullscreenenter"",""1"",""3304""
","""event"",""trial"",""time""
""fullscreenexit"",""5"",""6194""
","","","","","","972.6000000238419","images/goat1.png","","","memory_trial","4","definitely_new",""
"html-keyboard-response","91","261196","0.0-18.0-0.24","5931","approach_avoid_sv1","""event"",""trial"",""time""
""fullscreenenter"",""1"",""3304""
""fullscreenexit"",""5"",""6194""
","
","
","""event"",""trial"",""time""
""fullscreenenter"",""1"",""3304""
","""event"",""trial"",""time""
""fullscreenexit"",""5"",""6194""
","","","","","","null","<div style=""font-size:60px;"">+</div>","null","","fixation","","",""
"memory-trial","92","263245","0.0-18.0-1.24","5931","approach_avoid_sv1","""event"",""trial"",""time""
""fullscreenenter"",""1"",""3304""
""fullscreenexit"",""5"",""6194""
","
","
","""event"",""trial"",""time""
""fullscreenenter"",""1"",""3304""
","""event"",""trial"",""time""
""fullscreenexit"",""5"",""6194""
","","","","","","1042.7999999523163","images/banana1.png","","","memory_trial","4","definitely_new",""
"html-keyboard-response","93","263748","0.0-18.0-0.25","5931","approach_avoid_sv1","""event"",""trial"",""time""
""fullscreenenter"",""1"",""3304""
""fullscreenexit"",""5"",""6194""
","
","
","""event"",""trial"",""time""
""fullscreenenter"",""1"",""3304""
","""event"",""trial"",""time""
""fullscreenexit"",""5"",""6194""
","","","","","","null","<div style=""font-size:60px;"">+</div>","null","","fixation","","",""
"memory-trial","94","265829","0.0-18.0-1.25","5931","approach_avoid_sv1","""event"",""trial"",""time""
""fullscreenenter"",""1"",""3304""
""fullscreenexit"",""5"",""6194""
","
","
","""event"",""trial"",""time""
""fullscreenenter"",""1"",""3304""
","""event"",""trial"",""time""
""fullscreenexit"",""5"",""6194""
","","","","","","1076.1000000238419","images/bush3.png","","","memory_trial","4","definitely_new",""
"html-keyboard-response","95","266331","0.0-18.0-0.26","5931","approach_avoid_sv1","""event"",""trial"",""time""
""fullscreenenter"",""1"",""3304""
""fullscreenexit"",""5"",""6194""
","
","
","""event"",""trial"",""time""
""fullscreenenter"",""1"",""3304""
","""event"",""trial"",""time""
""fullscreenexit"",""5"",""6194""
","","","","","","null","<div style=""font-size:60px;"">+</div>","null","","fixation","","",""
"memory-trial","96","268581","0.0-18.0-1.26","5931","approach_avoid_sv1","""event"",""trial"",""time""
""fullscreenenter"",""1"",""3304""
""fullscreenexit"",""5"",""6194""
","
","
","""event"",""trial"",""time""
""fullscreenenter"",""1"",""3304""
","""event"",""trial"",""time""
""fullscreenexit"",""5"",""6194""
","","","","","","1245.3999999761581","images/straw6.png","","","memory_trial","1","definitely_old",""
"html-keyboard-response","97","269084","0.0-18.0-0.27","5931","approach_avoid_sv1","""event"",""trial"",""time""
""fullscreenenter"",""1"",""3304""
""fullscreenexit"",""5"",""6194""
","
","
","""event"",""trial"",""time""
""fullscreenenter"",""1"",""3304""
","""event"",""trial"",""time""
""fullscreenexit"",""5"",""6194""
","","","","","","null","<div style=""font-size:60px;"">+</div>","null","","fixation","","",""
"memory-trial","98","271428","0.0-18.0-1.27","5931","approach_avoid_sv1","""event"",""trial"",""time""
""fullscreenenter"",""1"",""3304""
""fullscreenexit"",""5"",""6194""
","
","
","""event"",""trial"",""time""
""fullscreenenter"",""1"",""3304""
","""event"",""trial"",""time""
""fullscreenexit"",""5"",""6194""
","","","","","","1340.7999999523163","images/boat1.png","","","memory_trial","3","maybe_new",""
"html-keyboard-response","99","271932","0.0-18.0-0.28","5931","approach_avoid_sv1","""event"",""trial"",""time""
""fullscreenenter"",""1"",""3304""
""fullscreenexit"",""5"",""6194""
","
","
","""event"",""trial"",""time""
""fullscreenenter"",""1"",""3304""
","""event"",""trial"",""time""
""fullscreenexit"",""5"",""6194""
","","","","","","null","<div style=""font-size:60px;"">+</div>","null","","fixation","","",""
"memory-trial","100","274045","0.0-18.0-1.28","5931","approach_avoid_sv1","""event"",""trial"",""time""
""fullscreenenter"",""1"",""3304""
""fullscreenexit"",""5"",""6194""
","
","
","""event"",""trial"",""time""
""fullscreenenter"",""1"",""3304""
","""event"",""trial"",""time""
""fullscreenexit"",""5"",""6194""
","","","","","","1107.5","images/straw1.png","","","memory_trial","2","maybe_old",""
"html-keyboard-response","101","274548","0.0-18.0-0.29","5931","approach_avoid_sv1","""event"",""trial"",""time""
""fullscreenenter"",""1"",""3304""
""fullscreenexit"",""5"",""6194""
","
","
","""event"",""trial"",""time""
""fullscreenenter"",""1"",""3304""
","""event"",""trial"",""time""
""fullscreenexit"",""5"",""6194""
","","","","","","null","<div style=""font-size:60px;"">+</div>","null","","fixation","","",""
"memory-trial","102","276532","0.0-18.0-1.29","5931","approach_avoid_sv1","""event"",""trial"",""time""
""fullscreenenter"",""1"",""3304""
""fullscreenexit"",""5"",""6194""
","
","
","""event"",""trial"",""time""
""fullscreenenter"",""1"",""3304""
","""event"",""trial"",""time""
""fullscreenexit"",""5"",""6194""
","","","","","","979.6999999284744","images/orange6.png","","","memory_trial","1","definitely_old",""
"html-keyboard-response","103","277036","0.0-18.0-0.30","5931","approach_avoid_sv1","""event"",""trial"",""time""
""fullscreenenter"",""1"",""3304""
""fullscreenexit"",""5"",""6194""
","
","
","""event"",""trial"",""time""
""fullscreenenter"",""1"",""3304""
","""event"",""trial"",""time""
""fullscreenexit"",""5"",""6194""
","","","","","","null","<div style=""font-size:60px;"">+</div>","null","","fixation","","",""
"memory-trial","104","279668","0.0-18.0-1.30","5931","approach_avoid_sv1","""event"",""trial"",""time""
""fullscreenenter"",""1"",""3304""
""fullscreenexit"",""5"",""6194""
","
","
","""event"",""trial"",""time""
""fullscreenenter"",""1"",""3304""
","""event"",""trial"",""time""
""fullscreenexit"",""5"",""6194""
","","","","","","1629.5999999046326","images/boat3.png","","","memory_trial","1","definitely_old",""
"html-keyboard-response","105","280172","0.0-18.0-0.31","5931","approach_avoid_sv1","""event"",""trial"",""time""
""fullscreenenter"",""1"",""3304""
""fullscreenexit"",""5"",""6194""
","
","
","""event"",""trial"",""time""
""fullscreenenter"",""1"",""3304""
","""event"",""trial"",""time""
""fullscreenexit"",""5"",""6194""
","","","","","","null","<div style=""font-size:60px;"">+</div>","null","","fixation","","",""
"memory-trial","106","282117","0.0-18.0-1.31","5931","approach_avoid_sv1","""event"",""trial"",""time""
""fullscreenenter"",""1"",""3304""
""fullscreenexit"",""5"",""6194""
","
","
","""event"",""trial"",""time""
""fullscreenenter"",""1"",""3304""
","""event"",""trial"",""time""
""fullscreenexit"",""5"",""6194""
","","","","","","939.6000000238419","images/flower1.png","","","memory_trial","4","definitely_new",""
"html-keyboard-response","107","282621","0.0-18.0-0.32","5931","approach_avoid_sv1","""event"",""trial"",""time""
""fullscreenenter"",""1"",""3304""
""fullscreenexit"",""5"",""6194""
","
","
","""event"",""trial"",""time""
""fullscreenenter"",""1"",""3304""
","""event"",""trial"",""time""
""fullscreenexit"",""5"",""6194""
","","","","","","null","<div style=""font-size:60px;"">+</div>","null","","fixation","","",""
"memory-trial","108","284572","0.0-18.0-1.32","5931","approach_avoid_sv1","""event"",""trial"",""time""
""fullscreenenter"",""1"",""3304""
""fullscreenexit"",""5"",""6194""
","
","
","""event"",""trial"",""time""
""fullscreenenter"",""1"",""3304""
","""event"",""trial"",""time""
""fullscreenexit"",""5"",""6194""
","","","","","","947.5","images/sheep6.png","","","memory_trial","1","definitely_old",""
"html-keyboard-response","109","285083","0.0-18.0-0.33","5931","approach_avoid_sv1","""event"",""trial"",""time""
""fullscreenenter"",""1"",""3304""
""fullscreenexit"",""5"",""6194""
","
","
","""event"",""trial"",""time""
""fullscreenenter"",""1"",""3304""
","""event"",""trial"",""time""
""fullscreenexit"",""5"",""6194""
","","","","","","null","<div style=""font-size:60px;"">+</div>","null","","fixation","","",""
"memory-trial","110","286996","0.0-18.0-1.33","5931","approach_avoid_sv1","""event"",""trial"",""time""
""fullscreenenter"",""1"",""3304""
""fullscreenexit"",""5"",""6194""
","
","
","""event"",""trial"",""time""
""fullscreenenter"",""1"",""3304""
","""event"",""trial"",""time""
""fullscreenexit"",""5"",""6194""
","","","","","","903.7000000476837","images/goat6.png","","","memory_trial","4","definitely_new",""
"html-keyboard-response","111","287500","0.0-18.0-0.34","5931","approach_avoid_sv1","""event"",""trial"",""time""
""fullscreenenter"",""1"",""3304""
""fullscreenexit"",""5"",""6194""
","
","
","""event"",""trial"",""time""
""fullscreenenter"",""1"",""3304""
","""event"",""trial"",""time""
""fullscreenexit"",""5"",""6194""
","","","","","","null","<div style=""font-size:60px;"">+</div>","null","","fixation","","",""
"memory-trial","112","289373","0.0-18.0-1.34","5931","approach_avoid_sv1","""event"",""trial"",""time""
""fullscreenenter"",""1"",""3304""
""fullscreenexit"",""5"",""6194""
","
","
","""event"",""trial"",""time""
""fullscreenenter"",""1"",""3304""
","""event"",""trial"",""time""
""fullscreenexit"",""5"",""6194""
","","","","","","860.0999999046326","images/bush5.png","","","memory_trial","4","definitely_new",""
"html-keyboard-response","113","289876","0.0-18.0-0.35","5931","approach_avoid_sv1","""event"",""trial"",""time""
""fullscreenenter"",""1"",""3304""
""fullscreenexit"",""5"",""6194""
","
","
","""event"",""trial"",""time""
""fullscreenenter"",""1"",""3304""
","""event"",""trial"",""time""
""fullscreenexit"",""5"",""6194""
","","","","","","null","<div style=""font-size:60px;"">+</div>","null","","fixation","","",""
"memory-trial","114","292388","0.0-18.0-1.35","5931","approach_avoid_sv1","""event"",""trial"",""time""
""fullscreenenter"",""1"",""3304""
""fullscreenexit"",""5"",""6194""
","
","
","""event"",""trial"",""time""
""fullscreenenter"",""1"",""3304""
","""event"",""trial"",""time""
""fullscreenexit"",""5"",""6194""
","","","","","","1502.2000000476837","images/bush1.png","","","memory_trial","2","maybe_old",""
"html-keyboard-response","115","292892","0.0-18.0-0.36","5931","approach_avoid_sv1","""event"",""trial"",""time""
""fullscreenenter"",""1"",""3304""
""fullscreenexit"",""5"",""6194""
","
","
","""event"",""trial"",""time""
""fullscreenenter"",""1"",""3304""
","""event"",""trial"",""time""
""fullscreenexit"",""5"",""6194""
","","","","","","null","<div style=""font-size:60px;"">+</div>","null","","fixation","","",""
"memory-trial","116","295676","0.0-18.0-1.36","5931","approach_avoid_sv1","""event"",""trial"",""time""
""fullscreenenter"",""1"",""3304""
""fullscreenexit"",""5"",""6194""
","
","
","""event"",""trial"",""time""
""fullscreenenter"",""1"",""3304""
","""event"",""trial"",""time""
""fullscreenexit"",""5"",""6194""
","","","","","","1779.7999999523163","images/apple6.png","","","memory_trial","3","maybe_new",""
"html-keyboard-response","117","296181","0.0-18.0-0.37","5931","approach_avoid_sv1","""event"",""trial"",""time""
""fullscreenenter"",""1"",""3304""
""fullscreenexit"",""5"",""6194""
","
","
","""event"",""trial"",""time""
""fullscreenenter"",""1"",""3304""
","""event"",""trial"",""time""
""fullscreenexit"",""5"",""6194""
","","","","","","null","<div style=""font-size:60px;"">+</div>","null","","fixation","","",""
"memory-trial","118","298537","0.0-18.0-1.37","5931","approach_avoid_sv1","""event"",""trial"",""time""
""fullscreenenter"",""1"",""3304""
""fullscreenexit"",""5"",""6194""
","
","
","""event"",""trial"",""time""
""fullscreenenter"",""1"",""3304""
","""event"",""trial"",""time""
""fullscreenexit"",""5"",""6194""
","","","","","","1340.1000000238419","images/dog1.png","","","memory_trial","4","definitely_new",""
"html-keyboard-response","119","299044","0.0-18.0-0.38","5931","approach_avoid_sv1","""event"",""trial"",""time""
""fullscreenenter"",""1"",""3304""
""fullscreenexit"",""5"",""6194""
","
","
","""event"",""trial"",""time""
""fullscreenenter"",""1"",""3304""
","""event"",""trial"",""time""
""fullscreenexit"",""5"",""6194""
","","","","","","null","<div style=""font-size:60px;"">+</div>","null","","fixation","","",""
"memory-trial","120","301397","0.0-18.0-1.38","5931","approach_avoid_sv1","""event"",""trial"",""time""
""fullscreenenter"",""1"",""3304""
""fullscreenexit"",""5"",""6194""
","
","
","""event"",""trial"",""time""
""fullscreenenter"",""1"",""3304""
","""event"",""trial"",""time""
""fullscreenexit"",""5"",""6194""
","","","","","","1341.6000000238419","images/sofa1.png","","","memory_trial","4","definitely_new",""
"html-keyboard-response","121","301900","0.0-18.0-0.39","5931","approach_avoid_sv1","""event"",""trial"",""time""
""fullscreenenter"",""1"",""3304""
""fullscreenexit"",""5"",""6194""
","
","
","""event"",""trial"",""time""
""fullscreenenter"",""1"",""3304""
","""event"",""trial"",""time""
""fullscreenexit"",""5"",""6194""
","","","","","","null","<div style=""font-size:60px;"">+</div>","null","","fixation","","",""
"memory-trial","122","304476","0.0-18.0-1.39","5931","approach_avoid_sv1","""event"",""trial"",""time""
""fullscreenenter"",""1"",""3304""
""fullscreenexit"",""5"",""6194""
","
","
","""event"",""trial"",""time""
""fullscreenenter"",""1"",""3304""
","""event"",""trial"",""time""
""fullscreenexit"",""5"",""6194""
","","","","","","1564.8999999761581","images/plane2.png","","","memory_trial","1","definitely_old",""
"html-keyboard-response","123","304980","0.0-18.0-0.40","5931","approach_avoid_sv1","""event"",""trial"",""time""
""fullscreenenter"",""1"",""3304""
""fullscreenexit"",""5"",""6194""
","
","
","""event"",""trial"",""time""
""fullscreenenter"",""1"",""3304""
","""event"",""trial"",""time""
""fullscreenexit"",""5"",""6194""
","","","","","","null","<div style=""font-size:60px;"">+</div>","null","","fixation","","",""
"memory-trial","124","307260","0.0-18.0-1.40","5931","approach_avoid_sv1","""event"",""trial"",""time""
""fullscreenenter"",""1"",""3304""
""fullscreenexit"",""5"",""6194""
","
","
","""event"",""trial"",""time""
""fullscreenenter"",""1"",""3304""
","""event"",""trial"",""time""
""fullscreenexit"",""5"",""6194""
","","","","","","1277","images/orange8.png","","","memory_trial","4","definitely_new",""
"html-keyboard-response","125","307764","0.0-18.0-0.41","5931","approach_avoid_sv1","""event"",""trial"",""time""
""fullscreenenter"",""1"",""3304""
""fullscreenexit"",""5"",""6194""
","
","
","""event"",""trial"",""time""
""fullscreenenter"",""1"",""3304""
","""event"",""trial"",""time""
""fullscreenexit"",""5"",""6194""
","","","","","","null","<div style=""font-size:60px;"">+</div>","null","","fixation","","",""
"memory-trial","126","309620","0.0-18.0-1.41","5931","approach_avoid_sv1","""event"",""trial"",""time""
""fullscreenenter"",""1"",""3304""
""fullscreenexit"",""5"",""6194""
","
","
","""event"",""trial"",""time""
""fullscreenenter"",""1"",""3304""
","""event"",""trial"",""time""
""fullscreenexit"",""5"",""6194""
","","","","","","851.5","images/table6.png","","","memory_trial","4","definitely_new",""
"html-button-response","127","318213","0.0-18.0-2.41-0.41","5931","approach_avoid_sv1","""event"",""trial"",""time""
""fullscreenenter"",""1"",""3304""
""fullscreenexit"",""5"",""6194""
","
","
","""event"",""trial"",""time""
""fullscreenenter"",""1"",""3304""
","""event"",""trial"",""time""
""fullscreenexit"",""5"",""6194""
","","","","","","8591.300000071526","<p> Take a break! </p><p> Click the button to continue. </p>","0","","break","","",""
"html-keyboard-response","128","318716","0.0-18.0-0.42","5931","approach_avoid_sv1","""event"",""trial"",""time""
""fullscreenenter"",""1"",""3304""
""fullscreenexit"",""5"",""6194""
","
","
","""event"",""trial"",""time""
""fullscreenenter"",""1"",""3304""
","""event"",""trial"",""time""
""fullscreenexit"",""5"",""6194""
","","","","","","null","<div style=""font-size:60px;"">+</div>","null","","fixation","","",""
"memory-trial","129","320853","0.0-18.0-1.42","5931","approach_avoid_sv1","""event"",""trial"",""time""
""fullscreenenter"",""1"",""3304""
""fullscreenexit"",""5"",""6194""
","
","
","""event"",""trial"",""time""
""fullscreenenter"",""1"",""3304""
","""event"",""trial"",""time""
""fullscreenexit"",""5"",""6194""
","","","","","","1124.6999999284744","images/rabbit8.png","","","memory_trial","4","definitely_new",""
"html-keyboard-response","130","321367","0.0-18.0-0.43","5931","approach_avoid_sv1","""event"",""trial"",""time""
""fullscreenenter"",""1"",""3304""
""fullscreenexit"",""5"",""6194""
","
","
","""event"",""trial"",""time""
""fullscreenenter"",""1"",""3304""
","""event"",""trial"",""time""
""fullscreenexit"",""5"",""6194""
","","","","","","null","<div style=""font-size:60px;"">+</div>","null","","fixation","","",""
"memory-trial","131","323228","0.0-18.0-1.43","5931","approach_avoid_sv1","""event"",""trial"",""time""
""fullscreenenter"",""1"",""3304""
""fullscreenexit"",""5"",""6194""
","
","
","""event"",""trial"",""time""
""fullscreenenter"",""1"",""3304""
","""event"",""trial"",""time""
""fullscreenexit"",""5"",""6194""
","","","","","","857.5","images/table8.png","","","memory_trial","4","definitely_new",""
"html-keyboard-response","132","323732","0.0-18.0-0.44","5931","approach_avoid_sv1","""event"",""trial"",""time""
""fullscreenenter"",""1"",""3304""
""fullscreenexit"",""5"",""6194""
","
","
","""event"",""trial"",""time""
""fullscreenenter"",""1"",""3304""
","""event"",""trial"",""time""
""fullscreenexit"",""5"",""6194""
","","","","","","null","<div style=""font-size:60px;"">+</div>","null","","fixation","","",""
"memory-trial","133","325668","0.0-18.0-1.44","5931","approach_avoid_sv1","""event"",""trial"",""time""
""fullscreenenter"",""1"",""3304""
""fullscreenexit"",""5"",""6194""
","
","
","""event"",""trial"",""time""
""fullscreenenter"",""1"",""3304""
","""event"",""trial"",""time""
""fullscreenexit"",""5"",""6194""
","","","","","","933.0999999046326","images/dog5.png","","","memory_trial","4","definitely_new",""
"html-keyboard-response","134","326171","0.0-18.0-0.45","5931","approach_avoid_sv1","""event"",""trial"",""time""
""fullscreenenter"",""1"",""3304""
""fullscreenexit"",""5"",""6194""
","
","
","""event"",""trial"",""time""
""fullscreenenter"",""1"",""3304""
","""event"",""trial"",""time""
""fullscreenexit"",""5"",""6194""
","","","","","","null","<div style=""font-size:60px;"">+</div>","null","","fixation","","",""
"memory-trial","135","328065","0.0-18.0-1.45","5931","approach_avoid_sv1","""event"",""trial"",""time""
""fullscreenenter"",""1"",""3304""
""fullscreenexit"",""5"",""6194""
","
","
","""event"",""trial"",""time""
""fullscreenenter"",""1"",""3304""
","""event"",""trial"",""time""
""fullscreenexit"",""5"",""6194""
","","","","","","871","images/chair6.png","","","memory_trial","4","definitely_new",""
"html-keyboard-response","136","328572","0.0-18.0-0.46","5931","approach_avoid_sv1","""event"",""trial"",""time""
""fullscreenenter"",""1"",""3304""
""fullscreenexit"",""5"",""6194""
","
","
","""event"",""trial"",""time""
""fullscreenenter"",""1"",""3304""
","""event"",""trial"",""time""
""fullscreenexit"",""5"",""6194""
","","","","","","null","<div style=""font-size:60px;"">+</div>","null","","fixation","","",""
"memory-trial","137","330773","0.0-18.0-1.46","5931","approach_avoid_sv1","""event"",""trial"",""time""
""fullscreenenter"",""1"",""3304""
""fullscreenexit"",""5"",""6194""
","
","
","""event"",""trial"",""time""
""fullscreenenter"",""1"",""3304""
","""event"",""trial"",""time""
""fullscreenexit"",""5"",""6194""
","","","","","","1190.6999999284744","images/rodent6.png","","","memory_trial","1","definitely_old",""
"html-keyboard-response","138","331277","0.0-18.0-0.47","5931","approach_avoid_sv1","""event"",""trial"",""time""
""fullscreenenter"",""1"",""3304""
""fullscreenexit"",""5"",""6194""
","
","
","""event"",""trial"",""time""
""fullscreenenter"",""1"",""3304""
","""event"",""trial"",""time""
""fullscreenexit"",""5"",""6194""
","","","","","","null","<div style=""font-size:60px;"">+</div>","null","","fixation","","",""
"memory-trial","139","333116","0.0-18.0-1.47","5931","approach_avoid_sv1","""event"",""trial"",""time""
""fullscreenenter"",""1"",""3304""
""fullscreenexit"",""5"",""6194""
","
","
","""event"",""trial"",""time""
""fullscreenenter"",""1"",""3304""
","""event"",""trial"",""time""
""fullscreenexit"",""5"",""6194""
","","","","","","828.5","images/goat8.png","","","memory_trial","4","definitely_new",""
"html-keyboard-response","140","333620","0.0-18.0-0.48","5931","approach_avoid_sv1","""event"",""trial"",""time""
""fullscreenenter"",""1"",""3304""
""fullscreenexit"",""5"",""6194""
","
","
","""event"",""trial"",""time""
""fullscreenenter"",""1"",""3304""
","""event"",""trial"",""time""
""fullscreenexit"",""5"",""6194""
","","","","","","null","<div style=""font-size:60px;"">+</div>","null","","fixation","","",""
"memory-trial","141","336045","0.0-18.0-1.48","5931","approach_avoid_sv1","""event"",""trial"",""time""
""fullscreenenter"",""1"",""3304""
""fullscreenexit"",""5"",""6194""
","
","
","""event"",""trial"",""time""
""fullscreenenter"",""1"",""3304""
","""event"",""trial"",""time""
""fullscreenexit"",""5"",""6194""
","","","","","","1414.7000000476837","images/straw5.png","","","memory_trial","2","maybe_old",""
"html-keyboard-response","142","336548","0.0-18.0-0.49","5931","approach_avoid_sv1","""event"",""trial"",""time""
""fullscreenenter"",""1"",""3304""
""fullscreenexit"",""5"",""6194""
","
","
","""event"",""trial"",""time""
""fullscreenenter"",""1"",""3304""
","""event"",""trial"",""time""
""fullscreenexit"",""5"",""6194""
","","","","","","null","<div style=""font-size:60px;"">+</div>","null","","fixation","","",""
"memory-trial","143","339211","0.0-18.0-1.49","5931","approach_avoid_sv1","""event"",""trial"",""time""
""fullscreenenter"",""1"",""3304""
""fullscreenexit"",""5"",""6194""
","
","
","""event"",""trial"",""time""
""fullscreenenter"",""1"",""3304""
","""event"",""trial"",""time""
""fullscreenexit"",""5"",""6194""
","","","","","","1654.6000000238419","images/boat5.png","","","memory_trial","2","maybe_old",""
"html-keyboard-response","144","339716","0.0-18.0-0.50","5931","approach_avoid_sv1","""event"",""trial"",""time""
""fullscreenenter"",""1"",""3304""
""fullscreenexit"",""5"",""6194""
","
","
","""event"",""trial"",""time""
""fullscreenenter"",""1"",""3304""
","""event"",""trial"",""time""
""fullscreenexit"",""5"",""6194""
","","","","","","null","<div style=""font-size:60px;"">+</div>","null","","fixation","","",""
"memory-trial","145","342173","0.0-18.0-1.50","5931","approach_avoid_sv1","""event"",""trial"",""time""
""fullscreenenter"",""1"",""3304""
""fullscreenexit"",""5"",""6194""
","
","
","""event"",""trial"",""time""
""fullscreenenter"",""1"",""3304""
","""event"",""trial"",""time""
""fullscreenexit"",""5"",""6194""
","","","","","","1446","images/train4.png","","","memory_trial","4","definitely_new",""
"html-keyboard-response","146","342676","0.0-18.0-0.51","5931","approach_avoid_sv1","""event"",""trial"",""time""
""fullscreenenter"",""1"",""3304""
""fullscreenexit"",""5"",""6194""
","
","
","""event"",""trial"",""time""
""fullscreenenter"",""1"",""3304""
","""event"",""trial"",""time""
""fullscreenexit"",""5"",""6194""
","","","","","","null","<div style=""font-size:60px;"">+</div>","null","","fixation","","",""
"memory-trial","147","344820","0.0-18.0-1.51","5931","approach_avoid_sv1","""event"",""trial"",""time""
""fullscreenenter"",""1"",""3304""
""fullscreenexit"",""5"",""6194""
","
","
","""event"",""trial"",""time""
""fullscreenenter"",""1"",""3304""
","""event"",""trial"",""time""
""fullscreenexit"",""5"",""6194""
","","","","","","1135.2999999523163","images/cactus5.png","","","memory_trial","3","maybe_new",""
"html-keyboard-response","148","345324","0.0-18.0-0.52","5931","approach_avoid_sv1","""event"",""trial"",""time""
""fullscreenenter"",""1"",""3304""
""fullscreenexit"",""5"",""6194""
","
","
","""event"",""trial"",""time""
""fullscreenenter"",""1"",""3304""
","""event"",""trial"",""time""
""fullscreenexit"",""5"",""6194""
","","","","","","null","<div style=""font-size:60px;"">+</div>","null","","fixation","","",""
"memory-trial","149","347772","0.0-18.0-1.52","5931","approach_avoid_sv1","""event"",""trial"",""time""
""fullscreenenter"",""1"",""3304""
""fullscreenexit"",""5"",""6194""
","
","
","""event"",""trial"",""time""
""fullscreenenter"",""1"",""3304""
","""event"",""trial"",""time""
""fullscreenexit"",""5"",""6194""
","","","","","","1438.2000000476837","images/plane6.png","","","memory_trial","2","maybe_old",""
"html-keyboard-response","150","348275","0.0-18.0-0.53","5931","approach_avoid_sv1","""event"",""trial"",""time""
""fullscreenenter"",""1"",""3304""
""fullscreenexit"",""5"",""6194""
","
","
","""event"",""trial"",""time""
""fullscreenenter"",""1"",""3304""
","""event"",""trial"",""time""
""fullscreenexit"",""5"",""6194""
","","","","","","null","<div style=""font-size:60px;"">+</div>","null","","fixation","","",""
"memory-trial","151","350836","0.0-18.0-1.53","5931","approach_avoid_sv1","""event"",""trial"",""time""
""fullscreenenter"",""1"",""3304""
""fullscreenexit"",""5"",""6194""
","
","
","""event"",""trial"",""time""
""fullscreenenter"",""1"",""3304""
","""event"",""trial"",""time""
""fullscreenexit"",""5"",""6194""
","","","","","","1551.9000000953674","images/sofa4.png","","","memory_trial","1","definitely_old",""
"html-keyboard-response","152","351340","0.0-18.0-0.54","5931","approach_avoid_sv1","""event"",""trial"",""time""
""fullscreenenter"",""1"",""3304""
""fullscreenexit"",""5"",""6194""
","
","
","""event"",""trial"",""time""
""fullscreenenter"",""1"",""3304""
","""event"",""trial"",""time""
""fullscreenexit"",""5"",""6194""
","","","","","","null","<div style=""font-size:60px;"">+</div>","null","","fixation","","",""
"memory-trial","153","353533","0.0-18.0-1.54","5931","approach_avoid_sv1","""event"",""trial"",""time""
""fullscreenenter"",""1"",""3304""
""fullscreenexit"",""5"",""6194""
","
","
","""event"",""trial"",""time""
""fullscreenenter"",""1"",""3304""
","""event"",""trial"",""time""
""fullscreenexit"",""5"",""6194""
","","","","","","1182.5","images/apple3.png","","","memory_trial","3","maybe_new",""
"html-keyboard-response","154","354036","0.0-18.0-0.55","5931","approach_avoid_sv1","""event"",""trial"",""time""
""fullscreenenter"",""1"",""3304""
""fullscreenexit"",""5"",""6194""
","
","
","""event"",""trial"",""time""
""fullscreenenter"",""1"",""3304""
","""event"",""trial"",""time""
""fullscreenexit"",""5"",""6194""
","","","","","","null","<div style=""font-size:60px;"">+</div>","null","","fixation","","",""
"memory-trial","155","356340","0.0-18.0-1.55","5931","approach_avoid_sv1","""event"",""trial"",""time""
""fullscreenenter"",""1"",""3304""
""fullscreenexit"",""5"",""6194""
","
","
","""event"",""trial"",""time""
""fullscreenenter"",""1"",""3304""
","""event"",""trial"",""time""
""fullscreenexit"",""5"",""6194""
","","","","","","1295.1000000238419","images/goat3.png","","","memory_trial","2","maybe_old",""
"html-keyboard-response","156","356844","0.0-18.0-0.56","5931","approach_avoid_sv1","""event"",""trial"",""time""
""fullscreenenter"",""1"",""3304""
""fullscreenexit"",""5"",""6194""
","
","
","""event"",""trial"",""time""
""fullscreenenter"",""1"",""3304""
","""event"",""trial"",""time""
""fullscreenexit"",""5"",""6194""
","","","","","","null","<div style=""font-size:60px;"">+</div>","null","","fixation","","",""
"memory-trial","157","359232","0.0-18.0-1.56","5931","approach_avoid_sv1","""event"",""trial"",""time""
""fullscreenenter"",""1"",""3304""
""fullscreenexit"",""5"",""6194""
","
","
","""event"",""trial"",""time""
""fullscreenenter"",""1"",""3304""
","""event"",""trial"",""time""
""fullscreenexit"",""5"",""6194""
","","","","","","1366.1000000238419","images/rodent1.png","","","memory_trial","1","definitely_old",""
"html-keyboard-response","158","359740","0.0-18.0-0.57","5931","approach_avoid_sv1","""event"",""trial"",""time""
""fullscreenenter"",""1"",""3304""
""fullscreenexit"",""5"",""6194""
","
","
","""event"",""trial"",""time""
""fullscreenenter"",""1"",""3304""
","""event"",""trial"",""time""
""fullscreenexit"",""5"",""6194""
","","","","","","null","<div style=""font-size:60px;"">+</div>","null","","fixation","","",""
"memory-trial","159","362437","0.0-18.0-1.57","5931","approach_avoid_sv1","""event"",""trial"",""time""
""fullscreenenter"",""1"",""3304""
""fullscreenexit"",""5"",""6194""
","
","
","""event"",""trial"",""time""
""fullscreenenter"",""1"",""3304""
","""event"",""trial"",""time""
""fullscreenexit"",""5"",""6194""
","","","","","","1686.6000000238419","images/bush2.png","","","memory_trial","1","definitely_old",""
"html-keyboard-response","160","362940","0.0-18.0-0.58","5931","approach_avoid_sv1","""event"",""trial"",""time""
""fullscreenenter"",""1"",""3304""
""fullscreenexit"",""5"",""6194""
","
","
","""event"",""trial"",""time""
""fullscreenenter"",""1"",""3304""
","""event"",""trial"",""time""
""fullscreenexit"",""5"",""6194""
","","","","","","null","<div style=""font-size:60px;"">+</div>","null","","fixation","","",""
"memory-trial","161","364957","0.0-18.0-1.58","5931","approach_avoid_sv1","""event"",""trial"",""time""
""fullscreenenter"",""1"",""3304""
""fullscreenexit"",""5"",""6194""
","
","
","""event"",""trial"",""time""
""fullscreenenter"",""1"",""3304""
","""event"",""trial"",""time""
""fullscreenexit"",""5"",""6194""
","","","","","","1005.3999999761581","images/bush6.png","","","memory_trial","1","definitely_old",""
"html-keyboard-response","162","365461","0.0-18.0-0.59","5931","approach_avoid_sv1","""event"",""trial"",""time""
""fullscreenenter"",""1"",""3304""
""fullscreenexit"",""5"",""6194""
","
","
","""event"",""trial"",""time""
""fullscreenenter"",""1"",""3304""
","""event"",""trial"",""time""
""fullscreenexit"",""5"",""6194""
","","","","","","null","<div style=""font-size:60px;"">+</div>","null","","fixation","","",""
"memory-trial","163","367693","0.0-18.0-1.59","5931","approach_avoid_sv1","""event"",""trial"",""time""
""fullscreenenter"",""1"",""3304""
""fullscreenexit"",""5"",""6194""
","
","
","""event"",""trial"",""time""
""fullscreenenter"",""1"",""3304""
","""event"",""trial"",""time""
""fullscreenexit"",""5"",""6194""
","","","","","","1222.9000000953674","images/truck7.png","","","memory_trial","1","definitely_old",""
"html-keyboard-response","164","368196","0.0-18.0-0.60","5931","approach_avoid_sv1","""event"",""trial"",""time""
""fullscreenenter"",""1"",""3304""
""fullscreenexit"",""5"",""6194""
","
","
","""event"",""trial"",""time""
""fullscreenenter"",""1"",""3304""
","""event"",""trial"",""time""
""fullscreenexit"",""5"",""6194""
","","","","","","null","<div style=""font-size:60px;"">+</div>","null","","fixation","","",""
"memory-trial","165","370779","0.0-18.0-1.60","5931","approach_avoid_sv1","""event"",""trial"",""time""
""fullscreenenter"",""1"",""3304""
""fullscreenexit"",""5"",""6194""
","
","
","""event"",""trial"",""time""
""fullscreenenter"",""1"",""3304""
","""event"",""trial"",""time""
""fullscreenexit"",""5"",""6194""
","","","","","","1568.2000000476837","images/sofa5.png","","","memory_trial","3","maybe_new",""
"html-keyboard-response","166","371285","0.0-18.0-0.61","5931","approach_avoid_sv1","""event"",""trial"",""time""
""fullscreenenter"",""1"",""3304""
""fullscreenexit"",""5"",""6194""
","
","
","""event"",""trial"",""time""
""fullscreenenter"",""1"",""3304""
","""event"",""trial"",""time""
""fullscreenexit"",""5"",""6194""
","","","","","","null","<div style=""font-size:60px;"">+</div>","null","","fixation","","",""
"memory-trial","167","373253","0.0-18.0-1.61","5931","approach_avoid_sv1","""event"",""trial"",""time""
""fullscreenenter"",""1"",""3304""
""fullscreenexit"",""5"",""6194""
","
","
","""event"",""trial"",""time""
""fullscreenenter"",""1"",""3304""
","""event"",""trial"",""time""
""fullscreenexit"",""5"",""6194""
","","","","","","957.5","images/goat7.png","","","memory_trial","4","definitely_new",""
"html-keyboard-response","168","373757","0.0-18.0-0.62","5931","approach_avoid_sv1","""event"",""trial"",""time""
""fullscreenenter"",""1"",""3304""
""fullscreenexit"",""5"",""6194""
","
","
","""event"",""trial"",""time""
""fullscreenenter"",""1"",""3304""
","""event"",""trial"",""time""
""fullscreenexit"",""5"",""6194""
","","","","","","null","<div style=""font-size:60px;"">+</div>","null","","fixation","","",""
"memory-trial","169","376524","0.0-18.0-1.62","5931","approach_avoid_sv1","""event"",""trial"",""time""
""fullscreenenter"",""1"",""3304""
""fullscreenexit"",""5"",""6194""
","
","
","""event"",""trial"",""time""
""fullscreenenter"",""1"",""3304""
","""event"",""trial"",""time""
""fullscreenexit"",""5"",""6194""
","","","","","","1761.7999999523163","images/plane1.png","","","memory_trial","1","definitely_old",""
"html-keyboard-response","170","377029","0.0-18.0-0.63","5931","approach_avoid_sv1","""event"",""trial"",""time""
""fullscreenenter"",""1"",""3304""
""fullscreenexit"",""5"",""6194""
","
","
","""event"",""trial"",""time""
""fullscreenenter"",""1"",""3304""
","""event"",""trial"",""time""
""fullscreenexit"",""5"",""6194""
","","","","","","null","<div style=""font-size:60px;"">+</div>","null","","fixation","","",""
"memory-trial","171","379756","0.0-18.0-1.63","5931","approach_avoid_sv1","""event"",""trial"",""time""
""fullscreenenter"",""1"",""3304""
""fullscreenexit"",""5"",""6194""
","
","
","""event"",""trial"",""time""
""fullscreenenter"",""1"",""3304""
","""event"",""trial"",""time""
""fullscreenexit"",""5"",""6194""
","","","","","","1717.7999999523163","images/sofa8.png","","","memory_trial","4","definitely_new",""
"html-keyboard-response","172","380260","0.0-18.0-0.64","5931","approach_avoid_sv1","""event"",""trial"",""time""
""fullscreenenter"",""1"",""3304""
""fullscreenexit"",""5"",""6194""
","
","
","""event"",""trial"",""time""
""fullscreenenter"",""1"",""3304""
","""event"",""trial"",""time""
""fullscreenexit"",""5"",""6194""
","","","","","","null","<div style=""font-size:60px;"">+</div>","null","","fixation","","",""
"memory-trial","173","382204","0.0-18.0-1.64","5931","approach_avoid_sv1","""event"",""trial"",""time""
""fullscreenenter"",""1"",""3304""
""fullscreenexit"",""5"",""6194""
","
","
","""event"",""trial"",""time""
""fullscreenenter"",""1"",""3304""
","""event"",""trial"",""time""
""fullscreenexit"",""5"",""6194""
","","","","","","937.1000000238419","images/flower6.png","","","memory_trial","4","definitely_new",""
"html-keyboard-response","174","382714","0.0-18.0-0.65","5931","approach_avoid_sv1","""event"",""trial"",""time""
""fullscreenenter"",""1"",""3304""
""fullscreenexit"",""5"",""6194""
","
","
","""event"",""trial"",""time""
""fullscreenenter"",""1"",""3304""
","""event"",""trial"",""time""
""fullscreenexit"",""5"",""6194""
","","","","","","null","<div style=""font-size:60px;"">+</div>","null","","fixation","","",""
"memory-trial","175","384837","0.0-18.0-1.65","5931","approach_avoid_sv1","""event"",""trial"",""time""
""fullscreenenter"",""1"",""3304""
""fullscreenexit"",""5"",""6194""
","
","
","""event"",""trial"",""time""
""fullscreenenter"",""1"",""3304""
","""event"",""trial"",""time""
""fullscreenexit"",""5"",""6194""
","","","","","","1115.0999999046326","images/rodent8.png","","","memory_trial","4","definitely_new",""
"html-keyboard-response","176","385341","0.0-18.0-0.66","5931","approach_avoid_sv1","""event"",""trial"",""time""
""fullscreenenter"",""1"",""3304""
""fullscreenexit"",""5"",""6194""
","
","
","""event"",""trial"",""time""
""fullscreenenter"",""1"",""3304""
","""event"",""trial"",""time""
""fullscreenexit"",""5"",""6194""
","","","","","","null","<div style=""font-size:60px;"">+</div>","null","","fixation","","",""
"memory-trial","177","387533","0.0-18.0-1.66","5931","approach_avoid_sv1","""event"",""trial"",""time""
""fullscreenenter"",""1"",""3304""
""fullscreenexit"",""5"",""6194""
","
","
","""event"",""trial"",""time""
""fullscreenenter"",""1"",""3304""
","""event"",""trial"",""time""
""fullscreenexit"",""5"",""6194""
","","","","","","1185.3999999761581","images/orange4.png","","","memory_trial","3","maybe_new",""
"html-keyboard-response","178","388036","0.0-18.0-0.67","5931","approach_avoid_sv1","""event"",""trial"",""time""
""fullscreenenter"",""1"",""3304""
""fullscreenexit"",""5"",""6194""
","
","
","""event"",""trial"",""time""
""fullscreenenter"",""1"",""3304""
","""event"",""trial"",""time""
""fullscreenexit"",""5"",""6194""
","","","","","","null","<div style=""font-size:60px;"">+</div>","null","","fixation","","",""
"memory-trial","179","391012","0.0-18.0-1.67","5931","approach_avoid_sv1","""event"",""trial"",""time""
""fullscreenenter"",""1"",""3304""
""fullscreenexit"",""5"",""6194""
","
","
","""event"",""trial"",""time""
""fullscreenenter"",""1"",""3304""
","""event"",""trial"",""time""
""fullscreenexit"",""5"",""6194""
","","","","","","1969.1000000238419","images/cow5.png","","","memory_trial","3","maybe_new",""
"html-keyboard-response","180","391516","0.0-18.0-0.68","5931","approach_avoid_sv1","""event"",""trial"",""time""
""fullscreenenter"",""1"",""3304""
""fullscreenexit"",""5"",""6194""
","
","
","""event"",""trial"",""time""
""fullscreenenter"",""1"",""3304""
","""event"",""trial"",""time""
""fullscreenexit"",""5"",""6194""
","","","","","","null","<div style=""font-size:60px;"">+</div>","null","","fixation","","",""
"memory-trial","181","393837","0.0-18.0-1.68","5931","approach_avoid_sv1","""event"",""trial"",""time""
""fullscreenenter"",""1"",""3304""
""fullscreenexit"",""5"",""6194""
","
","
","""event"",""trial"",""time""
""fullscreenenter"",""1"",""3304""
","""event"",""trial"",""time""
""fullscreenexit"",""5"",""6194""
","","","","","","1311.7000000476837","images/plane5.png","","","memory_trial","1","definitely_old",""
"html-keyboard-response","182","394340","0.0-18.0-0.69","5931","approach_avoid_sv1","""event"",""trial"",""time""
""fullscreenenter"",""1"",""3304""
""fullscreenexit"",""5"",""6194""
","
","
","""event"",""trial"",""time""
""fullscreenenter"",""1"",""3304""
","""event"",""trial"",""time""
""fullscreenexit"",""5"",""6194""
","","","","","","null","<div style=""font-size:60px;"">+</div>","null","","fixation","","",""
"memory-trial","183","396228","0.0-18.0-1.69","5931","approach_avoid_sv1","""event"",""trial"",""time""
""fullscreenenter"",""1"",""3304""
""fullscreenexit"",""5"",""6194""
","
","
","""event"",""trial"",""time""
""fullscreenenter"",""1"",""3304""
","""event"",""trial"",""time""
""fullscreenexit"",""5"",""6194""
","","","","","","879.3999999761581","images/tree7.png","","","memory_trial","4","definitely_new",""
"html-keyboard-response","184","396732","0.0-18.0-0.70","5931","approach_avoid_sv1","""event"",""trial"",""time""
""fullscreenenter"",""1"",""3304""
""fullscreenexit"",""5"",""6194""
","
","
","""event"",""trial"",""time""
""fullscreenenter"",""1"",""3304""
","""event"",""trial"",""time""
""fullscreenexit"",""5"",""6194""
","","","","","","null","<div style=""font-size:60px;"">+</div>","null","","fixation","","",""
"memory-trial","185","398974","0.0-18.0-1.70","5931","approach_avoid_sv1","""event"",""trial"",""time""
""fullscreenenter"",""1"",""3304""
""fullscreenexit"",""5"",""6194""
","
","
","""event"",""trial"",""time""
""fullscreenenter"",""1"",""3304""
","""event"",""trial"",""time""
""fullscreenexit"",""5"",""6194""
","","","","","","1233.7000000476837","images/bed2.png","","","memory_trial","3","maybe_new",""
"html-keyboard-response","186","399476","0.0-18.0-0.71","5931","approach_avoid_sv1","""event"",""trial"",""time""
""fullscreenenter"",""1"",""3304""
""fullscreenexit"",""5"",""6194""
","
","
","""event"",""trial"",""time""
""fullscreenenter"",""1"",""3304""
","""event"",""trial"",""time""
""fullscreenexit"",""5"",""6194""
","","","","","","null","<div style=""font-size:60px;"">+</div>","null","","fixation","","",""
"memory-trial","187","401973","0.0-18.0-1.71","5931","approach_avoid_sv1","""event"",""trial"",""time""
""fullscreenenter"",""1"",""3304""
""fullscreenexit"",""5"",""6194""
","
","
","""event"",""trial"",""time""
""fullscreenenter"",""1"",""3304""
","""event"",""trial"",""time""
""fullscreenexit"",""5"",""6194""
","","","","","","1487.8999999761581","images/rodent2.png","","","memory_trial","3","maybe_new",""
"html-keyboard-response","188","402477","0.0-18.0-0.72","5931","approach_avoid_sv1","""event"",""trial"",""time""
""fullscreenenter"",""1"",""3304""
""fullscreenexit"",""5"",""6194""
","
","
","""event"",""trial"",""time""
""fullscreenenter"",""1"",""3304""
","""event"",""trial"",""time""
""fullscreenexit"",""5"",""6194""
","","","","","","null","<div style=""font-size:60px;"">+</div>","null","","fixation","","",""
"memory-trial","189","405221","0.0-18.0-1.72","5931","approach_avoid_sv1","""event"",""trial"",""time""
""fullscreenenter"",""1"",""3304""
""fullscreenexit"",""5"",""6194""
","
","
","""event"",""trial"",""time""
""fullscreenenter"",""1"",""3304""
","""event"",""trial"",""time""
""fullscreenexit"",""5"",""6194""
","","","","","","1735","images/banana7.png","","","memory_trial","4","definitely_new",""
"html-keyboard-response","190","405725","0.0-18.0-0.73","5931","approach_avoid_sv1","""event"",""trial"",""time""
""fullscreenenter"",""1"",""3304""
""fullscreenexit"",""5"",""6194""
","
","
","""event"",""trial"",""time""
""fullscreenenter"",""1"",""3304""
","""event"",""trial"",""time""
""fullscreenexit"",""5"",""6194""
","","","","","","null","<div style=""font-size:60px;"">+</div>","null","","fixation","","",""
"memory-trial","191","408089","0.0-18.0-1.73","5931","approach_avoid_sv1","""event"",""trial"",""time""
""fullscreenenter"",""1"",""3304""
""fullscreenexit"",""5"",""6194""
","
","
","""event"",""trial"",""time""
""fullscreenenter"",""1"",""3304""
","""event"",""trial"",""time""
""fullscreenexit"",""5"",""6194""
","","","","","","1354.2000000476837","images/train3.png","","","memory_trial","4","definitely_new",""
"html-keyboard-response","192","408596","0.0-18.0-0.74","5931","approach_avoid_sv1","""event"",""trial"",""time""
""fullscreenenter"",""1"",""3304""
""fullscreenexit"",""5"",""6194""
","
","
","""event"",""trial"",""time""
""fullscreenenter"",""1"",""3304""
","""event"",""trial"",""time""
""fullscreenexit"",""5"",""6194""
","","","","","","null","<div style=""font-size:60px;"">+</div>","null","","fixation","","",""
"memory-trial","193","410425","0.0-18.0-1.74","5931","approach_avoid_sv1","""event"",""trial"",""time""
""fullscreenenter"",""1"",""3304""
""fullscreenexit"",""5"",""6194""
","
","
","""event"",""trial"",""time""
""fullscreenenter"",""1"",""3304""
","""event"",""trial"",""time""
""fullscreenexit"",""5"",""6194""
","","","","","","818.3000000715256","images/flower8.png","","","memory_trial","4","definitely_new",""
"html-keyboard-response","194","410932","0.0-18.0-0.75","5931","approach_avoid_sv1","""event"",""trial"",""time""
""fullscreenenter"",""1"",""3304""
""fullscreenexit"",""5"",""6194""
","
","
","""event"",""trial"",""time""
""fullscreenenter"",""1"",""3304""
","""event"",""trial"",""time""
""fullscreenexit"",""5"",""6194""
","","","","","","null","<div style=""font-size:60px;"">+</div>","null","","fixation","","",""
"memory-trial","195","412924","0.0-18.0-1.75","5931","approach_avoid_sv1","""event"",""trial"",""time""
""fullscreenenter"",""1"",""3304""
""fullscreenexit"",""5"",""6194""
","
","
","""event"",""trial"",""time""
""fullscreenenter"",""1"",""3304""
","""event"",""trial"",""time""
""fullscreenexit"",""5"",""6194""
","","","","","","985.8999999761581","images/table1.png","","","memory_trial","4","definitely_new",""
"html-keyboard-response","196","413429","0.0-18.0-0.76","5931","approach_avoid_sv1","""event"",""trial"",""time""
""fullscreenenter"",""1"",""3304""
""fullscreenexit"",""5"",""6194""
","
","
","""event"",""trial"",""time""
""fullscreenenter"",""1"",""3304""
","""event"",""trial"",""time""
""fullscreenexit"",""5"",""6194""
","","","","","","null","<div style=""font-size:60px;"">+</div>","null","","fixation","","",""
"memory-trial","197","415652","0.0-18.0-1.76","5931","approach_avoid_sv1","""event"",""trial"",""time""
""fullscreenenter"",""1"",""3304""
""fullscreenexit"",""5"",""6194""
","
","
","""event"",""trial"",""time""
""fullscreenenter"",""1"",""3304""
","""event"",""trial"",""time""
""fullscreenexit"",""5"",""6194""
","","","","","","1216.1000000238419","images/bush7.png","","","memory_trial","4","definitely_new",""
"html-keyboard-response","198","416157","0.0-18.0-0.77","5931","approach_avoid_sv1","""event"",""trial"",""time""
""fullscreenenter"",""1"",""3304""
""fullscreenexit"",""5"",""6194""
","
","
","""event"",""trial"",""time""
""fullscreenenter"",""1"",""3304""
","""event"",""trial"",""time""
""fullscreenexit"",""5"",""6194""
","","","","","","null","<div style=""font-size:60px;"">+</div>","null","","fixation","","",""
"memory-trial","199","418573","0.0-18.0-1.77","5931","approach_avoid_sv1","""event"",""trial"",""time""
""fullscreenenter"",""1"",""3304""
""fullscreenexit"",""5"",""6194""
","
","
","""event"",""trial"",""time""
""fullscreenenter"",""1"",""3304""
","""event"",""trial"",""time""
""fullscreenexit"",""5"",""6194""
","","","","","","1408.8999999761581","images/rabbit1.png","","","memory_trial","3","maybe_new",""
"html-keyboard-response","200","419076","0.0-18.0-0.78","5931","approach_avoid_sv1","""event"",""trial"",""time""
""fullscreenenter"",""1"",""3304""
""fullscreenexit"",""5"",""6194""
","
","
","""event"",""trial"",""time""
""fullscreenenter"",""1"",""3304""
","""event"",""trial"",""time""
""fullscreenexit"",""5"",""6194""
","","","","","","null","<div style=""font-size:60px;"">+</div>","null","","fixation","","",""
"memory-trial","201","421437","0.0-18.0-1.78","5931","approach_avoid_sv1","""event"",""trial"",""time""
""fullscreenenter"",""1"",""3304""
""fullscreenexit"",""5"",""6194""
","
","
","""event"",""trial"",""time""
""fullscreenenter"",""1"",""3304""
","""event"",""trial"",""time""
""fullscreenexit"",""5"",""6194""
","","","","","","1355.2999999523163","images/apple5.png","","","memory_trial","4","definitely_new",""
"html-keyboard-response","202","421941","0.0-18.0-0.79","5931","approach_avoid_sv1","""event"",""trial"",""time""
""fullscreenenter"",""1"",""3304""
""fullscreenexit"",""5"",""6194""
","
","
","""event"",""trial"",""time""
""fullscreenenter"",""1"",""3304""
","""event"",""trial"",""time""
""fullscreenexit"",""5"",""6194""
","","","","","","null","<div style=""font-size:60px;"">+</div>","null","","fixation","","",""
"memory-trial","203","424356","0.0-18.0-1.79","5931","approach_avoid_sv1","""event"",""trial"",""time""
""fullscreenenter"",""1"",""3304""
""fullscreenexit"",""5"",""6194""
","
","
","""event"",""trial"",""time""
""fullscreenenter"",""1"",""3304""
","""event"",""trial"",""time""
""fullscreenexit"",""5"",""6194""
","","","","","","1408.2000000476837","images/bush8.png","","","memory_trial","2","maybe_old",""
"html-keyboard-response","204","424860","0.0-18.0-0.80","5931","approach_avoid_sv1","""event"",""trial"",""time""
""fullscreenenter"",""1"",""3304""
""fullscreenexit"",""5"",""6194""
","
","
","""event"",""trial"",""time""
""fullscreenenter"",""1"",""3304""
","""event"",""trial"",""time""
""fullscreenexit"",""5"",""6194""
","","","","","","null","<div style=""font-size:60px;"">+</div>","null","","fixation","","",""
"memory-trial","205","427108","0.0-18.0-1.80","5931","approach_avoid_sv1","""event"",""trial"",""time""
""fullscreenenter"",""1"",""3304""
""fullscreenexit"",""5"",""6194""
","
","
","""event"",""trial"",""time""
""fullscreenenter"",""1"",""3304""
","""event"",""trial"",""time""
""fullscreenexit"",""5"",""6194""
","","","","","","1243.5999999046326","images/goat4.png","","","memory_trial","3","maybe_new",""
"html-keyboard-response","206","427612","0.0-18.0-0.81","5931","approach_avoid_sv1","""event"",""trial"",""time""
""fullscreenenter"",""1"",""3304""
""fullscreenexit"",""5"",""6194""
","
","
","""event"",""trial"",""time""
""fullscreenenter"",""1"",""3304""
","""event"",""trial"",""time""
""fullscreenexit"",""5"",""6194""
","","","","","","null","<div style=""font-size:60px;"">+</div>","null","","fixation","","",""
"memory-trial","207","430212","0.0-18.0-1.81","5931","approach_avoid_sv1","""event"",""trial"",""time""
""fullscreenenter"",""1"",""3304""
""fullscreenexit"",""5"",""6194""
","
","
","""event"",""trial"",""time""
""fullscreenenter"",""1"",""3304""
","""event"",""trial"",""time""
""fullscreenexit"",""5"",""6194""
","","","","","","1591.5","images/boat8.png","","","memory_trial","3","maybe_new",""
"html-keyboard-response","208","430716","0.0-18.0-0.82","5931","approach_avoid_sv1","""event"",""trial"",""time""
""fullscreenenter"",""1"",""3304""
""fullscreenexit"",""5"",""6194""
","
","
","""event"",""trial"",""time""
""fullscreenenter"",""1"",""3304""
","""event"",""trial"",""time""
""fullscreenexit"",""5"",""6194""
","","","","","","null","<div style=""font-size:60px;"">+</div>","null","","fixation","","",""
"memory-trial","209","433093","0.0-18.0-1.82","5931","approach_avoid_sv1","""event"",""trial"",""time""
""fullscreenenter"",""1"",""3304""
""fullscreenexit"",""5"",""6194""
","
","
","""event"",""trial"",""time""
""fullscreenenter"",""1"",""3304""
","""event"",""trial"",""time""
""fullscreenexit"",""5"",""6194""
","","","","","","1370.8999999761581","images/rabbit2.png","","","memory_trial","2","maybe_old",""
"html-keyboard-response","210","433597","0.0-18.0-0.83","5931","approach_avoid_sv1","""event"",""trial"",""time""
""fullscreenenter"",""1"",""3304""
""fullscreenexit"",""5"",""6194""
","
","
","""event"",""trial"",""time""
""fullscreenenter"",""1"",""3304""
","""event"",""trial"",""time""
""fullscreenexit"",""5"",""6194""
","","","","","","null","<div style=""font-size:60px;"">+</div>","null","","fixation","","",""
"memory-trial","211","435725","0.0-18.0-1.83","5931","approach_avoid_sv1","""event"",""trial"",""time""
""fullscreenenter"",""1"",""3304""
""fullscreenexit"",""5"",""6194""
","
","
","""event"",""trial"",""time""
""fullscreenenter"",""1"",""3304""
","""event"",""trial"",""time""
""fullscreenexit"",""5"",""6194""
","","","","","","1120.2999999523163","images/orange2.png","","","memory_trial","4","definitely_new",""
"html-keyboard-response","212","436240","0.0-18.0-0.84","5931","approach_avoid_sv1","""event"",""trial"",""time""
""fullscreenenter"",""1"",""3304""
""fullscreenexit"",""5"",""6194""
","
","
","""event"",""trial"",""time""
""fullscreenenter"",""1"",""3304""
","""event"",""trial"",""time""
""fullscreenexit"",""5"",""6194""
","","","","","","null","<div style=""font-size:60px;"">+</div>","null","","fixation","","",""
"memory-trial","213","438493","0.0-18.0-1.84","5931","approach_avoid_sv1","""event"",""trial"",""time""
""fullscreenenter"",""1"",""3304""
""fullscreenexit"",""5"",""6194""
","
","
","""event"",""trial"",""time""
""fullscreenenter"",""1"",""3304""
","""event"",""trial"",""time""
""fullscreenexit"",""5"",""6194""
","","","","","","1247.4000000953674","images/cow1.png","","","memory_trial","1","definitely_old",""
"html-keyboard-response","214","438996","0.0-18.0-0.85","5931","approach_avoid_sv1","""event"",""trial"",""time""
""fullscreenenter"",""1"",""3304""
""fullscreenexit"",""5"",""6194""
","
","
","""event"",""trial"",""time""
""fullscreenenter"",""1"",""3304""
","""event"",""trial"",""time""
""fullscreenexit"",""5"",""6194""
","","","","","","null","<div style=""font-size:60px;"">+</div>","null","","fixation","","",""
"memory-trial","215","440892","0.0-18.0-1.85","5931","approach_avoid_sv1","""event"",""trial"",""time""
""fullscreenenter"",""1"",""3304""
""fullscreenexit"",""5"",""6194""
","
","
","""event"",""trial"",""time""
""fullscreenenter"",""1"",""3304""
","""event"",""trial"",""time""
""fullscreenexit"",""5"",""6194""
","","","","","","888.7999999523163","images/flower5.png","","","memory_trial","4","definitely_new",""
"html-keyboard-response","216","441397","0.0-18.0-0.86","5931","approach_avoid_sv1","""event"",""trial"",""time""
""fullscreenenter"",""1"",""3304""
""fullscreenexit"",""5"",""6194""
","
","
","""event"",""trial"",""time""
""fullscreenenter"",""1"",""3304""
","""event"",""trial"",""time""
""fullscreenexit"",""5"",""6194""
","","","","","","null","<div style=""font-size:60px;"">+</div>","null","","fixation","","",""
"memory-trial","217","443644","0.0-18.0-1.86","5931","approach_avoid_sv1","""event"",""trial"",""time""
""fullscreenenter"",""1"",""3304""
""fullscreenexit"",""5"",""6194""
","
","
","""event"",""trial"",""time""
""fullscreenenter"",""1"",""3304""
","""event"",""trial"",""time""
""fullscreenexit"",""5"",""6194""
","","","","","","1241.6000000238419","images/horse5.png","","","memory_trial","4","definitely_new",""
"html-keyboard-response","218","444148","0.0-18.0-0.87","5931","approach_avoid_sv1","""event"",""trial"",""time""
""fullscreenenter"",""1"",""3304""
""fullscreenexit"",""5"",""6194""
","
","
","""event"",""trial"",""time""
""fullscreenenter"",""1"",""3304""
","""event"",""trial"",""time""
""fullscreenexit"",""5"",""6194""
","","","","","","null","<div style=""font-size:60px;"">+</div>","null","","fixation","","",""
"memory-trial","219","446733","0.0-18.0-1.87","5931","approach_avoid_sv1","""event"",""trial"",""time""
""fullscreenenter"",""1"",""3304""
""fullscreenexit"",""5"",""6194""
","
","
","""event"",""trial"",""time""
""fullscreenenter"",""1"",""3304""
","""event"",""trial"",""time""
""fullscreenexit"",""5"",""6194""
","","","","","","1578.2000000476837","images/tree4.png","","","memory_trial","2","maybe_old",""
"html-keyboard-response","220","447236","0.0-18.0-0.88","5931","approach_avoid_sv1","""event"",""trial"",""time""
""fullscreenenter"",""1"",""3304""
""fullscreenexit"",""5"",""6194""
","
","
","""event"",""trial"",""time""
""fullscreenenter"",""1"",""3304""
","""event"",""trial"",""time""
""fullscreenexit"",""5"",""6194""
","","","","","","null","<div style=""font-size:60px;"">+</div>","null","","fixation","","",""
"memory-trial","221","450069","0.0-18.0-1.88","5931","approach_avoid_sv1","""event"",""trial"",""time""
""fullscreenenter"",""1"",""3304""
""fullscreenexit"",""5"",""6194""
","
","
","""event"",""trial"",""time""
""fullscreenenter"",""1"",""3304""
","""event"",""trial"",""time""
""fullscreenexit"",""5"",""6194""
","","","","","","1828","images/cow3.png","","","memory_trial","3","maybe_new",""
"html-keyboard-response","222","450572","0.0-18.0-0.89","5931","approach_avoid_sv1","""event"",""trial"",""time""
""fullscreenenter"",""1"",""3304""
""fullscreenexit"",""5"",""6194""
","
","
","""event"",""trial"",""time""
""fullscreenenter"",""1"",""3304""
","""event"",""trial"",""time""
""fullscreenexit"",""5"",""6194""
","","","","","","null","<div style=""font-size:60px;"">+</div>","null","","fixation","","",""
"memory-trial","223","452837","0.0-18.0-1.89","5931","approach_avoid_sv1","""event"",""trial"",""time""
""fullscreenenter"",""1"",""3304""
""fullscreenexit"",""5"",""6194""
","
","
","""event"",""trial"",""time""
""fullscreenenter"",""1"",""3304""
","""event"",""trial"",""time""
""fullscreenexit"",""5"",""6194""
","","","","","","1256.3000000715256","images/cactus3.png","","","memory_trial","4","definitely_new",""
"html-keyboard-response","224","453340","0.0-18.0-0.90","5931","approach_avoid_sv1","""event"",""trial"",""time""
""fullscreenenter"",""1"",""3304""
""fullscreenexit"",""5"",""6194""
","
","
","""event"",""trial"",""time""
""fullscreenenter"",""1"",""3304""
","""event"",""trial"",""time""
""fullscreenexit"",""5"",""6194""
","","","","","","null","<div style=""font-size:60px;"">+</div>","null","","fixation","","",""
"memory-trial","225","456004","0.0-18.0-1.90","5931","approach_avoid_sv1","""event"",""trial"",""time""
""fullscreenenter"",""1"",""3304""
""fullscreenexit"",""5"",""6194""
","
","
","""event"",""trial"",""time""
""fullscreenenter"",""1"",""3304""
","""event"",""trial"",""time""
""fullscreenexit"",""5"",""6194""
","","","","","","1658.8000000715256","images/straw8.png","","","memory_trial","3","maybe_new",""
"html-keyboard-response","226","456508","0.0-18.0-0.91","5931","approach_avoid_sv1","""event"",""trial"",""time""
""fullscreenenter"",""1"",""3304""
""fullscreenexit"",""5"",""6194""
","
","
","""event"",""trial"",""time""
""fullscreenenter"",""1"",""3304""
","""event"",""trial"",""time""
""fullscreenexit"",""5"",""6194""
","","","","","","null","<div style=""font-size:60px;"">+</div>","null","","fixation","","",""
"memory-trial","227","458732","0.0-18.0-1.91","5931","approach_avoid_sv1","""event"",""trial"",""time""
""fullscreenenter"",""1"",""3304""
""fullscreenexit"",""5"",""6194""
","
","
","""event"",""trial"",""time""
""fullscreenenter"",""1"",""3304""
","""event"",""trial"",""time""
""fullscreenexit"",""5"",""6194""
","","","","","","1220.8999999761581","images/tree3.png","","","memory_trial","3","maybe_new",""
"html-button-response","228","464338","0.0-18.0-2.91-0.91","5931","approach_avoid_sv1","""event"",""trial"",""time""
""fullscreenenter"",""1"",""3304""
""fullscreenexit"",""5"",""6194""
","
","
","""event"",""trial"",""time""
""fullscreenenter"",""1"",""3304""
","""event"",""trial"",""time""
""fullscreenexit"",""5"",""6194""
","","","","","","5604.700000047684","<p> Take a break! </p><p> Click the button to continue. </p>","0","","break","","",""
"html-keyboard-response","229","464845","0.0-18.0-0.92","5931","approach_avoid_sv1","""event"",""trial"",""time""
""fullscreenenter"",""1"",""3304""
""fullscreenexit"",""5"",""6194""
","
","
","""event"",""trial"",""time""
""fullscreenenter"",""1"",""3304""
","""event"",""trial"",""time""
""fullscreenexit"",""5"",""6194""
