"trial_type","trial_index","time_elapsed","internal_node_id","subject_id","task_version","interactions","blur_events","focus_events","fullscreenenter_events","fullscreenexit_events","success","timeout","failed_images","failed_audio","failed_video","rt","stimulus","response","button_pressed","task_part","key_press","answer","correct"
"pavlovia","0","165","0.0-0.0","6383","approach_avoid_sv1","""event"",""trial"",""time""
""fullscreenenter"",""1"",""3831""
","
","
","""event"",""trial"",""time""
""fullscreenenter"",""1"",""3831""
","
","","","","","","","","","","","","",""
"fullscreen","1","4674","0.0-1.0","6383","approach_avoid_sv1","""event"",""trial"",""time""
""fullscreenenter"",""1"",""3831""
","
","
","""event"",""trial"",""time""
""fullscreenenter"",""1"",""3831""
","
","true","","","","","","","","","","","",""
"preload","2","12593","0.0-2.0","6383","approach_avoid_sv1","""event"",""trial"",""time""
""fullscreenenter"",""1"",""3831""
","
","
","""event"",""trial"",""time""
""fullscreenenter"",""1"",""3831""
","
","true","false","[]","[]","[]","","","","","","","",""
"preload","3","17839","0.0-3.0","6383","approach_avoid_sv1","""event"",""trial"",""time""
""fullscreenenter"",""1"",""3831""
","
","
","""event"",""trial"",""time""
""fullscreenenter"",""1"",""3831""
","
","true","false","[]","[]","[]","","","","","","","",""
"preload","4","19431","0.0-4.0","6383","approach_avoid_sv1","""event"",""trial"",""time""
""fullscreenenter"",""1"",""3831""
","
","
","""event"",""trial"",""time""
""fullscreenenter"",""1"",""3831""
","
","true","false","[]","[]","[]","","","","","","","",""
"audio-keyboard-response","5","23600","0.0-5.0","6383","approach_avoid_sv1","""event"",""trial"",""time""
""fullscreenenter"",""1"",""3831""
","
","
","""event"",""trial"",""time""
""fullscreenenter"",""1"",""3831""
","
","","","","","","4160","audio/beep_loop.wav"," ","","","","",""
"audio-button-response","6","28024","0.0-6.0","6383","approach_avoid_sv1","""event"",""trial"",""time""
""fullscreenenter"",""1"",""3831""
","
","
","""event"",""trial"",""time""
""fullscreenenter"",""1"",""3831""
","
","","","","","","4411","audio/turtle.wav","3","","","","",""
"audio-button-response","7","30831","0.0-7.0","6383","approach_avoid_sv1","""event"",""trial"",""time""
""fullscreenenter"",""1"",""3831""
","
","
","""event"",""trial"",""time""
""fullscreenenter"",""1"",""3831""
","
","","","","","","1792","audio/shark.wav","2","","","","",""
"preload","8","40923","0.0-8.0","6383","approach_avoid_sv1","""event"",""trial"",""time""
""fullscreenenter"",""1"",""3831""
","
","
","""event"",""trial"",""time""
""fullscreenenter"",""1"",""3831""
","
","true","false","[]","[]","[]","","","","","","","",""
"learning-instructions","9","47948","0.0-9.0-0.0","6383","approach_avoid_sv1","""event"",""trial"",""time""
""fullscreenenter"",""1"",""3831""
","
","
","""event"",""trial"",""time""
""fullscreenenter"",""1"",""3831""
","
","","","","","","2526.7999999998137","<p> Welcome back! </p><p> Last week, you had to make choices about lots of different items.  </p>","","0","instructions","","",""
"learning-instructions","10","53894","0.0-9.0-0.1","6383","approach_avoid_sv1","""event"",""trial"",""time""
""fullscreenenter"",""1"",""3831""
","
","
","""event"",""trial"",""time""
""fullscreenenter"",""1"",""3831""
","
","","","","","","1804.5","<p> Today, we are going to ask you to try to remember all the items. </p>","","0","instructions","","",""
"learning-instructions","11","66636","0.0-9.0-0.2","6383","approach_avoid_sv1","""event"",""trial"",""time""
""fullscreenenter"",""1"",""3831""
","
","
","""event"",""trial"",""time""
""fullscreenenter"",""1"",""3831""
","
","","","","","","2589.7999999998137","<p> On every trial, you will see an image. </p><p> The image may be an OLD image you saw during the games last week or it may be a NEW image that was not presented. </p>","","0","instructions","","",""
"learning-instructions","12","77849","0.0-9.0-0.3","6383","approach_avoid_sv1","""event"",""trial"",""time""
""fullscreenenter"",""1"",""3831""
","
","
","""event"",""trial"",""time""
""fullscreenenter"",""1"",""3831""
","
","","","","","","2695.2999999998137","<p> You need to select whether the image is:  </p><p>  'Definitely old', 'Maybe old', 'Maybe new', or 'Definitely new.'  </p><div class=""mem-choice-instructions-grid""><div class=""choice-option"" id=""choice-option-1"" ><img src=""images/definitely_old_1.png"" id=""choice-option-img-1"" class=""choice-option-img"" stage=""1""></div><div class=""choice-option"" id=""choice-option-2"" ><img src=""images/maybe_old_1.png"" id=""choice-option-img-2"" class=""choice-option-img"" stage=""1""></div><div class=""choice-option"" id=""choice-option-3"" ><img src=""images/maybe_new_1.png"" id=""choice-option-img-3"" class=""choice-option-img"" stage=""1""></div><div class=""choice-option"" id=""choice-option-4"" > <img src=""images/definitely_new_1.png"" id=""choice-option-img-4"" class=""choice-option-img"" stage=""1""></div></div>","","0","instructions","","",""
"learning-instructions","13","92206","0.0-9.0-0.4","6383","approach_avoid_sv1","""event"",""trial"",""time""
""fullscreenenter"",""1"",""3831""
","
","
","""event"",""trial"",""time""
""fullscreenenter"",""1"",""3831""
","
","","","","","","7758.5","<p> You should use the 1, 2, 3, and 4 keys to make your responses.  </p><div class=""mem-choice-instructions-grid""><div class=""choice-option"" id=""choice-option-1"" ><img src=""images/definitely_old.png"" id=""choice-option-img-1"" class=""choice-option-img"" stage=""1""></div><div class=""choice-option"" id=""choice-option-2"" ><img src=""images/maybe_old.png"" id=""choice-option-img-2"" class=""choice-option-img"" stage=""1""></div><div class=""choice-option"" id=""choice-option-3"" ><img src=""images/maybe_new.png"" id=""choice-option-img-3"" class=""choice-option-img"" stage=""1""></div><div class=""choice-option"" id=""choice-option-4"" > <img src=""images/definitely_new.png"" id=""choice-option-img-4"" class=""choice-option-img"" stage=""1""></div></div>","","0","instructions","","",""
"learning-instructions","14","101047","0.0-9.0-0.5","6383","approach_avoid_sv1","""event"",""trial"",""time""
""fullscreenenter"",""1"",""3831""
","
","
","""event"",""trial"",""time""
""fullscreenenter"",""1"",""3831""
","
","","","","","","2476.100000000093","<p> You will have 10 seconds to make each response.  </p><p>  Make sure to respond before time runs out! </p>","","0","instructions","","",""
"learning-instructions","15","110020","0.0-9.0-0.6","6383","approach_avoid_sv1","""event"",""trial"",""time""
""fullscreenenter"",""1"",""3831""
","
","
","""event"",""trial"",""time""
""fullscreenenter"",""1"",""3831""
","
","","","","","","1875.1000000000931","<p> Today, you will see each image ONCE only.  </p><p>  That means none of the images will repeat. </p>","","0","instructions","","",""
"learning-instructions","16","124618","0.0-9.0-0.7","6383","approach_avoid_sv1","""event"",""trial"",""time""
""fullscreenenter"",""1"",""3831""
","
","
","""event"",""trial"",""time""
""fullscreenenter"",""1"",""3831""
","
","","","","","","1914.6999999999534","<p> Before you play the real game, it is time to practice. </p><p>  Just like in the real game, some of the images in the practice will be ones you have seen before. </p><p>  Others will be entirely new. </p>","","0","instructions","","",""
"html-button-response","17","127301","0.0-10.0","6383","approach_avoid_sv1","""event"",""trial"",""time""
""fullscreenenter"",""1"",""3831""
","
","
","""event"",""trial"",""time""
""fullscreenenter"",""1"",""3831""
","
","","","","","","2564.5999999998603","<p> Ready to practice? </p><p> Remember, use the 1, 2, 3, and 4 keys to make your responses. </p>","0","","instructions","","",""
"html-keyboard-response","18","127929","0.0-11.0-0.0","6383","approach_avoid_sv1","""event"",""trial"",""time""
""fullscreenenter"",""1"",""3831""
","
","
","""event"",""trial"",""time""
""fullscreenenter"",""1"",""3831""
","
","","","","","","null","<div style=""font-size:60px;"">+</div>","null","","fixation","","",""
"memory-trial","19","132070","0.0-11.0-1.0","6383","approach_avoid_sv1","""event"",""trial"",""time""
""fullscreenenter"",""1"",""3831""
","
","
","""event"",""trial"",""time""
""fullscreenenter"",""1"",""3831""
","
","","","","","","3099.3000000000466","images/racket3.png","","","practice","1","definitely_old",""
"html-keyboard-response","20","132590","0.0-11.0-0.1","6383","approach_avoid_sv1","""event"",""trial"",""time""
""fullscreenenter"",""1"",""3831""
","
","
","""event"",""trial"",""time""
""fullscreenenter"",""1"",""3831""
","
","","","","","","null","<div style=""font-size:60px;"">+</div>","null","","fixation","","",""
"memory-trial","21","138131","0.0-11.0-1.1","6383","approach_avoid_sv1","""event"",""trial"",""time""
""fullscreenenter"",""1"",""3831""
","
","
","""event"",""trial"",""time""
""fullscreenenter"",""1"",""3831""
","
","","","","","","4509.5","images/racket1.png","","","practice","3","maybe_new",""
"html-keyboard-response","22","138651","0.0-11.0-0.2","6383","approach_avoid_sv1","""event"",""trial"",""time""
""fullscreenenter"",""1"",""3831""
","
","
","""event"",""trial"",""time""
""fullscreenenter"",""1"",""3831""
","
","","","","","","null","<div style=""font-size:60px;"">+</div>","null","","fixation","","",""
"memory-trial","23","141390","0.0-11.0-1.2","6383","approach_avoid_sv1","""event"",""trial"",""time""
""fullscreenenter"",""1"",""3831""
","
","
","""event"",""trial"",""time""
""fullscreenenter"",""1"",""3831""
","
","","","","","","1716.1999999999534","images/racket2.png","","","practice","4","definitely_new",""
"html-keyboard-response","24","141904","0.0-11.0-0.3","6383","approach_avoid_sv1","""event"",""trial"",""time""
""fullscreenenter"",""1"",""3831""
","
","
","""event"",""trial"",""time""
""fullscreenenter"",""1"",""3831""
","
","","","","","","null","<div style=""font-size:60px;"">+</div>","null","","fixation","","",""
"memory-trial","25","145315","0.0-11.0-1.3","6383","approach_avoid_sv1","""event"",""trial"",""time""
""fullscreenenter"",""1"",""3831""
","
","
","""event"",""trial"",""time""
""fullscreenenter"",""1"",""3831""
","
","","","","","","2383.6999999999534","images/racket5.png","","","practice","3","maybe_new",""
"html-keyboard-response","26","145840","0.0-11.0-0.4","6383","approach_avoid_sv1","""event"",""trial"",""time""
""fullscreenenter"",""1"",""3831""
","
","
","""event"",""trial"",""time""
""fullscreenenter"",""1"",""3831""
","
","","","","","","null","<div style=""font-size:60px;"">+</div>","null","","fixation","","",""
"memory-trial","27","149350","0.0-11.0-1.4","6383","approach_avoid_sv1","""event"",""trial"",""time""
""fullscreenenter"",""1"",""3831""
","
","
","""event"",""trial"",""time""
""fullscreenenter"",""1"",""3831""
","
","","","","","","2475.0999999998603","images/ball3.png","","","practice","1","definitely_old",""
"html-keyboard-response","28","149872","0.0-11.0-0.5","6383","approach_avoid_sv1","""event"",""trial"",""time""
""fullscreenenter"",""1"",""3831""
","
","
","""event"",""trial"",""time""
""fullscreenenter"",""1"",""3831""
","
","","","","","","null","<div style=""font-size:60px;"">+</div>","null","","fixation","","",""
"memory-trial","29","152492","0.0-11.0-1.5","6383","approach_avoid_sv1","""event"",""trial"",""time""
""fullscreenenter"",""1"",""3831""
","
","
","""event"",""trial"",""time""
""fullscreenenter"",""1"",""3831""
","
","","","","","","1599.2000000001863","images/ball5.png","","","practice","4","definitely_new",""
"html-keyboard-response","30","153010","0.0-11.0-0.6","6383","approach_avoid_sv1","""event"",""trial"",""time""
""fullscreenenter"",""1"",""3831""
","
","
","""event"",""trial"",""time""
""fullscreenenter"",""1"",""3831""
","
","","","","","","null","<div style=""font-size:60px;"">+</div>","null","","fixation","","",""
"memory-trial","31","156501","0.0-11.0-1.6","6383","approach_avoid_sv1","""event"",""trial"",""time""
""fullscreenenter"",""1"",""3831""
","
","
","""event"",""trial"",""time""
""fullscreenenter"",""1"",""3831""
","
","","","","","","2463.899999999907","images/ball2.png","","","practice","4","definitely_new",""
"html-keyboard-response","32","157021","0.0-11.0-0.7","6383","approach_avoid_sv1","""event"",""trial"",""time""
""fullscreenenter"",""1"",""3831""
","
","
","""event"",""trial"",""time""
""fullscreenenter"",""1"",""3831""
","
","","","","","","null","<div style=""font-size:60px;"">+</div>","null","","fixation","","",""
"memory-trial","33","160015","0.0-11.0-1.7","6383","approach_avoid_sv1","""event"",""trial"",""time""
""fullscreenenter"",""1"",""3831""
","
","
","""event"",""trial"",""time""
""fullscreenenter"",""1"",""3831""
","
","","","","","","1967.1999999999534","images/ball1.png","","","practice","1","definitely_old",""
"learning-instructions","34","173024","0.0-12.0-0.0","6383","approach_avoid_sv1","""event"",""trial"",""time""
""fullscreenenter"",""1"",""3831""
","
","
","""event"",""trial"",""time""
""fullscreenenter"",""1"",""3831""
","
","","","","","","5489.300000000047","<p> Great! You have completed the practice. </p><p> Before you start, we're going to ask you a few questions about how the game works.  </p>","","0","instructions","","",""
"preload","35","179506","0.0-13.0","6383","approach_avoid_sv1","""event"",""trial"",""time""
""fullscreenenter"",""1"",""3831""
","
","
","""event"",""trial"",""time""
""fullscreenenter"",""1"",""3831""
","
","true","false","[]","[]","[]","","","","","","","",""
"comp-q","36","187272","0.0-14.0-0.0","6383","approach_avoid_sv1","""event"",""trial"",""time""
""fullscreenenter"",""1"",""3831""
","
","
","""event"",""trial"",""time""
""fullscreenenter"",""1"",""3831""
","
","","","","","","1920.8000000000466","<p> <b> True or False? </b> </p><p> In this game, you will only see each image once. </p>","","0","comp_question","","","true"
"comp-q","37","195495","0.0-14.0-1.0","6383","approach_avoid_sv1","""event"",""trial"",""time""
""fullscreenenter"",""1"",""3831""
","
","
","""event"",""trial"",""time""
""fullscreenenter"",""1"",""3831""
","
","","","","","","1853.2999999998137","<p> <b> That's right! </b> You will see many different images <i> one time each </i> in this game. </p>","","0","comp_answer","","",""
"comp-q","38","202129","0.0-15.0-0.0","6383","approach_avoid_sv1","""event"",""trial"",""time""
""fullscreenenter"",""1"",""3831""
","
","
","""event"",""trial"",""time""
""fullscreenenter"",""1"",""3831""
","
","","","","","","1598.6999999999534","<p> <b> True or False? </b> </p><p> You should use the mouse and click to make your response. </p>","","1","comp_question","","","true"
"comp-q","39","210840","0.0-15.0-1.0","6383","approach_avoid_sv1","""event"",""trial"",""time""
""fullscreenenter"",""1"",""3831""
","
","
","""event"",""trial"",""time""
""fullscreenenter"",""1"",""3831""
","
","","","","","","2200.4000000001397","<p><b> That's right! </b> You should use the '1', '2', '3', and '4' keys to make your response. </p>","","0","comp_answer","","",""
"comp-q","40","218027","0.0-16.0-0.0","6383","approach_avoid_sv1","""event"",""trial"",""time""
""fullscreenenter"",""1"",""3831""
","
","
","""event"",""trial"",""time""
""fullscreenenter"",""1"",""3831""
","
","","","","","","1384.5999999998603","<p> <b> True or False? </b> </p><p> You will have as much time as you want to make each choice. </p>","","1","comp_question","","","true"
"comp-q","41","224400","0.0-16.0-1.0","6383","approach_avoid_sv1","""event"",""trial"",""time""
""fullscreenenter"",""1"",""3831""
","
","
","""event"",""trial"",""time""
""fullscreenenter"",""1"",""3831""
","
","","","","","","1648.8999999999069","<p> <b> That's right! </b> You will only have 10 seconds to make each choice. </p>","","0","comp_answer","","",""
"learning-instructions","42","234785","0.0-17.0","6383","approach_avoid_sv1","""event"",""trial"",""time""
""fullscreenenter"",""1"",""3831""
","
","
","""event"",""trial"",""time""
""fullscreenenter"",""1"",""3831""
","
","","","","","","1699.9000000001397","<p> Great! You are now ready to begin the game. </p><p> Remember, use the 1, 2, 3, and 4 keys to make your responses. </p>","","0","instructions","","",""
"html-keyboard-response","43","235432","0.0-18.0-0.0","6383","approach_avoid_sv1","""event"",""trial"",""time""
""fullscreenenter"",""1"",""3831""
","
","
","""event"",""trial"",""time""
""fullscreenenter"",""1"",""3831""
","
","","","","","","null","<div style=""font-size:60px;"">+</div>","null","","fixation","","",""
"memory-trial","44","238834","0.0-18.0-1.0","6383","approach_avoid_sv1","""event"",""trial"",""time""
""fullscreenenter"",""1"",""3831""
","
","
","""event"",""trial"",""time""
""fullscreenenter"",""1"",""3831""
","
","","","","","","2363.5","images/train5.png","","","memory_trial","4","definitely_new",""
"html-keyboard-response","45","239359","0.0-18.0-0.1","6383","approach_avoid_sv1","""event"",""trial"",""time""
""fullscreenenter"",""1"",""3831""
","
","
","""event"",""trial"",""time""
""fullscreenenter"",""1"",""3831""
","
","","","","","","null","<div style=""font-size:60px;"">+</div>","null","","fixation","","",""
"memory-trial","46","242511","0.0-18.0-1.1","6383","approach_avoid_sv1","""event"",""trial"",""time""
""fullscreenenter"",""1"",""3831""
","
","
","""event"",""trial"",""time""
""fullscreenenter"",""1"",""3831""
","
","","","","","","2119.5999999998603","images/apple4.png","","","memory_trial","4","definitely_new",""
"html-keyboard-response","47","243034","0.0-18.0-0.2","6383","approach_avoid_sv1","""event"",""trial"",""time""
""fullscreenenter"",""1"",""3831""
","
","
","""event"",""trial"",""time""
""fullscreenenter"",""1"",""3831""
","
","","","","","","null","<div style=""font-size:60px;"">+</div>","null","","fixation","","",""
"memory-trial","48","246061","0.0-18.0-1.2","6383","approach_avoid_sv1","""event"",""trial"",""time""
""fullscreenenter"",""1"",""3831""
","
","
","""event"",""trial"",""time""
""fullscreenenter"",""1"",""3831""
","
","","","","","","2003.3999999999069","images/banana6.png","","","memory_trial","4","definitely_new",""
"html-keyboard-response","49","246580","0.0-18.0-0.3","6383","approach_avoid_sv1","""event"",""trial"",""time""
""fullscreenenter"",""1"",""3831""
","
","
","""event"",""trial"",""time""
""fullscreenenter"",""1"",""3831""
","
","","","","","","null","<div style=""font-size:60px;"">+</div>","null","","fixation","","",""
"memory-trial","50","249424","0.0-18.0-1.3","6383","approach_avoid_sv1","""event"",""trial"",""time""
""fullscreenenter"",""1"",""3831""
","
","
","""event"",""trial"",""time""
""fullscreenenter"",""1"",""3831""
","
","","","","","","1816.6999999999534","images/goat3.png","","","memory_trial","4","definitely_new",""
"html-keyboard-response","51","249945","0.0-18.0-0.4","6383","approach_avoid_sv1","""event"",""trial"",""time""
""fullscreenenter"",""1"",""3831""
","
","
","""event"",""trial"",""time""
""fullscreenenter"",""1"",""3831""
","
","","","","","","null","<div style=""font-size:60px;"">+</div>","null","","fixation","","",""
"memory-trial","52","252740","0.0-18.0-1.4","6383","approach_avoid_sv1","""event"",""trial"",""time""
""fullscreenenter"",""1"",""3831""
","
","
","""event"",""trial"",""time""
""fullscreenenter"",""1"",""3831""
","
","","","","","","1769.9000000001397","images/bush1.png","","","memory_trial","1","definitely_old",""
"html-keyboard-response","53","253259","0.0-18.0-0.5","6383","approach_avoid_sv1","""event"",""trial"",""time""
""fullscreenenter"",""1"",""3831""
","
","
","""event"",""trial"",""time""
""fullscreenenter"",""1"",""3831""
","
","","","","","","null","<div style=""font-size:60px;"">+</div>","null","","fixation","","",""
"memory-trial","54","255910","0.0-18.0-1.5","6383","approach_avoid_sv1","""event"",""trial"",""time""
""fullscreenenter"",""1"",""3831""
","
","
","""event"",""trial"",""time""
""fullscreenenter"",""1"",""3831""
","
","","","","","","1633.6000000000931","images/dog6.png","","","memory_trial","4","definitely_new",""
"html-keyboard-response","55","256432","0.0-18.0-0.6","6383","approach_avoid_sv1","""event"",""trial"",""time""
""fullscreenenter"",""1"",""3831""
","
","
","""event"",""trial"",""time""
""fullscreenenter"",""1"",""3831""
","
","","","","","","null","<div style=""font-size:60px;"">+</div>","null","","fixation","","",""
"memory-trial","56","259122","0.0-18.0-1.6","6383","approach_avoid_sv1","""event"",""trial"",""time""
""fullscreenenter"",""1"",""3831""
","
","
","""event"",""trial"",""time""
""fullscreenenter"",""1"",""3831""
","
","","","","","","1659","images/cactus2.png","","","memory_trial","4","definitely_new",""
"html-keyboard-response","57","259638","0.0-18.0-0.7","6383","approach_avoid_sv1","""event"",""trial"",""time""
""fullscreenenter"",""1"",""3831""
","
","
","""event"",""trial"",""time""
""fullscreenenter"",""1"",""3831""
","
","","","","","","null","<div style=""font-size:60px;"">+</div>","null","","fixation","","",""
"memory-trial","58","262433","0.0-18.0-1.7","6383","approach_avoid_sv1","""event"",""trial"",""time""
""fullscreenenter"",""1"",""3831""
","
","
","""event"",""trial"",""time""
""fullscreenenter"",""1"",""3831""
","
","","","","","","1768.6999999999534","images/plane2.png","","","memory_trial","4","definitely_new",""
"html-keyboard-response","59","262952","0.0-18.0-0.8","6383","approach_avoid_sv1","""event"",""trial"",""time""
""fullscreenenter"",""1"",""3831""
","
","
","""event"",""trial"",""time""
""fullscreenenter"",""1"",""3831""
","
","","","","","","null","<div style=""font-size:60px;"">+</div>","null","","fixation","","",""
"memory-trial","60","265883","0.0-18.0-1.8","6383","approach_avoid_sv1","""event"",""trial"",""time""
""fullscreenenter"",""1"",""3831""
","
","
","""event"",""trial"",""time""
""fullscreenenter"",""1"",""3831""
","
","","","","","","1913.1000000000931","images/horse1.png","","","memory_trial","4","definitely_new",""
"html-keyboard-response","61","266392","0.0-18.0-0.9","6383","approach_avoid_sv1","""event"",""trial"",""time""
""fullscreenenter"",""1"",""3831""
","
","
","""event"",""trial"",""time""
""fullscreenenter"",""1"",""3831""
","
","","","","","","null","<div style=""font-size:60px;"">+</div>","null","","fixation","","",""
"memory-trial","62","268633","0.0-18.0-1.9","6383","approach_avoid_sv1","""event"",""trial"",""time""
""fullscreenenter"",""1"",""3831""
","
","
","""event"",""trial"",""time""
""fullscreenenter"",""1"",""3831""
","
","","","","","","1217.6999999999534","images/apple7.png","","","memory_trial","1","definitely_old",""
"html-keyboard-response","63","269147","0.0-18.0-0.10","6383","approach_avoid_sv1","""event"",""trial"",""time""
""fullscreenenter"",""1"",""3831""
","
","
","""event"",""trial"",""time""
""fullscreenenter"",""1"",""3831""
","
","","","","","","null","<div style=""font-size:60px;"">+</div>","null","","fixation","","",""
"memory-trial","64","271095","0.0-18.0-1.10","6383","approach_avoid_sv1","""event"",""trial"",""time""
""fullscreenenter"",""1"",""3831""
","
","
","""event"",""trial"",""time""
""fullscreenenter"",""1"",""3831""
","
","","","","","","928","images/boat4.png","","","memory_trial","4","definitely_new",""
"html-keyboard-response","65","271610","0.0-18.0-0.11","6383","approach_avoid_sv1","""event"",""trial"",""time""
""fullscreenenter"",""1"",""3831""
","
","
","""event"",""trial"",""time""
""fullscreenenter"",""1"",""3831""
","
","","","","","","null","<div style=""font-size:60px;"">+</div>","null","","fixation","","",""
"memory-trial","66","274310","0.0-18.0-1.11","6383","approach_avoid_sv1","""event"",""trial"",""time""
""fullscreenenter"",""1"",""3831""
","
","
","""event"",""trial"",""time""
""fullscreenenter"",""1"",""3831""
","
","","","","","","1677","images/sofa1.png","","","memory_trial","4","definitely_new",""
"html-keyboard-response","67","274822","0.0-18.0-0.12","6383","approach_avoid_sv1","""event"",""trial"",""time""
""fullscreenenter"",""1"",""3831""
","
","
","""event"",""trial"",""time""
""fullscreenenter"",""1"",""3831""
","
","","","","","","null","<div style=""font-size:60px;"">+</div>","null","","fixation","","",""
"memory-trial","68","277613","0.0-18.0-1.12","6383","approach_avoid_sv1","""event"",""trial"",""time""
""fullscreenenter"",""1"",""3831""
","
","
","""event"",""trial"",""time""
""fullscreenenter"",""1"",""3831""
","
","","","","","","1770.2999999998137","images/rodent6.png","","","memory_trial","1","definitely_old",""
"html-keyboard-response","69","278128","0.0-18.0-0.13","6383","approach_avoid_sv1","""event"",""trial"",""time""
""fullscreenenter"",""1"",""3831""
","
","
","""event"",""trial"",""time""
""fullscreenenter"",""1"",""3831""
","
","","","","","","null","<div style=""font-size:60px;"">+</div>","null","","fixation","","",""
"memory-trial","70","280433","0.0-18.0-1.13","6383","approach_avoid_sv1","""event"",""trial"",""time""
""fullscreenenter"",""1"",""3831""
","
","
","""event"",""trial"",""time""
""fullscreenenter"",""1"",""3831""
","
","","","","","","1282.5","images/goat2.png","","","memory_trial","1","definitely_old",""
"html-keyboard-response","71","280946","0.0-18.0-0.14","6383","approach_avoid_sv1","""event"",""trial"",""time""
""fullscreenenter"",""1"",""3831""
","
","
","""event"",""trial"",""time""
""fullscreenenter"",""1"",""3831""
","
","","","","","","null","<div style=""font-size:60px;"">+</div>","null","","fixation","","",""
"memory-trial","72","282641","0.0-18.0-1.14","6383","approach_avoid_sv1","""event"",""trial"",""time""
""fullscreenenter"",""1"",""3831""
","
","
","""event"",""trial"",""time""
""fullscreenenter"",""1"",""3831""
","
","","","","","","670.1999999999534","images/sheep4.png","","","memory_trial","4","definitely_new",""
"html-keyboard-response","73","283156","0.0-18.0-0.15","6383","approach_avoid_sv1","""event"",""trial"",""time""
""fullscreenenter"",""1"",""3831""
","
","
","""event"",""trial"",""time""
""fullscreenenter"",""1"",""3831""
","
","","","","","","null","<div style=""font-size:60px;"">+</div>","null","","fixation","","",""
"memory-trial","74","285512","0.0-18.0-1.15","6383","approach_avoid_sv1","""event"",""trial"",""time""
""fullscreenenter"",""1"",""3831""
","
","
","""event"",""trial"",""time""
""fullscreenenter"",""1"",""3831""
","
","","","","","","1334.6999999999534","images/rodent5.png","","","memory_trial","1","definitely_old",""
"html-keyboard-response","75","286021","0.0-18.0-0.16","6383","approach_avoid_sv1","""event"",""trial"",""time""
""fullscreenenter"",""1"",""3831""
","
","
","""event"",""trial"",""time""
""fullscreenenter"",""1"",""3831""
","
","","","","","","null","<div style=""font-size:60px;"">+</div>","null","","fixation","","",""
"memory-trial","76","288505","0.0-18.0-1.16","6383","approach_avoid_sv1","""event"",""trial"",""time""
""fullscreenenter"",""1"",""3831""
","
","
","""event"",""trial"",""time""
""fullscreenenter"",""1"",""3831""
","
","","","","","","1453.5","images/sheep6.png","","","memory_trial","4","definitely_new",""
"html-keyboard-response","77","289018","0.0-18.0-0.17","6383","approach_avoid_sv1","""event"",""trial"",""time""
""fullscreenenter"",""1"",""3831""
","
","
","""event"",""trial"",""time""
""fullscreenenter"",""1"",""3831""
","
","","","","","","null","<div style=""font-size:60px;"">+</div>","null","","fixation","","",""
"memory-trial","78","291336","0.0-18.0-1.17","6383","approach_avoid_sv1","""event"",""trial"",""time""
""fullscreenenter"",""1"",""3831""
","
","
","""event"",""trial"",""time""
""fullscreenenter"",""1"",""3831""
","
","","","","","","1296.3000000000466","images/apple1.png","","","memory_trial","4","definitely_new",""
"html-keyboard-response","79","291846","0.0-18.0-0.18","6383","approach_avoid_sv1","""event"",""trial"",""time""
""fullscreenenter"",""1"",""3831""
","
","
","""event"",""trial"",""time""
""fullscreenenter"",""1"",""3831""
","
","","","","","","null","<div style=""font-size:60px;"">+</div>","null","","fixation","","",""
"memory-trial","80","294563","0.0-18.0-1.18","6383","approach_avoid_sv1","""event"",""trial"",""time""
""fullscreenenter"",""1"",""3831""
","
","
","""event"",""trial"",""time""
""fullscreenenter"",""1"",""3831""
","
","","","","","","1686.5","images/table3.png","","","memory_trial","4","definitely_new",""
"html-keyboard-response","81","295074","0.0-18.0-0.19","6383","approach_avoid_sv1","""event"",""trial"",""time""
""fullscreenenter"",""1"",""3831""
","
","
","""event"",""trial"",""time""
""fullscreenenter"",""1"",""3831""
","
","","","","","","null","<div style=""font-size:60px;"">+</div>","null","","fixation","","",""
"memory-trial","82","298341","0.0-18.0-1.19","6383","approach_avoid_sv1","""event"",""trial"",""time""
""fullscreenenter"",""1"",""3831""
","
","
","""event"",""trial"",""time""
""fullscreenenter"",""1"",""3831""
","
","","","","","","2244.5","images/rodent7.png","","","memory_trial","2","maybe_old",""
"html-keyboard-response","83","298854","0.0-18.0-0.20","6383","approach_avoid_sv1","""event"",""trial"",""time""
""fullscreenenter"",""1"",""3831""
","
","
","""event"",""trial"",""time""
""fullscreenenter"",""1"",""3831""
","
","","","","","","null","<div style=""font-size:60px;"">+</div>","null","","fixation","","",""
"memory-trial","84","301824","0.0-18.0-1.20","6383","approach_avoid_sv1","""event"",""trial"",""time""
""fullscreenenter"",""1"",""3831""
","
","
","""event"",""trial"",""time""
""fullscreenenter"",""1"",""3831""
","
","","","","","","1943","images/bed8.png","","","memory_trial","4","definitely_new",""
"html-keyboard-response","85","302333","0.0-18.0-0.21","6383","approach_avoid_sv1","""event"",""trial"",""time""
""fullscreenenter"",""1"",""3831""
","
","
","""event"",""trial"",""time""
""fullscreenenter"",""1"",""3831""
","
","","","","","","null","<div style=""font-size:60px;"">+</div>","null","","fixation","","",""
"memory-trial","86","304811","0.0-18.0-1.21","6383","approach_avoid_sv1","""event"",""trial"",""time""
""fullscreenenter"",""1"",""3831""
","
","
","""event"",""trial"",""time""
""fullscreenenter"",""1"",""3831""
","
","","","","","","1447.6000000000931","images/dog1.png","","","memory_trial","4","definitely_new",""
"html-keyboard-response","87","305320","0.0-18.0-0.22","6383","approach_avoid_sv1","""event"",""trial"",""time""
""fullscreenenter"",""1"",""3831""
","
","
","""event"",""trial"",""time""
""fullscreenenter"",""1"",""3831""
","
","","","","","","null","<div style=""font-size:60px;"">+</div>","null","","fixation","","",""
"memory-trial","88","307720","0.0-18.0-1.22","6383","approach_avoid_sv1","""event"",""trial"",""time""
""fullscreenenter"",""1"",""3831""
","
","
","""event"",""trial"",""time""
""fullscreenenter"",""1"",""3831""
","
","","","","","","1389.1000000000931","images/flower6.png","","","memory_trial","4","definitely_new",""
"html-keyboard-response","89","308238","0.0-18.0-0.23","6383","approach_avoid_sv1","""event"",""trial"",""time""
""fullscreenenter"",""1"",""3831""
","
","
","""event"",""trial"",""time""
""fullscreenenter"",""1"",""3831""
","
","","","","","","null","<div style=""font-size:60px;"">+</div>","null","","fixation","","",""
"memory-trial","90","311809","0.0-18.0-1.23","6383","approach_avoid_sv1","""event"",""trial"",""time""
""fullscreenenter"",""1"",""3831""
","
","
","""event"",""trial"",""time""
""fullscreenenter"",""1"",""3831""
","
","","","","","","2550.0999999998603","images/rodent1.png","","","memory_trial","1","definitely_old",""
"html-keyboard-response","91","312321","0.0-18.0-0.24","6383","approach_avoid_sv1","""event"",""trial"",""time""
""fullscreenenter"",""1"",""3831""
","
","
","""event"",""trial"",""time""
""fullscreenenter"",""1"",""3831""
","
","","","","","","null","<div style=""font-size:60px;"">+</div>","null","","fixation","","",""
"memory-trial","92","315006","0.0-18.0-1.24","6383","approach_avoid_sv1","""event"",""trial"",""time""
""fullscreenenter"",""1"",""3831""
","
","
","""event"",""trial"",""time""
""fullscreenenter"",""1"",""3831""
","
","","","","","","1654.9000000001397","images/chair6.png","","","memory_trial","4","definitely_new",""
"html-keyboard-response","93","315514","0.0-18.0-0.25","6383","approach_avoid_sv1","""event"",""trial"",""time""
""fullscreenenter"",""1"",""3831""
","
","
","""event"",""trial"",""time""
""fullscreenenter"",""1"",""3831""
","
","","","","","","null","<div style=""font-size:60px;"">+</div>","null","","fixation","","",""
"memory-trial","94","318591","0.0-18.0-1.25","6383","approach_avoid_sv1","""event"",""trial"",""time""
""fullscreenenter"",""1"",""3831""
","
","
","""event"",""trial"",""time""
""fullscreenenter"",""1"",""3831""
","
","","","","","","2061.1999999999534","images/table1.png","","","memory_trial","1","definitely_old",""
"html-keyboard-response","95","319106","0.0-18.0-0.26","6383","approach_avoid_sv1","""event"",""trial"",""time""
""fullscreenenter"",""1"",""3831""
","
","
","""event"",""trial"",""time""
""fullscreenenter"",""1"",""3831""
","
","","","","","","null","<div style=""font-size:60px;"">+</div>","null","","fixation","","",""
"memory-trial","96","322148","0.0-18.0-1.26","6383","approach_avoid_sv1","""event"",""trial"",""time""
""fullscreenenter"",""1"",""3831""
","
","
","""event"",""trial"",""time""
""fullscreenenter"",""1"",""3831""
","
","","","","","","2017.3000000000466","images/rabbit8.png","","","memory_trial","4","definitely_new",""
"html-keyboard-response","97","322661","0.0-18.0-0.27","6383","approach_avoid_sv1","""event"",""trial"",""time""
""fullscreenenter"",""1"",""3831""
","
","
","""event"",""trial"",""time""
""fullscreenenter"",""1"",""3831""
","
","","","","","","null","<div style=""font-size:60px;"">+</div>","null","","fixation","","",""
"memory-trial","98","325243","0.0-18.0-1.27","6383","approach_avoid_sv1","""event"",""trial"",""time""
""fullscreenenter"",""1"",""3831""
","
","
","""event"",""trial"",""time""
""fullscreenenter"",""1"",""3831""
","
","","","","","","1557","images/cat8.png","","","memory_trial","4","definitely_new",""
"html-keyboard-response","99","325758","0.0-18.0-0.28","6383","approach_avoid_sv1","""event"",""trial"",""time""
""fullscreenenter"",""1"",""3831""
","
","
","""event"",""trial"",""time""
""fullscreenenter"",""1"",""3831""
","
","","","","","","null","<div style=""font-size:60px;"">+</div>","null","","fixation","","",""
"memory-trial","100","328648","0.0-18.0-1.28","6383","approach_avoid_sv1","""event"",""trial"",""time""
""fullscreenenter"",""1"",""3831""
","
","
","""event"",""trial"",""time""
""fullscreenenter"",""1"",""3831""
","
","","","","","","1869.0999999998603","images/cow8.png","","","memory_trial","4","definitely_new",""
"html-keyboard-response","101","329158","0.0-18.0-0.29","6383","approach_avoid_sv1","""event"",""trial"",""time""
""fullscreenenter"",""1"",""3831""
","
","
","""event"",""trial"",""time""
""fullscreenenter"",""1"",""3831""
","
","","","","","","null","<div style=""font-size:60px;"">+</div>","null","","fixation","","",""
"memory-trial","102","332685","0.0-18.0-1.29","6383","approach_avoid_sv1","""event"",""trial"",""time""
""fullscreenenter"",""1"",""3831""
","
","
","""event"",""trial"",""time""
""fullscreenenter"",""1"",""3831""
","
","","","","","","2501.9000000001397","images/cat2.png","","","memory_trial","3","maybe_new",""
"html-keyboard-response","103","333191","0.0-18.0-0.30","6383","approach_avoid_sv1","""event"",""trial"",""time""
""fullscreenenter"",""1"",""3831""
","
","
","""event"",""trial"",""time""
""fullscreenenter"",""1"",""3831""
","
","","","","","","null","<div style=""font-size:60px;"">+</div>","null","","fixation","","",""
"memory-trial","104","335641","0.0-18.0-1.30","6383","approach_avoid_sv1","""event"",""trial"",""time""
""fullscreenenter"",""1"",""3831""
","
","
","""event"",""trial"",""time""
""fullscreenenter"",""1"",""3831""
","
","","","","","","1422.6000000000931","images/cat5.png","","","memory_trial","2","maybe_old",""
"html-keyboard-response","105","336152","0.0-18.0-0.31","6383","approach_avoid_sv1","""event"",""trial"",""time""
""fullscreenenter"",""1"",""3831""
","
","
","""event"",""trial"",""time""
""fullscreenenter"",""1"",""3831""
","
","","","","","","null","<div style=""font-size:60px;"">+</div>","null","","fixation","","",""
"memory-trial","106","338378","0.0-18.0-1.31","6383","approach_avoid_sv1","""event"",""trial"",""time""
""fullscreenenter"",""1"",""3831""
","
","
","""event"",""trial"",""time""
""fullscreenenter"",""1"",""3831""
","
","","","","","","1206.1000000000931","images/sofa7.png","","","memory_trial","4","definitely_new",""
"html-keyboard-response","107","338892","0.0-18.0-0.32","6383","approach_avoid_sv1","""event"",""trial"",""time""
""fullscreenenter"",""1"",""3831""
","
","
","""event"",""trial"",""time""
""fullscreenenter"",""1"",""3831""
","
","","","","","","null","<div style=""font-size:60px;"">+</div>","null","","fixation","","",""
"memory-trial","108","341238","0.0-18.0-1.32","6383","approach_avoid_sv1","""event"",""trial"",""time""
""fullscreenenter"",""1"",""3831""
","
","
","""event"",""trial"",""time""
""fullscreenenter"",""1"",""3831""
","
","","","","","","1324.1999999999534","images/train1.png","","","memory_trial","4","definitely_new",""
"html-keyboard-response","109","341749","0.0-18.0-0.33","6383","approach_avoid_sv1","""event"",""trial"",""time""
""fullscreenenter"",""1"",""3831""
","
","
","""event"",""trial"",""time""
""fullscreenenter"",""1"",""3831""
","
","","","","","","null","<div style=""font-size:60px;"">+</div>","null","","fixation","","",""
"memory-trial","110","344388","0.0-18.0-1.33","6383","approach_avoid_sv1","""event"",""trial"",""time""
""fullscreenenter"",""1"",""3831""
","
","
","""event"",""trial"",""time""
""fullscreenenter"",""1"",""3831""
","
","","","","","","1622.1999999999534","images/bush5.png","","","memory_trial","4","definitely_new",""
"html-keyboard-response","111","344898","0.0-18.0-0.34","6383","approach_avoid_sv1","""event"",""trial"",""time""
""fullscreenenter"",""1"",""3831""
","
","
","""event"",""trial"",""time""
""fullscreenenter"",""1"",""3831""
","
","","","","","","null","<div style=""font-size:60px;"">+</div>","null","","fixation","","",""
"memory-trial","112","347383","0.0-18.0-1.34","6383","approach_avoid_sv1","""event"",""trial"",""time""
""fullscreenenter"",""1"",""3831""
","
","
","""event"",""trial"",""time""
""fullscreenenter"",""1"",""3831""
","
","","","","","","1459.8999999999069","images/banana5.png","","","memory_trial","4","definitely_new",""
"html-keyboard-response","113","347894","0.0-18.0-0.35","6383","approach_avoid_sv1","""event"",""trial"",""time""
""fullscreenenter"",""1"",""3831""
","
","
","""event"",""trial"",""time""
""fullscreenenter"",""1"",""3831""
","
","","","","","","null","<div style=""font-size:60px;"">+</div>","null","","fixation","","",""
"memory-trial","114","350346","0.0-18.0-1.35","6383","approach_avoid_sv1","""event"",""trial"",""time""
""fullscreenenter"",""1"",""3831""
","
","
","""event"",""trial"",""time""
""fullscreenenter"",""1"",""3831""
","
","","","","","","1436.0999999998603","images/tree8.png","","","memory_trial","4","definitely_new",""
"html-keyboard-response","115","350860","0.0-18.0-0.36","6383","approach_avoid_sv1","""event"",""trial"",""time""
""fullscreenenter"",""1"",""3831""
","
","
","""event"",""trial"",""time""
""fullscreenenter"",""1"",""3831""
","
","","","","","","null","<div style=""font-size:60px;"">+</div>","null","","fixation","","",""
"memory-trial","116","353162","0.0-18.0-1.36","6383","approach_avoid_sv1","""event"",""trial"",""time""
""fullscreenenter"",""1"",""3831""
","
","
","""event"",""trial"",""time""
""fullscreenenter"",""1"",""3831""
","
","","","","","","1277","images/cactus5.png","","","memory_trial","4","definitely_new",""
"html-keyboard-response","117","353672","0.0-18.0-0.37","6383","approach_avoid_sv1","""event"",""trial"",""time""
""fullscreenenter"",""1"",""3831""
","
","
","""event"",""trial"",""time""
""fullscreenenter"",""1"",""3831""
","
","","","","","","null","<div style=""font-size:60px;"">+</div>","null","","fixation","","",""
"memory-trial","118","356086","0.0-18.0-1.37","6383","approach_avoid_sv1","""event"",""trial"",""time""
""fullscreenenter"",""1"",""3831""
","
","
","""event"",""trial"",""time""
""fullscreenenter"",""1"",""3831""
","
","","","","","","1389.5999999998603","images/dog3.png","","","memory_trial","1","definitely_old",""
"html-keyboard-response","119","356594","0.0-18.0-0.38","6383","approach_avoid_sv1","""event"",""trial"",""time""
""fullscreenenter"",""1"",""3831""
","
","
","""event"",""trial"",""time""
""fullscreenenter"",""1"",""3831""
","
","","","","","","null","<div style=""font-size:60px;"">+</div>","null","","fixation","","",""
"memory-trial","120","358812","0.0-18.0-1.38","6383","approach_avoid_sv1","""event"",""trial"",""time""
""fullscreenenter"",""1"",""3831""
","
","
","""event"",""trial"",""time""
""fullscreenenter"",""1"",""3831""
","
","","","","","","1189.1999999999534","images/dog2.png","","","memory_trial","4","definitely_new",""
"html-keyboard-response","121","359326","0.0-18.0-0.39","6383","approach_avoid_sv1","""event"",""trial"",""time""
""fullscreenenter"",""1"",""3831""
","
","
","""event"",""trial"",""time""
""fullscreenenter"",""1"",""3831""
","
","","","","","","null","<div style=""font-size:60px;"">+</div>","null","","fixation","","",""
"memory-trial","122","362125","0.0-18.0-1.39","6383","approach_avoid_sv1","""event"",""trial"",""time""
""fullscreenenter"",""1"",""3831""
","
","
","""event"",""trial"",""time""
""fullscreenenter"",""1"",""3831""
","
","","","","","","1780.5999999998603","images/sofa5.png","","","memory_trial","1","definitely_old",""
"html-keyboard-response","123","362642","0.0-18.0-0.40","6383","approach_avoid_sv1","""event"",""trial"",""time""
""fullscreenenter"",""1"",""3831""
","
","
","""event"",""trial"",""time""
""fullscreenenter"",""1"",""3831""
","
","","","","","","null","<div style=""font-size:60px;"">+</div>","null","","fixation","","",""
"memory-trial","124","365028","0.0-18.0-1.40","6383","approach_avoid_sv1","""event"",""trial"",""time""
""fullscreenenter"",""1"",""3831""
","
","
","""event"",""trial"",""time""
""fullscreenenter"",""1"",""3831""
","
","","","","","","1357.1999999999534","images/straw3.png","","","memory_trial","4","definitely_new",""
"html-keyboard-response","125","365537","0.0-18.0-0.41","6383","approach_avoid_sv1","""event"",""trial"",""time""
""fullscreenenter"",""1"",""3831""
","
","
","""event"",""trial"",""time""
""fullscreenenter"",""1"",""3831""
","
","","","","","","null","<div style=""font-size:60px;"">+</div>","null","","fixation","","",""
"memory-trial","126","367936","0.0-18.0-1.41","6383","approach_avoid_sv1","""event"",""trial"",""time""
""fullscreenenter"",""1"",""3831""
","
","
","""event"",""trial"",""time""
""fullscreenenter"",""1"",""3831""
","
","","","","","","1371.8000000000466","images/banana2.png","","","memory_trial","1","definitely_old",""
"html-button-response","127","371911","0.0-18.0-2.41-0.41","6383","approach_avoid_sv1","""event"",""trial"",""time""
""fullscreenenter"",""1"",""3831""
","
","
","""event"",""trial"",""time""
""fullscreenenter"",""1"",""3831""
","
","","","","","","3969.100000000093","<p> Take a break! </p><p> Click the button to continue. </p>","0","","break","","",""
"html-keyboard-response","128","372430","0.0-18.0-0.42","6383","approach_avoid_sv1","""event"",""trial"",""time""
""fullscreenenter"",""1"",""3831""
","
","
","""event"",""trial"",""time""
""fullscreenenter"",""1"",""3831""
","
","","","","","","null","<div style=""font-size:60px;"">+</div>","null","","fixation","","",""
"memory-trial","129","375633","0.0-18.0-1.42","6383","approach_avoid_sv1","""event"",""trial"",""time""
""fullscreenenter"",""1"",""3831""
","
","
","""event"",""trial"",""time""
""fullscreenenter"",""1"",""3831""
","
","","","","","","2176.5","images/rabbit3.png","","","memory_trial","4","definitely_new",""
"html-keyboard-response","130","376140","0.0-18.0-0.43","6383","approach_avoid_sv1","""event"",""trial"",""time""
""fullscreenenter"",""1"",""3831""
","
","
","""event"",""trial"",""time""
""fullscreenenter"",""1"",""3831""
","
","","","","","","null","<div style=""font-size:60px;"">+</div>","null","","fixation","","",""
"memory-trial","131","379510","0.0-18.0-1.43","6383","approach_avoid_sv1","""event"",""trial"",""time""
""fullscreenenter"",""1"",""3831""
","
","
","""event"",""trial"",""time""
""fullscreenenter"",""1"",""3831""
","
","","","","","","2348.600000000093","images/horse7.png","","","memory_trial","4","definitely_new",""
"html-keyboard-response","132","380024","0.0-18.0-0.44","6383","approach_avoid_sv1","""event"",""trial"",""time""
""fullscreenenter"",""1"",""3831""
","
","
","""event"",""trial"",""time""
""fullscreenenter"",""1"",""3831""
","
","","","","","","null","<div style=""font-size:60px;"">+</div>","null","","fixation","","",""
"memory-trial","133","382919","0.0-18.0-1.44","6383","approach_avoid_sv1","""event"",""trial"",""time""
""fullscreenenter"",""1"",""3831""
","
","
","""event"",""trial"",""time""
""fullscreenenter"",""1"",""3831""
","
","","","","","","1868.8999999999069","images/rodent4.png","","","memory_trial","4","definitely_new",""
"html-keyboard-response","134","383426","0.0-18.0-0.45","6383","approach_avoid_sv1","""event"",""trial"",""time""
""fullscreenenter"",""1"",""3831""
","
","
","""event"",""trial"",""time""
""fullscreenenter"",""1"",""3831""
","
","","","","","","null","<div style=""font-size:60px;"">+</div>","null","","fixation","","",""
"memory-trial","135","386503","0.0-18.0-1.45","6383","approach_avoid_sv1","""event"",""trial"",""time""
""fullscreenenter"",""1"",""3831""
","
","
","""event"",""trial"",""time""
""fullscreenenter"",""1"",""3831""
","
","","","","","","2048.3000000000466","images/boat6.png","","","memory_trial","4","definitely_new",""
"html-keyboard-response","136","387013","0.0-18.0-0.46","6383","approach_avoid_sv1","""event"",""trial"",""time""
""fullscreenenter"",""1"",""3831""
","
","
","""event"",""trial"",""time""
""fullscreenenter"",""1"",""3831""
","
","","","","","","null","<div style=""font-size:60px;"">+</div>","null","","fixation","","",""
"memory-trial","137","390020","0.0-18.0-1.46","6383","approach_avoid_sv1","""event"",""trial"",""time""
""fullscreenenter"",""1"",""3831""
","
","
","""event"",""trial"",""time""
""fullscreenenter"",""1"",""3831""
","
","","","","","","1984.2000000001863","images/boat2.png","","","memory_trial","1","definitely_old",""
"html-keyboard-response","138","390526","0.0-18.0-0.47","6383","approach_avoid_sv1","""event"",""trial"",""time""
""fullscreenenter"",""1"",""3831""
","
","
","""event"",""trial"",""time""
""fullscreenenter"",""1"",""3831""
","
","","","","","","null","<div style=""font-size:60px;"">+</div>","null","","fixation","","",""
"memory-trial","139","394611","0.0-18.0-1.47","6383","approach_avoid_sv1","""event"",""trial"",""time""
""fullscreenenter"",""1"",""3831""
","
","
","""event"",""trial"",""time""
""fullscreenenter"",""1"",""3831""
","
","","","","","","3057.7000000001863","images/chair8.png","","","memory_trial","4","definitely_new",""
"html-keyboard-response","140","395128","0.0-18.0-0.48","6383","approach_avoid_sv1","""event"",""trial"",""time""
""fullscreenenter"",""1"",""3831""
","
","
","""event"",""trial"",""time""
""fullscreenenter"",""1"",""3831""
","
","","","","","","null","<div style=""font-size:60px;"">+</div>","null","","fixation","","",""
"memory-trial","141","397471","0.0-18.0-1.48","6383","approach_avoid_sv1","""event"",""trial"",""time""
""fullscreenenter"",""1"",""3831""
","
","
","""event"",""trial"",""time""
""fullscreenenter"",""1"",""3831""
","
","","","","","","1312.9000000001397","images/tree7.png","","","memory_trial","4","definitely_new",""
"html-keyboard-response","142","397980","0.0-18.0-0.49","6383","approach_avoid_sv1","""event"",""trial"",""time""
""fullscreenenter"",""1"",""3831""
","
","
","""event"",""trial"",""time""
""fullscreenenter"",""1"",""3831""
","
","","","","","","null","<div style=""font-size:60px;"">+</div>","null","","fixation","","",""
"memory-trial","143","401564","0.0-18.0-1.49","6383","approach_avoid_sv1","""event"",""trial"",""time""
""fullscreenenter"",""1"",""3831""
","
","
","""event"",""trial"",""time""
""fullscreenenter"",""1"",""3831""
","
","","","","","","2565.3000000000466","images/flower8.png","","","memory_trial","2","maybe_old",""
"html-keyboard-response","144","402078","0.0-18.0-0.50","6383","approach_avoid_sv1","""event"",""trial"",""time""
""fullscreenenter"",""1"",""3831""
","
","
","""event"",""trial"",""time""
""fullscreenenter"",""1"",""3831""
","
","","","","","","null","<div style=""font-size:60px;"">+</div>","null","","fixation","","",""
"memory-trial","145","406223","0.0-18.0-1.50","6383","approach_avoid_sv1","""event"",""trial"",""time""
""fullscreenenter"",""1"",""3831""
","
","
","""event"",""trial"",""time""
""fullscreenenter"",""1"",""3831""
","
","","","","","","3117.600000000093","images/rodent3.png","","","memory_trial","1","definitely_old",""
"html-keyboard-response","146","406731","0.0-18.0-0.51","6383","approach_avoid_sv1","""event"",""trial"",""time""
""fullscreenenter"",""1"",""3831""
","
","
","""event"",""trial"",""time""
""fullscreenenter"",""1"",""3831""
","
","","","","","","null","<div style=""font-size:60px;"">+</div>","null","","fixation","","",""
"memory-trial","147","409045","0.0-18.0-1.51","6383","approach_avoid_sv1","""event"",""trial"",""time""
""fullscreenenter"",""1"",""3831""
","
","
","""event"",""trial"",""time""
""fullscreenenter"",""1"",""3831""
","
","","","","","","1292.4000000001397","images/chair2.png","","","memory_trial","4","definitely_new",""
"html-keyboard-response","148","409561","0.0-18.0-0.52","6383","approach_avoid_sv1","""event"",""trial"",""time""
""fullscreenenter"",""1"",""3831""
","
","
","""event"",""trial"",""time""
""fullscreenenter"",""1"",""3831""
","
","","","","","","null","<div style=""font-size:60px;"">+</div>","null","","fixation","","",""
"memory-trial","149","412235","0.0-18.0-1.52","6383","approach_avoid_sv1","""event"",""trial"",""time""
""fullscreenenter"",""1"",""3831""
","
","
","""event"",""trial"",""time""
""fullscreenenter"",""1"",""3831""
","
","","","","","","1654.0999999998603","images/horse2.png","","","memory_trial","1","definitely_old",""
"html-keyboard-response","150","412751","0.0-18.0-0.53","6383","approach_avoid_sv1","""event"",""trial"",""time""
""fullscreenenter"",""1"",""3831""
","
","
","""event"",""trial"",""time""
""fullscreenenter"",""1"",""3831""
","
","","","","","","null","<div style=""font-size:60px;"">+</div>","null","","fixation","","",""
"memory-trial","151","415101","0.0-18.0-1.53","6383","approach_avoid_sv1","""event"",""trial"",""time""
""fullscreenenter"",""1"",""3831""
","
","
","""event"",""trial"",""time""
""fullscreenenter"",""1"",""3831""
","
","","","","","","1324.6999999999534","images/bed7.png","","","memory_trial","1","definitely_old",""
"html-keyboard-response","152","415616","0.0-18.0-0.54","6383","approach_avoid_sv1","""event"",""trial"",""time""
""fullscreenenter"",""1"",""3831""
","
","
","""event"",""trial"",""time""
""fullscreenenter"",""1"",""3831""
","
","","","","","","null","<div style=""font-size:60px;"">+</div>","null","","fixation","","",""
"memory-trial","153","417932","0.0-18.0-1.54","6383","approach_avoid_sv1","""event"",""trial"",""time""
""fullscreenenter"",""1"",""3831""
","
","
","""event"",""trial"",""time""
""fullscreenenter"",""1"",""3831""
","
","","","","","","1300.5","images/flower5.png","","","memory_trial","4","definitely_new",""
"html-keyboard-response","154","418445","0.0-18.0-0.55","6383","approach_avoid_sv1","""event"",""trial"",""time""
""fullscreenenter"",""1"",""3831""
","
","
","""event"",""trial"",""time""
""fullscreenenter"",""1"",""3831""
","
","","","","","","null","<div style=""font-size:60px;"">+</div>","null","","fixation","","",""
"memory-trial","155","420528","0.0-18.0-1.55","6383","approach_avoid_sv1","""event"",""trial"",""time""
""fullscreenenter"",""1"",""3831""
","
","
","""event"",""trial"",""time""
""fullscreenenter"",""1"",""3831""
","
","","","","","","1061.1000000000931","images/table8.png","","","memory_trial","4","definitely_new",""
"html-keyboard-response","156","421039","0.0-18.0-0.56","6383","approach_avoid_sv1","""event"",""trial"",""time""
""fullscreenenter"",""1"",""3831""
","
","
","""event"",""trial"",""time""
""fullscreenenter"",""1"",""3831""
","
","","","","","","null","<div style=""font-size:60px;"">+</div>","null","","fixation","","",""
"memory-trial","157","423456","0.0-18.0-1.56","6383","approach_avoid_sv1","""event"",""trial"",""time""
""fullscreenenter"",""1"",""3831""
","
","
","""event"",""trial"",""time""
""fullscreenenter"",""1"",""3831""
","
","","","","","","1387.3000000000466","images/plane5.png","","","memory_trial","1","definitely_old",""
"html-keyboard-response","158","423967","0.0-18.0-0.57","6383","approach_avoid_sv1","""event"",""trial"",""time""
""fullscreenenter"",""1"",""3831""
","
","
","""event"",""trial"",""time""
""fullscreenenter"",""1"",""3831""
","
","","","","","","null","<div style=""font-size:60px;"">+</div>","null","","fixation","","",""
"memory-trial","159","426335","0.0-18.0-1.57","6383","approach_avoid_sv1","""event"",""trial"",""time""
""fullscreenenter"",""1"",""3831""
","
","
","""event"",""trial"",""time""
""fullscreenenter"",""1"",""3831""
","
","","","","","","1344.6999999999534","images/cow4.png","","","memory_trial","4","definitely_new",""
"html-keyboard-response","160","426845","0.0-18.0-0.58","6383","approach_avoid_sv1","""event"",""trial"",""time""
""fullscreenenter"",""1"",""3831""
","
","
","""event"",""trial"",""time""
""fullscreenenter"",""1"",""3831""
","
","","","","","","null","<div style=""font-size:60px;"">+</div>","null","","fixation","","",""
"memory-trial","161","429882","0.0-18.0-1.58","6383","approach_avoid_sv1","""event"",""trial"",""time""
""fullscreenenter"",""1"",""3831""
","
","
","""event"",""trial"",""time""
""fullscreenenter"",""1"",""3831""
","
","","","","","","2003.5999999998603","images/apple5.png","","","memory_trial","4","definitely_new",""
"html-keyboard-response","162","430395","0.0-18.0-0.59","6383","approach_avoid_sv1","""event"",""trial"",""time""
""fullscreenenter"",""1"",""3831""
","
","
","""event"",""trial"",""time""
""fullscreenenter"",""1"",""3831""
","
","","","","","","null","<div style=""font-size:60px;"">+</div>","null","","fixation","","",""
"memory-trial","163","433080","0.0-18.0-1.59","6383","approach_avoid_sv1","""event"",""trial"",""time""
""fullscreenenter"",""1"",""3831""
","
","
","""event"",""trial"",""time""
""fullscreenenter"",""1"",""3831""
","
","","","","","","1666.7000000001863","images/truck6.png","","","memory_trial","4","definitely_new",""
"html-keyboard-response","164","433589","0.0-18.0-0.60","6383","approach_avoid_sv1","""event"",""trial"",""time""
""fullscreenenter"",""1"",""3831""
","
","
","""event"",""trial"",""time""
""fullscreenenter"",""1"",""3831""
","
","","","","","","null","<div style=""font-size:60px;"">+</div>","null","","fixation","","",""
"memory-trial","165","436353","0.0-18.0-1.60","6383","approach_avoid_sv1","""event"",""trial"",""time""
""fullscreenenter"",""1"",""3831""
","
","
","""event"",""trial"",""time""
""fullscreenenter"",""1"",""3831""
","
","","","","","","1740","images/straw2.png","","","memory_trial","3","maybe_new",""
"html-keyboard-response","166","436862","0.0-18.0-0.61","6383","approach_avoid_sv1","""event"",""trial"",""time""
""fullscreenenter"",""1"",""3831""
","
","
","""event"",""trial"",""time""
""fullscreenenter"",""1"",""3831""
","
","","","","","","null","<div style=""font-size:60px;"">+</div>","null","","fixation","","",""
"memory-trial","167","439691","0.0-18.0-1.61","6383","approach_avoid_sv1","""event"",""trial"",""time""
""fullscreenenter"",""1"",""3831""
","
","
","""event"",""trial"",""time""
""fullscreenenter"",""1"",""3831""
","
","","","","","","1763.8000000000466","images/dog8.png","","","memory_trial","4","definitely_new",""
"html-keyboard-response","168","440202","0.0-18.0-0.62","6383","approach_avoid_sv1","""event"",""trial"",""time""
""fullscreenenter"",""1"",""3831""
","
","
","""event"",""trial"",""time""
""fullscreenenter"",""1"",""3831""
","
","","","","","","null","<div style=""font-size:60px;"">+</div>","null","","fixation","","",""
"memory-trial","169","442600","0.0-18.0-1.62","6383","approach_avoid_sv1","""event"",""trial"",""time""
""fullscreenenter"",""1"",""3831""
","
","
","""event"",""trial"",""time""
""fullscreenenter"",""1"",""3831""
","
","","","","","","1376.3000000000466","images/goat4.png","","","memory_trial","1","definitely_old",""
"html-keyboard-response","170","443113","0.0-18.0-0.63","6383","approach_avoid_sv1","""event"",""trial"",""time""
""fullscreenenter"",""1"",""3831""
","
","
","""event"",""trial"",""time""
""fullscreenenter"",""1"",""3831""
","
","","","","","","null","<div style=""font-size:60px;"">+</div>","null","","fixation","","",""
"memory-trial","171","446109","0.0-18.0-1.63","6383","approach_avoid_sv1","""event"",""trial"",""time""
""fullscreenenter"",""1"",""3831""
","
","
","""event"",""trial"",""time""
""fullscreenenter"",""1"",""3831""
","
","","","","","","1972.0999999998603","images/orange7.png","","","memory_trial","1","definitely_old",""
"html-keyboard-response","172","446625","0.0-18.0-0.64","6383","approach_avoid_sv1","""event"",""trial"",""time""
""fullscreenenter"",""1"",""3831""
","
","
","""event"",""trial"",""time""
""fullscreenenter"",""1"",""3831""
","
","","","","","","null","<div style=""font-size:60px;"">+</div>","null","","fixation","","",""
"memory-trial","173","448634","0.0-18.0-1.64","6383","approach_avoid_sv1","""event"",""trial"",""time""
""fullscreenenter"",""1"",""3831""
","
","
","""event"",""trial"",""time""
""fullscreenenter"",""1"",""3831""
","
","","","","","","987.2999999998137","images/tree2.png","","","memory_trial","4","definitely_new",""
"html-keyboard-response","174","449147","0.0-18.0-0.65","6383","approach_avoid_sv1","""event"",""trial"",""time""
""fullscreenenter"",""1"",""3831""
","
","
","""event"",""trial"",""time""
""fullscreenenter"",""1"",""3831""
","
","","","","","","null","<div style=""font-size:60px;"">+</div>","null","","fixation","","",""
"memory-trial","175","451616","0.0-18.0-1.65","6383","approach_avoid_sv1","""event"",""trial"",""time""
""fullscreenenter"",""1"",""3831""
","
","
","""event"",""trial"",""time""
""fullscreenenter"",""1"",""3831""
","
","","","","","","1445.8000000000466","images/cow7.png","","","memory_trial","4","definitely_new",""
"html-keyboard-response","176","452136","0.0-18.0-0.66","6383","approach_avoid_sv1","""event"",""trial"",""time""
""fullscreenenter"",""1"",""3831""
","
","
","""event"",""trial"",""time""
""fullscreenenter"",""1"",""3831""
","
","","","","","","null","<div style=""font-size:60px;"">+</div>","null","","fixation","","",""
"memory-trial","177","454512","0.0-18.0-1.66","6383","approach_avoid_sv1","""event"",""trial"",""time""
""fullscreenenter"",""1"",""3831""
","
","
","""event"",""trial"",""time""
""fullscreenenter"",""1"",""3831""
","
","","","","","","1349.3999999999069","images/sofa4.png","","","memory_trial","4","definitely_new",""
"html-keyboard-response","178","455025","0.0-18.0-0.67","6383","approach_avoid_sv1","""event"",""trial"",""time""
""fullscreenenter"",""1"",""3831""
","
","
","""event"",""trial"",""time""
""fullscreenenter"",""1"",""3831""
","
","","","","","","null","<div style=""font-size:60px;"">+</div>","null","","fixation","","",""
"memory-trial","179","457532","0.0-18.0-1.67","6383","approach_avoid_sv1","""event"",""trial"",""time""
""fullscreenenter"",""1"",""3831""
","
","
","""event"",""trial"",""time""
""fullscreenenter"",""1"",""3831""
","
","","","","","","1480.9000000001397","images/horse4.png","","","memory_trial","4","definitely_new",""
"html-keyboard-response","180","458047","0.0-18.0-0.68","6383","approach_avoid_sv1","""event"",""trial"",""time""
""fullscreenenter"",""1"",""3831""
","
","
","""event"",""trial"",""time""
""fullscreenenter"",""1"",""3831""
","
","","","","","","null","<div style=""font-size:60px;"">+</div>","null","","fixation","","",""
"memory-trial","181","460135","0.0-18.0-1.68","6383","approach_avoid_sv1","""event"",""trial"",""time""
""fullscreenenter"",""1"",""3831""
","
","
","""event"",""trial"",""time""
""fullscreenenter"",""1"",""3831""
","
","","","","","","1063.8000000000466","images/train6.png","","","memory_trial","1","definitely_old",""
"html-keyboard-response","182","460651","0.0-18.0-0.69","6383","approach_avoid_sv1","""event"",""trial"",""time""
""fullscreenenter"",""1"",""3831""
","
","
","""event"",""trial"",""time""
""fullscreenenter"",""1"",""3831""
","
","","","","","","null","<div style=""font-size:60px;"">+</div>","null","","fixation","","",""
"memory-trial","183","463513","0.0-18.0-1.69","6383","approach_avoid_sv1","""event"",""trial"",""time""
""fullscreenenter"",""1"",""3831""
","
","
","""event"",""trial"",""time""
""fullscreenenter"",""1"",""3831""
","
","","","","","","1839.5999999998603","images/sheep5.png","","","memory_trial","1","definitely_old",""
"html-keyboard-response","184","464021","0.0-18.0-0.70","6383","approach_avoid_sv1","""event"",""trial"",""time""
""fullscreenenter"",""1"",""3831""
","
","
","""event"",""trial"",""time""
""fullscreenenter"",""1"",""3831""
","
","","","","","","null","<div style=""font-size:60px;"">+</div>","null","","fixation","","",""
"memory-trial","185","466676","0.0-18.0-1.70","6383","approach_avoid_sv1","""event"",""trial"",""time""
""fullscreenenter"",""1"",""3831""
","
","
","""event"",""trial"",""time""
""fullscreenenter"",""1"",""3831""
","
","","","","","","1637.9000000001397","images/sofa3.png","","","memory_trial","1","definitely_old",""
"html-keyboard-response","186","467193","0.0-18.0-0.71","6383","approach_avoid_sv1","""event"",""trial"",""time""
""fullscreenenter"",""1"",""3831""
","
","
","""event"",""trial"",""time""
""fullscreenenter"",""1"",""3831""
","
","","","","","","null","<div style=""font-size:60px;"">+</div>","null","","fixation","","",""
"memory-trial","187","470442","0.0-18.0-1.71","6383","approach_avoid_sv1","""event"",""trial"",""time""
""fullscreenenter"",""1"",""3831""
","
","
","""event"",""trial"",""time""
""fullscreenenter"",""1"",""3831""
","
","","","","","","2217.6999999999534","images/chair3.png","","","memory_trial","4","definitely_new",""
"html-keyboard-response","188","470947","0.0-18.0-0.72","6383","approach_avoid_sv1","""event"",""trial"",""time""
""fullscreenenter"",""1"",""3831""
","
","
","""event"",""trial"",""time""
""fullscreenenter"",""1"",""3831""
","
","","","","","","null","<div style=""font-size:60px;"">+</div>","null","","fixation","","",""
"memory-trial","189","474170","0.0-18.0-1.72","6383","approach_avoid_sv1","""event"",""trial"",""time""
""fullscreenenter"",""1"",""3831""
","
","
","""event"",""trial"",""time""
""fullscreenenter"",""1"",""3831""
","
","","","","","","2204.1999999999534","images/train3.png","","","memory_trial","4","definitely_new",""
"html-keyboard-response","190","474686","0.0-18.0-0.73","6383","approach_avoid_sv1","""event"",""trial"",""time""
""fullscreenenter"",""1"",""3831""
","
","
","""event"",""trial"",""time""
""fullscreenenter"",""1"",""3831""
","
","","","","","","null","<div style=""font-size:60px;"">+</div>","null","","fixation","","",""
"memory-trial","191","477346","0.0-18.0-1.73","6383","approach_avoid_sv1","""event"",""trial"",""time""
""fullscreenenter"",""1"",""3831""
","
","
","""event"",""trial"",""time""
""fullscreenenter"",""1"",""3831""
","
","","","","","","1633.1999999999534","images/plane1.png","","","memory_trial","4","definitely_new",""
"html-keyboard-response","192","477859","0.0-18.0-0.74","6383","approach_avoid_sv1","""event"",""trial"",""time""
""fullscreenenter"",""1"",""3831""
","
","
","""event"",""trial"",""time""
""fullscreenenter"",""1"",""3831""
","
","","","","","","null","<div style=""font-size:60px;"">+</div>","null","","fixation","","",""
"memory-trial","193","480180","0.0-18.0-1.74","6383","approach_avoid_sv1","""event"",""trial"",""time""
""fullscreenenter"",""1"",""3831""
","
","
","""event"",""trial"",""time""
""fullscreenenter"",""1"",""3831""
","
","","","","","","1304","images/sofa2.png","","","memory_trial","4","definitely_new",""
"html-keyboard-response","194","480698","0.0-18.0-0.75","6383","approach_avoid_sv1","""event"",""trial"",""time""
""fullscreenenter"",""1"",""3831""
","
","
","""event"",""trial"",""time""
""fullscreenenter"",""1"",""3831""
","
","","","","","","null","<div style=""font-size:60px;"">+</div>","null","","fixation","","",""
"memory-trial","195","483919","0.0-18.0-1.75","6383","approach_avoid_sv1","""event"",""trial"",""time""
""fullscreenenter"",""1"",""3831""
","
","
","""event"",""trial"",""time""
""fullscreenenter"",""1"",""3831""
","
","","","","","","2197.0999999998603","images/rabbit7.png","","","memory_trial","4","definitely_new",""
"html-keyboard-response","196","484427","0.0-18.0-0.76","6383","approach_avoid_sv1","""event"",""trial"",""time""
""fullscreenenter"",""1"",""3831""
","
","
","""event"",""trial"",""time""
""fullscreenenter"",""1"",""3831""
","
","","","","","","null","<div style=""font-size:60px;"">+</div>","null","","fixation","","",""
"memory-trial","197","487105","0.0-18.0-1.76","6383","approach_avoid_sv1","""event"",""trial"",""time""
""fullscreenenter"",""1"",""3831""
","
","
","""event"",""trial"",""time""
""fullscreenenter"",""1"",""3831""
","
","","","","","","1647.5999999998603","images/bed1.png","","","memory_trial","1","definitely_old",""
"html-keyboard-response","198","487612","0.0-18.0-0.77","6383","approach_avoid_sv1","""event"",""trial"",""time""
""fullscreenenter"",""1"",""3831""
","
","
","""event"",""trial"",""time""
""fullscreenenter"",""1"",""3831""
","
","","","","","","null","<div style=""font-size:60px;"">+</div>","null","","fixation","","",""
"memory-trial","199","490725","0.0-18.0-1.77","6383","approach_avoid_sv1","""event"",""trial"",""time""
""fullscreenenter"",""1"",""3831""
","
","
","""event"",""trial"",""time""
""fullscreenenter"",""1"",""3831""
","
","","","","","","2092.8000000000466","images/chair5.png","","","memory_trial","4","definitely_new",""
"html-keyboard-response","200","491244","0.0-18.0-0.78","6383","approach_avoid_sv1","""event"",""trial"",""time""
""fullscreenenter"",""1"",""3831""
","
","
","""event"",""trial"",""time""
""fullscreenenter"",""1"",""3831""
","
","","","","","","null","<div style=""font-size:60px;"">+</div>","null","","fixation","","",""
"memory-trial","201","494160","0.0-18.0-1.78","6383","approach_avoid_sv1","""event"",""trial"",""time""
""fullscreenenter"",""1"",""3831""
","
","
","""event"",""trial"",""time""
""fullscreenenter"",""1"",""3831""
","
","","","","","","1894.6999999999534","images/cow1.png","","","memory_trial","4","definitely_new",""
"html-keyboard-response","202","494668","0.0-18.0-0.79","6383","approach_avoid_sv1","""event"",""trial"",""time""
""fullscreenenter"",""1"",""3831""
","
","
","""event"",""trial"",""time""
""fullscreenenter"",""1"",""3831""
","
","","","","","","null","<div style=""font-size:60px;"">+</div>","null","","fixation","","",""
"memory-trial","203","497243","0.0-18.0-1.79","6383","approach_avoid_sv1","""event"",""trial"",""time""
""fullscreenenter"",""1"",""3831""
","
","
","""event"",""trial"",""time""
""fullscreenenter"",""1"",""3831""
","
","","","","","","1546.6999999999534","images/bush3.png","","","memory_trial","1","definitely_old",""
"html-keyboard-response","204","497750","0.0-18.0-0.80","6383","approach_avoid_sv1","""event"",""trial"",""time""
""fullscreenenter"",""1"",""3831""
","
","
","""event"",""trial"",""time""
""fullscreenenter"",""1"",""3831""
","
","","","","","","null","<div style=""font-size:60px;"">+</div>","null","","fixation","","",""
"memory-trial","205","499914","0.0-18.0-1.80","6383","approach_avoid_sv1","""event"",""trial"",""time""
""fullscreenenter"",""1"",""3831""
","
","
","""event"",""trial"",""time""
""fullscreenenter"",""1"",""3831""
","
","","","","","","1136.6999999999534","images/train4.png","","","memory_trial","4","definitely_new",""
"html-keyboard-response","206","500421","0.0-18.0-0.81","6383","approach_avoid_sv1","""event"",""trial"",""time""
""fullscreenenter"",""1"",""3831""
","
","
","""event"",""trial"",""time""
""fullscreenenter"",""1"",""3831""
","
","","","","","","null","<div style=""font-size:60px;"">+</div>","null","","fixation","","",""
"memory-trial","207","503024","0.0-18.0-1.81","6383","approach_avoid_sv1","""event"",""trial"",""time""
""fullscreenenter"",""1"",""3831""
","
","
","""event"",""trial"",""time""
""fullscreenenter"",""1"",""3831""
","
","","","","","","1581.3000000000466","images/chair4.png","","","memory_trial","4","definitely_new",""
"html-keyboard-response","208","503540","0.0-18.0-0.82","6383","approach_avoid_sv1","""event"",""trial"",""time""
""fullscreenenter"",""1"",""3831""
","
","
","""event"",""trial"",""time""
""fullscreenenter"",""1"",""3831""
","
","","","","","","null","<div style=""font-size:60px;"">+</div>","null","","fixation","","",""
"memory-trial","209","506284","0.0-18.0-1.82","6383","approach_avoid_sv1","""event"",""trial"",""time""
""fullscreenenter"",""1"",""3831""
","
","
","""event"",""trial"",""time""
""fullscreenenter"",""1"",""3831""
","
","","","","","","1719.8000000000466","images/bed6.png","","","memory_trial","1","definitely_old",""
"html-keyboard-response","210","506798","0.0-18.0-0.83","6383","approach_avoid_sv1","""event"",""trial"",""time""
""fullscreenenter"",""1"",""3831""
","
","
","""event"",""trial"",""time""
""fullscreenenter"",""1"",""3831""
","
","","","","","","null","<div style=""font-size:60px;"">+</div>","null","","fixation","","",""
"memory-trial","211","509173","0.0-18.0-1.83","6383","approach_avoid_sv1","""event"",""trial"",""time""
""fullscreenenter"",""1"",""3831""
","
","
","""event"",""trial"",""time""
""fullscreenenter"",""1"",""3831""
","
","","","","","","1360.5","images/plane4.png","","","memory_trial","4","definitely_new",""
"html-keyboard-response","212","509689","0.0-18.0-0.84","6383","approach_avoid_sv1","""event"",""trial"",""time""
""fullscreenenter"",""1"",""3831""
","
","
","""event"",""trial"",""time""
""fullscreenenter"",""1"",""3831""
","
","","","","","","null","<div style=""font-size:60px;"">+</div>","null","","fixation","","",""
"memory-trial","213","512204","0.0-18.0-1.84","6383","approach_avoid_sv1","""event"",""trial"",""time""
""fullscreenenter"",""1"",""3831""
","
","
","""event"",""trial"",""time""
""fullscreenenter"",""1"",""3831""
","
","","","","","","1483.6000000000931","images/straw7.png","","","memory_trial","4","definitely_new",""
"html-keyboard-response","214","512722","0.0-18.0-0.85","6383","approach_avoid_sv1","""event"",""trial"",""time""
""fullscreenenter"",""1"",""3831""
","
","
","""event"",""trial"",""time""
""fullscreenenter"",""1"",""3831""
","
","","","","","","null","<div style=""font-size:60px;"">+</div>","null","","fixation","","",""
"memory-trial","215","514625","0.0-18.0-1.85","6383","approach_avoid_sv1","""event"",""trial"",""time""
""fullscreenenter"",""1"",""3831""
","
","
","""event"",""trial"",""time""
""fullscreenenter"",""1"",""3831""
","
","","","","","","876.1000000000931","images/boat1.png","","","memory_trial","1","definitely_old",""
"html-keyboard-response","216","515138","0.0-18.0-0.86","6383","approach_avoid_sv1","""event"",""trial"",""time""
""fullscreenenter"",""1"",""3831""
","
","
","""event"",""trial"",""time""
""fullscreenenter"",""1"",""3831""
","
","","","","","","null","<div style=""font-size:60px;"">+</div>","null","","fixation","","",""
"memory-trial","217","517131","0.0-18.0-1.86","6383","approach_avoid_sv1","""event"",""trial"",""time""
""fullscreenenter"",""1"",""3831""
","
","
","""event"",""trial"",""time""
""fullscreenenter"",""1"",""3831""
","
","","","","","","956.4000000001397","images/tree3.png","","","memory_trial","4","definitely_new",""
"html-keyboard-response","218","517640","0.0-18.0-0.87","6383","approach_avoid_sv1","""event"",""trial"",""time""
""fullscreenenter"",""1"",""3831""
","
","
","""event"",""trial"",""time""
""fullscreenenter"",""1"",""3831""
","
","","","","","","null","<div style=""font-size:60px;"">+</div>","null","","fixation","","",""
"memory-trial","219","519365","0.0-18.0-1.87","6383","approach_avoid_sv1","""event"",""trial"",""time""
""fullscreenenter"",""1"",""3831""
","
","
","""event"",""trial"",""time""
""fullscreenenter"",""1"",""3831""
","
","","","","","","705.8999999999069","images/tree1.png","","","memory_trial","1","definitely_old",""
"html-keyboard-response","220","519877","0.0-18.0-0.88","6383","approach_avoid_sv1","""event"",""trial"",""time""
""fullscreenenter"",""1"",""3831""
","
","
","""event"",""trial"",""time""
""fullscreenenter"",""1"",""3831""
","
","","","","","","null","<div style=""font-size:60px;"">+</div>","null","","fixation","","",""
"memory-trial","221","522944","0.0-18.0-1.88","6383","approach_avoid_sv1","""event"",""trial"",""time""
""fullscreenenter"",""1"",""3831""
","
","
","""event"",""trial"",""time""
""fullscreenenter"",""1"",""3831""
","
","","","","","","2045.6999999999534","images/horse8.png","","","memory_trial","1","definitely_old",""
"html-keyboard-response","222","523454","0.0-18.0-0.89","6383","approach_avoid_sv1","""event"",""trial"",""time""
""fullscreenenter"",""1"",""3831""
","
","
","""event"",""trial"",""time""
""fullscreenenter"",""1"",""3831""
","
","","","","","","null","<div style=""font-size:60px;"">+</div>","null","","fixation","","",""
"memory-trial","223","526372","0.0-18.0-1.89","6383","approach_avoid_sv1","""event"",""trial"",""time""
""fullscreenenter"",""1"",""3831""
","
","
","""event"",""trial"",""time""
""fullscreenenter"",""1"",""3831""
","
","","","","","","1894","images/straw6.png","","","memory_trial","4","definitely_new",""
"html-keyboard-response","224","526888","0.0-18.0-0.90","6383","approach_avoid_sv1","""event"",""trial"",""time""
""fullscreenenter"",""1"",""3831""
","
","
","""event"",""trial"",""time""
""fullscreenenter"",""1"",""3831""
","
","","","","","","null","<div style=""font-size:60px;"">+</div>","null","","fixation","","",""
"memory-trial","225","529285","0.0-18.0-1.90","6383","approach_avoid_sv1","""event"",""trial"",""time""
""fullscreenenter"",""1"",""3831""
","
","
","""event"",""trial"",""time""
""fullscreenenter"",""1"",""3831""
","
","","","","","","1372.1999999999534","images/sofa6.png","","","memory_trial","4","definitely_new",""
"html-keyboard-response","226","529802","0.0-18.0-0.91","6383","approach_avoid_sv1","""event"",""trial"",""time""
""fullscreenenter"",""1"",""3831""
","
","
","""event"",""trial"",""time""
""fullscreenenter"",""1"",""3831""
","
","","","","","","null","<div style=""font-size:60px;"">+</div>","null","","fixation","","",""
"memory-trial","227","532449","0.0-18.0-1.91","6383","approach_avoid_sv1","""event"",""trial"",""time""
""fullscreenenter"",""1"",""3831""
","
","
","""event"",""trial"",""time""
""fullscreenenter"",""1"",""3831""
","
","","","","","","1622.7000000001863","images/cactus1.png","","","memory_trial","4","definitely_new",""
"html-button-response","228","564921","0.0-18.0-2.91-0.91","6383","approach_avoid_sv1","""event"",""trial"",""time""
""fullscreenenter"",""1"",""3831""
","
","
","""event"",""trial"",""time""
""fullscreenenter"",""1"",""3831""
","
","","","","","","32467.800000000047","<p> Take a break! </p><p> Click the button to continue. </p>","0","","break","","",""
"html-keyboard-response","229","565438","0.0-18.0-0.92","6383","approach_avoid_sv1","""event"",""trial"",""time""
""fullscreenenter"",""1"",""3831""
","
","
","""event"",""trial"",""time""
""fullscreenenter"",""1"",""3831""
","
","","","","","","null","<div style=""font-size:60px;"">+</div>","null","","fixation","","",""
"memory-trial","230","568097","0.0-18.0-1.92","6383","approach_avoid_sv1","""event"",""trial"",""time""
""fullscreenenter"",""1"",""3831""
","
","
","""event"",""trial"",""time""
""fullscreenenter"",""1"",""3831""
","
","","","","","","1642.5","images/sheep8.png","","","memory_trial","4","definitely_new",""
"html-keyboard-response","231","568610","0.0-18.0-0.93","6383","approach_avoid_sv1","""event"",""trial"",""time""
""fullscreenenter"",""1"",""3831""
","
","
","""event"",""trial"",""time""
""fullscreenenter"",""1"",""3831""
","
","","","","","","null","<div style=""font-size:60px;"">+</div>","null","","fixation","","",""
"memory-trial","232","570905","0.0-18.0-1.93","6383","approach_avoid_sv1","""event"",""trial"",""time""
""fullscreenenter"",""1"",""3831""
","
","
","""event"",""trial"",""time""
""fullscreenenter"",""1"",""3831""
","
","","","","","","1265.2999999998137","images/table4.png","","","memory_trial","1","definitely_old",""
"html-keyboard-response","233","571419","0.0-18.0-0.94","6383","approach_avoid_sv1","""event"",""trial"",""time""
""fullscreenenter"",""1"",""3831""
","
","
","""event"",""trial"",""time""
""fullscreenenter"",""1"",""3831""
","
","","","","","","null","<div style=""font-size:60px;"">+</div>","null","","fixation","","",""
"memory-trial","234","573812","0.0-18.0-1.94","6383","approach_avoid_sv1","""event"",""trial"",""time""
""fullscreenenter"",""1"",""3831""
","
","
","""event"",""trial"",""time""
""fullscreenenter"",""1"",""3831""
","
","","","","","","1375.8999999999069","images/boat7.png","","","memory_trial","4","definitely_new",""
"html-keyboard-response","235","574321","0.0-18.0-0.95","6383","approach_avoid_sv1","""event"",""trial"",""time""
""fullscreenenter"",""1"",""3831""
","
","
","""event"",""trial"",""time""
""fullscreenenter"",""1"",""3831""
","
","","","","","","null","<div style=""font-size:60px;"">+</div>","null","","fixation","","",""
"memory-trial","236","576832","0.0-18.0-1.95","6383","approach_avoid_sv1","""event"",""trial"",""time""
""fullscreenenter"",""1"",""3831""
","
","
","""event"",""trial"",""time""
""fullscreenenter"",""1"",""3831""
","
","","","","","","1478.2999999998137","images/rabbit6.png","","","memory_trial","4","definitely_new",""
"html-keyboard-response","237","577346","0.0-18.0-0.96","6383","approach_avoid_sv1","""event"",""trial"",""time""
""fullscreenenter"",""1"",""3831""
","
","
","""event"",""trial"",""time""
""fullscreenenter"",""1"",""3831""
","
","","","","","","null","<div style=""font-size:60px;"">+</div>","null","","fixation","","",""
"memory-trial","238","579714","0.0-18.0-1.96","6383","approach_avoid_sv1","""event"",""trial"",""time""
""fullscreenenter"",""1"",""3831""
","
","
","""event"",""trial"",""time""
""fullscreenenter"",""1"",""3831""
","
","","","","","","1314","images/goat5.png","","","memory_trial","1","definitely_old",""
"html-keyboard-response","239","580219","0.0-18.0-0.97","6383","approach_avoid_sv1","""event"",""trial"",""time""
""fullscreenenter"",""1"",""3831""
","
","
","""event"",""trial"",""time""
""fullscreenenter"",""1"",""3831""
","
","","","","","","null","<div style=""font-size:60px;"">+</div>","null","","fixation","","",""
"memory-trial","240","582884","0.0-18.0-1.97","6383","approach_avoid_sv1","""event"",""trial"",""time""
""fullscreenenter"",""1"",""3831""
","
","
","""event"",""trial"",""time""
""fullscreenenter"",""1"",""3831""
","
","","","","","","1644.3999999999069","images/horse5.png","","","memory_trial","4","definitely_new",""
"html-keyboard-response","241","583405","0.0-18.0-0.98","6383","approach_avoid_sv1","""event"",""trial"",""time""
""fullscreenenter"",""1"",""3831""
","
","
","""event"",""trial"",""time""
""fullscreenenter"",""1"",""3831""
","
","","","","","","null","<div style=""font-size:60px;"">+</div>","null","","fixation","","",""
"memory-trial","242","586803","0.0-18.0-1.98","6383","approach_avoid_sv1","""event"",""trial"",""time""
""fullscreenenter"",""1"",""3831""
","
","
","""event"",""trial"",""time""
""fullscreenenter"",""1"",""3831""
","
","","","","","","2376.8000000000466","images/flower2.png","","","memory_trial","4","definitely_new",""
"html-keyboard-response","243","587333","0.0-18.0-0.99","6383","approach_avoid_sv1","""event"",""trial"",""time""
""fullscreenenter"",""1"",""3831""
","
","
","""event"",""trial"",""time""
""fullscreenenter"",""1"",""3831""
","
","","","","","","null","<div style=""font-size:60px;"">+</div>","null","","fixation","","",""
"memory-trial","244","590718","0.0-18.0-1.99","6383","approach_avoid_sv1","""event"",""trial"",""time""
""fullscreenenter"",""1"",""3831""
","
","
","""event"",""trial"",""time""
""fullscreenenter"",""1"",""3831""
","
","","","","","","2356.5","images/bush7.png","","","memory_trial","2","maybe_old",""
"html-keyboard-response","245","591231","0.0-18.0-0.100","6383","approach_avoid_sv1","""event"",""trial"",""time""
""fullscreenenter"",""1"",""3831""
","
","
","""event"",""trial"",""time""
""fullscreenenter"",""1"",""3831""
","
","","","","","","null","<div style=""font-size:60px;"">+</div>","null","","fixation","","",""
"memory-trial","246","593984","0.0-18.0-1.100","6383","approach_avoid_sv1","""event"",""trial"",""time""
""fullscreenenter"",""1"",""3831""
","
","
","""event"",""trial"",""time""
""fullscreenenter"",""1"",""3831""
","
","","","","","","1727.6000000000931","images/truck4.png","","","memory_trial","3","maybe_new",""
"html-keyboard-response","247","594495","0.0-18.0-0.101","6383","approach_avoid_sv1","""event"",""trial"",""time""
""fullscreenenter"",""1"",""3831""
","
","
","""event"",""trial"",""time""
""fullscreenenter"",""1"",""3831""
","
","","","","","","null","<div style=""font-size:60px;"">+</div>","null","","fixation","","",""
"memory-trial","248","597525","0.0-18.0-1.101","6383","approach_avoid_sv1","""event"",""trial"",""time""
""fullscreenenter"",""1"",""3831""
","
","
","""event"",""trial"",""time""
""fullscreenenter"",""1"",""3831""
","
","","","","","","1998.6000000000931","images/cat3.png","","","memory_trial","1","definitely_old",""
"html-keyboard-response","249","598084","0.0-18.0-0.102","6383","approach_avoid_sv1","""event"",""trial"",""time""
""fullscreenenter"",""1"",""3831""
","
","
","""event"",""trial"",""time""
""fullscreenenter"",""1"",""3831""
","
","","","","","","null","<div style=""font-size:60px;"">+</div>","null","","fixation","","",""
"memory-trial","250","601214","0.0-18.0-1.102","6383","approach_avoid_sv1","""event"",""trial"",""time""
""fullscreenenter"",""1"",""3831""
","
","
","""event"",""trial"",""time""
""fullscreenenter"",""1"",""3831""
","
","","","","","","2105","images/orange5.png","","","memory_trial","4","definitely_new",""
"html-keyboard-response","251","601725","0.0-18.0-0.103","6383","approach_avoid_sv1","""event"",""trial"",""time""
""fullscreenenter"",""1"",""3831""
","
","
","""event"",""trial"",""time""
""fullscreenenter"",""1"",""3831""
","
","","","","","","null","<div style=""font-size:60px;"">+</div>","null","","fixation","","",""
"memory-trial","252","604604","0.0-18.0-1.103","6383","approach_avoid_sv1","""event"",""trial"",""time""
""fullscreenenter"",""1"",""3831""
","
","
","""event"",""trial"",""time""
""fullscreenenter"",""1"",""3831""
","
","","","","","","1854","images/horse6.png","","","memory_trial","1","definitely_old",""
"html-keyboard-response","253","605119","0.0-18.0-0.104","6383","approach_avoid_sv1","""event"",""trial"",""time""
""fullscreenenter"",""1"",""3831""
","
","
","""event"",""trial"",""time""
""fullscreenenter"",""1"",""3831""
","
","","","","","","null","<div style=""font-size:60px;"">+</div>","null","","fixation","","",""
"memory-trial","254","608276","0.0-18.0-1.104","6383","approach_avoid_sv1","""event"",""trial"",""time""
""fullscreenenter"",""1"",""3831""
","
","
","""event"",""trial"",""time""
""fullscreenenter"",""1"",""3831""
","
","","","","","","2136.8000000000466","images/orange2.png","","","memory_trial","3","maybe_new",""
"html-keyboard-response","255","608795","0.0-18.0-0.105","6383","approach_avoid_sv1","""event"",""trial"",""time""
""fullscreenenter"",""1"",""3831""
","
","
","""event"",""trial"",""time""
""fullscreenenter"",""1"",""3831""
","
","","","","","","null","<div style=""font-size:60px;"">+</div>","null","","fixation","","",""
"memory-trial","256","611800","0.0-18.0-1.105","6383","approach_avoid_sv1","""event"",""trial"",""time""
""fullscreenenter"",""1"",""3831""
","
","
","""event"",""trial"",""time""
""fullscreenenter"",""1"",""3831""
","
","","","","","","1972.5999999998603","images/bush2.png","","","memory_trial","4","definitely_new",""
"html-keyboard-response","257","612347","0.0-18.0-0.106","6383","approach_avoid_sv1","""event"",""trial"",""time""
""fullscreenenter"",""1"",""3831""
","
","
","""event"",""trial"",""time""
""fullscreenenter"",""1"",""3831""
","
","","","","","","null","<div style=""font-size:60px;"">+</div>","null","","fixation","","",""
"memory-trial","258","615590","0.0-18.0-1.106","6383","approach_avoid_sv1","""event"",""trial"",""time""
""fullscreenenter"",""1"",""3831""
","
","
","""event"",""trial"",""time""
""fullscreenenter"",""1"",""3831""
","
","","","","","","2216.600000000093","images/straw4.png","","","memory_trial","3","maybe_new",""
"html-keyboard-response","259","616103","0.0-18.0-0.107","6383","approach_avoid_sv1","""event"",""trial"",""time""
""fullscreenenter"",""1"",""3831""
","
","
","""event"",""trial"",""time""
""fullscreenenter"",""1"",""3831""
","
","","","","","","null","<div style=""font-size:60px;"">+</div>","null","","fixation","","",""
"memory-trial","260","618702","0.0-18.0-1.107","6383","approach_avoid_sv1","""event"",""trial"",""time""
""fullscreenenter"",""1"",""3831""
","
","
","""event"",""trial"",""time""
""fullscreenenter"",""1"",""3831""
","
","","","","","","1562.3999999999069","images/rabbit1.png","","","memory_trial","3","maybe_new",""
"html-keyboard-response","261","619215","0.0-18.0-0.108","6383","approach_avoid_sv1","""event"",""trial"",""time""
""fullscreenenter"",""1"",""3831""
","
","
","""event"",""trial"",""time""
""fullscreenenter"",""1"",""3831""
","
","","","","","","null","<div style=""font-size:60px;"">+</div>","null","","fixation","","",""
"memory-trial","262","621545","0.0-18.0-1.108","6383","approach_avoid_sv1","""event"",""trial"",""time""
""fullscreenenter"",""1"",""3831""
","
","
","""event"",""trial"",""time""
""fullscreenenter"",""1"",""3831""
","
","","","","","","1307.3999999999069","images/cactus7.png","","","memory_trial","4","definitely_new",""
"html-keyboard-response","263","622066","0.0-18.0-0.109","6383","approach_avoid_sv1","""event"",""trial"",""time""
""fullscreenenter"",""1"",""3831""
","
","
","""event"",""trial"",""time""
""fullscreenenter"",""1"",""3831""
","
","","","","","","null","<div style=""font-size:60px;"">+</div>","null","","fixation","","",""
"memory-trial","264","624261","0.0-18.0-1.109","6383","approach_avoid_sv1","""event"",""trial"",""time""
""fullscreenenter"",""1"",""3831""
","
","
","""event"",""trial"",""time""
""fullscreenenter"",""1"",""3831""
","
","","","","","","1162.0999999998603","images/chair1.png","","","memory_trial","4","definitely_new",""
"html-keyboard-response","265","624774","0.0-18.0-0.110","6383","approach_avoid_sv1","""event"",""trial"",""time""
""fullscreenenter"",""1"",""3831""
","
","
","""event"",""trial"",""time""
""fullscreenenter"",""1"",""3831""
","
","","","","","","null","<div style=""font-size:60px;"">+</div>","null","","fixation","","",""
"memory-trial","266","627129","0.0-18.0-1.110","6383","approach_avoid_sv1","""event"",""trial"",""time""
""fullscreenenter"",""1"",""3831""
","
","
","""event"",""trial"",""time""
""fullscreenenter"",""1"",""3831""
","
","","","","","","1338.8999999999069","images/bed3.png","","","memory_trial","1","definitely_old",""
"html-keyboard-response","267","627641","0.0-18.0-0.111","6383","approach_avoid_sv1","""event"",""trial"",""time""
""fullscreenenter"",""1"",""3831""
","
","
","""event"",""trial"",""time""
""fullscreenenter"",""1"",""3831""
","
","","","","","","null","<div style=""font-size:60px;"">+</div>","null","","fixation","","",""
"memory-trial","268","630958","0.0-18.0-1.111","6383","approach_avoid_sv1","""event"",""trial"",""time""
""fullscreenenter"",""1"",""3831""
","
","
","""event"",""trial"",""time""
""fullscreenenter"",""1"",""3831""
","
","","","","","","2300.5","images/dog7.png","","","memory_trial","4","definitely_new",""
"html-keyboard-response","269","631474","0.0-18.0-0.112","6383","approach_avoid_sv1","""event"",""trial"",""time""
""fullscreenenter"",""1"",""3831""
","
","
","""event"",""trial"",""time""
""fullscreenenter"",""1"",""3831""
","
","","","","","","null","<div style=""font-size:60px;"">+</div>","null","","fixation","","",""
"memory-trial","270","634911","0.0-18.0-1.112","6383","approach_avoid_sv1","""event"",""trial"",""time""
""fullscreenenter"",""1"",""3831""
","
","
","""event"",""trial"",""time""
""fullscreenenter"",""1"",""3831""
","
","","","","","","2412.3000000000466","images/rodent2.png","","","memory_trial","2","maybe_old",""
"html-keyboard-response","271","635430","0.0-18.0-0.113","6383","approach_avoid_sv1","""event"",""trial"",""time""
""fullscreenenter"",""1"",""3831""
","
","
","""event"",""trial"",""time""
""fullscreenenter"",""1"",""3831""
","
","","","","","","null","<div style=""font-size:60px;"">+</div>","null","","fixation","","",""
"memory-trial","272","638662","0.0-18.0-1.113","6383","approach_avoid_sv1","""event"",""trial"",""time""
""fullscreenenter"",""1"",""3831""
","
","
","""event"",""trial"",""time""
""fullscreenenter"",""1"",""3831""
","
","","","","","","2213.6999999999534","images/table7.png","","","memory_trial","4","definitely_new",""
"html-keyboard-response","273","639179","0.0-18.0-0.114","6383","approach_avoid_sv1","""event"",""trial"",""time""
""fullscreenenter"",""1"",""3831""
","
","
","""event"",""trial"",""time""
""fullscreenenter"",""1"",""3831""
","
","","","","","","null","<div style=""font-size:60px;"">+</div>","null","","fixation","","",""
"memory-trial","274","641692","0.0-18.0-1.114","6383","approach_avoid_sv1","""event"",""trial"",""time""
""fullscreenenter"",""1"",""3831""
","
","
","""event"",""trial"",""time""
""fullscreenenter"",""1"",""3831""
","
","","","","","","1479.3000000000466","images/banana4.png","","","memory_trial","4","definitely_new",""
"html-keyboard-response","275","642205","0.0-18.0-0.115","6383","approach_avoid_sv1","""event"",""trial"",""time""
""fullscreenenter"",""1"",""3831""
","
","
","""event"",""trial"",""time""
""fullscreenenter"",""1"",""3831""
","
","","","","","","null","<div style=""font-size:60px;"">+</div>","null","","fixation","","",""
"memory-trial","276","645586","0.0-18.0-1.115","6383","approach_avoid_sv1","""event"",""trial"",""time""
""fullscreenenter"",""1"",""3831""
","
","
","""event"",""trial"",""time""
""fullscreenenter"",""1"",""3831""
","
","","","","","","2355.7000000001863","images/cat4.png","","","memory_trial","1","definitely_old",""
"html-keyboard-response","277","646099","0.0-18.0-0.116","6383","approach_avoid_sv1","""event"",""trial"",""time""
""fullscreenenter"",""1"",""3831""
","
","
","""event"",""trial"",""time""
""fullscreenenter"",""1"",""3831""
","
","","","","","","null","<div style=""font-size:60px;"">+</div>","null","","fixation","","",""
"memory-trial","278","648841","0.0-18.0-1.116","6383","approach_avoid_sv1","""event"",""trial"",""time""
""fullscreenenter"",""1"",""3831""
","
","
","""event"",""trial"",""time""
""fullscreenenter"",""1"",""3831""
","
","","","","","","1717.3000000000466","images/bush4.png","","","memory_trial","1","definitely_old",""
"html-keyboard-response","279","649357","0.0-18.0-0.117","6383","approach_avoid_sv1","""event"",""trial"",""time""
""fullscreenenter"",""1"",""3831""
","
","
","""event"",""trial"",""time""
""fullscreenenter"",""1"",""3831""
","
","","","","","","null","<div style=""font-size:60px;"">+</div>","null","","fixation","","",""
"memory-trial","280","651915","0.0-18.0-1.117","6383","approach_avoid_sv1","""event"",""trial"",""time""
""fullscreenenter"",""1"",""3831""
","
","
","""event"",""trial"",""time""
""fullscreenenter"",""1"",""3831""
","
","","","","","","1531.8000000000466","images/orange4.png","","","memory_trial","3","maybe_new",""
"html-keyboard-response","281","652428","0.0-18.0-0.118","6383","approach_avoid_sv1","""event"",""trial"",""time""
""fullscreenenter"",""1"",""3831""
","
","
","""event"",""trial"",""time""
""fullscreenenter"",""1"",""3831""
","
","","","","","","null","<div style=""font-size:60px;"">+</div>","null","","fixation","","",""
"memory-trial","282","655268","0.0-18.0-1.118","6383","approach_avoid_sv1","""event"",""trial"",""time""
""fullscreenenter"",""1"",""3831""
","
","
","""event"",""trial"",""time""
""fullscreenenter"",""1"",""3831""
","
","","","","","","1811","images/dog5.png","","","memory_trial","4","definitely_new",""
"html-keyboard-response","283","655773","0.0-18.0-0.119","6383","approach_avoid_sv1","""event"",""trial"",""time""
""fullscreenenter"",""1"",""3831""
","
","
","""event"",""trial"",""time""
""fullscreenenter"",""1"",""3831""
","
","","","","","","null","<div style=""font-size:60px;"">+</div>","null","","fixation","","",""
"memory-trial","284","658882","0.0-18.0-1.119","6383","approach_avoid_sv1","""event"",""trial"",""time""
""fullscreenenter"",""1"",""3831""
","
","
","""event"",""trial"",""time""
""fullscreenenter"",""1"",""3831""
","
","","","","","","2088.5","images/apple6.png","","","memory_trial","4","definitely_new",""
"html-keyboard-response","285","659392","0.0-18.0-0.120","6383","approach_avoid_sv1","""event"",""trial"",""time""
""fullscreenenter"",""1"",""3831""
","
","
","""event"",""trial"",""time""
""fullscreenenter"",""1"",""3831""
","
","","","","","","null","<div style=""font-size:60px;"">+</div>","null","","fixation","","",""
"memory-trial","286","661856","0.0-18.0-1.120","6383","approach_avoid_sv1","""event"",""trial"",""time""
""fullscreenenter"",""1"",""3831""
","
","
","""event"",""trial"",""time""
""fullscreenenter"",""1"",""3831""
","
","","","","","","1441.8000000000466","images/banana8.png","","","memory_trial","4","definitely_new",""
"html-keyboard-response","287","662371","0.0-18.0-0.121","6383","approach_avoid_sv1","""event"",""trial"",""time""
""fullscreenenter"",""1"",""3831""
","
","
","""event"",""trial"",""time""
""fullscreenenter"",""1"",""3831""
","
","","","","","","null","<div style=""font-size:60px;"">+</div>","null","","fixation","","",""
"memory-trial","288","665446","0.0-18.0-1.121","6383","approach_avoid_sv1","""event"",""trial"",""time""
""fullscreenenter"",""1"",""3831""
","
","
","""event"",""trial"",""time""
""fullscreenenter"",""1"",""3831""
","
","","","","","","2028.5","images/train2.png","","","memory_trial","4","definitely_new",""
"html-keyboard-response","289","665966","0.0-18.0-0.122","6383","approach_avoid_sv1","""event"",""trial"",""time""
""fullscreenenter"",""1"",""3831""
","
","
","""event"",""trial"",""time""
""fullscreenenter"",""1"",""3831""
","
","","","","","","null","<div style=""font-size:60px;"">+</div>","null","","fixation","","",""
"memory-trial","290","667795","0.0-18.0-1.122","6383","approach_avoid_sv1","""event"",""trial"",""time""
""fullscreenenter"",""1"",""3831""
","
","
","""event"",""trial"",""time""
""fullscreenenter"",""1"",""3831""
","
","","","","","","809","images/tree5.png","","","memory_trial","4","definitely_new",""
"html-keyboard-response","291","668306","0.0-18.0-0.123","6383","approach_avoid_sv1","""event"",""trial"",""time""
""fullscreenenter"",""1"",""3831""
","
","
","""event"",""trial"",""time""
""fullscreenenter"",""1"",""3831""
","
","","","","","","null","<div style=""font-size:60px;"">+</div>","null","","fixation","","",""
"memory-trial","292","671451","0.0-18.0-1.123","6383","approach_avoid_sv1","""event"",""trial"",""time""
""fullscreenenter"",""1"",""3831""
","
","
","""event"",""trial"",""time""
""fullscreenenter"",""1"",""3831""
","
","","","","","","2104.7000000001863","images/truck2.png","","","memory_trial","3","maybe_new",""
"html-keyboard-response","293","671963","0.0-18.0-0.124","6383","approach_avoid_sv1","""event"",""trial"",""time""
""fullscreenenter"",""1"",""3831""
","
","
","""event"",""trial"",""time""
""fullscreenenter"",""1"",""3831""
","
","","","","","","null","<div style=""font-size:60px;"">+</div>","null","","fixation","","",""
"memory-trial","294","676096","0.0-18.0-1.124","6383","approach_avoid_sv1","""event"",""trial"",""time""
""fullscreenenter"",""1"",""3831""
","
","
","""event"",""trial"",""time""
""fullscreenenter"",""1"",""3831""
","
","","","","","","3115.8000000000466","images/banana3.png","","","memory_trial","3","maybe_new",""
"html-keyboard-response","295","676609","0.0-18.0-0.125","6383","approach_avoid_sv1","""event"",""trial"",""time""
""fullscreenenter"",""1"",""3831""
","
","
","""event"",""trial"",""time""
""fullscreenenter"",""1"",""3831""
","
","","","","","","null","<div style=""font-size:60px;"">+</div>","null","","fixation","","",""
"memory-trial","296","679998","0.0-18.0-1.125","6383","approach_avoid_sv1","""event"",""trial"",""time""
""fullscreenenter"",""1"",""3831""
","
","
","""event"",""trial"",""time""
""fullscreenenter"",""1"",""3831""
","
","","","","","","2369.600000000093","images/goat8.png","","","memory_trial","1","definitely_old",""
