"trial_type","trial_index","time_elapsed","internal_node_id","subject_id","task_version","interactions","blur_events","focus_events","fullscreenenter_events","fullscreenexit_events","success","timeout","failed_images","failed_audio","failed_video","rt","stimulus","response","button_pressed","task_part","key_press","answer","correct"
"pavlovia","0","3","0.0-0.0","4265","approach_avoid_sv1","""event"",""trial"",""time""
""fullscreenenter"",""1"",""9170""
","
","
","""event"",""trial"",""time""
""fullscreenenter"",""1"",""9170""
","
","","","","","","","","","","","","",""
"fullscreen","1","10153","0.0-1.0","4265","approach_avoid_sv1","""event"",""trial"",""time""
""fullscreenenter"",""1"",""9170""
","
","
","""event"",""trial"",""time""
""fullscreenenter"",""1"",""9170""
","
","true","","","","","","","","","","","",""
"preload","2","12847","0.0-2.0","4265","approach_avoid_sv1","""event"",""trial"",""time""
""fullscreenenter"",""1"",""9170""
","
","
","""event"",""trial"",""time""
""fullscreenenter"",""1"",""9170""
","
","true","false","[]","[]","[]","","","","","","","",""
"preload","3","14347","0.0-3.0","4265","approach_avoid_sv1","""event"",""trial"",""time""
""fullscreenenter"",""1"",""9170""
","
","
","""event"",""trial"",""time""
""fullscreenenter"",""1"",""9170""
","
","true","false","[]","[]","[]","","","","","","","",""
"preload","4","14603","0.0-4.0","4265","approach_avoid_sv1","""event"",""trial"",""time""
""fullscreenenter"",""1"",""9170""
","
","
","""event"",""trial"",""time""
""fullscreenenter"",""1"",""9170""
","
","true","false","[]","[]","[]","","","","","","","",""
"audio-keyboard-response","5","17553","0.0-5.0","4265","approach_avoid_sv1","""event"",""trial"",""time""
""fullscreenenter"",""1"",""9170""
","
","
","""event"",""trial"",""time""
""fullscreenenter"",""1"",""9170""
","
","","","","","","2948.934240362812","audio/beep_loop.wav"," ","","","","",""
"audio-button-response","6","19448","0.0-6.0","4265","approach_avoid_sv1","""event"",""trial"",""time""
""fullscreenenter"",""1"",""9170""
","
","
","""event"",""trial"",""time""
""fullscreenenter"",""1"",""9170""
","
","","","","","","1892","audio/turtle.wav","3","","","","",""
"audio-button-response","7","22061","0.0-7.0","4265","approach_avoid_sv1","""event"",""trial"",""time""
""fullscreenenter"",""1"",""9170""
","
","
","""event"",""trial"",""time""
""fullscreenenter"",""1"",""9170""
","
","","","","","","1596","audio/shark.wav","2","","","","",""
"preload","8","25655","0.0-8.0","4265","approach_avoid_sv1","""event"",""trial"",""time""
""fullscreenenter"",""1"",""9170""
","
","
","""event"",""trial"",""time""
""fullscreenenter"",""1"",""9170""
","
","true","false","[]","[]","[]","","","","","","","",""
"learning-instructions","9","36890","0.0-9.0-0.0","4265","approach_avoid_sv1","""event"",""trial"",""time""
""fullscreenenter"",""1"",""9170""
","
","
","""event"",""trial"",""time""
""fullscreenenter"",""1"",""9170""
","
","","","","","","6757.39999999851","<p> Welcome back! </p><p> Last week, you had to make choices about lots of different items.  </p>","","0","instructions","","",""
"learning-instructions","10","48725","0.0-9.0-0.1","4265","approach_avoid_sv1","""event"",""trial"",""time""
""fullscreenenter"",""1"",""9170""
","
","
","""event"",""trial"",""time""
""fullscreenenter"",""1"",""9170""
","
","","","","","","7719.79999999702","<p> Today, we are going to ask you to try to remember all the items. </p>","","0","instructions","","",""
"learning-instructions","11","61596","0.0-9.0-0.2","4265","approach_avoid_sv1","""event"",""trial"",""time""
""fullscreenenter"",""1"",""9170""
","
","
","""event"",""trial"",""time""
""fullscreenenter"",""1"",""9170""
","
","","","","","","2734.199999999255","<p> On every trial, you will see an image. </p><p> The image may be an OLD image you saw during the games last week or it may be a NEW image that was not presented. </p>","","0","instructions","","",""
"learning-instructions","12","77135","0.0-9.0-0.3","4265","approach_avoid_sv1","""event"",""trial"",""time""
""fullscreenenter"",""1"",""9170""
","
","
","""event"",""trial"",""time""
""fullscreenenter"",""1"",""9170""
","
","","","","","","7040.300000000745","<p> You need to select whether the image is:  </p><p>  'Definitely old', 'Maybe old', 'Maybe new', or 'Definitely new.'  </p><div class=""mem-choice-instructions-grid""><div class=""choice-option"" id=""choice-option-1"" ><img src=""images/definitely_old_1.png"" id=""choice-option-img-1"" class=""choice-option-img"" stage=""1""></div><div class=""choice-option"" id=""choice-option-2"" ><img src=""images/maybe_old_1.png"" id=""choice-option-img-2"" class=""choice-option-img"" stage=""1""></div><div class=""choice-option"" id=""choice-option-3"" ><img src=""images/maybe_new_1.png"" id=""choice-option-img-3"" class=""choice-option-img"" stage=""1""></div><div class=""choice-option"" id=""choice-option-4"" > <img src=""images/definitely_new_1.png"" id=""choice-option-img-4"" class=""choice-option-img"" stage=""1""></div></div>","","0","instructions","","",""
"learning-instructions","13","86131","0.0-9.0-0.4","4265","approach_avoid_sv1","""event"",""trial"",""time""
""fullscreenenter"",""1"",""9170""
","
","
","""event"",""trial"",""time""
""fullscreenenter"",""1"",""9170""
","
","","","","","","2476.2999999970198","<p> You should use the 1, 2, 3, and 4 keys to make your responses.  </p><div class=""mem-choice-instructions-grid""><div class=""choice-option"" id=""choice-option-1"" ><img src=""images/definitely_old.png"" id=""choice-option-img-1"" class=""choice-option-img"" stage=""1""></div><div class=""choice-option"" id=""choice-option-2"" ><img src=""images/maybe_old.png"" id=""choice-option-img-2"" class=""choice-option-img"" stage=""1""></div><div class=""choice-option"" id=""choice-option-3"" ><img src=""images/maybe_new.png"" id=""choice-option-img-3"" class=""choice-option-img"" stage=""1""></div><div class=""choice-option"" id=""choice-option-4"" > <img src=""images/definitely_new.png"" id=""choice-option-img-4"" class=""choice-option-img"" stage=""1""></div></div>","","0","instructions","","",""
"learning-instructions","14","93932","0.0-9.0-0.5","4265","approach_avoid_sv1","""event"",""trial"",""time""
""fullscreenenter"",""1"",""9170""
","
","
","""event"",""trial"",""time""
""fullscreenenter"",""1"",""9170""
","
","","","","","","1476.8999999985099","<p> You will have 10 seconds to make each response.  </p><p>  Make sure to respond before time runs out! </p>","","0","instructions","","",""
"learning-instructions","15","101715","0.0-9.0-0.6","4265","approach_avoid_sv1","""event"",""trial"",""time""
""fullscreenenter"",""1"",""9170""
","
","
","""event"",""trial"",""time""
""fullscreenenter"",""1"",""9170""
","
","","","","","","709.6999999992549","<p> Today, you will see each image ONCE only.  </p><p>  That means none of the images will repeat. </p>","","0","instructions","","",""
"learning-instructions","16","114632","0.0-9.0-0.7","4265","approach_avoid_sv1","""event"",""trial"",""time""
""fullscreenenter"",""1"",""9170""
","
","
","""event"",""trial"",""time""
""fullscreenenter"",""1"",""9170""
","
","","","","","","251.69999999925494","<p> Before you play the real game, it is time to practice. </p><p>  Just like in the real game, some of the images in the practice will be ones you have seen before. </p><p>  Others will be entirely new. </p>","","0","instructions","","",""
"html-button-response","17","116210","0.0-10.0","4265","approach_avoid_sv1","""event"",""trial"",""time""
""fullscreenenter"",""1"",""9170""
","
","
","""event"",""trial"",""time""
""fullscreenenter"",""1"",""9170""
","
","","","","","","1469.199999999255","<p> Ready to practice? </p><p> Remember, use the 1, 2, 3, and 4 keys to make your responses. </p>","0","","instructions","","",""
"html-keyboard-response","18","116818","0.0-11.0-0.0","4265","approach_avoid_sv1","""event"",""trial"",""time""
""fullscreenenter"",""1"",""9170""
","
","
","""event"",""trial"",""time""
""fullscreenenter"",""1"",""9170""
","
","","","","","","null","<div style=""font-size:60px;"">+</div>","null","","fixation","","",""
"memory-trial","19","119586","0.0-11.0-1.0","4265","approach_avoid_sv1","""event"",""trial"",""time""
""fullscreenenter"",""1"",""9170""
","
","
","""event"",""trial"",""time""
""fullscreenenter"",""1"",""9170""
","
","","","","","","1757.9000000022352","images/racket2.png","","","practice","2","maybe_old",""
"html-keyboard-response","20","120092","0.0-11.0-0.1","4265","approach_avoid_sv1","""event"",""trial"",""time""
""fullscreenenter"",""1"",""9170""
","
","
","""event"",""trial"",""time""
""fullscreenenter"",""1"",""9170""
","
","","","","","","null","<div style=""font-size:60px;"">+</div>","null","","fixation","","",""
"memory-trial","21","122961","0.0-11.0-1.1","4265","approach_avoid_sv1","""event"",""trial"",""time""
""fullscreenenter"",""1"",""9170""
","
","
","""event"",""trial"",""time""
""fullscreenenter"",""1"",""9170""
","
","","","","","","1866.199999999255","images/ball1.png","","","practice","1","definitely_old",""
"html-keyboard-response","22","123470","0.0-11.0-0.2","4265","approach_avoid_sv1","""event"",""trial"",""time""
""fullscreenenter"",""1"",""9170""
","
","
","""event"",""trial"",""time""
""fullscreenenter"",""1"",""9170""
","
","","","","","","null","<div style=""font-size:60px;"">+</div>","null","","fixation","","",""
"memory-trial","23","126553","0.0-11.0-1.2","4265","approach_avoid_sv1","""event"",""trial"",""time""
""fullscreenenter"",""1"",""9170""
","
","
","""event"",""trial"",""time""
""fullscreenenter"",""1"",""9170""
","
","","","","","","2074.599999997765","images/racket5.png","","","practice","3","maybe_new",""
"html-keyboard-response","24","127058","0.0-11.0-0.3","4265","approach_avoid_sv1","""event"",""trial"",""time""
""fullscreenenter"",""1"",""9170""
","
","
","""event"",""trial"",""time""
""fullscreenenter"",""1"",""9170""
","
","","","","","","null","<div style=""font-size:60px;"">+</div>","null","","fixation","","",""
"memory-trial","25","131922","0.0-11.0-1.3","4265","approach_avoid_sv1","""event"",""trial"",""time""
""fullscreenenter"",""1"",""9170""
","
","
","""event"",""trial"",""time""
""fullscreenenter"",""1"",""9170""
","
","","","","","","3856.5","images/ball5.png","","","practice","2","maybe_old",""
"html-keyboard-response","26","132427","0.0-11.0-0.4","4265","approach_avoid_sv1","""event"",""trial"",""time""
""fullscreenenter"",""1"",""9170""
","
","
","""event"",""trial"",""time""
""fullscreenenter"",""1"",""9170""
","
","","","","","","null","<div style=""font-size:60px;"">+</div>","null","","fixation","","",""
"memory-trial","27","136746","0.0-11.0-1.4","4265","approach_avoid_sv1","""event"",""trial"",""time""
""fullscreenenter"",""1"",""9170""
","
","
","""event"",""trial"",""time""
""fullscreenenter"",""1"",""9170""
","
","","","","","","3312.199999999255","images/ball3.png","","","practice","3","maybe_new",""
"html-keyboard-response","28","137250","0.0-11.0-0.5","4265","approach_avoid_sv1","""event"",""trial"",""time""
""fullscreenenter"",""1"",""9170""
","
","
","""event"",""trial"",""time""
""fullscreenenter"",""1"",""9170""
","
","","","","","","null","<div style=""font-size:60px;"">+</div>","null","","fixation","","",""
"memory-trial","29","140837","0.0-11.0-1.5","4265","approach_avoid_sv1","""event"",""trial"",""time""
""fullscreenenter"",""1"",""9170""
","
","
","""event"",""trial"",""time""
""fullscreenenter"",""1"",""9170""
","
","","","","","","2577.699999999255","images/ball2.png","","","practice","4","definitely_new",""
"html-keyboard-response","30","141349","0.0-11.0-0.6","4265","approach_avoid_sv1","""event"",""trial"",""time""
""fullscreenenter"",""1"",""9170""
","
","
","""event"",""trial"",""time""
""fullscreenenter"",""1"",""9170""
","
","","","","","","null","<div style=""font-size:60px;"">+</div>","null","","fixation","","",""
"memory-trial","31","144329","0.0-11.0-1.6","4265","approach_avoid_sv1","""event"",""trial"",""time""
""fullscreenenter"",""1"",""9170""
","
","
","""event"",""trial"",""time""
""fullscreenenter"",""1"",""9170""
","
","","","","","","1969.5","images/racket1.png","","","practice","3","maybe_new",""
"html-keyboard-response","32","144833","0.0-11.0-0.7","4265","approach_avoid_sv1","""event"",""trial"",""time""
""fullscreenenter"",""1"",""9170""
","
","
","""event"",""trial"",""time""
""fullscreenenter"",""1"",""9170""
","
","","","","","","null","<div style=""font-size:60px;"">+</div>","null","","fixation","","",""
"memory-trial","33","147929","0.0-11.0-1.7","4265","approach_avoid_sv1","""event"",""trial"",""time""
""fullscreenenter"",""1"",""9170""
","
","
","""event"",""trial"",""time""
""fullscreenenter"",""1"",""9170""
","
","","","","","","2089.2999999970198","images/racket3.png","","","practice","4","definitely_new",""
"learning-instructions","34","157034","0.0-12.0-0.0","4265","approach_avoid_sv1","""event"",""trial"",""time""
""fullscreenenter"",""1"",""9170""
","
","
","""event"",""trial"",""time""
""fullscreenenter"",""1"",""9170""
","
","","","","","","1780.5","<p> Great! You have completed the practice. </p><p> Before you start, we're going to ask you a few questions about how the game works.  </p>","","0","instructions","","",""
"preload","35","158843","0.0-13.0","4265","approach_avoid_sv1","""event"",""trial"",""time""
""fullscreenenter"",""1"",""9170""
","
","
","""event"",""trial"",""time""
""fullscreenenter"",""1"",""9170""
","
","true","false","[]","[]","[]","","","","","","","",""
"comp-q","36","169242","0.0-14.0-0.0","4265","approach_avoid_sv1","""event"",""trial"",""time""
""fullscreenenter"",""1"",""9170""
","
","
","""event"",""trial"",""time""
""fullscreenenter"",""1"",""9170""
","
","","","","","","4568.39999999851","<p> <b> True or False? </b> </p><p> In this game, you will only see each image once. </p>","","0","comp_question","","","true"
"comp-q","37","177055","0.0-14.0-1.0","4265","approach_avoid_sv1","""event"",""trial"",""time""
""fullscreenenter"",""1"",""9170""
","
","
","""event"",""trial"",""time""
""fullscreenenter"",""1"",""9170""
","
","","","","","","1474.199999999255","<p> <b> That's right! </b> You will see many different images <i> one time each </i> in this game. </p>","","0","comp_answer","","",""
"comp-q","38","183285","0.0-15.0-0.0","4265","approach_avoid_sv1","""event"",""trial"",""time""
""fullscreenenter"",""1"",""9170""
","
","
","""event"",""trial"",""time""
""fullscreenenter"",""1"",""9170""
","
","","","","","","1213.7999999970198","<p> <b> True or False? </b> </p><p> You should use the mouse and click to make your response. </p>","","1","comp_question","","","true"
"comp-q","39","190999","0.0-15.0-1.0","4265","approach_avoid_sv1","""event"",""trial"",""time""
""fullscreenenter"",""1"",""9170""
","
","
","""event"",""trial"",""time""
""fullscreenenter"",""1"",""9170""
","
","","","","","","1212.800000000745","<p><b> That's right! </b> You should use the '1', '2', '3', and '4' keys to make your response. </p>","","0","comp_answer","","",""
"comp-q","40","197748","0.0-16.0-0.0","4265","approach_avoid_sv1","""event"",""trial"",""time""
""fullscreenenter"",""1"",""9170""
","
","
","""event"",""trial"",""time""
""fullscreenenter"",""1"",""9170""
","
","","","","","","1065.800000000745","<p> <b> True or False? </b> </p><p> You will have as much time as you want to make each choice. </p>","","1","comp_question","","","true"
"comp-q","41","203940","0.0-16.0-1.0","4265","approach_avoid_sv1","""event"",""trial"",""time""
""fullscreenenter"",""1"",""9170""
","
","
","""event"",""trial"",""time""
""fullscreenenter"",""1"",""9170""
","
","","","","","","1492.699999999255","<p> <b> That's right! </b> You will only have 10 seconds to make each choice. </p>","","0","comp_answer","","",""
"learning-instructions","42","214038","0.0-17.0","4265","approach_avoid_sv1","""event"",""trial"",""time""
""fullscreenenter"",""1"",""9170""
","
","
","""event"",""trial"",""time""
""fullscreenenter"",""1"",""9170""
","
","","","","","","1426.300000000745","<p> Great! You are now ready to begin the game. </p><p> Remember, use the 1, 2, 3, and 4 keys to make your responses. </p>","","0","instructions","","",""
"html-keyboard-response","43","214642","0.0-18.0-0.0","4265","approach_avoid_sv1","""event"",""trial"",""time""
""fullscreenenter"",""1"",""9170""
","
","
","""event"",""trial"",""time""
""fullscreenenter"",""1"",""9170""
","
","","","","","","null","<div style=""font-size:60px;"">+</div>","null","","fixation","","",""
"memory-trial","44","217571","0.0-18.0-1.0","4265","approach_avoid_sv1","""event"",""trial"",""time""
""fullscreenenter"",""1"",""9170""
","
","
","""event"",""trial"",""time""
""fullscreenenter"",""1"",""9170""
","
","","","","","","1923.4000000022352","images/cow2.png","","","memory_trial","3","maybe_new",""
"html-keyboard-response","45","218073","0.0-18.0-0.1","4265","approach_avoid_sv1","""event"",""trial"",""time""
""fullscreenenter"",""1"",""9170""
","
","
","""event"",""trial"",""time""
""fullscreenenter"",""1"",""9170""
","
","","","","","","null","<div style=""font-size:60px;"">+</div>","null","","fixation","","",""
"memory-trial","46","220203","0.0-18.0-1.1","4265","approach_avoid_sv1","""event"",""trial"",""time""
""fullscreenenter"",""1"",""9170""
","
","
","""event"",""trial"",""time""
""fullscreenenter"",""1"",""9170""
","
","","","","","","1122.300000000745","images/dog5.png","","","memory_trial","4","definitely_new",""
"html-keyboard-response","47","220708","0.0-18.0-0.2","4265","approach_avoid_sv1","""event"",""trial"",""time""
""fullscreenenter"",""1"",""9170""
","
","
","""event"",""trial"",""time""
""fullscreenenter"",""1"",""9170""
","
","","","","","","null","<div style=""font-size:60px;"">+</div>","null","","fixation","","",""
"memory-trial","48","223508","0.0-18.0-1.2","4265","approach_avoid_sv1","""event"",""trial"",""time""
""fullscreenenter"",""1"",""9170""
","
","
","""event"",""trial"",""time""
""fullscreenenter"",""1"",""9170""
","
","","","","","","1792.199999999255","images/flower7.png","","","memory_trial","2","maybe_old",""
"html-keyboard-response","49","224011","0.0-18.0-0.3","4265","approach_avoid_sv1","""event"",""trial"",""time""
""fullscreenenter"",""1"",""9170""
","
","
","""event"",""trial"",""time""
""fullscreenenter"",""1"",""9170""
","
","","","","","","null","<div style=""font-size:60px;"">+</div>","null","","fixation","","",""
"memory-trial","50","226554","0.0-18.0-1.3","4265","approach_avoid_sv1","""event"",""trial"",""time""
""fullscreenenter"",""1"",""9170""
","
","
","""event"",""trial"",""time""
""fullscreenenter"",""1"",""9170""
","
","","","","","","1532.4000000022352","images/sheep7.png","","","memory_trial","3","maybe_new",""
"html-keyboard-response","51","227060","0.0-18.0-0.4","4265","approach_avoid_sv1","""event"",""trial"",""time""
""fullscreenenter"",""1"",""9170""
","
","
","""event"",""trial"",""time""
""fullscreenenter"",""1"",""9170""
","
","","","","","","null","<div style=""font-size:60px;"">+</div>","null","","fixation","","",""
"memory-trial","52","229555","0.0-18.0-1.4","4265","approach_avoid_sv1","""event"",""trial"",""time""
""fullscreenenter"",""1"",""9170""
","
","
","""event"",""trial"",""time""
""fullscreenenter"",""1"",""9170""
","
","","","","","","1487.300000000745","images/rabbit8.png","","","memory_trial","1","definitely_old",""
"html-keyboard-response","53","230060","0.0-18.0-0.5","4265","approach_avoid_sv1","""event"",""trial"",""time""
""fullscreenenter"",""1"",""9170""
","
","
","""event"",""trial"",""time""
""fullscreenenter"",""1"",""9170""
","
","","","","","","null","<div style=""font-size:60px;"">+</div>","null","","fixation","","",""
"memory-trial","54","232098","0.0-18.0-1.5","4265","approach_avoid_sv1","""event"",""trial"",""time""
""fullscreenenter"",""1"",""9170""
","
","
","""event"",""trial"",""time""
""fullscreenenter"",""1"",""9170""
","
","","","","","","1032.7999999970198","images/orange3.png","","","memory_trial","1","definitely_old",""
"html-keyboard-response","55","232603","0.0-18.0-0.6","4265","approach_avoid_sv1","""event"",""trial"",""time""
""fullscreenenter"",""1"",""9170""
","
","
","""event"",""trial"",""time""
""fullscreenenter"",""1"",""9170""
","
","","","","","","null","<div style=""font-size:60px;"">+</div>","null","","fixation","","",""
"memory-trial","56","235389","0.0-18.0-1.6","4265","approach_avoid_sv1","""event"",""trial"",""time""
""fullscreenenter"",""1"",""9170""
","
","
","""event"",""trial"",""time""
""fullscreenenter"",""1"",""9170""
","
","","","","","","1779.699999999255","images/truck7.png","","","memory_trial","3","maybe_new",""
"html-keyboard-response","57","235900","0.0-18.0-0.7","4265","approach_avoid_sv1","""event"",""trial"",""time""
""fullscreenenter"",""1"",""9170""
","
","
","""event"",""trial"",""time""
""fullscreenenter"",""1"",""9170""
","
","","","","","","null","<div style=""font-size:60px;"">+</div>","null","","fixation","","",""
"memory-trial","58","238886","0.0-18.0-1.7","4265","approach_avoid_sv1","""event"",""trial"",""time""
""fullscreenenter"",""1"",""9170""
","
","
","""event"",""trial"",""time""
""fullscreenenter"",""1"",""9170""
","
","","","","","","1971.699999999255","images/cat5.png","","","memory_trial","1","definitely_old",""
"html-keyboard-response","59","239395","0.0-18.0-0.8","4265","approach_avoid_sv1","""event"",""trial"",""time""
""fullscreenenter"",""1"",""9170""
","
","
","""event"",""trial"",""time""
""fullscreenenter"",""1"",""9170""
","
","","","","","","null","<div style=""font-size:60px;"">+</div>","null","","fixation","","",""
"memory-trial","60","242117","0.0-18.0-1.8","4265","approach_avoid_sv1","""event"",""trial"",""time""
""fullscreenenter"",""1"",""9170""
","
","
","""event"",""trial"",""time""
""fullscreenenter"",""1"",""9170""
","
","","","","","","1713.6000000014901","images/cow6.png","","","memory_trial","2","maybe_old",""
"html-keyboard-response","61","242623","0.0-18.0-0.9","4265","approach_avoid_sv1","""event"",""trial"",""time""
""fullscreenenter"",""1"",""9170""
","
","
","""event"",""trial"",""time""
""fullscreenenter"",""1"",""9170""
","
","","","","","","null","<div style=""font-size:60px;"">+</div>","null","","fixation","","",""
"memory-trial","62","245891","0.0-18.0-1.9","4265","approach_avoid_sv1","""event"",""trial"",""time""
""fullscreenenter"",""1"",""9170""
","
","
","""event"",""trial"",""time""
""fullscreenenter"",""1"",""9170""
","
","","","","","","2257.39999999851","images/bed7.png","","","memory_trial","3","maybe_new",""
"html-keyboard-response","63","246396","0.0-18.0-0.10","4265","approach_avoid_sv1","""event"",""trial"",""time""
""fullscreenenter"",""1"",""9170""
","
","
","""event"",""trial"",""time""
""fullscreenenter"",""1"",""9170""
","
","","","","","","null","<div style=""font-size:60px;"">+</div>","null","","fixation","","",""
"memory-trial","64","249051","0.0-18.0-1.10","4265","approach_avoid_sv1","""event"",""trial"",""time""
""fullscreenenter"",""1"",""9170""
","
","
","""event"",""trial"",""time""
""fullscreenenter"",""1"",""9170""
","
","","","","","","1643.8999999985099","images/orange1.png","","","memory_trial","2","maybe_old",""
"html-keyboard-response","65","249554","0.0-18.0-0.11","4265","approach_avoid_sv1","""event"",""trial"",""time""
""fullscreenenter"",""1"",""9170""
","
","
","""event"",""trial"",""time""
""fullscreenenter"",""1"",""9170""
","
","","","","","","null","<div style=""font-size:60px;"">+</div>","null","","fixation","","",""
"memory-trial","66","252058","0.0-18.0-1.11","4265","approach_avoid_sv1","""event"",""trial"",""time""
""fullscreenenter"",""1"",""9170""
","
","
","""event"",""trial"",""time""
""fullscreenenter"",""1"",""9170""
","
","","","","","","1495.7000000029802","images/cow1.png","","","memory_trial","4","definitely_new",""
"html-keyboard-response","67","252563","0.0-18.0-0.12","4265","approach_avoid_sv1","""event"",""trial"",""time""
""fullscreenenter"",""1"",""9170""
","
","
","""event"",""trial"",""time""
""fullscreenenter"",""1"",""9170""
","
","","","","","","null","<div style=""font-size:60px;"">+</div>","null","","fixation","","",""
"memory-trial","68","255699","0.0-18.0-1.12","4265","approach_avoid_sv1","""event"",""trial"",""time""
""fullscreenenter"",""1"",""9170""
","
","
","""event"",""trial"",""time""
""fullscreenenter"",""1"",""9170""
","
","","","","","","2126.5","images/sheep5.png","","","memory_trial","3","maybe_new",""
"html-keyboard-response","69","256202","0.0-18.0-0.13","4265","approach_avoid_sv1","""event"",""trial"",""time""
""fullscreenenter"",""1"",""9170""
","
","
","""event"",""trial"",""time""
""fullscreenenter"",""1"",""9170""
","
","","","","","","null","<div style=""font-size:60px;"">+</div>","null","","fixation","","",""
"memory-trial","70","259099","0.0-18.0-1.13","4265","approach_avoid_sv1","""event"",""trial"",""time""
""fullscreenenter"",""1"",""9170""
","
","
","""event"",""trial"",""time""
""fullscreenenter"",""1"",""9170""
","
","","","","","","1890.699999999255","images/goat2.png","","","memory_trial","2","maybe_old",""
"html-keyboard-response","71","259603","0.0-18.0-0.14","4265","approach_avoid_sv1","""event"",""trial"",""time""
""fullscreenenter"",""1"",""9170""
","
","
","""event"",""trial"",""time""
""fullscreenenter"",""1"",""9170""
","
","","","","","","null","<div style=""font-size:60px;"">+</div>","null","","fixation","","",""
"memory-trial","72","263363","0.0-18.0-1.14","4265","approach_avoid_sv1","""event"",""trial"",""time""
""fullscreenenter"",""1"",""9170""
","
","
","""event"",""trial"",""time""
""fullscreenenter"",""1"",""9170""
","
","","","","","","2752.60000000149","images/sheep1.png","","","memory_trial","3","maybe_new",""
"html-keyboard-response","73","263866","0.0-18.0-0.15","4265","approach_avoid_sv1","""event"",""trial"",""time""
""fullscreenenter"",""1"",""9170""
","
","
","""event"",""trial"",""time""
""fullscreenenter"",""1"",""9170""
","
","","","","","","null","<div style=""font-size:60px;"">+</div>","null","","fixation","","",""
"memory-trial","74","267114","0.0-18.0-1.15","4265","approach_avoid_sv1","""event"",""trial"",""time""
""fullscreenenter"",""1"",""9170""
","
","
","""event"",""trial"",""time""
""fullscreenenter"",""1"",""9170""
","
","","","","","","2241.199999999255","images/table2.png","","","memory_trial","4","definitely_new",""
"html-keyboard-response","75","267619","0.0-18.0-0.16","4265","approach_avoid_sv1","""event"",""trial"",""time""
""fullscreenenter"",""1"",""9170""
","
","
","""event"",""trial"",""time""
""fullscreenenter"",""1"",""9170""
","
","","","","","","null","<div style=""font-size:60px;"">+</div>","null","","fixation","","",""
"memory-trial","76","270323","0.0-18.0-1.16","4265","approach_avoid_sv1","""event"",""trial"",""time""
""fullscreenenter"",""1"",""9170""
","
","
","""event"",""trial"",""time""
""fullscreenenter"",""1"",""9170""
","
","","","","","","1695.9000000022352","images/bed5.png","","","memory_trial","3","maybe_new",""
"html-keyboard-response","77","270827","0.0-18.0-0.17","4265","approach_avoid_sv1","""event"",""trial"",""time""
""fullscreenenter"",""1"",""9170""
","
","
","""event"",""trial"",""time""
""fullscreenenter"",""1"",""9170""
","
","","","","","","null","<div style=""font-size:60px;"">+</div>","null","","fixation","","",""
"memory-trial","78","273363","0.0-18.0-1.17","4265","approach_avoid_sv1","""event"",""trial"",""time""
""fullscreenenter"",""1"",""9170""
","
","
","""event"",""trial"",""time""
""fullscreenenter"",""1"",""9170""
","
","","","","","","1529.5999999977648","images/boat2.png","","","memory_trial","3","maybe_new",""
"html-keyboard-response","79","273866","0.0-18.0-0.18","4265","approach_avoid_sv1","""event"",""trial"",""time""
""fullscreenenter"",""1"",""9170""
","
","
","""event"",""trial"",""time""
""fullscreenenter"",""1"",""9170""
","
","","","","","","null","<div style=""font-size:60px;"">+</div>","null","","fixation","","",""
"memory-trial","80","276630","0.0-18.0-1.18","4265","approach_avoid_sv1","""event"",""trial"",""time""
""fullscreenenter"",""1"",""9170""
","
","
","""event"",""trial"",""time""
""fullscreenenter"",""1"",""9170""
","
","","","","","","1756.2999999970198","images/apple6.png","","","memory_trial","3","maybe_new",""
"html-keyboard-response","81","277139","0.0-18.0-0.19","4265","approach_avoid_sv1","""event"",""trial"",""time""
""fullscreenenter"",""1"",""9170""
","
","
","""event"",""trial"",""time""
""fullscreenenter"",""1"",""9170""
","
","","","","","","null","<div style=""font-size:60px;"">+</div>","null","","fixation","","",""
"memory-trial","82","279762","0.0-18.0-1.19","4265","approach_avoid_sv1","""event"",""trial"",""time""
""fullscreenenter"",""1"",""9170""
","
","
","""event"",""trial"",""time""
""fullscreenenter"",""1"",""9170""
","
","","","","","","1615.2000000029802","images/train8.png","","","memory_trial","4","definitely_new",""
"html-keyboard-response","83","280266","0.0-18.0-0.20","4265","approach_avoid_sv1","""event"",""trial"",""time""
""fullscreenenter"",""1"",""9170""
","
","
","""event"",""trial"",""time""
""fullscreenenter"",""1"",""9170""
","
","","","","","","null","<div style=""font-size:60px;"">+</div>","null","","fixation","","",""
"memory-trial","84","283251","0.0-18.0-1.20","4265","approach_avoid_sv1","""event"",""trial"",""time""
""fullscreenenter"",""1"",""9170""
","
","
","""event"",""trial"",""time""
""fullscreenenter"",""1"",""9170""
","
","","","","","","1978.8999999985099","images/horse4.png","","","memory_trial","2","maybe_old",""
"html-keyboard-response","85","283755","0.0-18.0-0.21","4265","approach_avoid_sv1","""event"",""trial"",""time""
""fullscreenenter"",""1"",""9170""
","
","
","""event"",""trial"",""time""
""fullscreenenter"",""1"",""9170""
","
","","","","","","null","<div style=""font-size:60px;"">+</div>","null","","fixation","","",""
"memory-trial","86","286563","0.0-18.0-1.21","4265","approach_avoid_sv1","""event"",""trial"",""time""
""fullscreenenter"",""1"",""9170""
","
","
","""event"",""trial"",""time""
""fullscreenenter"",""1"",""9170""
","
","","","","","","1804.1000000014901","images/straw2.png","","","memory_trial","2","maybe_old",""
"html-keyboard-response","87","287067","0.0-18.0-0.22","4265","approach_avoid_sv1","""event"",""trial"",""time""
""fullscreenenter"",""1"",""9170""
","
","
","""event"",""trial"",""time""
""fullscreenenter"",""1"",""9170""
","
","","","","","","null","<div style=""font-size:60px;"">+</div>","null","","fixation","","",""
"memory-trial","88","289723","0.0-18.0-1.22","4265","approach_avoid_sv1","""event"",""trial"",""time""
""fullscreenenter"",""1"",""9170""
","
","
","""event"",""trial"",""time""
""fullscreenenter"",""1"",""9170""
","
","","","","","","1649.800000000745","images/sofa6.png","","","memory_trial","2","maybe_old",""
"html-keyboard-response","89","290227","0.0-18.0-0.23","4265","approach_avoid_sv1","""event"",""trial"",""time""
""fullscreenenter"",""1"",""9170""
","
","
","""event"",""trial"",""time""
""fullscreenenter"",""1"",""9170""
","
","","","","","","null","<div style=""font-size:60px;"">+</div>","null","","fixation","","",""
"memory-trial","90","293395","0.0-18.0-1.23","4265","approach_avoid_sv1","""event"",""trial"",""time""
""fullscreenenter"",""1"",""9170""
","
","
","""event"",""trial"",""time""
""fullscreenenter"",""1"",""9170""
","
","","","","","","2159.599999997765","images/tree8.png","","","memory_trial","1","definitely_old",""
"html-keyboard-response","91","293899","0.0-18.0-0.24","4265","approach_avoid_sv1","""event"",""trial"",""time""
""fullscreenenter"",""1"",""9170""
","
","
","""event"",""trial"",""time""
""fullscreenenter"",""1"",""9170""
","
","","","","","","null","<div style=""font-size:60px;"">+</div>","null","","fixation","","",""
"memory-trial","92","296147","0.0-18.0-1.24","4265","approach_avoid_sv1","""event"",""trial"",""time""
""fullscreenenter"",""1"",""9170""
","
","
","""event"",""trial"",""time""
""fullscreenenter"",""1"",""9170""
","
","","","","","","1236.5","images/sofa2.png","","","memory_trial","3","maybe_new",""
"html-keyboard-response","93","296651","0.0-18.0-0.25","4265","approach_avoid_sv1","""event"",""trial"",""time""
""fullscreenenter"",""1"",""9170""
","
","
","""event"",""trial"",""time""
""fullscreenenter"",""1"",""9170""
","
","","","","","","null","<div style=""font-size:60px;"">+</div>","null","","fixation","","",""
"memory-trial","94","300323","0.0-18.0-1.25","4265","approach_avoid_sv1","""event"",""trial"",""time""
""fullscreenenter"",""1"",""9170""
","
","
","""event"",""trial"",""time""
""fullscreenenter"",""1"",""9170""
","
","","","","","","2661.89999999851","images/train2.png","","","memory_trial","2","maybe_old",""
"html-keyboard-response","95","300827","0.0-18.0-0.26","4265","approach_avoid_sv1","""event"",""trial"",""time""
""fullscreenenter"",""1"",""9170""
","
","
","""event"",""trial"",""time""
""fullscreenenter"",""1"",""9170""
","
","","","","","","null","<div style=""font-size:60px;"">+</div>","null","","fixation","","",""
"memory-trial","96","303315","0.0-18.0-1.26","4265","approach_avoid_sv1","""event"",""trial"",""time""
""fullscreenenter"",""1"",""9170""
","
","
","""event"",""trial"",""time""
""fullscreenenter"",""1"",""9170""
","
","","","","","","1476.300000000745","images/sheep3.png","","","memory_trial","3","maybe_new",""
"html-keyboard-response","97","303819","0.0-18.0-0.27","4265","approach_avoid_sv1","""event"",""trial"",""time""
""fullscreenenter"",""1"",""9170""
","
","
","""event"",""trial"",""time""
""fullscreenenter"",""1"",""9170""
","
","","","","","","null","<div style=""font-size:60px;"">+</div>","null","","fixation","","",""
"memory-trial","98","306179","0.0-18.0-1.27","4265","approach_avoid_sv1","""event"",""trial"",""time""
""fullscreenenter"",""1"",""9170""
","
","
","""event"",""trial"",""time""
""fullscreenenter"",""1"",""9170""
","
","","","","","","1350.7000000029802","images/sheep2.png","","","memory_trial","2","maybe_old",""
"html-keyboard-response","99","306683","0.0-18.0-0.28","4265","approach_avoid_sv1","""event"",""trial"",""time""
""fullscreenenter"",""1"",""9170""
","
","
","""event"",""trial"",""time""
""fullscreenenter"",""1"",""9170""
","
","","","","","","null","<div style=""font-size:60px;"">+</div>","null","","fixation","","",""
"memory-trial","100","308971","0.0-18.0-1.28","4265","approach_avoid_sv1","""event"",""trial"",""time""
""fullscreenenter"",""1"",""9170""
","
","
","""event"",""trial"",""time""
""fullscreenenter"",""1"",""9170""
","
","","","","","","1278.9000000022352","images/plane3.png","","","memory_trial","4","definitely_new",""
"html-keyboard-response","101","309475","0.0-18.0-0.29","4265","approach_avoid_sv1","""event"",""trial"",""time""
""fullscreenenter"",""1"",""9170""
","
","
","""event"",""trial"",""time""
""fullscreenenter"",""1"",""9170""
","
","","","","","","null","<div style=""font-size:60px;"">+</div>","null","","fixation","","",""
"memory-trial","102","311579","0.0-18.0-1.29","4265","approach_avoid_sv1","""event"",""trial"",""time""
""fullscreenenter"",""1"",""9170""
","
","
","""event"",""trial"",""time""
""fullscreenenter"",""1"",""9170""
","
","","","","","","1094.800000000745","images/train3.png","","","memory_trial","1","definitely_old",""
"html-keyboard-response","103","312083","0.0-18.0-0.30","4265","approach_avoid_sv1","""event"",""trial"",""time""
""fullscreenenter"",""1"",""9170""
","
","
","""event"",""trial"",""time""
""fullscreenenter"",""1"",""9170""
","
","","","","","","null","<div style=""font-size:60px;"">+</div>","null","","fixation","","",""
"memory-trial","104","314075","0.0-18.0-1.30","4265","approach_avoid_sv1","""event"",""trial"",""time""
""fullscreenenter"",""1"",""9170""
","
","
","""event"",""trial"",""time""
""fullscreenenter"",""1"",""9170""
","
","","","","","","982.8000000007451","images/bed1.png","","","memory_trial","1","definitely_old",""
"html-keyboard-response","105","314579","0.0-18.0-0.31","4265","approach_avoid_sv1","""event"",""trial"",""time""
""fullscreenenter"",""1"",""9170""
","
","
","""event"",""trial"",""time""
""fullscreenenter"",""1"",""9170""
","
","","","","","","null","<div style=""font-size:60px;"">+</div>","null","","fixation","","",""
"memory-trial","106","316987","0.0-18.0-1.31","4265","approach_avoid_sv1","""event"",""trial"",""time""
""fullscreenenter"",""1"",""9170""
","
","
","""event"",""trial"",""time""
""fullscreenenter"",""1"",""9170""
","
","","","","","","1398.3999999985099","images/flower4.png","","","memory_trial","1","definitely_old",""
"html-keyboard-response","107","317491","0.0-18.0-0.32","4265","approach_avoid_sv1","""event"",""trial"",""time""
""fullscreenenter"",""1"",""9170""
","
","
","""event"",""trial"",""time""
""fullscreenenter"",""1"",""9170""
","
","","","","","","null","<div style=""font-size:60px;"">+</div>","null","","fixation","","",""
"memory-trial","108","320003","0.0-18.0-1.32","4265","approach_avoid_sv1","""event"",""trial"",""time""
""fullscreenenter"",""1"",""9170""
","
","
","""event"",""trial"",""time""
""fullscreenenter"",""1"",""9170""
","
","","","","","","1504.800000000745","images/sheep6.png","","","memory_trial","3","maybe_new",""
"html-keyboard-response","109","320506","0.0-18.0-0.33","4265","approach_avoid_sv1","""event"",""trial"",""time""
""fullscreenenter"",""1"",""9170""
","
","
","""event"",""trial"",""time""
""fullscreenenter"",""1"",""9170""
","
","","","","","","null","<div style=""font-size:60px;"">+</div>","null","","fixation","","",""
"memory-trial","110","322645","0.0-18.0-1.33","4265","approach_avoid_sv1","""event"",""trial"",""time""
""fullscreenenter"",""1"",""9170""
","
","
","""event"",""trial"",""time""
""fullscreenenter"",""1"",""9170""
","
","","","","","","1133.5","images/dog7.png","","","memory_trial","4","definitely_new",""
"html-keyboard-response","111","323147","0.0-18.0-0.34","4265","approach_avoid_sv1","""event"",""trial"",""time""
""fullscreenenter"",""1"",""9170""
","
","
","""event"",""trial"",""time""
""fullscreenenter"",""1"",""9170""
","
","","","","","","null","<div style=""font-size:60px;"">+</div>","null","","fixation","","",""
"memory-trial","112","325570","0.0-18.0-1.34","4265","approach_avoid_sv1","""event"",""trial"",""time""
""fullscreenenter"",""1"",""9170""
","
","
","""event"",""trial"",""time""
""fullscreenenter"",""1"",""9170""
","
","","","","","","1417.300000000745","images/apple1.png","","","memory_trial","2","maybe_old",""
"html-keyboard-response","113","326075","0.0-18.0-0.35","4265","approach_avoid_sv1","""event"",""trial"",""time""
""fullscreenenter"",""1"",""9170""
","
","
","""event"",""trial"",""time""
""fullscreenenter"",""1"",""9170""
","
","","","","","","null","<div style=""font-size:60px;"">+</div>","null","","fixation","","",""
"memory-trial","114","328346","0.0-18.0-1.35","4265","approach_avoid_sv1","""event"",""trial"",""time""
""fullscreenenter"",""1"",""9170""
","
","
","""event"",""trial"",""time""
""fullscreenenter"",""1"",""9170""
","
","","","","","","1264.199999999255","images/table3.png","","","memory_trial","4","definitely_new",""
"html-keyboard-response","115","328851","0.0-18.0-0.36","4265","approach_avoid_sv1","""event"",""trial"",""time""
""fullscreenenter"",""1"",""9170""
","
","
","""event"",""trial"",""time""
""fullscreenenter"",""1"",""9170""
","
","","","","","","null","<div style=""font-size:60px;"">+</div>","null","","fixation","","",""
"memory-trial","116","331563","0.0-18.0-1.36","4265","approach_avoid_sv1","""event"",""trial"",""time""
""fullscreenenter"",""1"",""9170""
","
","
","""event"",""trial"",""time""
""fullscreenenter"",""1"",""9170""
","
","","","","","","1701.300000000745","images/tree4.png","","","memory_trial","3","maybe_new",""
"html-keyboard-response","117","332066","0.0-18.0-0.37","4265","approach_avoid_sv1","""event"",""trial"",""time""
""fullscreenenter"",""1"",""9170""
","
","
","""event"",""trial"",""time""
""fullscreenenter"",""1"",""9170""
","
","","","","","","null","<div style=""font-size:60px;"">+</div>","null","","fixation","","",""
"memory-trial","118","334699","0.0-18.0-1.37","4265","approach_avoid_sv1","""event"",""trial"",""time""
""fullscreenenter"",""1"",""9170""
","
","
","""event"",""trial"",""time""
""fullscreenenter"",""1"",""9170""
","
","","","","","","1624.199999999255","images/flower5.png","","","memory_trial","2","maybe_old",""
"html-keyboard-response","119","335203","0.0-18.0-0.38","4265","approach_avoid_sv1","""event"",""trial"",""time""
""fullscreenenter"",""1"",""9170""
","
","
","""event"",""trial"",""time""
""fullscreenenter"",""1"",""9170""
","
","","","","","","null","<div style=""font-size:60px;"">+</div>","null","","fixation","","",""
"memory-trial","120","338043","0.0-18.0-1.38","4265","approach_avoid_sv1","""event"",""trial"",""time""
""fullscreenenter"",""1"",""9170""
","
","
","""event"",""trial"",""time""
""fullscreenenter"",""1"",""9170""
","
","","","","","","1830.5","images/cactus7.png","","","memory_trial","3","maybe_new",""
"html-keyboard-response","121","338547","0.0-18.0-0.39","4265","approach_avoid_sv1","""event"",""trial"",""time""
""fullscreenenter"",""1"",""9170""
","
","
","""event"",""trial"",""time""
""fullscreenenter"",""1"",""9170""
","
","","","","","","null","<div style=""font-size:60px;"">+</div>","null","","fixation","","",""
"memory-trial","122","340827","0.0-18.0-1.39","4265","approach_avoid_sv1","""event"",""trial"",""time""
""fullscreenenter"",""1"",""9170""
","
","
","""event"",""trial"",""time""
""fullscreenenter"",""1"",""9170""
","
","","","","","","1272","images/banana1.png","","","memory_trial","3","maybe_new",""
"html-keyboard-response","123","341330","0.0-18.0-0.40","4265","approach_avoid_sv1","""event"",""trial"",""time""
""fullscreenenter"",""1"",""9170""
","
","
","""event"",""trial"",""time""
""fullscreenenter"",""1"",""9170""
","
","","","","","","null","<div style=""font-size:60px;"">+</div>","null","","fixation","","",""
"memory-trial","124","343764","0.0-18.0-1.40","4265","approach_avoid_sv1","""event"",""trial"",""time""
""fullscreenenter"",""1"",""9170""
","
","
","""event"",""trial"",""time""
""fullscreenenter"",""1"",""9170""
","
","","","","","","1426.5","images/banana3.png","","","memory_trial","2","maybe_old",""
"html-keyboard-response","125","344266","0.0-18.0-0.41","4265","approach_avoid_sv1","""event"",""trial"",""time""
""fullscreenenter"",""1"",""9170""
","
","
","""event"",""trial"",""time""
""fullscreenenter"",""1"",""9170""
","
","","","","","","null","<div style=""font-size:60px;"">+</div>","null","","fixation","","",""
"memory-trial","126","346771","0.0-18.0-1.41","4265","approach_avoid_sv1","""event"",""trial"",""time""
""fullscreenenter"",""1"",""9170""
","
","
","""event"",""trial"",""time""
""fullscreenenter"",""1"",""9170""
","
","","","","","","1499.0999999977648","images/sofa7.png","","","memory_trial","3","maybe_new",""
"html-button-response","127","348449","0.0-18.0-2.41-0.41","4265","approach_avoid_sv1","""event"",""trial"",""time""
""fullscreenenter"",""1"",""9170""
","
","
","""event"",""trial"",""time""
""fullscreenenter"",""1"",""9170""
","
","","","","","","1676","<p> Take a break! </p><p> Click the button to continue. </p>","0","","break","","",""
"html-keyboard-response","128","348955","0.0-18.0-0.42","4265","approach_avoid_sv1","""event"",""trial"",""time""
""fullscreenenter"",""1"",""9170""
","
","
","""event"",""trial"",""time""
""fullscreenenter"",""1"",""9170""
","
","","","","","","null","<div style=""font-size:60px;"">+</div>","null","","fixation","","",""
"memory-trial","129","352011","0.0-18.0-1.42","4265","approach_avoid_sv1","""event"",""trial"",""time""
""fullscreenenter"",""1"",""9170""
","
","
","""event"",""trial"",""time""
""fullscreenenter"",""1"",""9170""
","
","","","","","","2050","images/plane6.png","","","memory_trial","1","definitely_old",""
"html-keyboard-response","130","352515","0.0-18.0-0.43","4265","approach_avoid_sv1","""event"",""trial"",""time""
""fullscreenenter"",""1"",""9170""
","
","
","""event"",""trial"",""time""
""fullscreenenter"",""1"",""9170""
","
","","","","","","null","<div style=""font-size:60px;"">+</div>","null","","fixation","","",""
"memory-trial","131","355235","0.0-18.0-1.43","4265","approach_avoid_sv1","""event"",""trial"",""time""
""fullscreenenter"",""1"",""9170""
","
","
","""event"",""trial"",""time""
""fullscreenenter"",""1"",""9170""
","
","","","","","","1708.7999999970198","images/cat6.png","","","memory_trial","2","maybe_old",""
"html-keyboard-response","132","355739","0.0-18.0-0.44","4265","approach_avoid_sv1","""event"",""trial"",""time""
""fullscreenenter"",""1"",""9170""
","
","
","""event"",""trial"",""time""
""fullscreenenter"",""1"",""9170""
","
","","","","","","null","<div style=""font-size:60px;"">+</div>","null","","fixation","","",""
"memory-trial","133","358075","0.0-18.0-1.44","4265","approach_avoid_sv1","""event"",""trial"",""time""
""fullscreenenter"",""1"",""9170""
","
","
","""event"",""trial"",""time""
""fullscreenenter"",""1"",""9170""
","
","","","","","","1332.300000000745","images/apple5.png","","","memory_trial","1","definitely_old",""
"html-keyboard-response","134","358578","0.0-18.0-0.45","4265","approach_avoid_sv1","""event"",""trial"",""time""
""fullscreenenter"",""1"",""9170""
","
","
","""event"",""trial"",""time""
""fullscreenenter"",""1"",""9170""
","
","","","","","","null","<div style=""font-size:60px;"">+</div>","null","","fixation","","",""
"memory-trial","135","361251","0.0-18.0-1.45","4265","approach_avoid_sv1","""event"",""trial"",""time""
""fullscreenenter"",""1"",""9170""
","
","
","""event"",""trial"",""time""
""fullscreenenter"",""1"",""9170""
","
","","","","","","1663.5","images/boat1.png","","","memory_trial","4","definitely_new",""
"html-keyboard-response","136","361755","0.0-18.0-0.46","4265","approach_avoid_sv1","""event"",""trial"",""time""
""fullscreenenter"",""1"",""9170""
","
","
","""event"",""trial"",""time""
""fullscreenenter"",""1"",""9170""
","
","","","","","","null","<div style=""font-size:60px;"">+</div>","null","","fixation","","",""
"memory-trial","137","364515","0.0-18.0-1.46","4265","approach_avoid_sv1","""event"",""trial"",""time""
""fullscreenenter"",""1"",""9170""
","
","
","""event"",""trial"",""time""
""fullscreenenter"",""1"",""9170""
","
","","","","","","1755.300000000745","images/straw3.png","","","memory_trial","3","maybe_new",""
"html-keyboard-response","138","365019","0.0-18.0-0.47","4265","approach_avoid_sv1","""event"",""trial"",""time""
""fullscreenenter"",""1"",""9170""
","
","
","""event"",""trial"",""time""
""fullscreenenter"",""1"",""9170""
","
","","","","","","null","<div style=""font-size:60px;"">+</div>","null","","fixation","","",""
"memory-trial","139","368035","0.0-18.0-1.47","4265","approach_avoid_sv1","""event"",""trial"",""time""
""fullscreenenter"",""1"",""9170""
","
","
","""event"",""trial"",""time""
""fullscreenenter"",""1"",""9170""
","
","","","","","","2005.4000000022352","images/train4.png","","","memory_trial","2","maybe_old",""
"html-keyboard-response","140","368539","0.0-18.0-0.48","4265","approach_avoid_sv1","""event"",""trial"",""time""
""fullscreenenter"",""1"",""9170""
","
","
","""event"",""trial"",""time""
""fullscreenenter"",""1"",""9170""
","
","","","","","","null","<div style=""font-size:60px;"">+</div>","null","","fixation","","",""
"memory-trial","141","371723","0.0-18.0-1.48","4265","approach_avoid_sv1","""event"",""trial"",""time""
""fullscreenenter"",""1"",""9170""
","
","
","""event"",""trial"",""time""
""fullscreenenter"",""1"",""9170""
","
","","","","","","2174.199999999255","images/cow5.png","","","memory_trial","1","definitely_old",""
"html-keyboard-response","142","372227","0.0-18.0-0.49","4265","approach_avoid_sv1","""event"",""trial"",""time""
""fullscreenenter"",""1"",""9170""
","
","
","""event"",""trial"",""time""
""fullscreenenter"",""1"",""9170""
","
","","","","","","null","<div style=""font-size:60px;"">+</div>","null","","fixation","","",""
"memory-trial","143","375395","0.0-18.0-1.49","4265","approach_avoid_sv1","""event"",""trial"",""time""
""fullscreenenter"",""1"",""9170""
","
","
","""event"",""trial"",""time""
""fullscreenenter"",""1"",""9170""
","
","","","","","","2157.599999997765","images/truck5.png","","","memory_trial","1","definitely_old",""
"html-keyboard-response","144","375898","0.0-18.0-0.50","4265","approach_avoid_sv1","""event"",""trial"",""time""
""fullscreenenter"",""1"",""9170""
","
","
","""event"",""trial"",""time""
""fullscreenenter"",""1"",""9170""
","
","","","","","","null","<div style=""font-size:60px;"">+</div>","null","","fixation","","",""
"memory-trial","145","378522","0.0-18.0-1.50","4265","approach_avoid_sv1","""event"",""trial"",""time""
""fullscreenenter"",""1"",""9170""
","
","
","""event"",""trial"",""time""
""fullscreenenter"",""1"",""9170""
","
","","","","","","1617.5","images/horse2.png","","","memory_trial","3","maybe_new",""
"html-keyboard-response","146","379027","0.0-18.0-0.51","4265","approach_avoid_sv1","""event"",""trial"",""time""
""fullscreenenter"",""1"",""9170""
","
","
","""event"",""trial"",""time""
""fullscreenenter"",""1"",""9170""
","
","","","","","","null","<div style=""font-size:60px;"">+</div>","null","","fixation","","",""
"memory-trial","147","381619","0.0-18.0-1.51","4265","approach_avoid_sv1","""event"",""trial"",""time""
""fullscreenenter"",""1"",""9170""
","
","
","""event"",""trial"",""time""
""fullscreenenter"",""1"",""9170""
","
","","","","","","1582","images/apple7.png","","","memory_trial","2","maybe_old",""
"html-keyboard-response","148","382122","0.0-18.0-0.52","4265","approach_avoid_sv1","""event"",""trial"",""time""
""fullscreenenter"",""1"",""9170""
","
","
","""event"",""trial"",""time""
""fullscreenenter"",""1"",""9170""
","
","","","","","","null","<div style=""font-size:60px;"">+</div>","null","","fixation","","",""
"memory-trial","149","384683","0.0-18.0-1.52","4265","approach_avoid_sv1","""event"",""trial"",""time""
""fullscreenenter"",""1"",""9170""
","
","
","""event"",""trial"",""time""
""fullscreenenter"",""1"",""9170""
","
","","","","","","1552.8999999985099","images/dog3.png","","","memory_trial","3","maybe_new",""
"html-keyboard-response","150","385187","0.0-18.0-0.53","4265","approach_avoid_sv1","""event"",""trial"",""time""
""fullscreenenter"",""1"",""9170""
","
","
","""event"",""trial"",""time""
""fullscreenenter"",""1"",""9170""
","
","","","","","","null","<div style=""font-size:60px;"">+</div>","null","","fixation","","",""
"memory-trial","151","387939","0.0-18.0-1.53","4265","approach_avoid_sv1","""event"",""trial"",""time""
""fullscreenenter"",""1"",""9170""
","
","
","""event"",""trial"",""time""
""fullscreenenter"",""1"",""9170""
","
","","","","","","1743.4000000022352","images/boat5.png","","","memory_trial","4","definitely_new",""
"html-keyboard-response","152","388443","0.0-18.0-0.54","4265","approach_avoid_sv1","""event"",""trial"",""time""
""fullscreenenter"",""1"",""9170""
","
","
","""event"",""trial"",""time""
""fullscreenenter"",""1"",""9170""
","
","","","","","","null","<div style=""font-size:60px;"">+</div>","null","","fixation","","",""
"memory-trial","153","392083","0.0-18.0-1.54","4265","approach_avoid_sv1","""event"",""trial"",""time""
""fullscreenenter"",""1"",""9170""
","
","
","""event"",""trial"",""time""
""fullscreenenter"",""1"",""9170""
","
","","","","","","2630.89999999851","images/tree2.png","","","memory_trial","3","maybe_new",""
"html-keyboard-response","154","392587","0.0-18.0-0.55","4265","approach_avoid_sv1","""event"",""trial"",""time""
""fullscreenenter"",""1"",""9170""
","
","
","""event"",""trial"",""time""
""fullscreenenter"",""1"",""9170""
","
","","","","","","null","<div style=""font-size:60px;"">+</div>","null","","fixation","","",""
"memory-trial","155","395763","0.0-18.0-1.55","4265","approach_avoid_sv1","""event"",""trial"",""time""
""fullscreenenter"",""1"",""9170""
","
","
","""event"",""trial"",""time""
""fullscreenenter"",""1"",""9170""
","
","","","","","","2168.300000000745","images/dog2.png","","","memory_trial","3","maybe_new",""
"html-keyboard-response","156","396267","0.0-18.0-0.56","4265","approach_avoid_sv1","""event"",""trial"",""time""
""fullscreenenter"",""1"",""9170""
","
","
","""event"",""trial"",""time""
""fullscreenenter"",""1"",""9170""
","
","","","","","","null","<div style=""font-size:60px;"">+</div>","null","","fixation","","",""
"memory-trial","157","399523","0.0-18.0-1.56","4265","approach_avoid_sv1","""event"",""trial"",""time""
""fullscreenenter"",""1"",""9170""
","
","
","""event"",""trial"",""time""
""fullscreenenter"",""1"",""9170""
","
","","","","","","2251.300000000745","images/rabbit3.png","","","memory_trial","3","maybe_new",""
"html-keyboard-response","158","400027","0.0-18.0-0.57","4265","approach_avoid_sv1","""event"",""trial"",""time""
""fullscreenenter"",""1"",""9170""
","
","
","""event"",""trial"",""time""
""fullscreenenter"",""1"",""9170""
","
","","","","","","null","<div style=""font-size:60px;"">+</div>","null","","fixation","","",""
"memory-trial","159","402339","0.0-18.0-1.57","4265","approach_avoid_sv1","""event"",""trial"",""time""
""fullscreenenter"",""1"",""9170""
","
","
","""event"",""trial"",""time""
""fullscreenenter"",""1"",""9170""
","
","","","","","","1300.300000000745","images/dog6.png","","","memory_trial","1","definitely_old",""
"html-keyboard-response","160","402843","0.0-18.0-0.58","4265","approach_avoid_sv1","""event"",""trial"",""time""
""fullscreenenter"",""1"",""9170""
","
","
","""event"",""trial"",""time""
""fullscreenenter"",""1"",""9170""
","
","","","","","","null","<div style=""font-size:60px;"">+</div>","null","","fixation","","",""
"memory-trial","161","405323","0.0-18.0-1.58","4265","approach_avoid_sv1","""event"",""trial"",""time""
""fullscreenenter"",""1"",""9170""
","
","
","""event"",""trial"",""time""
""fullscreenenter"",""1"",""9170""
","
","","","","","","1472.699999999255","images/rabbit4.png","","","memory_trial","2","maybe_old",""
"html-keyboard-response","162","405827","0.0-18.0-0.59","4265","approach_avoid_sv1","""event"",""trial"",""time""
""fullscreenenter"",""1"",""9170""
","
","
","""event"",""trial"",""time""
""fullscreenenter"",""1"",""9170""
","
","","","","","","null","<div style=""font-size:60px;"">+</div>","null","","fixation","","",""
"memory-trial","163","408939","0.0-18.0-1.59","4265","approach_avoid_sv1","""event"",""trial"",""time""
""fullscreenenter"",""1"",""9170""
","
","
","""event"",""trial"",""time""
""fullscreenenter"",""1"",""9170""
","
","","","","","","2104.300000000745","images/goat4.png","","","memory_trial","2","maybe_old",""
"html-keyboard-response","164","409443","0.0-18.0-0.60","4265","approach_avoid_sv1","""event"",""trial"",""time""
""fullscreenenter"",""1"",""9170""
","
","
","""event"",""trial"",""time""
""fullscreenenter"",""1"",""9170""
","
","","","","","","null","<div style=""font-size:60px;"">+</div>","null","","fixation","","",""
"memory-trial","165","411507","0.0-18.0-1.60","4265","approach_avoid_sv1","""event"",""trial"",""time""
""fullscreenenter"",""1"",""9170""
","
","
","""event"",""trial"",""time""
""fullscreenenter"",""1"",""9170""
","
","","","","","","1059.6000000014901","images/flower1.png","","","memory_trial","1","definitely_old",""
"html-keyboard-response","166","412011","0.0-18.0-0.61","4265","approach_avoid_sv1","""event"",""trial"",""time""
""fullscreenenter"",""1"",""9170""
","
","
","""event"",""trial"",""time""
""fullscreenenter"",""1"",""9170""
","
","","","","","","null","<div style=""font-size:60px;"">+</div>","null","","fixation","","",""
"memory-trial","167","414355","0.0-18.0-1.61","4265","approach_avoid_sv1","""event"",""trial"",""time""
""fullscreenenter"",""1"",""9170""
","
","
","""event"",""trial"",""time""
""fullscreenenter"",""1"",""9170""
","
","","","","","","1340.6000000014901","images/chair6.png","","","memory_trial","3","maybe_new",""
"html-keyboard-response","168","414858","0.0-18.0-0.62","4265","approach_avoid_sv1","""event"",""trial"",""time""
""fullscreenenter"",""1"",""9170""
","
","
","""event"",""trial"",""time""
""fullscreenenter"",""1"",""9170""
","
","","","","","","null","<div style=""font-size:60px;"">+</div>","null","","fixation","","",""
"memory-trial","169","417403","0.0-18.0-1.62","4265","approach_avoid_sv1","""event"",""trial"",""time""
""fullscreenenter"",""1"",""9170""
","
","
","""event"",""trial"",""time""
""fullscreenenter"",""1"",""9170""
","
","","","","","","1540.199999999255","images/truck8.png","","","memory_trial","3","maybe_new",""
"html-keyboard-response","170","417907","0.0-18.0-0.63","4265","approach_avoid_sv1","""event"",""trial"",""time""
""fullscreenenter"",""1"",""9170""
","
","
","""event"",""trial"",""time""
""fullscreenenter"",""1"",""9170""
","
","","","","","","null","<div style=""font-size:60px;"">+</div>","null","","fixation","","",""
"memory-trial","171","421339","0.0-18.0-1.63","4265","approach_avoid_sv1","""event"",""trial"",""time""
""fullscreenenter"",""1"",""9170""
","
","
","""event"",""trial"",""time""
""fullscreenenter"",""1"",""9170""
","
","","","","","","2422.199999999255","images/chair3.png","","","memory_trial","2","maybe_old",""
"html-keyboard-response","172","421843","0.0-18.0-0.64","4265","approach_avoid_sv1","""event"",""trial"",""time""
""fullscreenenter"",""1"",""9170""
","
","
","""event"",""trial"",""time""
""fullscreenenter"",""1"",""9170""
","
","","","","","","null","<div style=""font-size:60px;"">+</div>","null","","fixation","","",""
"memory-trial","173","423811","0.0-18.0-1.64","4265","approach_avoid_sv1","""event"",""trial"",""time""
""fullscreenenter"",""1"",""9170""
","
","
","""event"",""trial"",""time""
""fullscreenenter"",""1"",""9170""
","
","","","","","","961.1999999992549","images/orange7.png","","","memory_trial","1","definitely_old",""
"html-keyboard-response","174","424315","0.0-18.0-0.65","4265","approach_avoid_sv1","""event"",""trial"",""time""
""fullscreenenter"",""1"",""9170""
","
","
","""event"",""trial"",""time""
""fullscreenenter"",""1"",""9170""
","
","","","","","","null","<div style=""font-size:60px;"">+</div>","null","","fixation","","",""
"memory-trial","175","426539","0.0-18.0-1.65","4265","approach_avoid_sv1","""event"",""trial"",""time""
""fullscreenenter"",""1"",""9170""
","
","
","""event"",""trial"",""time""
""fullscreenenter"",""1"",""9170""
","
","","","","","","1217.3999999985099","images/straw4.png","","","memory_trial","2","maybe_old",""
"html-keyboard-response","176","427043","0.0-18.0-0.66","4265","approach_avoid_sv1","""event"",""trial"",""time""
""fullscreenenter"",""1"",""9170""
","
","
","""event"",""trial"",""time""
""fullscreenenter"",""1"",""9170""
","
","","","","","","null","<div style=""font-size:60px;"">+</div>","null","","fixation","","",""
"memory-trial","177","429483","0.0-18.0-1.66","4265","approach_avoid_sv1","""event"",""trial"",""time""
""fullscreenenter"",""1"",""9170""
","
","
","""event"",""trial"",""time""
""fullscreenenter"",""1"",""9170""
","
","","","","","","1434.199999999255","images/train7.png","","","memory_trial","4","definitely_new",""
"html-keyboard-response","178","429987","0.0-18.0-0.67","4265","approach_avoid_sv1","""event"",""trial"",""time""
""fullscreenenter"",""1"",""9170""
","
","
","""event"",""trial"",""time""
""fullscreenenter"",""1"",""9170""
","
","","","","","","null","<div style=""font-size:60px;"">+</div>","null","","fixation","","",""
"memory-trial","179","433227","0.0-18.0-1.67","4265","approach_avoid_sv1","""event"",""trial"",""time""
""fullscreenenter"",""1"",""9170""
","
","
","""event"",""trial"",""time""
""fullscreenenter"",""1"",""9170""
","
","","","","","","2231.39999999851","images/rabbit7.png","","","memory_trial","3","maybe_new",""
"html-keyboard-response","180","433731","0.0-18.0-0.68","4265","approach_avoid_sv1","""event"",""trial"",""time""
""fullscreenenter"",""1"",""9170""
","
","
","""event"",""trial"",""time""
""fullscreenenter"",""1"",""9170""
","
","","","","","","null","<div style=""font-size:60px;"">+</div>","null","","fixation","","",""
"memory-trial","181","436516","0.0-18.0-1.68","4265","approach_avoid_sv1","""event"",""trial"",""time""
""fullscreenenter"",""1"",""9170""
","
","
","""event"",""trial"",""time""
""fullscreenenter"",""1"",""9170""
","
","","","","","","1779.6000000014901","images/flower3.png","","","memory_trial","1","definitely_old",""
"html-keyboard-response","182","437019","0.0-18.0-0.69","4265","approach_avoid_sv1","""event"",""trial"",""time""
""fullscreenenter"",""1"",""9170""
","
","
","""event"",""trial"",""time""
""fullscreenenter"",""1"",""9170""
","
","","","","","","null","<div style=""font-size:60px;"">+</div>","null","","fixation","","",""
"memory-trial","183","439124","0.0-18.0-1.69","4265","approach_avoid_sv1","""event"",""trial"",""time""
""fullscreenenter"",""1"",""9170""
","
","
","""event"",""trial"",""time""
""fullscreenenter"",""1"",""9170""
","
","","","","","","1095.699999999255","images/horse8.png","","","memory_trial","3","maybe_new",""
"html-keyboard-response","184","439627","0.0-18.0-0.70","4265","approach_avoid_sv1","""event"",""trial"",""time""
""fullscreenenter"",""1"",""9170""
","
","
","""event"",""trial"",""time""
""fullscreenenter"",""1"",""9170""
","
","","","","","","null","<div style=""font-size:60px;"">+</div>","null","","fixation","","",""
"memory-trial","185","442620","0.0-18.0-1.70","4265","approach_avoid_sv1","""event"",""trial"",""time""
""fullscreenenter"",""1"",""9170""
","
","
","""event"",""trial"",""time""
""fullscreenenter"",""1"",""9170""
","
","","","","","","1981.0999999977648","images/chair4.png","","","memory_trial","4","definitely_new",""
"html-keyboard-response","186","443124","0.0-18.0-0.71","4265","approach_avoid_sv1","""event"",""trial"",""time""
""fullscreenenter"",""1"",""9170""
","
","
","""event"",""trial"",""time""
""fullscreenenter"",""1"",""9170""
","
","","","","","","null","<div style=""font-size:60px;"">+</div>","null","","fixation","","",""
"memory-trial","187","446884","0.0-18.0-1.71","4265","approach_avoid_sv1","""event"",""trial"",""time""
""fullscreenenter"",""1"",""9170""
","
","
","""event"",""trial"",""time""
""fullscreenenter"",""1"",""9170""
","
","","","","","","2756.7000000029802","images/rabbit6.png","","","memory_trial","3","maybe_new",""
"html-keyboard-response","188","447387","0.0-18.0-0.72","4265","approach_avoid_sv1","""event"",""trial"",""time""
""fullscreenenter"",""1"",""9170""
","
","
","""event"",""trial"",""time""
""fullscreenenter"",""1"",""9170""
","
","","","","","","null","<div style=""font-size:60px;"">+</div>","null","","fixation","","",""
"memory-trial","189","449983","0.0-18.0-1.72","4265","approach_avoid_sv1","""event"",""trial"",""time""
""fullscreenenter"",""1"",""9170""
","
","
","""event"",""trial"",""time""
""fullscreenenter"",""1"",""9170""
","
","","","","","","1588.199999999255","images/apple8.png","","","memory_trial","3","maybe_new",""
"html-keyboard-response","190","450492","0.0-18.0-0.73","4265","approach_avoid_sv1","""event"",""trial"",""time""
""fullscreenenter"",""1"",""9170""
","
","
","""event"",""trial"",""time""
""fullscreenenter"",""1"",""9170""
","
","","","","","","null","<div style=""font-size:60px;"">+</div>","null","","fixation","","",""
"memory-trial","191","452788","0.0-18.0-1.73","4265","approach_avoid_sv1","""event"",""trial"",""time""
""fullscreenenter"",""1"",""9170""
","
","
","""event"",""trial"",""time""
""fullscreenenter"",""1"",""9170""
","
","","","","","","1286.300000000745","images/cow7.png","","","memory_trial","1","definitely_old",""
"html-keyboard-response","192","453292","0.0-18.0-0.74","4265","approach_avoid_sv1","""event"",""trial"",""time""
""fullscreenenter"",""1"",""9170""
","
","
","""event"",""trial"",""time""
""fullscreenenter"",""1"",""9170""
","
","","","","","","null","<div style=""font-size:60px;"">+</div>","null","","fixation","","",""
"memory-trial","193","455444","0.0-18.0-1.74","4265","approach_avoid_sv1","""event"",""trial"",""time""
""fullscreenenter"",""1"",""9170""
","
","
","""event"",""trial"",""time""
""fullscreenenter"",""1"",""9170""
","
","","","","","","1149.0999999977648","images/cactus3.png","","","memory_trial","2","maybe_old",""
"html-keyboard-response","194","455947","0.0-18.0-0.75","4265","approach_avoid_sv1","""event"",""trial"",""time""
""fullscreenenter"",""1"",""9170""
","
","
","""event"",""trial"",""time""
""fullscreenenter"",""1"",""9170""
","
","","","","","","null","<div style=""font-size:60px;"">+</div>","null","","fixation","","",""
"memory-trial","195","459740","0.0-18.0-1.75","4265","approach_avoid_sv1","""event"",""trial"",""time""
""fullscreenenter"",""1"",""9170""
","
","
","""event"",""trial"",""time""
""fullscreenenter"",""1"",""9170""
","
","","","","","","2783","images/train1.png","","","memory_trial","2","maybe_old",""
"html-keyboard-response","196","460244","0.0-18.0-0.76","4265","approach_avoid_sv1","""event"",""trial"",""time""
""fullscreenenter"",""1"",""9170""
","
","
","""event"",""trial"",""time""
""fullscreenenter"",""1"",""9170""
","
","","","","","","null","<div style=""font-size:60px;"">+</div>","null","","fixation","","",""
"memory-trial","197","462836","0.0-18.0-1.76","4265","approach_avoid_sv1","""event"",""trial"",""time""
""fullscreenenter"",""1"",""9170""
","
","
","""event"",""trial"",""time""
""fullscreenenter"",""1"",""9170""
","
","","","","","","1586.5","images/rodent3.png","","","memory_trial","3","maybe_new",""
"html-keyboard-response","198","463340","0.0-18.0-0.77","4265","approach_avoid_sv1","""event"",""trial"",""time""
""fullscreenenter"",""1"",""9170""
","
","
","""event"",""trial"",""time""
""fullscreenenter"",""1"",""9170""
","
","","","","","","null","<div style=""font-size:60px;"">+</div>","null","","fixation","","",""
"memory-trial","199","465364","0.0-18.0-1.77","4265","approach_avoid_sv1","""event"",""trial"",""time""
""fullscreenenter"",""1"",""9170""
","
","
","""event"",""trial"",""time""
""fullscreenenter"",""1"",""9170""
","
","","","","","","1018.6999999992549","images/goat5.png","","","memory_trial","3","maybe_new",""
"html-keyboard-response","200","465868","0.0-18.0-0.78","4265","approach_avoid_sv1","""event"",""trial"",""time""
""fullscreenenter"",""1"",""9170""
","
","
","""event"",""trial"",""time""
""fullscreenenter"",""1"",""9170""
","
","","","","","","null","<div style=""font-size:60px;"">+</div>","null","","fixation","","",""
"memory-trial","201","468908","0.0-18.0-1.78","4265","approach_avoid_sv1","""event"",""trial"",""time""
""fullscreenenter"",""1"",""9170""
","
","
","""event"",""trial"",""time""
""fullscreenenter"",""1"",""9170""
","
","","","","","","2032.5999999977648","images/plane2.png","","","memory_trial","4","definitely_new",""
"html-keyboard-response","202","469412","0.0-18.0-0.79","4265","approach_avoid_sv1","""event"",""trial"",""time""
""fullscreenenter"",""1"",""9170""
","
","
","""event"",""trial"",""time""
""fullscreenenter"",""1"",""9170""
","
","","","","","","null","<div style=""font-size:60px;"">+</div>","null","","fixation","","",""
"memory-trial","203","471899","0.0-18.0-1.79","4265","approach_avoid_sv1","""event"",""trial"",""time""
""fullscreenenter"",""1"",""9170""
","
","
","""event"",""trial"",""time""
""fullscreenenter"",""1"",""9170""
","
","","","","","","1480.8999999985099","images/cat1.png","","","memory_trial","4","definitely_new",""
"html-keyboard-response","204","472404","0.0-18.0-0.80","4265","approach_avoid_sv1","""event"",""trial"",""time""
""fullscreenenter"",""1"",""9170""
","
","
","""event"",""trial"",""time""
""fullscreenenter"",""1"",""9170""
","
","","","","","","null","<div style=""font-size:60px;"">+</div>","null","","fixation","","",""
"memory-trial","205","475396","0.0-18.0-1.80","4265","approach_avoid_sv1","""event"",""trial"",""time""
""fullscreenenter"",""1"",""9170""
","
","
","""event"",""trial"",""time""
""fullscreenenter"",""1"",""9170""
","
","","","","","","1982.199999999255","images/cactus6.png","","","memory_trial","3","maybe_new",""
"html-keyboard-response","206","475900","0.0-18.0-0.81","4265","approach_avoid_sv1","""event"",""trial"",""time""
""fullscreenenter"",""1"",""9170""
","
","
","""event"",""trial"",""time""
""fullscreenenter"",""1"",""9170""
","
","","","","","","null","<div style=""font-size:60px;"">+</div>","null","","fixation","","",""
"memory-trial","207","477851","0.0-18.0-1.81","4265","approach_avoid_sv1","""event"",""trial"",""time""
""fullscreenenter"",""1"",""9170""
","
","
","""event"",""trial"",""time""
""fullscreenenter"",""1"",""9170""
","
","","","","","","945.5999999977648","images/straw7.png","","","memory_trial","3","maybe_new",""
"html-keyboard-response","208","478356","0.0-18.0-0.82","4265","approach_avoid_sv1","""event"",""trial"",""time""
""fullscreenenter"",""1"",""9170""
","
","
","""event"",""trial"",""time""
""fullscreenenter"",""1"",""9170""
","
","","","","","","null","<div style=""font-size:60px;"">+</div>","null","","fixation","","",""
"memory-trial","209","480380","0.0-18.0-1.82","4265","approach_avoid_sv1","""event"",""trial"",""time""
""fullscreenenter"",""1"",""9170""
","
","
","""event"",""trial"",""time""
""fullscreenenter"",""1"",""9170""
","
","","","","","","1018.3000000007451","images/goat6.png","","","memory_trial","3","maybe_new",""
"html-keyboard-response","210","480884","0.0-18.0-0.83","4265","approach_avoid_sv1","""event"",""trial"",""time""
""fullscreenenter"",""1"",""9170""
","
","
","""event"",""trial"",""time""
""fullscreenenter"",""1"",""9170""
","
","","","","","","null","<div style=""font-size:60px;"">+</div>","null","","fixation","","",""
"memory-trial","211","483067","0.0-18.0-1.83","4265","approach_avoid_sv1","""event"",""trial"",""time""
""fullscreenenter"",""1"",""9170""
","
","
","""event"",""trial"",""time""
""fullscreenenter"",""1"",""9170""
","
","","","","","","1180.6000000014901","images/cactus1.png","","","memory_trial","4","definitely_new",""
"html-keyboard-response","212","483572","0.0-18.0-0.84","4265","approach_avoid_sv1","""event"",""trial"",""time""
""fullscreenenter"",""1"",""9170""
","
","
","""event"",""trial"",""time""
""fullscreenenter"",""1"",""9170""
","
","","","","","","null","<div style=""font-size:60px;"">+</div>","null","","fixation","","",""
"memory-trial","213","487012","0.0-18.0-1.84","4265","approach_avoid_sv1","""event"",""trial"",""time""
""fullscreenenter"",""1"",""9170""
","
","
","""event"",""trial"",""time""
""fullscreenenter"",""1"",""9170""
","
","","","","","","2435.199999999255","images/cow8.png","","","memory_trial","2","maybe_old",""
"html-keyboard-response","214","487519","0.0-18.0-0.85","4265","approach_avoid_sv1","""event"",""trial"",""time""
""fullscreenenter"",""1"",""9170""
","
","
","""event"",""trial"",""time""
""fullscreenenter"",""1"",""9170""
","
","","","","","","null","<div style=""font-size:60px;"">+</div>","null","","fixation","","",""
"memory-trial","215","490875","0.0-18.0-1.85","4265","approach_avoid_sv1","""event"",""trial"",""time""
""fullscreenenter"",""1"",""9170""
","
","
","""event"",""trial"",""time""
""fullscreenenter"",""1"",""9170""
","
","","","","","","2347.60000000149","images/rodent6.png","","","memory_trial","3","maybe_new",""
"html-keyboard-response","216","491380","0.0-18.0-0.86","4265","approach_avoid_sv1","""event"",""trial"",""time""
""fullscreenenter"",""1"",""9170""
","
","
","""event"",""trial"",""time""
""fullscreenenter"",""1"",""9170""
","
","","","","","","null","<div style=""font-size:60px;"">+</div>","null","","fixation","","",""
"memory-trial","217","493596","0.0-18.0-1.86","4265","approach_avoid_sv1","""event"",""trial"",""time""
""fullscreenenter"",""1"",""9170""
","
","
","""event"",""trial"",""time""
""fullscreenenter"",""1"",""9170""
","
","","","","","","1208.8999999985099","images/horse1.png","","","memory_trial","3","maybe_new",""
"html-keyboard-response","218","494099","0.0-18.0-0.87","4265","approach_avoid_sv1","""event"",""trial"",""time""
""fullscreenenter"",""1"",""9170""
","
","
","""event"",""trial"",""time""
""fullscreenenter"",""1"",""9170""
","
","","","","","","null","<div style=""font-size:60px;"">+</div>","null","","fixation","","",""
"memory-trial","219","496364","0.0-18.0-1.87","4265","approach_avoid_sv1","""event"",""trial"",""time""
""fullscreenenter"",""1"",""9170""
","
","
","""event"",""trial"",""time""
""fullscreenenter"",""1"",""9170""
","
","","","","","","1255.4000000022352","images/straw1.png","","","memory_trial","3","maybe_new",""
"html-keyboard-response","220","496868","0.0-18.0-0.88","4265","approach_avoid_sv1","""event"",""trial"",""time""
""fullscreenenter"",""1"",""9170""
","
","
","""event"",""trial"",""time""
""fullscreenenter"",""1"",""9170""
","
","","","","","","null","<div style=""font-size:60px;"">+</div>","null","","fixation","","",""
"memory-trial","221","499091","0.0-18.0-1.88","4265","approach_avoid_sv1","""event"",""trial"",""time""
""fullscreenenter"",""1"",""9170""
","
","
","""event"",""trial"",""time""
""fullscreenenter"",""1"",""9170""
","
","","","","","","1214.0999999977648","images/cactus2.png","","","memory_trial","4","definitely_new",""
"html-keyboard-response","222","499596","0.0-18.0-0.89","4265","approach_avoid_sv1","""event"",""trial"",""time""
""fullscreenenter"",""1"",""9170""
","
","
","""event"",""trial"",""time""
""fullscreenenter"",""1"",""9170""
","
","","","","","","null","<div style=""font-size:60px;"">+</div>","null","","fixation","","",""
"memory-trial","223","501646","0.0-18.0-1.89","4265","approach_avoid_sv1","""event"",""trial"",""time""
""fullscreenenter"",""1"",""9170""
","
","
","""event"",""trial"",""time""
""fullscreenenter"",""1"",""9170""
","
","","","","","","1043.7000000029802","images/banana7.png","","","memory_trial","1","definitely_old",""
"html-keyboard-response","224","502156","0.0-18.0-0.90","4265","approach_avoid_sv1","""event"",""trial"",""time""
""fullscreenenter"",""1"",""9170""
","
","
","""event"",""trial"",""time""
""fullscreenenter"",""1"",""9170""
","
","","","","","","null","<div style=""font-size:60px;"">+</div>","null","","fixation","","",""
"memory-trial","225","504412","0.0-18.0-1.90","4265","approach_avoid_sv1","""event"",""trial"",""time""
""fullscreenenter"",""1"",""9170""
","
","
","""event"",""trial"",""time""
""fullscreenenter"",""1"",""9170""
","
","","","","","","1249.8999999985099","images/sofa4.png","","","memory_trial","1","definitely_old",""
"html-keyboard-response","226","504916","0.0-18.0-0.91","4265","approach_avoid_sv1","""event"",""trial"",""time""
""fullscreenenter"",""1"",""9170""
","
","
","""event"",""trial"",""time""
""fullscreenenter"",""1"",""9170""
","
","","","","","","null","<div style=""font-size:60px;"">+</div>","null","","fixation","","",""
"memory-trial","227","507596","0.0-18.0-1.91","4265","approach_avoid_sv1","""event"",""trial"",""time""
""fullscreenenter"",""1"",""9170""
","
","
","""event"",""trial"",""time""
""fullscreenenter"",""1"",""9170""
","
","","","","","","1675.300000000745","images/apple4.png","","","memory_trial","2","maybe_old",""
"html-button-response","228","950795","0.0-18.0-2.91-0.91","4265","approach_avoid_sv1","""event"",""trial"",""time""
""fullscreenenter"",""1"",""9170""
","
","
","""event"",""trial"",""time""
""fullscreenenter"",""1"",""9170""
","
","","","","","","443195.69999999925","<p> Take a break! </p><p> Click the button to continue. </p>","0","","break","","",""
"html-keyboard-response","229","951301","0.0-18.0-0.92","4265","approach_avoid_sv1","""event"",""trial"",""time""
""fullscreenenter"",""1"",""9170""
","
","
","""event"",""trial"",""time""
""fullscreenenter"",""1"",""9170""
","
","","","","","","null","<div style=""font-size:60px;"">+</div>","null","","fixation","","",""
"memory-trial","230","954229","0.0-18.0-1.92","4265","approach_avoid_sv1","""event"",""trial"",""time""
""fullscreenenter"",""1"",""9170""
","
","
","""event"",""trial"",""time""
""fullscreenenter"",""1"",""9170""
","
","","","","","","1920.699999999255","images/dog1.png","","","memory_trial","3","maybe_new",""
"html-keyboard-response","231","954734","0.0-18.0-0.93","4265","approach_avoid_sv1","""event"",""trial"",""time""
""fullscreenenter"",""1"",""9170""
","
","
","""event"",""trial"",""time""
""fullscreenenter"",""1"",""9170""
","
","","","","","","null","<div style=""font-size:60px;"">+</div>","null","","fixation","","",""
"memory-trial","232","957118","0.0-18.0-1.93","4265","approach_avoid_sv1","""event"",""trial"",""time""
""fullscreenenter"",""1"",""9170""
","
","
","""event"",""trial"",""time""
""fullscreenenter"",""1"",""9170""
","
","","","","","","1373.9000000022352","images/rodent8.png","","","memory_trial","4","definitely_new",""
"html-keyboard-response","233","957625","0.0-18.0-0.94","4265","approach_avoid_sv1","""event"",""trial"",""time""
""fullscreenenter"",""1"",""9170""
","
","
","""event"",""trial"",""time""
""fullscreenenter"",""1"",""9170""
","
","","","","","","null","<div style=""font-size:60px;"">+</div>","null","","fixation","","",""
"memory-trial","234","960214","0.0-18.0-1.94","4265","approach_avoid_sv1","""event"",""trial"",""time""
""fullscreenenter"",""1"",""9170""
","
","
","""event"",""trial"",""time""
""fullscreenenter"",""1"",""9170""
","
","","","","","","1576.699999999255","images/table5.png","","","memory_trial","4","definitely_new",""
"html-keyboard-response","235","960721","0.0-18.0-0.95","4265","approach_avoid_sv1","""event"",""trial"",""time""
""fullscreenenter"",""1"",""9170""
","
","
","""event"",""trial"",""time""
""fullscreenenter"",""1"",""9170""
","
","","","","","","null","<div style=""font-size:60px;"">+</div>","null","","fixation","","",""
"memory-trial","236","963182","0.0-18.0-1.95","4265","approach_avoid_sv1","""event"",""trial"",""time""
""fullscreenenter"",""1"",""9170""
","
","
","""event"",""trial"",""time""
""fullscreenenter"",""1"",""9170""
","
","","","","","","1450.800000000745","images/banana6.png","","","memory_trial","3","maybe_new",""
"html-keyboard-response","237","963685","0.0-18.0-0.96","4265","approach_avoid_sv1","""event"",""trial"",""time""
""fullscreenenter"",""1"",""9170""
","
","
","""event"",""trial"",""time""
""fullscreenenter"",""1"",""9170""
","
","","","","","","null","<div style=""font-size:60px;"">+</div>","null","","fixation","","",""
"memory-trial","238","965953","0.0-18.0-1.96","4265","approach_avoid_sv1","""event"",""trial"",""time""
""fullscreenenter"",""1"",""9170""
","
","
","""event"",""trial"",""time""
""fullscreenenter"",""1"",""9170""
","
","","","","","","1253.5","images/dog8.png","","","memory_trial","3","maybe_new",""
"html-keyboard-response","239","966462","0.0-18.0-0.97","4265","approach_avoid_sv1","""event"",""trial"",""time""
""fullscreenenter"",""1"",""9170""
","
","
","""event"",""trial"",""time""
""fullscreenenter"",""1"",""9170""
","
","","","","","","null","<div style=""font-size:60px;"">+</div>","null","","fixation","","",""
"memory-trial","240","968702","0.0-18.0-1.97","4265","approach_avoid_sv1","""event"",""trial"",""time""
""fullscreenenter"",""1"",""9170""
","
","
","""event"",""trial"",""time""
""fullscreenenter"",""1"",""9170""
","
","","","","","","1231.1000000014901","images/horse3.png","","","memory_trial","2","maybe_old",""
"html-keyboard-response","241","969206","0.0-18.0-0.98","4265","approach_avoid_sv1","""event"",""trial"",""time""
""fullscreenenter"",""1"",""9170""
","
","
","""event"",""trial"",""time""
""fullscreenenter"",""1"",""9170""
","
","","","","","","null","<div style=""font-size:60px;"">+</div>","null","","fixation","","",""
"memory-trial","242","971173","0.0-18.0-1.98","4265","approach_avoid_sv1","""event"",""trial"",""time""
""fullscreenenter"",""1"",""9170""
","
","
","""event"",""trial"",""time""
""fullscreenenter"",""1"",""9170""
","
","","","","","","961","images/sheep8.png","","","memory_trial","3","maybe_new",""
"html-keyboard-response","243","971682","0.0-18.0-0.99","4265","approach_avoid_sv1","""event"",""trial"",""time""
""fullscreenenter"",""1"",""9170""
","
","
","""event"",""trial"",""time""
""fullscreenenter"",""1"",""9170""
","
","","","","","","null","<div style=""font-size:60px;"">+</div>","null","","fixation","","",""
"memory-trial","244","974190","0.0-18.0-1.99","4265","approach_avoid_sv1","""event"",""trial"",""time""
""fullscreenenter"",""1"",""9170""
","
","
","""event"",""trial"",""time""
""fullscreenenter"",""1"",""9170""
","
","","","","","","1498.8999999985099","images/sofa8.png","","","memory_trial","4","definitely_new",""
"html-keyboard-response","245","974694","0.0-18.0-0.100","4265","approach_avoid_sv1","""event"",""trial"",""time""
""fullscreenenter"",""1"",""9170""
","
","
","""event"",""trial"",""time""
""fullscreenenter"",""1"",""9170""
","
","","","","","","null","<div style=""font-size:60px;"">+</div>","null","","fixation","","",""
"memory-trial","246","977326","0.0-18.0-1.100","4265","approach_avoid_sv1","""event"",""trial"",""time""
""fullscreenenter"",""1"",""9170""
","
","
","""event"",""trial"",""time""
""fullscreenenter"",""1"",""9170""
","
","","","","","","1625.300000000745","images/orange5.png","","","memory_trial","2","maybe_old",""
"html-keyboard-response","247","977829","0.0-18.0-0.101","4265","approach_avoid_sv1","""event"",""trial"",""time""
""fullscreenenter"",""1"",""9170""
","
","
","""event"",""trial"",""time""
""fullscreenenter"",""1"",""9170""
","
","","","","","","null","<div style=""font-size:60px;"">+</div>","null","","fixation","","",""
"memory-trial","248","979646","0.0-18.0-1.101","4265","approach_avoid_sv1","""event"",""trial"",""time""
""fullscreenenter"",""1"",""9170""
","
","
","""event"",""trial"",""time""
""fullscreenenter"",""1"",""9170""
","
","","","","","","812.7000000029802","images/table6.png","","","memory_trial","3","maybe_new",""
"html-keyboard-response","249","980150","0.0-18.0-0.102","4265","approach_avoid_sv1","""event"",""trial"",""time""
""fullscreenenter"",""1"",""9170""
","
","
","""event"",""trial"",""time""
""fullscreenenter"",""1"",""9170""
","
","","","","","","null","<div style=""font-size:60px;"">+</div>","null","","fixation","","",""
"memory-trial","250","982350","0.0-18.0-1.102","4265","approach_avoid_sv1","""event"",""trial"",""time""
""fullscreenenter"",""1"",""9170""
","
","
","""event"",""trial"",""time""
""fullscreenenter"",""1"",""9170""
","
","","","","","","1193.800000000745","images/bush2.png","","","memory_trial","4","definitely_new",""
"html-keyboard-response","251","982854","0.0-18.0-0.103","4265","approach_avoid_sv1","""event"",""trial"",""time""
""fullscreenenter"",""1"",""9170""
","
","
","""event"",""trial"",""time""
""fullscreenenter"",""1"",""9170""
","
","","","","","","null","<div style=""font-size:60px;"">+</div>","null","","fixation","","",""
"memory-trial","252","985226","0.0-18.0-1.103","4265","approach_avoid_sv1","""event"",""trial"",""time""
""fullscreenenter"",""1"",""9170""
","
","
","""event"",""trial"",""time""
""fullscreenenter"",""1"",""9170""
","
","","","","","","1362.300000000745","images/orange8.png","","","memory_trial","3","maybe_new",""
"html-keyboard-response","253","985734","0.0-18.0-0.104","4265","approach_avoid_sv1","""event"",""trial"",""time""
""fullscreenenter"",""1"",""9170""
","
","
","""event"",""trial"",""time""
""fullscreenenter"",""1"",""9170""
","
","","","","","","null","<div style=""font-size:60px;"">+</div>","null","","fixation","","",""
"memory-trial","254","989054","0.0-18.0-1.104","4265","approach_avoid_sv1","""event"",""trial"",""time""
""fullscreenenter"",""1"",""9170""
","
","
","""event"",""trial"",""time""
""fullscreenenter"",""1"",""9170""
","
","","","","","","2311.89999999851","images/bed2.png","","","memory_trial","3","maybe_new",""
"html-keyboard-response","255","989558","0.0-18.0-0.105","4265","approach_avoid_sv1","""event"",""trial"",""time""
""fullscreenenter"",""1"",""9170""
","
","
","""event"",""trial"",""time""
""fullscreenenter"",""1"",""9170""
","
","","","","","","null","<div style=""font-size:60px;"">+</div>","null","","fixation","","",""
"memory-trial","256","993149","0.0-18.0-1.105","4265","approach_avoid_sv1","""event"",""trial"",""time""
""fullscreenenter"",""1"",""9170""
","
","
","""event"",""trial"",""time""
""fullscreenenter"",""1"",""9170""
","
","","","","","","2581.5","images/tree5.png","","","memory_trial","4","definitely_new",""
"html-keyboard-response","257","993654","0.0-18.0-0.106","4265","approach_avoid_sv1","""event"",""trial"",""time""
""fullscreenenter"",""1"",""9170""
","
","
","""event"",""trial"",""time""
""fullscreenenter"",""1"",""9170""
","
","","","","","","null","<div style=""font-size:60px;"">+</div>","null","","fixation","","",""
"memory-trial","258","996304","0.0-18.0-1.106","4265","approach_avoid_sv1","""event"",""trial"",""time""
""fullscreenenter"",""1"",""9170""
","
","
","""event"",""trial"",""time""
""fullscreenenter"",""1"",""9170""
","
","","","","","","1641","images/cow4.png","","","memory_trial","3","maybe_new",""
"html-keyboard-response","259","996814","0.0-18.0-0.107","4265","approach_avoid_sv1","""event"",""trial"",""time""
""fullscreenenter"",""1"",""9170""
","
","
","""event"",""trial"",""time""
""fullscreenenter"",""1"",""9170""
","
","","","","","","null","<div style=""font-size:60px;"">+</div>","null","","fixation","","",""
"memory-trial","260","999549","0.0-18.0-1.107","4265","approach_avoid_sv1","""event"",""trial"",""time""
""fullscreenenter"",""1"",""9170""
","
","
","""event"",""trial"",""time""
""fullscreenenter"",""1"",""9170""
","
","","","","","","1727.6000000014901","images/straw6.png","","","memory_trial","2","maybe_old",""
"html-keyboard-response","261","1000054","0.0-18.0-0.108","4265","approach_avoid_sv1","""event"",""trial"",""time""
""fullscreenenter"",""1"",""9170""
","
","
","""event"",""trial"",""time""
""fullscreenenter"",""1"",""9170""
","
","","","","","","null","<div style=""font-size:60px;"">+</div>","null","","fixation","","",""
"memory-trial","262","1002677","0.0-18.0-1.108","4265","approach_avoid_sv1","""event"",""trial"",""time""
""fullscreenenter"",""1"",""9170""
","
","
","""event"",""trial"",""time""
""fullscreenenter"",""1"",""9170""
","
","","","","","","1619.800000000745","images/banana2.png","","","memory_trial","2","maybe_old",""
"html-keyboard-response","263","1003182","0.0-18.0-0.109","4265","approach_avoid_sv1","""event"",""trial"",""time""
""fullscreenenter"",""1"",""9170""
","
","
","""event"",""trial"",""time""
""fullscreenenter"",""1"",""9170""
","
","","","","","","null","<div style=""font-size:60px;"">+</div>","null","","fixation","","",""
"memory-trial","264","1006990","0.0-18.0-1.109","4265","approach_avoid_sv1","""event"",""trial"",""time""
""fullscreenenter"",""1"",""9170""
","
","
","""event"",""trial"",""time""
""fullscreenenter"",""1"",""9170""
","
","","","","","","2797.39999999851","images/rabbit1.png","","","memory_trial","3","maybe_new",""
"html-keyboard-response","265","1007494","0.0-18.0-0.110","4265","approach_avoid_sv1","""event"",""trial"",""time""
""fullscreenenter"",""1"",""9170""
","
","
","""event"",""trial"",""time""
""fullscreenenter"",""1"",""9170""
","
","","","","","","null","<div style=""font-size:60px;"">+</div>","null","","fixation","","",""
"memory-trial","266","1009589","0.0-18.0-1.110","4265","approach_avoid_sv1","""event"",""trial"",""time""
""fullscreenenter"",""1"",""9170""
","
","
","""event"",""trial"",""time""
""fullscreenenter"",""1"",""9170""
","
","","","","","","1090.5999999977648","images/goat7.png","","","memory_trial","3","maybe_new",""
"html-keyboard-response","267","1010094","0.0-18.0-0.111","4265","approach_avoid_sv1","""event"",""trial"",""time""
""fullscreenenter"",""1"",""9170""
","
","
","""event"",""trial"",""time""
""fullscreenenter"",""1"",""9170""
","
","","","","","","null","<div style=""font-size:60px;"">+</div>","null","","fixation","","",""
"memory-trial","268","1012577","0.0-18.0-1.111","4265","approach_avoid_sv1","""event"",""trial"",""time""
""fullscreenenter"",""1"",""9170""
","
","
","""event"",""trial"",""time""
""fullscreenenter"",""1"",""9170""
","
","","","","","","1473.3999999985099","images/table4.png","","","memory_trial","4","definitely_new",""
"html-keyboard-response","269","1013086","0.0-18.0-0.112","4265","approach_avoid_sv1","""event"",""trial"",""time""
""fullscreenenter"",""1"",""9170""
","
","
","""event"",""trial"",""time""
""fullscreenenter"",""1"",""9170""
","
","","","","","","null","<div style=""font-size:60px;"">+</div>","null","","fixation","","",""
"memory-trial","270","1015270","0.0-18.0-1.112","4265","approach_avoid_sv1","""event"",""trial"",""time""
""fullscreenenter"",""1"",""9170""
","
","
","""event"",""trial"",""time""
""fullscreenenter"",""1"",""9170""
","
","","","","","","1179","images/train6.png","","","memory_trial","1","definitely_old",""
"html-keyboard-response","271","1015774","0.0-18.0-0.113","4265","approach_avoid_sv1","""event"",""trial"",""time""
""fullscreenenter"",""1"",""9170""
","
","
","""event"",""trial"",""time""
""fullscreenenter"",""1"",""9170""
","
","","","","","","null","<div style=""font-size:60px;"">+</div>","null","","fixation","","",""
"memory-trial","272","1017214","0.0-18.0-1.113","4265","approach_avoid_sv1","""event"",""trial"",""time""
""fullscreenenter"",""1"",""9170""
","
","
","""event"",""trial"",""time""
""fullscreenenter"",""1"",""9170""
","
","","","","","","430.80000000074506","images/bed8.png","","","memory_trial","2","maybe_old",""
"html-keyboard-response","273","1017718","0.0-18.0-0.114","4265","approach_avoid_sv1","""event"",""trial"",""time""
""fullscreenenter"",""1"",""9170""
","
","
","""event"",""trial"",""time""
""fullscreenenter"",""1"",""9170""
","
","","","","","","null","<div style=""font-size:60px;"">+</div>","null","","fixation","","",""
"memory-trial","274","1020262","0.0-18.0-1.114","4265","approach_avoid_sv1","""event"",""trial"",""time""
""fullscreenenter"",""1"",""9170""
","
","
","""event"",""trial"",""time""
""fullscreenenter"",""1"",""9170""
","
","","","","","","1534","images/sofa1.png","","","memory_trial","3","maybe_new",""
"html-keyboard-response","275","1020766","0.0-18.0-0.115","4265","approach_avoid_sv1","""event"",""trial"",""time""
""fullscreenenter"",""1"",""9170""
","
","
","""event"",""trial"",""time""
""fullscreenenter"",""1"",""9170""
","
","","","","","","null","<div style=""font-size:60px;"">+</div>","null","","fixation","","",""
"memory-trial","276","1023134","0.0-18.0-1.115","4265","approach_avoid_sv1","""event"",""trial"",""time""
""fullscreenenter"",""1"",""9170""
","
","
","""event"",""trial"",""time""
""fullscreenenter"",""1"",""9170""
","
","","","","","","1361.300000000745","images/chair8.png","","","memory_trial","1","definitely_old",""
"html-keyboard-response","277","1023638","0.0-18.0-0.116","4265","approach_avoid_sv1","""event"",""trial"",""time""
""fullscreenenter"",""1"",""9170""
","
","
","""event"",""trial"",""time""
""fullscreenenter"",""1"",""9170""
","
","","","","","","null","<div style=""font-size:60px;"">+</div>","null","","fixation","","",""
"memory-trial","278","1026454","0.0-18.0-1.116","4265","approach_avoid_sv1","""event"",""trial"",""time""
""fullscreenenter"",""1"",""9170""
","
","
","""event"",""trial"",""time""
""fullscreenenter"",""1"",""9170""
","
","","","","","","1811.4000000022352","images/cow3.png","","","memory_trial","1","definitely_old",""
"html-keyboard-response","279","1026958","0.0-18.0-0.117","4265","approach_avoid_sv1","""event"",""trial"",""time""
""fullscreenenter"",""1"",""9170""
","
","
","""event"",""trial"",""time""
""fullscreenenter"",""1"",""9170""
","
","","","","","","null","<div style=""font-size:60px;"">+</div>","null","","fixation","","",""
"memory-trial","280","1030239","0.0-18.0-1.117","4265","approach_avoid_sv1","""event"",""trial"",""time""
""fullscreenenter"",""1"",""9170""
","
","
","""event"",""trial"",""time""
""fullscreenenter"",""1"",""9170""
","
","","","","","","2270.39999999851","images/cactus4.png","","","memory_trial","2","maybe_old",""
"html-keyboard-response","281","1030741","0.0-18.0-0.118","4265","approach_avoid_sv1","""event"",""trial"",""time""
""fullscreenenter"",""1"",""9170""
","
","
","""event"",""trial"",""time""
""fullscreenenter"",""1"",""9170""
","
","","","","","","null","<div style=""font-size:60px;"">+</div>","null","","fixation","","",""
"memory-trial","282","1033790","0.0-18.0-1.118","4265","approach_avoid_sv1","""event"",""trial"",""time""
""fullscreenenter"",""1"",""9170""
","
","
","""event"",""trial"",""time""
""fullscreenenter"",""1"",""9170""
","
","","","","","","2040.800000000745","images/plane7.png","","","memory_trial","2","maybe_old",""
"html-keyboard-response","283","1034294","0.0-18.0-0.119","4265","approach_avoid_sv1","""event"",""trial"",""time""
""fullscreenenter"",""1"",""9170""
","
","
","""event"",""trial"",""time""
""fullscreenenter"",""1"",""9170""
","
","","","","","","null","<div style=""font-size:60px;"">+</div>","null","","fixation","","",""
"memory-trial","284","1037846","0.0-18.0-1.119","4265","approach_avoid_sv1","""event"",""trial"",""time""
""fullscreenenter"",""1"",""9170""
","
","
","""event"",""trial"",""time""
""fullscreenenter"",""1"",""9170""
","
","","","","","","2540.599999997765","images/plane8.png","","","memory_trial","1","definitely_old",""
"html-keyboard-response","285","1038350","0.0-18.0-0.120","4265","approach_avoid_sv1","""event"",""trial"",""time""
""fullscreenenter"",""1"",""9170""
","
","
","""event"",""trial"",""time""
""fullscreenenter"",""1"",""9170""
","
","","","","","","null","<div style=""font-size:60px;"">+</div>","null","","fixation","","",""
"memory-trial","286","1040310","0.0-18.0-1.120","4265","approach_avoid_sv1","""event"",""trial"",""time""
""fullscreenenter"",""1"",""9170""
","
","
","""event"",""trial"",""time""
""fullscreenenter"",""1"",""9170""
","
","","","","","","948.8999999985099","images/flower2.png","","","memory_trial","1","definitely_old",""
"html-keyboard-response","287","1040814","0.0-18.0-0.121","4265","approach_avoid_sv1","""event"",""trial"",""time""
""fullscreenenter"",""1"",""9170""
","
","
","""event"",""trial"",""time""
""fullscreenenter"",""1"",""9170""
","
","","","","","","null","<div style=""font-size:60px;"">+</div>","null","","fixation","","",""
"memory-trial","288","1042879","0.0-18.0-1.121","4265","approach_avoid_sv1","""event"",""trial"",""time""
""fullscreenenter"",""1"",""9170""
","
","
","""event"",""trial"",""time""
""fullscreenenter"",""1"",""9170""
","
","","","","","","1054.5","images/cat4.png","","","memory_trial","1","definitely_old",""
"html-keyboard-response","289","1043382","0.0-18.0-0.122","4265","approach_avoid_sv1","""event"",""trial"",""time""
""fullscreenenter"",""1"",""9170""
","
","
","""event"",""trial"",""time""
""fullscreenenter"",""1"",""9170""
","
","","","","","","null","<div style=""font-size:60px;"">+</div>","null","","fixation","","",""
"memory-trial","290","1045774","0.0-18.0-1.122","4265","approach_avoid_sv1","""event"",""trial"",""time""
""fullscreenenter"",""1"",""9170""
","
","
","""event"",""trial"",""time""
""fullscreenenter"",""1"",""9170""
","
","","","","","","1388.699999999255","images/cat7.png","","","memory_trial","2","maybe_old",""
"html-keyboard-response","291","1046278","0.0-18.0-0.123","4265","approach_avoid_sv1","""event"",""trial"",""time""
""fullscreenenter"",""1"",""9170""
","
","
","""event"",""trial"",""time""
""fullscreenenter"",""1"",""9170""
","
","","","","","","null","<div style=""font-size:60px;"">+</div>","null","","fixation","","",""
"memory-trial","292","1049082","0.0-18.0-1.123","4265","approach_avoid_sv1","""event"",""trial"",""time""
""fullscreenenter"",""1"",""9170""
","
","
","""event"",""trial"",""time""
""fullscreenenter"",""1"",""9170""
","
","","","","","","1792.9000000022352","images/tree3.png","","","memory_trial","2","maybe_old",""
"html-keyboard-response","293","1049590","0.0-18.0-0.124","4265","approach_avoid_sv1","""event"",""trial"",""time""
""fullscreenenter"",""1"",""9170""
","
","
","""event"",""trial"",""time""
""fullscreenenter"",""1"",""9170""
","
","","","","","","null","<div style=""font-size:60px;"">+</div>","null","","fixation","","",""
"memory-trial","294","1051423","0.0-18.0-1.124","4265","approach_avoid_sv1","""event"",""trial"",""time""
""fullscreenenter"",""1"",""9170""
","
","
","""event"",""trial"",""time""
""fullscreenenter"",""1"",""9170""
","
","","","","","","823.3000000007451","images/table8.png","","","memory_trial","4","definitely_new",""
"html-keyboard-response","295","1051927","0.0-18.0-0.125","4265","approach_avoid_sv1","""event"",""trial"",""time""
""fullscreenenter"",""1"",""9170""
","
","
","""event"",""trial"",""time""
""fullscreenenter"",""1"",""9170""
","
","","","","","","null","<div style=""font-size:60px;"">+</div>","null","","fixation","","",""
"memory-trial","296","1054375","0.0-18.0-1.125","4265","approach_avoid_sv1","""event"",""trial"",""time""
""fullscreenenter"",""1"",""9170""
","
","
","""event"",""trial"",""time""
""fullscreenenter"",""1"",""9170""
","
","","","","","","1438","images/apple3.png","","","memory_trial","4","definitely_new",""
"html-keyboard-response","297","1054879","0.0-18.0-0.126","4265","approach_avoid_sv1","""event"",""trial"",""time""
""fullscreenenter"",""1"",""9170""
","
","
","""event"",""trial"",""time""
""fullscreenenter"",""1"",""9170""
","
