"trial_type","trial_index","time_elapsed","internal_node_id","subject_id","task_version","interactions","blur_events","focus_events","fullscreenenter_events","fullscreenexit_events","success","timeout","failed_images","failed_audio","failed_video","rt","stimulus","response","button_pressed","task_part","key_press","answer","correct"
"pavlovia","0","6","0.0-0.0","7592","approach_avoid_sv1","""event"",""trial"",""time""
""focus"",""0"",""0""
""fullscreenenter"",""1"",""5203""
","
","""event"",""trial"",""time""
""focus"",""0"",""0""
","""event"",""trial"",""time""
""fullscreenenter"",""1"",""5203""
","
","","","","","","","","","","","","",""
"fullscreen","1","5979","0.0-1.0","7592","approach_avoid_sv1","""event"",""trial"",""time""
""focus"",""0"",""0""
""fullscreenenter"",""1"",""5203""
","
","""event"",""trial"",""time""
""focus"",""0"",""0""
","""event"",""trial"",""time""
""fullscreenenter"",""1"",""5203""
","
","true","","","","","","","","","","","",""
"preload","2","8175","0.0-2.0","7592","approach_avoid_sv1","""event"",""trial"",""time""
""focus"",""0"",""0""
""fullscreenenter"",""1"",""5203""
","
","""event"",""trial"",""time""
""focus"",""0"",""0""
","""event"",""trial"",""time""
""fullscreenenter"",""1"",""5203""
","
","true","false","[]","[]","[]","","","","","","","",""
"preload","3","10165","0.0-3.0","7592","approach_avoid_sv1","""event"",""trial"",""time""
""focus"",""0"",""0""
""fullscreenenter"",""1"",""5203""
","
","""event"",""trial"",""time""
""focus"",""0"",""0""
","""event"",""trial"",""time""
""fullscreenenter"",""1"",""5203""
","
","true","false","[]","[]","[]","","","","","","","",""
"preload","4","10628","0.0-4.0","7592","approach_avoid_sv1","""event"",""trial"",""time""
""focus"",""0"",""0""
""fullscreenenter"",""1"",""5203""
","
","""event"",""trial"",""time""
""focus"",""0"",""0""
","""event"",""trial"",""time""
""fullscreenenter"",""1"",""5203""
","
","true","false","[]","[]","[]","","","","","","","",""
"audio-keyboard-response","5","15807","0.0-5.0","7592","approach_avoid_sv1","""event"",""trial"",""time""
""focus"",""0"",""0""
""fullscreenenter"",""1"",""5203""
","
","""event"",""trial"",""time""
""focus"",""0"",""0""
","""event"",""trial"",""time""
""fullscreenenter"",""1"",""5203""
","
","","","","","","5178.049886621316","audio/beep_loop.wav"," ","","","","",""
"audio-button-response","6","18340","0.0-6.0","7592","approach_avoid_sv1","""event"",""trial"",""time""
""focus"",""0"",""0""
""fullscreenenter"",""1"",""5203""
","
","""event"",""trial"",""time""
""focus"",""0"",""0""
","""event"",""trial"",""time""
""fullscreenenter"",""1"",""5203""
","
","","","","","","2534","audio/turtle.wav","2","","","","",""
"audio-button-response","7","22190","0.0-7.0","7592","approach_avoid_sv1","""event"",""trial"",""time""
""focus"",""0"",""0""
""fullscreenenter"",""1"",""5203""
","
","""event"",""trial"",""time""
""focus"",""0"",""0""
","""event"",""trial"",""time""
""fullscreenenter"",""1"",""5203""
","
","","","","","","2844","audio/shark.wav","1","","","","",""
"preload","8","25806","0.0-8.0","7592","approach_avoid_sv1","""event"",""trial"",""time""
""focus"",""0"",""0""
""fullscreenenter"",""1"",""5203""
","
","""event"",""trial"",""time""
""focus"",""0"",""0""
","""event"",""trial"",""time""
""fullscreenenter"",""1"",""5203""
","
","true","false","[]","[]","[]","","","","","","","",""
"learning-instructions","9","31590","0.0-9.0-0.0","7592","approach_avoid_sv1","""event"",""trial"",""time""
""focus"",""0"",""0""
""fullscreenenter"",""1"",""5203""
","
","""event"",""trial"",""time""
""focus"",""0"",""0""
","""event"",""trial"",""time""
""fullscreenenter"",""1"",""5203""
","
","","","","","","1307","<p> Welcome back! </p><p> Last week, you had to make choices about lots of different items.  </p>","","0","instructions","","",""
"learning-instructions","10","37007","0.0-9.0-0.1","7592","approach_avoid_sv1","""event"",""trial"",""time""
""focus"",""0"",""0""
""fullscreenenter"",""1"",""5203""
","
","""event"",""trial"",""time""
""focus"",""0"",""0""
","""event"",""trial"",""time""
""fullscreenenter"",""1"",""5203""
","
","","","","","","1298","<p> Today, we are going to ask you to try to remember all the items. </p>","","0","instructions","","",""
"learning-instructions","11","48140","0.0-9.0-0.2","7592","approach_avoid_sv1","""event"",""trial"",""time""
""focus"",""0"",""0""
""fullscreenenter"",""1"",""5203""
","
","""event"",""trial"",""time""
""focus"",""0"",""0""
","""event"",""trial"",""time""
""fullscreenenter"",""1"",""5203""
","
","","","","","","996","<p> On every trial, you will see an image. </p><p> The image may be an OLD image you saw during the games last week or it may be a NEW image that was not presented. </p>","","0","instructions","","",""
"learning-instructions","12","58890","0.0-9.0-0.3","7592","approach_avoid_sv1","""event"",""trial"",""time""
""focus"",""0"",""0""
""fullscreenenter"",""1"",""5203""
","
","""event"",""trial"",""time""
""focus"",""0"",""0""
","""event"",""trial"",""time""
""fullscreenenter"",""1"",""5203""
","
","","","","","","2245","<p> You need to select whether the image is:  </p><p>  'Definitely old', 'Maybe old', 'Maybe new', or 'Definitely new.'  </p><div class=""mem-choice-instructions-grid""><div class=""choice-option"" id=""choice-option-1"" ><img src=""images/definitely_old_1.png"" id=""choice-option-img-1"" class=""choice-option-img"" stage=""1""></div><div class=""choice-option"" id=""choice-option-2"" ><img src=""images/maybe_old_1.png"" id=""choice-option-img-2"" class=""choice-option-img"" stage=""1""></div><div class=""choice-option"" id=""choice-option-3"" ><img src=""images/maybe_new_1.png"" id=""choice-option-img-3"" class=""choice-option-img"" stage=""1""></div><div class=""choice-option"" id=""choice-option-4"" > <img src=""images/definitely_new_1.png"" id=""choice-option-img-4"" class=""choice-option-img"" stage=""1""></div></div>","","0","instructions","","",""
"learning-instructions","13","67121","0.0-9.0-0.4","7592","approach_avoid_sv1","""event"",""trial"",""time""
""focus"",""0"",""0""
""fullscreenenter"",""1"",""5203""
","
","""event"",""trial"",""time""
""focus"",""0"",""0""
","""event"",""trial"",""time""
""fullscreenenter"",""1"",""5203""
","
","","","","","","1708","<p> You should use the 1, 2, 3, and 4 keys to make your responses.  </p><div class=""mem-choice-instructions-grid""><div class=""choice-option"" id=""choice-option-1"" ><img src=""images/definitely_old.png"" id=""choice-option-img-1"" class=""choice-option-img"" stage=""1""></div><div class=""choice-option"" id=""choice-option-2"" ><img src=""images/maybe_old.png"" id=""choice-option-img-2"" class=""choice-option-img"" stage=""1""></div><div class=""choice-option"" id=""choice-option-3"" ><img src=""images/maybe_new.png"" id=""choice-option-img-3"" class=""choice-option-img"" stage=""1""></div><div class=""choice-option"" id=""choice-option-4"" > <img src=""images/definitely_new.png"" id=""choice-option-img-4"" class=""choice-option-img"" stage=""1""></div></div>","","0","instructions","","",""
"learning-instructions","14","74806","0.0-9.0-0.5","7592","approach_avoid_sv1","""event"",""trial"",""time""
""focus"",""0"",""0""
""fullscreenenter"",""1"",""5203""
""blur"",""15"",""81640""
""focus"",""15"",""82039""
""fullscreenexit"",""15"",""82052""
","""event"",""trial"",""time""
""blur"",""15"",""81640""
","""event"",""trial"",""time""
""focus"",""0"",""0""
""focus"",""15"",""82039""
","""event"",""trial"",""time""
""fullscreenenter"",""1"",""5203""
","""event"",""trial"",""time""
""fullscreenexit"",""15"",""82052""
","","","","","","1354","<p> You will have 10 seconds to make each response.  </p><p>  Make sure to respond before time runs out! </p>","","0","instructions","","",""
"learning-instructions","15","83689","0.0-9.0-0.6","7592","approach_avoid_sv1","""event"",""trial"",""time""
""focus"",""0"",""0""
""fullscreenenter"",""1"",""5203""
""blur"",""15"",""81640""
""focus"",""15"",""82039""
""fullscreenexit"",""15"",""82052""
""blur"",""16"",""85440""
""focus"",""16"",""266856""
""blur"",""16"",""267599""
""focus"",""16"",""413330""
","""event"",""trial"",""time""
""blur"",""15"",""81640""
""blur"",""16"",""85440""
""blur"",""16"",""267599""
","""event"",""trial"",""time""
""focus"",""0"",""0""
""focus"",""15"",""82039""
""focus"",""16"",""266856""
""focus"",""16"",""413330""
","""event"",""trial"",""time""
""fullscreenenter"",""1"",""5203""
","""event"",""trial"",""time""
""fullscreenexit"",""15"",""82052""
","","","","","","1798","<p> Today, you will see each image ONCE only.  </p><p>  That means none of the images will repeat. </p>","","0","instructions","","",""
"learning-instructions","16","413425","0.0-9.0-0.7","7592","approach_avoid_sv1","""event"",""trial"",""time""
""focus"",""0"",""0""
""fullscreenenter"",""1"",""5203""
""blur"",""15"",""81640""
""focus"",""15"",""82039""
""fullscreenexit"",""15"",""82052""
""blur"",""16"",""85440""
""focus"",""16"",""266856""
""blur"",""16"",""267599""
""focus"",""16"",""413330""
","""event"",""trial"",""time""
""blur"",""15"",""81640""
""blur"",""16"",""85440""
""blur"",""16"",""267599""
","""event"",""trial"",""time""
""focus"",""0"",""0""
""focus"",""15"",""82039""
""focus"",""16"",""266856""
""focus"",""16"",""413330""
","""event"",""trial"",""time""
""fullscreenenter"",""1"",""5203""
","""event"",""trial"",""time""
""fullscreenexit"",""15"",""82052""
","","","","","","317046","<p> Before you play the real game, it is time to practice. </p><p>  Just like in the real game, some of the images in the practice will be ones you have seen before. </p><p>  Others will be entirely new. </p>","","0","instructions","","",""
"html-button-response","17","416757","0.0-10.0","7592","approach_avoid_sv1","""event"",""trial"",""time""
""focus"",""0"",""0""
""fullscreenenter"",""1"",""5203""
""blur"",""15"",""81640""
""focus"",""15"",""82039""
""fullscreenexit"",""15"",""82052""
""blur"",""16"",""85440""
""focus"",""16"",""266856""
""blur"",""16"",""267599""
""focus"",""16"",""413330""
","""event"",""trial"",""time""
""blur"",""15"",""81640""
""blur"",""16"",""85440""
""blur"",""16"",""267599""
","""event"",""trial"",""time""
""focus"",""0"",""0""
""focus"",""15"",""82039""
""focus"",""16"",""266856""
""focus"",""16"",""413330""
","""event"",""trial"",""time""
""fullscreenenter"",""1"",""5203""
","""event"",""trial"",""time""
""fullscreenexit"",""15"",""82052""
","","","","","","3224","<p> Ready to practice? </p><p> Remember, use the 1, 2, 3, and 4 keys to make your responses. </p>","0","","instructions","","",""
"html-keyboard-response","18","417365","0.0-11.0-0.0","7592","approach_avoid_sv1","""event"",""trial"",""time""
""focus"",""0"",""0""
""fullscreenenter"",""1"",""5203""
""blur"",""15"",""81640""
""focus"",""15"",""82039""
""fullscreenexit"",""15"",""82052""
""blur"",""16"",""85440""
""focus"",""16"",""266856""
""blur"",""16"",""267599""
""focus"",""16"",""413330""
","""event"",""trial"",""time""
""blur"",""15"",""81640""
""blur"",""16"",""85440""
""blur"",""16"",""267599""
","""event"",""trial"",""time""
""focus"",""0"",""0""
""focus"",""15"",""82039""
""focus"",""16"",""266856""
""focus"",""16"",""413330""
","""event"",""trial"",""time""
""fullscreenenter"",""1"",""5203""
","""event"",""trial"",""time""
""fullscreenexit"",""15"",""82052""
","","","","","","null","<div style=""font-size:60px;"">+</div>","null","","fixation","","",""
"memory-trial","19","419591","0.0-11.0-1.0","7592","approach_avoid_sv1","""event"",""trial"",""time""
""focus"",""0"",""0""
""fullscreenenter"",""1"",""5203""
""blur"",""15"",""81640""
""focus"",""15"",""82039""
""fullscreenexit"",""15"",""82052""
""blur"",""16"",""85440""
""focus"",""16"",""266856""
""blur"",""16"",""267599""
""focus"",""16"",""413330""
","""event"",""trial"",""time""
""blur"",""15"",""81640""
""blur"",""16"",""85440""
""blur"",""16"",""267599""
","""event"",""trial"",""time""
""focus"",""0"",""0""
""focus"",""15"",""82039""
""focus"",""16"",""266856""
""focus"",""16"",""413330""
","""event"",""trial"",""time""
""fullscreenenter"",""1"",""5203""
","""event"",""trial"",""time""
""fullscreenexit"",""15"",""82052""
","","","","","","1215","images/ball2.png","","","practice","1","definitely_old",""
"html-keyboard-response","20","420099","0.0-11.0-0.1","7592","approach_avoid_sv1","""event"",""trial"",""time""
""focus"",""0"",""0""
""fullscreenenter"",""1"",""5203""
""blur"",""15"",""81640""
""focus"",""15"",""82039""
""fullscreenexit"",""15"",""82052""
""blur"",""16"",""85440""
""focus"",""16"",""266856""
""blur"",""16"",""267599""
""focus"",""16"",""413330""
","""event"",""trial"",""time""
""blur"",""15"",""81640""
""blur"",""16"",""85440""
""blur"",""16"",""267599""
","""event"",""trial"",""time""
""focus"",""0"",""0""
""focus"",""15"",""82039""
""focus"",""16"",""266856""
""focus"",""16"",""413330""
","""event"",""trial"",""time""
""fullscreenenter"",""1"",""5203""
","""event"",""trial"",""time""
""fullscreenexit"",""15"",""82052""
","","","","","","null","<div style=""font-size:60px;"">+</div>","null","","fixation","","",""
"memory-trial","21","422018","0.0-11.0-1.1","7592","approach_avoid_sv1","""event"",""trial"",""time""
""focus"",""0"",""0""
""fullscreenenter"",""1"",""5203""
""blur"",""15"",""81640""
""focus"",""15"",""82039""
""fullscreenexit"",""15"",""82052""
""blur"",""16"",""85440""
""focus"",""16"",""266856""
""blur"",""16"",""267599""
""focus"",""16"",""413330""
","""event"",""trial"",""time""
""blur"",""15"",""81640""
""blur"",""16"",""85440""
""blur"",""16"",""267599""
","""event"",""trial"",""time""
""focus"",""0"",""0""
""focus"",""15"",""82039""
""focus"",""16"",""266856""
""focus"",""16"",""413330""
","""event"",""trial"",""time""
""fullscreenenter"",""1"",""5203""
","""event"",""trial"",""time""
""fullscreenexit"",""15"",""82052""
","","","","","","915","images/racket2.png","","","practice","2","maybe_old",""
"html-keyboard-response","22","422524","0.0-11.0-0.2","7592","approach_avoid_sv1","""event"",""trial"",""time""
""focus"",""0"",""0""
""fullscreenenter"",""1"",""5203""
""blur"",""15"",""81640""
""focus"",""15"",""82039""
""fullscreenexit"",""15"",""82052""
""blur"",""16"",""85440""
""focus"",""16"",""266856""
""blur"",""16"",""267599""
""focus"",""16"",""413330""
","""event"",""trial"",""time""
""blur"",""15"",""81640""
""blur"",""16"",""85440""
""blur"",""16"",""267599""
","""event"",""trial"",""time""
""focus"",""0"",""0""
""focus"",""15"",""82039""
""focus"",""16"",""266856""
""focus"",""16"",""413330""
","""event"",""trial"",""time""
""fullscreenenter"",""1"",""5203""
","""event"",""trial"",""time""
""fullscreenexit"",""15"",""82052""
","","","","","","null","<div style=""font-size:60px;"">+</div>","null","","fixation","","",""
"memory-trial","23","424254","0.0-11.0-1.2","7592","approach_avoid_sv1","""event"",""trial"",""time""
""focus"",""0"",""0""
""fullscreenenter"",""1"",""5203""
""blur"",""15"",""81640""
""focus"",""15"",""82039""
""fullscreenexit"",""15"",""82052""
""blur"",""16"",""85440""
""focus"",""16"",""266856""
""blur"",""16"",""267599""
""focus"",""16"",""413330""
","""event"",""trial"",""time""
""blur"",""15"",""81640""
""blur"",""16"",""85440""
""blur"",""16"",""267599""
","""event"",""trial"",""time""
""focus"",""0"",""0""
""focus"",""15"",""82039""
""focus"",""16"",""266856""
""focus"",""16"",""413330""
","""event"",""trial"",""time""
""fullscreenenter"",""1"",""5203""
","""event"",""trial"",""time""
""fullscreenexit"",""15"",""82052""
","","","","","","722","images/ball3.png","","","practice","4","definitely_new",""
"html-keyboard-response","24","424761","0.0-11.0-0.3","7592","approach_avoid_sv1","""event"",""trial"",""time""
""focus"",""0"",""0""
""fullscreenenter"",""1"",""5203""
""blur"",""15"",""81640""
""focus"",""15"",""82039""
""fullscreenexit"",""15"",""82052""
""blur"",""16"",""85440""
""focus"",""16"",""266856""
""blur"",""16"",""267599""
""focus"",""16"",""413330""
","""event"",""trial"",""time""
""blur"",""15"",""81640""
""blur"",""16"",""85440""
""blur"",""16"",""267599""
","""event"",""trial"",""time""
""focus"",""0"",""0""
""focus"",""15"",""82039""
""focus"",""16"",""266856""
""focus"",""16"",""413330""
","""event"",""trial"",""time""
""fullscreenenter"",""1"",""5203""
","""event"",""trial"",""time""
""fullscreenexit"",""15"",""82052""
","","","","","","null","<div style=""font-size:60px;"">+</div>","null","","fixation","","",""
"memory-trial","25","426542","0.0-11.0-1.3","7592","approach_avoid_sv1","""event"",""trial"",""time""
""focus"",""0"",""0""
""fullscreenenter"",""1"",""5203""
""blur"",""15"",""81640""
""focus"",""15"",""82039""
""fullscreenexit"",""15"",""82052""
""blur"",""16"",""85440""
""focus"",""16"",""266856""
""blur"",""16"",""267599""
""focus"",""16"",""413330""
","""event"",""trial"",""time""
""blur"",""15"",""81640""
""blur"",""16"",""85440""
""blur"",""16"",""267599""
","""event"",""trial"",""time""
""focus"",""0"",""0""
""focus"",""15"",""82039""
""focus"",""16"",""266856""
""focus"",""16"",""413330""
","""event"",""trial"",""time""
""fullscreenenter"",""1"",""5203""
","""event"",""trial"",""time""
""fullscreenexit"",""15"",""82052""
","","","","","","776","images/racket5.png","","","practice","4","definitely_new",""
"html-keyboard-response","26","427044","0.0-11.0-0.4","7592","approach_avoid_sv1","""event"",""trial"",""time""
""focus"",""0"",""0""
""fullscreenenter"",""1"",""5203""
""blur"",""15"",""81640""
""focus"",""15"",""82039""
""fullscreenexit"",""15"",""82052""
""blur"",""16"",""85440""
""focus"",""16"",""266856""
""blur"",""16"",""267599""
""focus"",""16"",""413330""
","""event"",""trial"",""time""
""blur"",""15"",""81640""
""blur"",""16"",""85440""
""blur"",""16"",""267599""
","""event"",""trial"",""time""
""focus"",""0"",""0""
""focus"",""15"",""82039""
""focus"",""16"",""266856""
""focus"",""16"",""413330""
","""event"",""trial"",""time""
""fullscreenenter"",""1"",""5203""
","""event"",""trial"",""time""
""fullscreenexit"",""15"",""82052""
","","","","","","null","<div style=""font-size:60px;"">+</div>","null","","fixation","","",""
"memory-trial","27","428604","0.0-11.0-1.4","7592","approach_avoid_sv1","""event"",""trial"",""time""
""focus"",""0"",""0""
""fullscreenenter"",""1"",""5203""
""blur"",""15"",""81640""
""focus"",""15"",""82039""
""fullscreenexit"",""15"",""82052""
""blur"",""16"",""85440""
""focus"",""16"",""266856""
""blur"",""16"",""267599""
""focus"",""16"",""413330""
","""event"",""trial"",""time""
""blur"",""15"",""81640""
""blur"",""16"",""85440""
""blur"",""16"",""267599""
","""event"",""trial"",""time""
""focus"",""0"",""0""
""focus"",""15"",""82039""
""focus"",""16"",""266856""
""focus"",""16"",""413330""
","""event"",""trial"",""time""
""fullscreenenter"",""1"",""5203""
","""event"",""trial"",""time""
""fullscreenexit"",""15"",""82052""
","","","","","","556","images/ball5.png","","","practice","3","maybe_new",""
"html-keyboard-response","28","429108","0.0-11.0-0.5","7592","approach_avoid_sv1","""event"",""trial"",""time""
""focus"",""0"",""0""
""fullscreenenter"",""1"",""5203""
""blur"",""15"",""81640""
""focus"",""15"",""82039""
""fullscreenexit"",""15"",""82052""
""blur"",""16"",""85440""
""focus"",""16"",""266856""
""blur"",""16"",""267599""
""focus"",""16"",""413330""
","""event"",""trial"",""time""
""blur"",""15"",""81640""
""blur"",""16"",""85440""
""blur"",""16"",""267599""
","""event"",""trial"",""time""
""focus"",""0"",""0""
""focus"",""15"",""82039""
""focus"",""16"",""266856""
""focus"",""16"",""413330""
","""event"",""trial"",""time""
""fullscreenenter"",""1"",""5203""
","""event"",""trial"",""time""
""fullscreenexit"",""15"",""82052""
","","","","","","null","<div style=""font-size:60px;"">+</div>","null","","fixation","","",""
"memory-trial","29","430808","0.0-11.0-1.5","7592","approach_avoid_sv1","""event"",""trial"",""time""
""focus"",""0"",""0""
""fullscreenenter"",""1"",""5203""
""blur"",""15"",""81640""
""focus"",""15"",""82039""
""fullscreenexit"",""15"",""82052""
""blur"",""16"",""85440""
""focus"",""16"",""266856""
""blur"",""16"",""267599""
""focus"",""16"",""413330""
","""event"",""trial"",""time""
""blur"",""15"",""81640""
""blur"",""16"",""85440""
""blur"",""16"",""267599""
","""event"",""trial"",""time""
""focus"",""0"",""0""
""focus"",""15"",""82039""
""focus"",""16"",""266856""
""focus"",""16"",""413330""
","""event"",""trial"",""time""
""fullscreenenter"",""1"",""5203""
","""event"",""trial"",""time""
""fullscreenexit"",""15"",""82052""
","","","","","","691","images/racket1.png","","","practice","1","definitely_old",""
"html-keyboard-response","30","431310","0.0-11.0-0.6","7592","approach_avoid_sv1","""event"",""trial"",""time""
""focus"",""0"",""0""
""fullscreenenter"",""1"",""5203""
""blur"",""15"",""81640""
""focus"",""15"",""82039""
""fullscreenexit"",""15"",""82052""
""blur"",""16"",""85440""
""focus"",""16"",""266856""
""blur"",""16"",""267599""
""focus"",""16"",""413330""
","""event"",""trial"",""time""
""blur"",""15"",""81640""
""blur"",""16"",""85440""
""blur"",""16"",""267599""
","""event"",""trial"",""time""
""focus"",""0"",""0""
""focus"",""15"",""82039""
""focus"",""16"",""266856""
""focus"",""16"",""413330""
","""event"",""trial"",""time""
""fullscreenenter"",""1"",""5203""
","""event"",""trial"",""time""
""fullscreenexit"",""15"",""82052""
","","","","","","null","<div style=""font-size:60px;"">+</div>","null","","fixation","","",""
"memory-trial","31","433983","0.0-11.0-1.6","7592","approach_avoid_sv1","""event"",""trial"",""time""
""focus"",""0"",""0""
""fullscreenenter"",""1"",""5203""
""blur"",""15"",""81640""
""focus"",""15"",""82039""
""fullscreenexit"",""15"",""82052""
""blur"",""16"",""85440""
""focus"",""16"",""266856""
""blur"",""16"",""267599""
""focus"",""16"",""413330""
","""event"",""trial"",""time""
""blur"",""15"",""81640""
""blur"",""16"",""85440""
""blur"",""16"",""267599""
","""event"",""trial"",""time""
""focus"",""0"",""0""
""focus"",""15"",""82039""
""focus"",""16"",""266856""
""focus"",""16"",""413330""
","""event"",""trial"",""time""
""fullscreenenter"",""1"",""5203""
","""event"",""trial"",""time""
""fullscreenexit"",""15"",""82052""
","","","","","","1666","images/racket3.png","","","practice","4","definitely_new",""
"html-keyboard-response","32","434487","0.0-11.0-0.7","7592","approach_avoid_sv1","""event"",""trial"",""time""
""focus"",""0"",""0""
""fullscreenenter"",""1"",""5203""
""blur"",""15"",""81640""
""focus"",""15"",""82039""
""fullscreenexit"",""15"",""82052""
""blur"",""16"",""85440""
""focus"",""16"",""266856""
""blur"",""16"",""267599""
""focus"",""16"",""413330""
","""event"",""trial"",""time""
""blur"",""15"",""81640""
""blur"",""16"",""85440""
""blur"",""16"",""267599""
","""event"",""trial"",""time""
""focus"",""0"",""0""
""focus"",""15"",""82039""
""focus"",""16"",""266856""
""focus"",""16"",""413330""
","""event"",""trial"",""time""
""fullscreenenter"",""1"",""5203""
","""event"",""trial"",""time""
""fullscreenexit"",""15"",""82052""
","","","","","","null","<div style=""font-size:60px;"">+</div>","null","","fixation","","",""
"memory-trial","33","437016","0.0-11.0-1.7","7592","approach_avoid_sv1","""event"",""trial"",""time""
""focus"",""0"",""0""
""fullscreenenter"",""1"",""5203""
""blur"",""15"",""81640""
""focus"",""15"",""82039""
""fullscreenexit"",""15"",""82052""
""blur"",""16"",""85440""
""focus"",""16"",""266856""
""blur"",""16"",""267599""
""focus"",""16"",""413330""
""blur"",""34"",""442448""
""focus"",""34"",""451513""
","""event"",""trial"",""time""
""blur"",""15"",""81640""
""blur"",""16"",""85440""
""blur"",""16"",""267599""
""blur"",""34"",""442448""
","""event"",""trial"",""time""
""focus"",""0"",""0""
""focus"",""15"",""82039""
""focus"",""16"",""266856""
""focus"",""16"",""413330""
""focus"",""34"",""451513""
","""event"",""trial"",""time""
""fullscreenenter"",""1"",""5203""
","""event"",""trial"",""time""
""fullscreenexit"",""15"",""82052""
","","","","","","1526","images/ball1.png","","","practice","1","definitely_old",""
"learning-instructions","34","451625","0.0-12.0-0.0","7592","approach_avoid_sv1","""event"",""trial"",""time""
""focus"",""0"",""0""
""fullscreenenter"",""1"",""5203""
""blur"",""15"",""81640""
""focus"",""15"",""82039""
""fullscreenexit"",""15"",""82052""
""blur"",""16"",""85440""
""focus"",""16"",""266856""
""blur"",""16"",""267599""
""focus"",""16"",""413330""
""blur"",""34"",""442448""
""focus"",""34"",""451513""
","""event"",""trial"",""time""
""blur"",""15"",""81640""
""blur"",""16"",""85440""
""blur"",""16"",""267599""
""blur"",""34"",""442448""
","""event"",""trial"",""time""
""focus"",""0"",""0""
""focus"",""15"",""82039""
""focus"",""16"",""266856""
""focus"",""16"",""413330""
""focus"",""34"",""451513""
","""event"",""trial"",""time""
""fullscreenenter"",""1"",""5203""
","""event"",""trial"",""time""
""fullscreenexit"",""15"",""82052""
","","","","","","7295","<p> Great! You have completed the practice. </p><p> Before you start, we're going to ask you a few questions about how the game works.  </p>","","0","instructions","","",""
"preload","35","454561","0.0-13.0","7592","approach_avoid_sv1","""event"",""trial"",""time""
""focus"",""0"",""0""
""fullscreenenter"",""1"",""5203""
""blur"",""15"",""81640""
""focus"",""15"",""82039""
""fullscreenexit"",""15"",""82052""
""blur"",""16"",""85440""
""focus"",""16"",""266856""
""blur"",""16"",""267599""
""focus"",""16"",""413330""
""blur"",""34"",""442448""
""focus"",""34"",""451513""
","""event"",""trial"",""time""
""blur"",""15"",""81640""
""blur"",""16"",""85440""
""blur"",""16"",""267599""
""blur"",""34"",""442448""
","""event"",""trial"",""time""
""focus"",""0"",""0""
""focus"",""15"",""82039""
""focus"",""16"",""266856""
""focus"",""16"",""413330""
""focus"",""34"",""451513""
","""event"",""trial"",""time""
""fullscreenenter"",""1"",""5203""
","""event"",""trial"",""time""
""fullscreenexit"",""15"",""82052""
","true","false","[]","[]","[]","","","","","","","",""
"comp-q","36","461708","0.0-14.0-0.0","7592","approach_avoid_sv1","""event"",""trial"",""time""
""focus"",""0"",""0""
""fullscreenenter"",""1"",""5203""
""blur"",""15"",""81640""
""focus"",""15"",""82039""
""fullscreenexit"",""15"",""82052""
""blur"",""16"",""85440""
""focus"",""16"",""266856""
""blur"",""16"",""267599""
""focus"",""16"",""413330""
""blur"",""34"",""442448""
""focus"",""34"",""451513""
","""event"",""trial"",""time""
""blur"",""15"",""81640""
""blur"",""16"",""85440""
""blur"",""16"",""267599""
""blur"",""34"",""442448""
","""event"",""trial"",""time""
""focus"",""0"",""0""
""focus"",""15"",""82039""
""focus"",""16"",""266856""
""focus"",""16"",""413330""
""focus"",""34"",""451513""
","""event"",""trial"",""time""
""fullscreenenter"",""1"",""5203""
","""event"",""trial"",""time""
""fullscreenexit"",""15"",""82052""
","","","","","","1315","<p> <b> True or False? </b> </p><p> In this game, you will only see each image once. </p>","","0","comp_question","","","true"
"comp-q","37","469391","0.0-14.0-1.0","7592","approach_avoid_sv1","""event"",""trial"",""time""
""focus"",""0"",""0""
""fullscreenenter"",""1"",""5203""
""blur"",""15"",""81640""
""focus"",""15"",""82039""
""fullscreenexit"",""15"",""82052""
""blur"",""16"",""85440""
""focus"",""16"",""266856""
""blur"",""16"",""267599""
""focus"",""16"",""413330""
""blur"",""34"",""442448""
""focus"",""34"",""451513""
","""event"",""trial"",""time""
""blur"",""15"",""81640""
""blur"",""16"",""85440""
""blur"",""16"",""267599""
""blur"",""34"",""442448""
","""event"",""trial"",""time""
""focus"",""0"",""0""
""focus"",""15"",""82039""
""focus"",""16"",""266856""
""focus"",""16"",""413330""
""focus"",""34"",""451513""
","""event"",""trial"",""time""
""fullscreenenter"",""1"",""5203""
","""event"",""trial"",""time""
""fullscreenexit"",""15"",""82052""
","","","","","","1344","<p> <b> That's right! </b> You will see many different images <i> one time each </i> in this game. </p>","","0","comp_answer","","",""
"comp-q","38","476775","0.0-15.0-0.0","7592","approach_avoid_sv1","""event"",""trial"",""time""
""focus"",""0"",""0""
""fullscreenenter"",""1"",""5203""
""blur"",""15"",""81640""
""focus"",""15"",""82039""
""fullscreenexit"",""15"",""82052""
""blur"",""16"",""85440""
""focus"",""16"",""266856""
""blur"",""16"",""267599""
""focus"",""16"",""413330""
""blur"",""34"",""442448""
""focus"",""34"",""451513""
""blur"",""39"",""483524""
""focus"",""39"",""631189""
","""event"",""trial"",""time""
""blur"",""15"",""81640""
""blur"",""16"",""85440""
""blur"",""16"",""267599""
""blur"",""34"",""442448""
""blur"",""39"",""483524""
","""event"",""trial"",""time""
""focus"",""0"",""0""
""focus"",""15"",""82039""
""focus"",""16"",""266856""
""focus"",""16"",""413330""
""focus"",""34"",""451513""
""focus"",""39"",""631189""
","""event"",""trial"",""time""
""fullscreenenter"",""1"",""5203""
","""event"",""trial"",""time""
""fullscreenexit"",""15"",""82052""
","","","","","","2367","<p> <b> True or False? </b> </p><p> You should use the mouse and click to make your response. </p>","","1","comp_question","","","true"
"comp-q","39","633724","0.0-15.0-1.0","7592","approach_avoid_sv1","""event"",""trial"",""time""
""focus"",""0"",""0""
""fullscreenenter"",""1"",""5203""
""blur"",""15"",""81640""
""focus"",""15"",""82039""
""fullscreenexit"",""15"",""82052""
""blur"",""16"",""85440""
""focus"",""16"",""266856""
""blur"",""16"",""267599""
""focus"",""16"",""413330""
""blur"",""34"",""442448""
""focus"",""34"",""451513""
""blur"",""39"",""483524""
""focus"",""39"",""631189""
","""event"",""trial"",""time""
""blur"",""15"",""81640""
""blur"",""16"",""85440""
""blur"",""16"",""267599""
""blur"",""34"",""442448""
""blur"",""39"",""483524""
","""event"",""trial"",""time""
""focus"",""0"",""0""
""focus"",""15"",""82039""
""focus"",""16"",""266856""
""focus"",""16"",""413330""
""focus"",""34"",""451513""
""focus"",""39"",""631189""
","""event"",""trial"",""time""
""fullscreenenter"",""1"",""5203""
","""event"",""trial"",""time""
""fullscreenexit"",""15"",""82052""
","","","","","","150445","<p><b> That's right! </b> You should use the '1', '2', '3', and '4' keys to make your response. </p>","","0","comp_answer","","",""
"comp-q","40","640625","0.0-16.0-0.0","7592","approach_avoid_sv1","""event"",""trial"",""time""
""focus"",""0"",""0""
""fullscreenenter"",""1"",""5203""
""blur"",""15"",""81640""
""focus"",""15"",""82039""
""fullscreenexit"",""15"",""82052""
""blur"",""16"",""85440""
""focus"",""16"",""266856""
""blur"",""16"",""267599""
""focus"",""16"",""413330""
""blur"",""34"",""442448""
""focus"",""34"",""451513""
""blur"",""39"",""483524""
""focus"",""39"",""631189""
","""event"",""trial"",""time""
""blur"",""15"",""81640""
""blur"",""16"",""85440""
""blur"",""16"",""267599""
""blur"",""34"",""442448""
""blur"",""39"",""483524""
","""event"",""trial"",""time""
""focus"",""0"",""0""
""focus"",""15"",""82039""
""focus"",""16"",""266856""
""focus"",""16"",""413330""
""focus"",""34"",""451513""
""focus"",""39"",""631189""
","""event"",""trial"",""time""
""fullscreenenter"",""1"",""5203""
","""event"",""trial"",""time""
""fullscreenexit"",""15"",""82052""
","","","","","","1219","<p> <b> True or False? </b> </p><p> You will have as much time as you want to make each choice. </p>","","1","comp_question","","","true"
"comp-q","41","647806","0.0-16.0-1.0","7592","approach_avoid_sv1","""event"",""trial"",""time""
""focus"",""0"",""0""
""fullscreenenter"",""1"",""5203""
""blur"",""15"",""81640""
""focus"",""15"",""82039""
""fullscreenexit"",""15"",""82052""
""blur"",""16"",""85440""
""focus"",""16"",""266856""
""blur"",""16"",""267599""
""focus"",""16"",""413330""
""blur"",""34"",""442448""
""focus"",""34"",""451513""
""blur"",""39"",""483524""
""focus"",""39"",""631189""
""blur"",""42"",""662584""
""focus"",""42"",""673231""
","""event"",""trial"",""time""
""blur"",""15"",""81640""
""blur"",""16"",""85440""
""blur"",""16"",""267599""
""blur"",""34"",""442448""
""blur"",""39"",""483524""
""blur"",""42"",""662584""
","""event"",""trial"",""time""
""focus"",""0"",""0""
""focus"",""15"",""82039""
""focus"",""16"",""266856""
""focus"",""16"",""413330""
""focus"",""34"",""451513""
""focus"",""39"",""631189""
""focus"",""42"",""673231""
","""event"",""trial"",""time""
""fullscreenenter"",""1"",""5203""
","""event"",""trial"",""time""
""fullscreenexit"",""15"",""82052""
","","","","","","2479","<p> <b> That's right! </b> You will only have 10 seconds to make each choice. </p>","","0","comp_answer","","",""
"learning-instructions","42","674691","0.0-17.0","7592","approach_avoid_sv1","""event"",""trial"",""time""
""focus"",""0"",""0""
""fullscreenenter"",""1"",""5203""
""blur"",""15"",""81640""
""focus"",""15"",""82039""
""fullscreenexit"",""15"",""82052""
""blur"",""16"",""85440""
""focus"",""16"",""266856""
""blur"",""16"",""267599""
""focus"",""16"",""413330""
""blur"",""34"",""442448""
""focus"",""34"",""451513""
""blur"",""39"",""483524""
""focus"",""39"",""631189""
""blur"",""42"",""662584""
""focus"",""42"",""673231""
","""event"",""trial"",""time""
""blur"",""15"",""81640""
""blur"",""16"",""85440""
""blur"",""16"",""267599""
""blur"",""34"",""442448""
""blur"",""39"",""483524""
""blur"",""42"",""662584""
","""event"",""trial"",""time""
""focus"",""0"",""0""
""focus"",""15"",""82039""
""focus"",""16"",""266856""
""focus"",""16"",""413330""
""focus"",""34"",""451513""
""focus"",""39"",""631189""
""focus"",""42"",""673231""
","""event"",""trial"",""time""
""fullscreenenter"",""1"",""5203""
","""event"",""trial"",""time""
""fullscreenexit"",""15"",""82052""
","","","","","","18213","<p> Great! You are now ready to begin the game. </p><p> Remember, use the 1, 2, 3, and 4 keys to make your responses. </p>","","0","instructions","","",""
"html-keyboard-response","43","675298","0.0-18.0-0.0","7592","approach_avoid_sv1","""event"",""trial"",""time""
""focus"",""0"",""0""
""fullscreenenter"",""1"",""5203""
""blur"",""15"",""81640""
""focus"",""15"",""82039""
""fullscreenexit"",""15"",""82052""
""blur"",""16"",""85440""
""focus"",""16"",""266856""
""blur"",""16"",""267599""
""focus"",""16"",""413330""
""blur"",""34"",""442448""
""focus"",""34"",""451513""
""blur"",""39"",""483524""
""focus"",""39"",""631189""
""blur"",""42"",""662584""
""focus"",""42"",""673231""
","""event"",""trial"",""time""
""blur"",""15"",""81640""
""blur"",""16"",""85440""
""blur"",""16"",""267599""
""blur"",""34"",""442448""
""blur"",""39"",""483524""
""blur"",""42"",""662584""
","""event"",""trial"",""time""
""focus"",""0"",""0""
""focus"",""15"",""82039""
""focus"",""16"",""266856""
""focus"",""16"",""413330""
""focus"",""34"",""451513""
""focus"",""39"",""631189""
""focus"",""42"",""673231""
","""event"",""trial"",""time""
""fullscreenenter"",""1"",""5203""
","""event"",""trial"",""time""
""fullscreenexit"",""15"",""82052""
","","","","","","null","<div style=""font-size:60px;"">+</div>","null","","fixation","","",""
"memory-trial","44","677130","0.0-18.0-1.0","7592","approach_avoid_sv1","""event"",""trial"",""time""
""focus"",""0"",""0""
""fullscreenenter"",""1"",""5203""
""blur"",""15"",""81640""
""focus"",""15"",""82039""
""fullscreenexit"",""15"",""82052""
""blur"",""16"",""85440""
""focus"",""16"",""266856""
""blur"",""16"",""267599""
""focus"",""16"",""413330""
""blur"",""34"",""442448""
""focus"",""34"",""451513""
""blur"",""39"",""483524""
""focus"",""39"",""631189""
""blur"",""42"",""662584""
""focus"",""42"",""673231""
","""event"",""trial"",""time""
""blur"",""15"",""81640""
""blur"",""16"",""85440""
""blur"",""16"",""267599""
""blur"",""34"",""442448""
""blur"",""39"",""483524""
""blur"",""42"",""662584""
","""event"",""trial"",""time""
""focus"",""0"",""0""
""focus"",""15"",""82039""
""focus"",""16"",""266856""
""focus"",""16"",""413330""
""focus"",""34"",""451513""
""focus"",""39"",""631189""
""focus"",""42"",""673231""
","""event"",""trial"",""time""
""fullscreenenter"",""1"",""5203""
","""event"",""trial"",""time""
""fullscreenexit"",""15"",""82052""
","","","","","","825","images/bush5.png","","","memory_trial","1","definitely_old",""
"html-keyboard-response","45","677632","0.0-18.0-0.1","7592","approach_avoid_sv1","""event"",""trial"",""time""
""focus"",""0"",""0""
""fullscreenenter"",""1"",""5203""
""blur"",""15"",""81640""
""focus"",""15"",""82039""
""fullscreenexit"",""15"",""82052""
""blur"",""16"",""85440""
""focus"",""16"",""266856""
""blur"",""16"",""267599""
""focus"",""16"",""413330""
""blur"",""34"",""442448""
""focus"",""34"",""451513""
""blur"",""39"",""483524""
""focus"",""39"",""631189""
""blur"",""42"",""662584""
""focus"",""42"",""673231""
","""event"",""trial"",""time""
""blur"",""15"",""81640""
""blur"",""16"",""85440""
""blur"",""16"",""267599""
""blur"",""34"",""442448""
""blur"",""39"",""483524""
""blur"",""42"",""662584""
","""event"",""trial"",""time""
""focus"",""0"",""0""
""focus"",""15"",""82039""
""focus"",""16"",""266856""
""focus"",""16"",""413330""
""focus"",""34"",""451513""
""focus"",""39"",""631189""
""focus"",""42"",""673231""
","""event"",""trial"",""time""
""fullscreenenter"",""1"",""5203""
","""event"",""trial"",""time""
""fullscreenexit"",""15"",""82052""
","","","","","","null","<div style=""font-size:60px;"">+</div>","null","","fixation","","",""
"memory-trial","46","679460","0.0-18.0-1.1","7592","approach_avoid_sv1","""event"",""trial"",""time""
""focus"",""0"",""0""
""fullscreenenter"",""1"",""5203""
""blur"",""15"",""81640""
""focus"",""15"",""82039""
""fullscreenexit"",""15"",""82052""
""blur"",""16"",""85440""
""focus"",""16"",""266856""
""blur"",""16"",""267599""
""focus"",""16"",""413330""
""blur"",""34"",""442448""
""focus"",""34"",""451513""
""blur"",""39"",""483524""
""focus"",""39"",""631189""
""blur"",""42"",""662584""
""focus"",""42"",""673231""
","""event"",""trial"",""time""
""blur"",""15"",""81640""
""blur"",""16"",""85440""
""blur"",""16"",""267599""
""blur"",""34"",""442448""
""blur"",""39"",""483524""
""blur"",""42"",""662584""
","""event"",""trial"",""time""
""focus"",""0"",""0""
""focus"",""15"",""82039""
""focus"",""16"",""266856""
""focus"",""16"",""413330""
""focus"",""34"",""451513""
""focus"",""39"",""631189""
""focus"",""42"",""673231""
","""event"",""trial"",""time""
""fullscreenenter"",""1"",""5203""
","""event"",""trial"",""time""
""fullscreenexit"",""15"",""82052""
","","","","","","825","images/rabbit6.png","","","memory_trial","2","maybe_old",""
"html-keyboard-response","47","679966","0.0-18.0-0.2","7592","approach_avoid_sv1","""event"",""trial"",""time""
""focus"",""0"",""0""
""fullscreenenter"",""1"",""5203""
""blur"",""15"",""81640""
""focus"",""15"",""82039""
""fullscreenexit"",""15"",""82052""
""blur"",""16"",""85440""
""focus"",""16"",""266856""
""blur"",""16"",""267599""
""focus"",""16"",""413330""
""blur"",""34"",""442448""
""focus"",""34"",""451513""
""blur"",""39"",""483524""
""focus"",""39"",""631189""
""blur"",""42"",""662584""
""focus"",""42"",""673231""
","""event"",""trial"",""time""
""blur"",""15"",""81640""
""blur"",""16"",""85440""
""blur"",""16"",""267599""
""blur"",""34"",""442448""
""blur"",""39"",""483524""
""blur"",""42"",""662584""
","""event"",""trial"",""time""
""focus"",""0"",""0""
""focus"",""15"",""82039""
""focus"",""16"",""266856""
""focus"",""16"",""413330""
""focus"",""34"",""451513""
""focus"",""39"",""631189""
""focus"",""42"",""673231""
","""event"",""trial"",""time""
""fullscreenenter"",""1"",""5203""
","""event"",""trial"",""time""
""fullscreenexit"",""15"",""82052""
","","","","","","null","<div style=""font-size:60px;"">+</div>","null","","fixation","","",""
"memory-trial","48","682910","0.0-18.0-1.2","7592","approach_avoid_sv1","""event"",""trial"",""time""
""focus"",""0"",""0""
""fullscreenenter"",""1"",""5203""
""blur"",""15"",""81640""
""focus"",""15"",""82039""
""fullscreenexit"",""15"",""82052""
""blur"",""16"",""85440""
""focus"",""16"",""266856""
""blur"",""16"",""267599""
""focus"",""16"",""413330""
""blur"",""34"",""442448""
""focus"",""34"",""451513""
""blur"",""39"",""483524""
""focus"",""39"",""631189""
""blur"",""42"",""662584""
""focus"",""42"",""673231""
","""event"",""trial"",""time""
""blur"",""15"",""81640""
""blur"",""16"",""85440""
""blur"",""16"",""267599""
""blur"",""34"",""442448""
""blur"",""39"",""483524""
""blur"",""42"",""662584""
","""event"",""trial"",""time""
""focus"",""0"",""0""
""focus"",""15"",""82039""
""focus"",""16"",""266856""
""focus"",""16"",""413330""
""focus"",""34"",""451513""
""focus"",""39"",""631189""
""focus"",""42"",""673231""
","""event"",""trial"",""time""
""fullscreenenter"",""1"",""5203""
","""event"",""trial"",""time""
""fullscreenexit"",""15"",""82052""
","","","","","","1937","images/apple3.png","","","memory_trial","1","definitely_old",""
"html-keyboard-response","49","683416","0.0-18.0-0.3","7592","approach_avoid_sv1","""event"",""trial"",""time""
""focus"",""0"",""0""
""fullscreenenter"",""1"",""5203""
""blur"",""15"",""81640""
""focus"",""15"",""82039""
""fullscreenexit"",""15"",""82052""
""blur"",""16"",""85440""
""focus"",""16"",""266856""
""blur"",""16"",""267599""
""focus"",""16"",""413330""
""blur"",""34"",""442448""
""focus"",""34"",""451513""
""blur"",""39"",""483524""
""focus"",""39"",""631189""
""blur"",""42"",""662584""
""focus"",""42"",""673231""
","""event"",""trial"",""time""
""blur"",""15"",""81640""
""blur"",""16"",""85440""
""blur"",""16"",""267599""
""blur"",""34"",""442448""
""blur"",""39"",""483524""
""blur"",""42"",""662584""
","""event"",""trial"",""time""
""focus"",""0"",""0""
""focus"",""15"",""82039""
""focus"",""16"",""266856""
""focus"",""16"",""413330""
""focus"",""34"",""451513""
""focus"",""39"",""631189""
""focus"",""42"",""673231""
","""event"",""trial"",""time""
""fullscreenenter"",""1"",""5203""
","""event"",""trial"",""time""
""fullscreenexit"",""15"",""82052""
","","","","","","null","<div style=""font-size:60px;"">+</div>","null","","fixation","","",""
"memory-trial","50","686801","0.0-18.0-1.3","7592","approach_avoid_sv1","""event"",""trial"",""time""
""focus"",""0"",""0""
""fullscreenenter"",""1"",""5203""
""blur"",""15"",""81640""
""focus"",""15"",""82039""
""fullscreenexit"",""15"",""82052""
""blur"",""16"",""85440""
""focus"",""16"",""266856""
""blur"",""16"",""267599""
""focus"",""16"",""413330""
""blur"",""34"",""442448""
""focus"",""34"",""451513""
""blur"",""39"",""483524""
""focus"",""39"",""631189""
""blur"",""42"",""662584""
""focus"",""42"",""673231""
","""event"",""trial"",""time""
""blur"",""15"",""81640""
""blur"",""16"",""85440""
""blur"",""16"",""267599""
""blur"",""34"",""442448""
""blur"",""39"",""483524""
""blur"",""42"",""662584""
","""event"",""trial"",""time""
""focus"",""0"",""0""
""focus"",""15"",""82039""
""focus"",""16"",""266856""
""focus"",""16"",""413330""
""focus"",""34"",""451513""
""focus"",""39"",""631189""
""focus"",""42"",""673231""
","""event"",""trial"",""time""
""fullscreenenter"",""1"",""5203""
","""event"",""trial"",""time""
""fullscreenexit"",""15"",""82052""
","","","","","","2383","images/dog8.png","","","memory_trial","4","definitely_new",""
"html-keyboard-response","51","687308","0.0-18.0-0.4","7592","approach_avoid_sv1","""event"",""trial"",""time""
""focus"",""0"",""0""
""fullscreenenter"",""1"",""5203""
""blur"",""15"",""81640""
""focus"",""15"",""82039""
""fullscreenexit"",""15"",""82052""
""blur"",""16"",""85440""
""focus"",""16"",""266856""
""blur"",""16"",""267599""
""focus"",""16"",""413330""
""blur"",""34"",""442448""
""focus"",""34"",""451513""
""blur"",""39"",""483524""
""focus"",""39"",""631189""
""blur"",""42"",""662584""
""focus"",""42"",""673231""
","""event"",""trial"",""time""
""blur"",""15"",""81640""
""blur"",""16"",""85440""
""blur"",""16"",""267599""
""blur"",""34"",""442448""
""blur"",""39"",""483524""
""blur"",""42"",""662584""
","""event"",""trial"",""time""
""focus"",""0"",""0""
""focus"",""15"",""82039""
""focus"",""16"",""266856""
""focus"",""16"",""413330""
""focus"",""34"",""451513""
""focus"",""39"",""631189""
""focus"",""42"",""673231""
","""event"",""trial"",""time""
""fullscreenenter"",""1"",""5203""
","""event"",""trial"",""time""
""fullscreenexit"",""15"",""82052""
","","","","","","null","<div style=""font-size:60px;"">+</div>","null","","fixation","","",""
"memory-trial","52","689341","0.0-18.0-1.4","7592","approach_avoid_sv1","""event"",""trial"",""time""
""focus"",""0"",""0""
""fullscreenenter"",""1"",""5203""
""blur"",""15"",""81640""
""focus"",""15"",""82039""
""fullscreenexit"",""15"",""82052""
""blur"",""16"",""85440""
""focus"",""16"",""266856""
""blur"",""16"",""267599""
""focus"",""16"",""413330""
""blur"",""34"",""442448""
""focus"",""34"",""451513""
""blur"",""39"",""483524""
""focus"",""39"",""631189""
""blur"",""42"",""662584""
""focus"",""42"",""673231""
","""event"",""trial"",""time""
""blur"",""15"",""81640""
""blur"",""16"",""85440""
""blur"",""16"",""267599""
""blur"",""34"",""442448""
""blur"",""39"",""483524""
""blur"",""42"",""662584""
","""event"",""trial"",""time""
""focus"",""0"",""0""
""focus"",""15"",""82039""
""focus"",""16"",""266856""
""focus"",""16"",""413330""
""focus"",""34"",""451513""
""focus"",""39"",""631189""
""focus"",""42"",""673231""
","""event"",""trial"",""time""
""fullscreenenter"",""1"",""5203""
","""event"",""trial"",""time""
""fullscreenexit"",""15"",""82052""
","","","","","","1026","images/sheep5.png","","","memory_trial","4","definitely_new",""
"html-keyboard-response","53","689844","0.0-18.0-0.5","7592","approach_avoid_sv1","""event"",""trial"",""time""
""focus"",""0"",""0""
""fullscreenenter"",""1"",""5203""
""blur"",""15"",""81640""
""focus"",""15"",""82039""
""fullscreenexit"",""15"",""82052""
""blur"",""16"",""85440""
""focus"",""16"",""266856""
""blur"",""16"",""267599""
""focus"",""16"",""413330""
""blur"",""34"",""442448""
""focus"",""34"",""451513""
""blur"",""39"",""483524""
""focus"",""39"",""631189""
""blur"",""42"",""662584""
""focus"",""42"",""673231""
","""event"",""trial"",""time""
""blur"",""15"",""81640""
""blur"",""16"",""85440""
""blur"",""16"",""267599""
""blur"",""34"",""442448""
""blur"",""39"",""483524""
""blur"",""42"",""662584""
","""event"",""trial"",""time""
""focus"",""0"",""0""
""focus"",""15"",""82039""
""focus"",""16"",""266856""
""focus"",""16"",""413330""
""focus"",""34"",""451513""
""focus"",""39"",""631189""
""focus"",""42"",""673231""
","""event"",""trial"",""time""
""fullscreenenter"",""1"",""5203""
","""event"",""trial"",""time""
""fullscreenexit"",""15"",""82052""
","","","","","","null","<div style=""font-size:60px;"">+</div>","null","","fixation","","",""
"memory-trial","54","692278","0.0-18.0-1.5","7592","approach_avoid_sv1","""event"",""trial"",""time""
""focus"",""0"",""0""
""fullscreenenter"",""1"",""5203""
""blur"",""15"",""81640""
""focus"",""15"",""82039""
""fullscreenexit"",""15"",""82052""
""blur"",""16"",""85440""
""focus"",""16"",""266856""
""blur"",""16"",""267599""
""focus"",""16"",""413330""
""blur"",""34"",""442448""
""focus"",""34"",""451513""
""blur"",""39"",""483524""
""focus"",""39"",""631189""
""blur"",""42"",""662584""
""focus"",""42"",""673231""
","""event"",""trial"",""time""
""blur"",""15"",""81640""
""blur"",""16"",""85440""
""blur"",""16"",""267599""
""blur"",""34"",""442448""
""blur"",""39"",""483524""
""blur"",""42"",""662584""
","""event"",""trial"",""time""
""focus"",""0"",""0""
""focus"",""15"",""82039""
""focus"",""16"",""266856""
""focus"",""16"",""413330""
""focus"",""34"",""451513""
""focus"",""39"",""631189""
""focus"",""42"",""673231""
","""event"",""trial"",""time""
""fullscreenenter"",""1"",""5203""
","""event"",""trial"",""time""
""fullscreenexit"",""15"",""82052""
","","","","","","1426","images/boat5.png","","","memory_trial","4","definitely_new",""
"html-keyboard-response","55","692780","0.0-18.0-0.6","7592","approach_avoid_sv1","""event"",""trial"",""time""
""focus"",""0"",""0""
""fullscreenenter"",""1"",""5203""
""blur"",""15"",""81640""
""focus"",""15"",""82039""
""fullscreenexit"",""15"",""82052""
""blur"",""16"",""85440""
""focus"",""16"",""266856""
""blur"",""16"",""267599""
""focus"",""16"",""413330""
""blur"",""34"",""442448""
""focus"",""34"",""451513""
""blur"",""39"",""483524""
""focus"",""39"",""631189""
""blur"",""42"",""662584""
""focus"",""42"",""673231""
","""event"",""trial"",""time""
""blur"",""15"",""81640""
""blur"",""16"",""85440""
""blur"",""16"",""267599""
""blur"",""34"",""442448""
""blur"",""39"",""483524""
""blur"",""42"",""662584""
","""event"",""trial"",""time""
""focus"",""0"",""0""
""focus"",""15"",""82039""
""focus"",""16"",""266856""
""focus"",""16"",""413330""
""focus"",""34"",""451513""
""focus"",""39"",""631189""
""focus"",""42"",""673231""
","""event"",""trial"",""time""
""fullscreenenter"",""1"",""5203""
","""event"",""trial"",""time""
""fullscreenexit"",""15"",""82052""
","","","","","","null","<div style=""font-size:60px;"">+</div>","null","","fixation","","",""
"memory-trial","56","694519","0.0-18.0-1.6","7592","approach_avoid_sv1","""event"",""trial"",""time""
""focus"",""0"",""0""
""fullscreenenter"",""1"",""5203""
""blur"",""15"",""81640""
""focus"",""15"",""82039""
""fullscreenexit"",""15"",""82052""
""blur"",""16"",""85440""
""focus"",""16"",""266856""
""blur"",""16"",""267599""
""focus"",""16"",""413330""
""blur"",""34"",""442448""
""focus"",""34"",""451513""
""blur"",""39"",""483524""
""focus"",""39"",""631189""
""blur"",""42"",""662584""
""focus"",""42"",""673231""
","""event"",""trial"",""time""
""blur"",""15"",""81640""
""blur"",""16"",""85440""
""blur"",""16"",""267599""
""blur"",""34"",""442448""
""blur"",""39"",""483524""
""blur"",""42"",""662584""
","""event"",""trial"",""time""
""focus"",""0"",""0""
""focus"",""15"",""82039""
""focus"",""16"",""266856""
""focus"",""16"",""413330""
""focus"",""34"",""451513""
""focus"",""39"",""631189""
""focus"",""42"",""673231""
","""event"",""trial"",""time""
""fullscreenenter"",""1"",""5203""
","""event"",""trial"",""time""
""fullscreenexit"",""15"",""82052""
","","","","","","735","images/chair5.png","","","memory_trial","4","definitely_new",""
"html-keyboard-response","57","695026","0.0-18.0-0.7","7592","approach_avoid_sv1","""event"",""trial"",""time""
""focus"",""0"",""0""
""fullscreenenter"",""1"",""5203""
""blur"",""15"",""81640""
""focus"",""15"",""82039""
""fullscreenexit"",""15"",""82052""
""blur"",""16"",""85440""
""focus"",""16"",""266856""
""blur"",""16"",""267599""
""focus"",""16"",""413330""
""blur"",""34"",""442448""
""focus"",""34"",""451513""
""blur"",""39"",""483524""
""focus"",""39"",""631189""
""blur"",""42"",""662584""
""focus"",""42"",""673231""
","""event"",""trial"",""time""
""blur"",""15"",""81640""
""blur"",""16"",""85440""
""blur"",""16"",""267599""
""blur"",""34"",""442448""
""blur"",""39"",""483524""
""blur"",""42"",""662584""
","""event"",""trial"",""time""
""focus"",""0"",""0""
""focus"",""15"",""82039""
""focus"",""16"",""266856""
""focus"",""16"",""413330""
""focus"",""34"",""451513""
""focus"",""39"",""631189""
""focus"",""42"",""673231""
","""event"",""trial"",""time""
""fullscreenenter"",""1"",""5203""
","""event"",""trial"",""time""
""fullscreenexit"",""15"",""82052""
","","","","","","null","<div style=""font-size:60px;"">+</div>","null","","fixation","","",""
"memory-trial","58","697194","0.0-18.0-1.7","7592","approach_avoid_sv1","""event"",""trial"",""time""
""focus"",""0"",""0""
""fullscreenenter"",""1"",""5203""
""blur"",""15"",""81640""
""focus"",""15"",""82039""
""fullscreenexit"",""15"",""82052""
""blur"",""16"",""85440""
""focus"",""16"",""266856""
""blur"",""16"",""267599""
""focus"",""16"",""413330""
""blur"",""34"",""442448""
""focus"",""34"",""451513""
""blur"",""39"",""483524""
""focus"",""39"",""631189""
""blur"",""42"",""662584""
""focus"",""42"",""673231""
","""event"",""trial"",""time""
""blur"",""15"",""81640""
""blur"",""16"",""85440""
""blur"",""16"",""267599""
""blur"",""34"",""442448""
""blur"",""39"",""483524""
""blur"",""42"",""662584""
","""event"",""trial"",""time""
""focus"",""0"",""0""
""focus"",""15"",""82039""
""focus"",""16"",""266856""
""focus"",""16"",""413330""
""focus"",""34"",""451513""
""focus"",""39"",""631189""
""focus"",""42"",""673231""
","""event"",""trial"",""time""
""fullscreenenter"",""1"",""5203""
","""event"",""trial"",""time""
""fullscreenexit"",""15"",""82052""
","","","","","","1163","images/bush6.png","","","memory_trial","1","definitely_old",""
"html-keyboard-response","59","697697","0.0-18.0-0.8","7592","approach_avoid_sv1","""event"",""trial"",""time""
""focus"",""0"",""0""
""fullscreenenter"",""1"",""5203""
""blur"",""15"",""81640""
""focus"",""15"",""82039""
""fullscreenexit"",""15"",""82052""
""blur"",""16"",""85440""
""focus"",""16"",""266856""
""blur"",""16"",""267599""
""focus"",""16"",""413330""
""blur"",""34"",""442448""
""focus"",""34"",""451513""
""blur"",""39"",""483524""
""focus"",""39"",""631189""
""blur"",""42"",""662584""
""focus"",""42"",""673231""
","""event"",""trial"",""time""
""blur"",""15"",""81640""
""blur"",""16"",""85440""
""blur"",""16"",""267599""
""blur"",""34"",""442448""
""blur"",""39"",""483524""
""blur"",""42"",""662584""
","""event"",""trial"",""time""
""focus"",""0"",""0""
""focus"",""15"",""82039""
""focus"",""16"",""266856""
""focus"",""16"",""413330""
""focus"",""34"",""451513""
""focus"",""39"",""631189""
""focus"",""42"",""673231""
","""event"",""trial"",""time""
""fullscreenenter"",""1"",""5203""
","""event"",""trial"",""time""
""fullscreenexit"",""15"",""82052""
","","","","","","null","<div style=""font-size:60px;"">+</div>","null","","fixation","","",""
"memory-trial","60","699562","0.0-18.0-1.8","7592","approach_avoid_sv1","""event"",""trial"",""time""
""focus"",""0"",""0""
""fullscreenenter"",""1"",""5203""
""blur"",""15"",""81640""
""focus"",""15"",""82039""
""fullscreenexit"",""15"",""82052""
""blur"",""16"",""85440""
""focus"",""16"",""266856""
""blur"",""16"",""267599""
""focus"",""16"",""413330""
""blur"",""34"",""442448""
""focus"",""34"",""451513""
""blur"",""39"",""483524""
""focus"",""39"",""631189""
""blur"",""42"",""662584""
""focus"",""42"",""673231""
","""event"",""trial"",""time""
""blur"",""15"",""81640""
""blur"",""16"",""85440""
""blur"",""16"",""267599""
""blur"",""34"",""442448""
""blur"",""39"",""483524""
""blur"",""42"",""662584""
","""event"",""trial"",""time""
""focus"",""0"",""0""
""focus"",""15"",""82039""
""focus"",""16"",""266856""
""focus"",""16"",""413330""
""focus"",""34"",""451513""
""focus"",""39"",""631189""
""focus"",""42"",""673231""
","""event"",""trial"",""time""
""fullscreenenter"",""1"",""5203""
","""event"",""trial"",""time""
""fullscreenexit"",""15"",""82052""
","","","","","","859","images/bed3.png","","","memory_trial","1","definitely_old",""
"html-keyboard-response","61","700068","0.0-18.0-0.9","7592","approach_avoid_sv1","""event"",""trial"",""time""
""focus"",""0"",""0""
""fullscreenenter"",""1"",""5203""
""blur"",""15"",""81640""
""focus"",""15"",""82039""
""fullscreenexit"",""15"",""82052""
""blur"",""16"",""85440""
""focus"",""16"",""266856""
""blur"",""16"",""267599""
""focus"",""16"",""413330""
""blur"",""34"",""442448""
""focus"",""34"",""451513""
""blur"",""39"",""483524""
""focus"",""39"",""631189""
""blur"",""42"",""662584""
""focus"",""42"",""673231""
","""event"",""trial"",""time""
""blur"",""15"",""81640""
""blur"",""16"",""85440""
""blur"",""16"",""267599""
""blur"",""34"",""442448""
""blur"",""39"",""483524""
""blur"",""42"",""662584""
","""event"",""trial"",""time""
""focus"",""0"",""0""
""focus"",""15"",""82039""
""focus"",""16"",""266856""
""focus"",""16"",""413330""
""focus"",""34"",""451513""
""focus"",""39"",""631189""
""focus"",""42"",""673231""
","""event"",""trial"",""time""
""fullscreenenter"",""1"",""5203""
","""event"",""trial"",""time""
""fullscreenexit"",""15"",""82052""
","","","","","","null","<div style=""font-size:60px;"">+</div>","null","","fixation","","",""
"memory-trial","62","702313","0.0-18.0-1.9","7592","approach_avoid_sv1","""event"",""trial"",""time""
""focus"",""0"",""0""
""fullscreenenter"",""1"",""5203""
""blur"",""15"",""81640""
""focus"",""15"",""82039""
""fullscreenexit"",""15"",""82052""
""blur"",""16"",""85440""
""focus"",""16"",""266856""
""blur"",""16"",""267599""
""focus"",""16"",""413330""
""blur"",""34"",""442448""
""focus"",""34"",""451513""
""blur"",""39"",""483524""
""focus"",""39"",""631189""
""blur"",""42"",""662584""
""focus"",""42"",""673231""
","""event"",""trial"",""time""
""blur"",""15"",""81640""
""blur"",""16"",""85440""
""blur"",""16"",""267599""
""blur"",""34"",""442448""
""blur"",""39"",""483524""
""blur"",""42"",""662584""
","""event"",""trial"",""time""
""focus"",""0"",""0""
""focus"",""15"",""82039""
""focus"",""16"",""266856""
""focus"",""16"",""413330""
""focus"",""34"",""451513""
""focus"",""39"",""631189""
""focus"",""42"",""673231""
","""event"",""trial"",""time""
""fullscreenenter"",""1"",""5203""
","""event"",""trial"",""time""
""fullscreenexit"",""15"",""82052""
","","","","","","1238","images/flower7.png","","","memory_trial","4","definitely_new",""
"html-keyboard-response","63","702816","0.0-18.0-0.10","7592","approach_avoid_sv1","""event"",""trial"",""time""
""focus"",""0"",""0""
""fullscreenenter"",""1"",""5203""
""blur"",""15"",""81640""
""focus"",""15"",""82039""
""fullscreenexit"",""15"",""82052""
""blur"",""16"",""85440""
""focus"",""16"",""266856""
""blur"",""16"",""267599""
""focus"",""16"",""413330""
""blur"",""34"",""442448""
""focus"",""34"",""451513""
""blur"",""39"",""483524""
""focus"",""39"",""631189""
""blur"",""42"",""662584""
""focus"",""42"",""673231""
","""event"",""trial"",""time""
""blur"",""15"",""81640""
""blur"",""16"",""85440""
""blur"",""16"",""267599""
""blur"",""34"",""442448""
""blur"",""39"",""483524""
""blur"",""42"",""662584""
","""event"",""trial"",""time""
""focus"",""0"",""0""
""focus"",""15"",""82039""
""focus"",""16"",""266856""
""focus"",""16"",""413330""
""focus"",""34"",""451513""
""focus"",""39"",""631189""
""focus"",""42"",""673231""
","""event"",""trial"",""time""
""fullscreenenter"",""1"",""5203""
","""event"",""trial"",""time""
""fullscreenexit"",""15"",""82052""
","","","","","","null","<div style=""font-size:60px;"">+</div>","null","","fixation","","",""
"memory-trial","64","705483","0.0-18.0-1.10","7592","approach_avoid_sv1","""event"",""trial"",""time""
""focus"",""0"",""0""
""fullscreenenter"",""1"",""5203""
""blur"",""15"",""81640""
""focus"",""15"",""82039""
""fullscreenexit"",""15"",""82052""
""blur"",""16"",""85440""
""focus"",""16"",""266856""
""blur"",""16"",""267599""
""focus"",""16"",""413330""
""blur"",""34"",""442448""
""focus"",""34"",""451513""
""blur"",""39"",""483524""
""focus"",""39"",""631189""
""blur"",""42"",""662584""
""focus"",""42"",""673231""
","""event"",""trial"",""time""
""blur"",""15"",""81640""
""blur"",""16"",""85440""
""blur"",""16"",""267599""
""blur"",""34"",""442448""
""blur"",""39"",""483524""
""blur"",""42"",""662584""
","""event"",""trial"",""time""
""focus"",""0"",""0""
""focus"",""15"",""82039""
""focus"",""16"",""266856""
""focus"",""16"",""413330""
""focus"",""34"",""451513""
""focus"",""39"",""631189""
""focus"",""42"",""673231""
","""event"",""trial"",""time""
""fullscreenenter"",""1"",""5203""
","""event"",""trial"",""time""
""fullscreenexit"",""15"",""82052""
","","","","","","1663","images/chair2.png","","","memory_trial","1","definitely_old",""
"html-keyboard-response","65","705990","0.0-18.0-0.11","7592","approach_avoid_sv1","""event"",""trial"",""time""
""focus"",""0"",""0""
""fullscreenenter"",""1"",""5203""
""blur"",""15"",""81640""
""focus"",""15"",""82039""
""fullscreenexit"",""15"",""82052""
""blur"",""16"",""85440""
""focus"",""16"",""266856""
""blur"",""16"",""267599""
""focus"",""16"",""413330""
""blur"",""34"",""442448""
""focus"",""34"",""451513""
""blur"",""39"",""483524""
""focus"",""39"",""631189""
""blur"",""42"",""662584""
""focus"",""42"",""673231""
","""event"",""trial"",""time""
""blur"",""15"",""81640""
""blur"",""16"",""85440""
""blur"",""16"",""267599""
""blur"",""34"",""442448""
""blur"",""39"",""483524""
""blur"",""42"",""662584""
","""event"",""trial"",""time""
""focus"",""0"",""0""
""focus"",""15"",""82039""
""focus"",""16"",""266856""
""focus"",""16"",""413330""
""focus"",""34"",""451513""
""focus"",""39"",""631189""
""focus"",""42"",""673231""
","""event"",""trial"",""time""
""fullscreenenter"",""1"",""5203""
","""event"",""trial"",""time""
""fullscreenexit"",""15"",""82052""
","","","","","","null","<div style=""font-size:60px;"">+</div>","null","","fixation","","",""
"memory-trial","66","708234","0.0-18.0-1.11","7592","approach_avoid_sv1","""event"",""trial"",""time""
""focus"",""0"",""0""
""fullscreenenter"",""1"",""5203""
""blur"",""15"",""81640""
""focus"",""15"",""82039""
""fullscreenexit"",""15"",""82052""
""blur"",""16"",""85440""
""focus"",""16"",""266856""
""blur"",""16"",""267599""
""focus"",""16"",""413330""
""blur"",""34"",""442448""
""focus"",""34"",""451513""
""blur"",""39"",""483524""
""focus"",""39"",""631189""
""blur"",""42"",""662584""
""focus"",""42"",""673231""
","""event"",""trial"",""time""
""blur"",""15"",""81640""
""blur"",""16"",""85440""
""blur"",""16"",""267599""
""blur"",""34"",""442448""
""blur"",""39"",""483524""
""blur"",""42"",""662584""
","""event"",""trial"",""time""
""focus"",""0"",""0""
""focus"",""15"",""82039""
""focus"",""16"",""266856""
""focus"",""16"",""413330""
""focus"",""34"",""451513""
""focus"",""39"",""631189""
""focus"",""42"",""673231""
","""event"",""trial"",""time""
""fullscreenenter"",""1"",""5203""
","""event"",""trial"",""time""
""fullscreenexit"",""15"",""82052""
","","","","","","1240","images/banana7.png","","","memory_trial","1","definitely_old",""
"html-keyboard-response","67","708736","0.0-18.0-0.12","7592","approach_avoid_sv1","""event"",""trial"",""time""
""focus"",""0"",""0""
""fullscreenenter"",""1"",""5203""
""blur"",""15"",""81640""
""focus"",""15"",""82039""
""fullscreenexit"",""15"",""82052""
""blur"",""16"",""85440""
""focus"",""16"",""266856""
""blur"",""16"",""267599""
""focus"",""16"",""413330""
""blur"",""34"",""442448""
""focus"",""34"",""451513""
""blur"",""39"",""483524""
""focus"",""39"",""631189""
""blur"",""42"",""662584""
""focus"",""42"",""673231""
","""event"",""trial"",""time""
""blur"",""15"",""81640""
""blur"",""16"",""85440""
""blur"",""16"",""267599""
""blur"",""34"",""442448""
""blur"",""39"",""483524""
""blur"",""42"",""662584""
","""event"",""trial"",""time""
""focus"",""0"",""0""
""focus"",""15"",""82039""
""focus"",""16"",""266856""
""focus"",""16"",""413330""
""focus"",""34"",""451513""
""focus"",""39"",""631189""
""focus"",""42"",""673231""
","""event"",""trial"",""time""
""fullscreenenter"",""1"",""5203""
","""event"",""trial"",""time""
""fullscreenexit"",""15"",""82052""
","","","","","","null","<div style=""font-size:60px;"">+</div>","null","","fixation","","",""
"memory-trial","68","711019","0.0-18.0-1.12","7592","approach_avoid_sv1","""event"",""trial"",""time""
""focus"",""0"",""0""
""fullscreenenter"",""1"",""5203""
""blur"",""15"",""81640""
""focus"",""15"",""82039""
""fullscreenexit"",""15"",""82052""
""blur"",""16"",""85440""
""focus"",""16"",""266856""
""blur"",""16"",""267599""
""focus"",""16"",""413330""
""blur"",""34"",""442448""
""focus"",""34"",""451513""
""blur"",""39"",""483524""
""focus"",""39"",""631189""
""blur"",""42"",""662584""
""focus"",""42"",""673231""
","""event"",""trial"",""time""
""blur"",""15"",""81640""
""blur"",""16"",""85440""
""blur"",""16"",""267599""
""blur"",""34"",""442448""
""blur"",""39"",""483524""
""blur"",""42"",""662584""
","""event"",""trial"",""time""
""focus"",""0"",""0""
""focus"",""15"",""82039""
""focus"",""16"",""266856""
""focus"",""16"",""413330""
""focus"",""34"",""451513""
""focus"",""39"",""631189""
""focus"",""42"",""673231""
","""event"",""trial"",""time""
""fullscreenenter"",""1"",""5203""
","""event"",""trial"",""time""
""fullscreenexit"",""15"",""82052""
","","","","","","1281","images/table1.png","","","memory_trial","4","definitely_new",""
"html-keyboard-response","69","711525","0.0-18.0-0.13","7592","approach_avoid_sv1","""event"",""trial"",""time""
""focus"",""0"",""0""
""fullscreenenter"",""1"",""5203""
""blur"",""15"",""81640""
""focus"",""15"",""82039""
""fullscreenexit"",""15"",""82052""
""blur"",""16"",""85440""
""focus"",""16"",""266856""
""blur"",""16"",""267599""
""focus"",""16"",""413330""
""blur"",""34"",""442448""
""focus"",""34"",""451513""
""blur"",""39"",""483524""
""focus"",""39"",""631189""
""blur"",""42"",""662584""
""focus"",""42"",""673231""
","""event"",""trial"",""time""
""blur"",""15"",""81640""
""blur"",""16"",""85440""
""blur"",""16"",""267599""
""blur"",""34"",""442448""
""blur"",""39"",""483524""
""blur"",""42"",""662584""
","""event"",""trial"",""time""
""focus"",""0"",""0""
""focus"",""15"",""82039""
""focus"",""16"",""266856""
""focus"",""16"",""413330""
""focus"",""34"",""451513""
""focus"",""39"",""631189""
""focus"",""42"",""673231""
","""event"",""trial"",""time""
""fullscreenenter"",""1"",""5203""
","""event"",""trial"",""time""
""fullscreenexit"",""15"",""82052""
","","","","","","null","<div style=""font-size:60px;"">+</div>","null","","fixation","","",""
"memory-trial","70","715158","0.0-18.0-1.13","7592","approach_avoid_sv1","""event"",""trial"",""time""
""focus"",""0"",""0""
""fullscreenenter"",""1"",""5203""
""blur"",""15"",""81640""
""focus"",""15"",""82039""
""fullscreenexit"",""15"",""82052""
""blur"",""16"",""85440""
""focus"",""16"",""266856""
""blur"",""16"",""267599""
""focus"",""16"",""413330""
""blur"",""34"",""442448""
""focus"",""34"",""451513""
""blur"",""39"",""483524""
""focus"",""39"",""631189""
""blur"",""42"",""662584""
""focus"",""42"",""673231""
","""event"",""trial"",""time""
""blur"",""15"",""81640""
""blur"",""16"",""85440""
""blur"",""16"",""267599""
""blur"",""34"",""442448""
""blur"",""39"",""483524""
""blur"",""42"",""662584""
","""event"",""trial"",""time""
""focus"",""0"",""0""
""focus"",""15"",""82039""
""focus"",""16"",""266856""
""focus"",""16"",""413330""
""focus"",""34"",""451513""
""focus"",""39"",""631189""
""focus"",""42"",""673231""
","""event"",""trial"",""time""
""fullscreenenter"",""1"",""5203""
","""event"",""trial"",""time""
""fullscreenexit"",""15"",""82052""
","","","","","","2626","images/sheep7.png","","","memory_trial","3","maybe_new",""
"html-keyboard-response","71","715664","0.0-18.0-0.14","7592","approach_avoid_sv1","""event"",""trial"",""time""
""focus"",""0"",""0""
""fullscreenenter"",""1"",""5203""
""blur"",""15"",""81640""
""focus"",""15"",""82039""
""fullscreenexit"",""15"",""82052""
""blur"",""16"",""85440""
""focus"",""16"",""266856""
""blur"",""16"",""267599""
""focus"",""16"",""413330""
""blur"",""34"",""442448""
""focus"",""34"",""451513""
""blur"",""39"",""483524""
""focus"",""39"",""631189""
""blur"",""42"",""662584""
""focus"",""42"",""673231""
","""event"",""trial"",""time""
""blur"",""15"",""81640""
""blur"",""16"",""85440""
""blur"",""16"",""267599""
""blur"",""34"",""442448""
""blur"",""39"",""483524""
""blur"",""42"",""662584""
","""event"",""trial"",""time""
""focus"",""0"",""0""
""focus"",""15"",""82039""
""focus"",""16"",""266856""
""focus"",""16"",""413330""
""focus"",""34"",""451513""
""focus"",""39"",""631189""
""focus"",""42"",""673231""
","""event"",""trial"",""time""
""fullscreenenter"",""1"",""5203""
","""event"",""trial"",""time""
""fullscreenexit"",""15"",""82052""
","","","","","","null","<div style=""font-size:60px;"">+</div>","null","","fixation","","",""
"memory-trial","72","718357","0.0-18.0-1.14","7592","approach_avoid_sv1","""event"",""trial"",""time""
""focus"",""0"",""0""
""fullscreenenter"",""1"",""5203""
""blur"",""15"",""81640""
""focus"",""15"",""82039""
""fullscreenexit"",""15"",""82052""
""blur"",""16"",""85440""
""focus"",""16"",""266856""
""blur"",""16"",""267599""
""focus"",""16"",""413330""
""blur"",""34"",""442448""
""focus"",""34"",""451513""
""blur"",""39"",""483524""
""focus"",""39"",""631189""
""blur"",""42"",""662584""
""focus"",""42"",""673231""
","""event"",""trial"",""time""
""blur"",""15"",""81640""
""blur"",""16"",""85440""
""blur"",""16"",""267599""
""blur"",""34"",""442448""
""blur"",""39"",""483524""
""blur"",""42"",""662584""
","""event"",""trial"",""time""
""focus"",""0"",""0""
""focus"",""15"",""82039""
""focus"",""16"",""266856""
""focus"",""16"",""413330""
""focus"",""34"",""451513""
""focus"",""39"",""631189""
""focus"",""42"",""673231""
","""event"",""trial"",""time""
""fullscreenenter"",""1"",""5203""
","""event"",""trial"",""time""
""fullscreenexit"",""15"",""82052""
","","","","","","1687","images/sheep2.png","","","memory_trial","4","definitely_new",""
"html-keyboard-response","73","718863","0.0-18.0-0.15","7592","approach_avoid_sv1","""event"",""trial"",""time""
""focus"",""0"",""0""
""fullscreenenter"",""1"",""5203""
""blur"",""15"",""81640""
""focus"",""15"",""82039""
""fullscreenexit"",""15"",""82052""
""blur"",""16"",""85440""
""focus"",""16"",""266856""
""blur"",""16"",""267599""
""focus"",""16"",""413330""
""blur"",""34"",""442448""
""focus"",""34"",""451513""
""blur"",""39"",""483524""
""focus"",""39"",""631189""
""blur"",""42"",""662584""
""focus"",""42"",""673231""
","""event"",""trial"",""time""
""blur"",""15"",""81640""
""blur"",""16"",""85440""
""blur"",""16"",""267599""
""blur"",""34"",""442448""
""blur"",""39"",""483524""
""blur"",""42"",""662584""
","""event"",""trial"",""time""
""focus"",""0"",""0""
""focus"",""15"",""82039""
""focus"",""16"",""266856""
""focus"",""16"",""413330""
""focus"",""34"",""451513""
""focus"",""39"",""631189""
""focus"",""42"",""673231""
","""event"",""trial"",""time""
""fullscreenenter"",""1"",""5203""
","""event"",""trial"",""time""
""fullscreenexit"",""15"",""82052""
","","","","","","null","<div style=""font-size:60px;"">+</div>","null","","fixation","","",""
"memory-trial","74","721505","0.0-18.0-1.15","7592","approach_avoid_sv1","""event"",""trial"",""time""
""focus"",""0"",""0""
""fullscreenenter"",""1"",""5203""
""blur"",""15"",""81640""
""focus"",""15"",""82039""
""fullscreenexit"",""15"",""82052""
""blur"",""16"",""85440""
""focus"",""16"",""266856""
""blur"",""16"",""267599""
""focus"",""16"",""413330""
""blur"",""34"",""442448""
""focus"",""34"",""451513""
""blur"",""39"",""483524""
""focus"",""39"",""631189""
""blur"",""42"",""662584""
""focus"",""42"",""673231""
","""event"",""trial"",""time""
""blur"",""15"",""81640""
""blur"",""16"",""85440""
""blur"",""16"",""267599""
""blur"",""34"",""442448""
""blur"",""39"",""483524""
""blur"",""42"",""662584""
","""event"",""trial"",""time""
""focus"",""0"",""0""
""focus"",""15"",""82039""
""focus"",""16"",""266856""
""focus"",""16"",""413330""
""focus"",""34"",""451513""
""focus"",""39"",""631189""
""focus"",""42"",""673231""
","""event"",""trial"",""time""
""fullscreenenter"",""1"",""5203""
","""event"",""trial"",""time""
""fullscreenexit"",""15"",""82052""
","","","","","","1635","images/sheep4.png","","","memory_trial","3","maybe_new",""
"html-keyboard-response","75","722012","0.0-18.0-0.16","7592","approach_avoid_sv1","""event"",""trial"",""time""
""focus"",""0"",""0""
""fullscreenenter"",""1"",""5203""
""blur"",""15"",""81640""
""focus"",""15"",""82039""
""fullscreenexit"",""15"",""82052""
""blur"",""16"",""85440""
""focus"",""16"",""266856""
""blur"",""16"",""267599""
""focus"",""16"",""413330""
""blur"",""34"",""442448""
""focus"",""34"",""451513""
""blur"",""39"",""483524""
""focus"",""39"",""631189""
""blur"",""42"",""662584""
""focus"",""42"",""673231""
","""event"",""trial"",""time""
""blur"",""15"",""81640""
""blur"",""16"",""85440""
""blur"",""16"",""267599""
""blur"",""34"",""442448""
""blur"",""39"",""483524""
""blur"",""42"",""662584""
","""event"",""trial"",""time""
""focus"",""0"",""0""
""focus"",""15"",""82039""
""focus"",""16"",""266856""
""focus"",""16"",""413330""
""focus"",""34"",""451513""
""focus"",""39"",""631189""
""focus"",""42"",""673231""
","""event"",""trial"",""time""
""fullscreenenter"",""1"",""5203""
","""event"",""trial"",""time""
""fullscreenexit"",""15"",""82052""
","","","","","","null","<div style=""font-size:60px;"">+</div>","null","","fixation","","",""
"memory-trial","76","724645","0.0-18.0-1.16","7592","approach_avoid_sv1","""event"",""trial"",""time""
""focus"",""0"",""0""
""fullscreenenter"",""1"",""5203""
""blur"",""15"",""81640""
""focus"",""15"",""82039""
""fullscreenexit"",""15"",""82052""
""blur"",""16"",""85440""
""focus"",""16"",""266856""
""blur"",""16"",""267599""
""focus"",""16"",""413330""
""blur"",""34"",""442448""
""focus"",""34"",""451513""
""blur"",""39"",""483524""
""focus"",""39"",""631189""
""blur"",""42"",""662584""
""focus"",""42"",""673231""
","""event"",""trial"",""time""
""blur"",""15"",""81640""
""blur"",""16"",""85440""
""blur"",""16"",""267599""
""blur"",""34"",""442448""
""blur"",""39"",""483524""
""blur"",""42"",""662584""
","""event"",""trial"",""time""
""focus"",""0"",""0""
""focus"",""15"",""82039""
""focus"",""16"",""266856""
""focus"",""16"",""413330""
""focus"",""34"",""451513""
""focus"",""39"",""631189""
""focus"",""42"",""673231""
","""event"",""trial"",""time""
""fullscreenenter"",""1"",""5203""
","""event"",""trial"",""time""
""fullscreenexit"",""15"",""82052""
","","","","","","1627","images/sofa6.png","","","memory_trial","2","maybe_old",""
"html-keyboard-response","77","725150","0.0-18.0-0.17","7592","approach_avoid_sv1","""event"",""trial"",""time""
""focus"",""0"",""0""
""fullscreenenter"",""1"",""5203""
""blur"",""15"",""81640""
""focus"",""15"",""82039""
""fullscreenexit"",""15"",""82052""
""blur"",""16"",""85440""
""focus"",""16"",""266856""
""blur"",""16"",""267599""
""focus"",""16"",""413330""
""blur"",""34"",""442448""
""focus"",""34"",""451513""
""blur"",""39"",""483524""
""focus"",""39"",""631189""
""blur"",""42"",""662584""
""focus"",""42"",""673231""
","""event"",""trial"",""time""
""blur"",""15"",""81640""
""blur"",""16"",""85440""
""blur"",""16"",""267599""
""blur"",""34"",""442448""
""blur"",""39"",""483524""
""blur"",""42"",""662584""
","""event"",""trial"",""time""
""focus"",""0"",""0""
""focus"",""15"",""82039""
""focus"",""16"",""266856""
""focus"",""16"",""413330""
""focus"",""34"",""451513""
""focus"",""39"",""631189""
""focus"",""42"",""673231""
","""event"",""trial"",""time""
""fullscreenenter"",""1"",""5203""
","""event"",""trial"",""time""
""fullscreenexit"",""15"",""82052""
","","","","","","null","<div style=""font-size:60px;"">+</div>","null","","fixation","","",""
"memory-trial","78","727584","0.0-18.0-1.17","7592","approach_avoid_sv1","""event"",""trial"",""time""
""focus"",""0"",""0""
""fullscreenenter"",""1"",""5203""
""blur"",""15"",""81640""
""focus"",""15"",""82039""
""fullscreenexit"",""15"",""82052""
""blur"",""16"",""85440""
""focus"",""16"",""266856""
""blur"",""16"",""267599""
""focus"",""16"",""413330""
""blur"",""34"",""442448""
""focus"",""34"",""451513""
""blur"",""39"",""483524""
""focus"",""39"",""631189""
""blur"",""42"",""662584""
""focus"",""42"",""673231""
","""event"",""trial"",""time""
""blur"",""15"",""81640""
""blur"",""16"",""85440""
""blur"",""16"",""267599""
""blur"",""34"",""442448""
""blur"",""39"",""483524""
""blur"",""42"",""662584""
","""event"",""trial"",""time""
""focus"",""0"",""0""
""focus"",""15"",""82039""
""focus"",""16"",""266856""
""focus"",""16"",""413330""
""focus"",""34"",""451513""
""focus"",""39"",""631189""
""focus"",""42"",""673231""
","""event"",""trial"",""time""
""fullscreenenter"",""1"",""5203""
","""event"",""trial"",""time""
""fullscreenexit"",""15"",""82052""
","","","","","","1427","images/bed5.png","","","memory_trial","4","definitely_new",""
"html-keyboard-response","79","728090","0.0-18.0-0.18","7592","approach_avoid_sv1","""event"",""trial"",""time""
""focus"",""0"",""0""
""fullscreenenter"",""1"",""5203""
""blur"",""15"",""81640""
""focus"",""15"",""82039""
""fullscreenexit"",""15"",""82052""
""blur"",""16"",""85440""
""focus"",""16"",""266856""
""blur"",""16"",""267599""
""focus"",""16"",""413330""
""blur"",""34"",""442448""
""focus"",""34"",""451513""
""blur"",""39"",""483524""
""focus"",""39"",""631189""
""blur"",""42"",""662584""
""focus"",""42"",""673231""
","""event"",""trial"",""time""
""blur"",""15"",""81640""
""blur"",""16"",""85440""
""blur"",""16"",""267599""
""blur"",""34"",""442448""
""blur"",""39"",""483524""
""blur"",""42"",""662584""
","""event"",""trial"",""time""
""focus"",""0"",""0""
""focus"",""15"",""82039""
""focus"",""16"",""266856""
""focus"",""16"",""413330""
""focus"",""34"",""451513""
""focus"",""39"",""631189""
""focus"",""42"",""673231""
","""event"",""trial"",""time""
""fullscreenenter"",""1"",""5203""
","""event"",""trial"",""time""
""fullscreenexit"",""15"",""82052""
","","","","","","null","<div style=""font-size:60px;"">+</div>","null","","fixation","","",""
"memory-trial","80","730959","0.0-18.0-1.18","7592","approach_avoid_sv1","""event"",""trial"",""time""
""focus"",""0"",""0""
""fullscreenenter"",""1"",""5203""
""blur"",""15"",""81640""
""focus"",""15"",""82039""
""fullscreenexit"",""15"",""82052""
""blur"",""16"",""85440""
""focus"",""16"",""266856""
""blur"",""16"",""267599""
""focus"",""16"",""413330""
""blur"",""34"",""442448""
""focus"",""34"",""451513""
""blur"",""39"",""483524""
""focus"",""39"",""631189""
""blur"",""42"",""662584""
""focus"",""42"",""673231""
","""event"",""trial"",""time""
""blur"",""15"",""81640""
""blur"",""16"",""85440""
""blur"",""16"",""267599""
""blur"",""34"",""442448""
""blur"",""39"",""483524""
""blur"",""42"",""662584""
","""event"",""trial"",""time""
""focus"",""0"",""0""
""focus"",""15"",""82039""
""focus"",""16"",""266856""
""focus"",""16"",""413330""
""focus"",""34"",""451513""
""focus"",""39"",""631189""
""focus"",""42"",""673231""
","""event"",""trial"",""time""
""fullscreenenter"",""1"",""5203""
","""event"",""trial"",""time""
""fullscreenexit"",""15"",""82052""
","","","","","","1865","images/goat5.png","","","memory_trial","4","definitely_new",""
"html-keyboard-response","81","731464","0.0-18.0-0.19","7592","approach_avoid_sv1","""event"",""trial"",""time""
""focus"",""0"",""0""
""fullscreenenter"",""1"",""5203""
""blur"",""15"",""81640""
""focus"",""15"",""82039""
""fullscreenexit"",""15"",""82052""
""blur"",""16"",""85440""
""focus"",""16"",""266856""
""blur"",""16"",""267599""
""focus"",""16"",""413330""
""blur"",""34"",""442448""
""focus"",""34"",""451513""
""blur"",""39"",""483524""
""focus"",""39"",""631189""
""blur"",""42"",""662584""
""focus"",""42"",""673231""
","""event"",""trial"",""time""
""blur"",""15"",""81640""
""blur"",""16"",""85440""
""blur"",""16"",""267599""
""blur"",""34"",""442448""
""blur"",""39"",""483524""
""blur"",""42"",""662584""
","""event"",""trial"",""time""
""focus"",""0"",""0""
""focus"",""15"",""82039""
""focus"",""16"",""266856""
""focus"",""16"",""413330""
""focus"",""34"",""451513""
""focus"",""39"",""631189""
""focus"",""42"",""673231""
","""event"",""trial"",""time""
""fullscreenenter"",""1"",""5203""
","""event"",""trial"",""time""
""fullscreenexit"",""15"",""82052""
","","","","","","null","<div style=""font-size:60px;"">+</div>","null","","fixation","","",""
"memory-trial","82","733114","0.0-18.0-1.19","7592","approach_avoid_sv1","""event"",""trial"",""time""
""focus"",""0"",""0""
""fullscreenenter"",""1"",""5203""
""blur"",""15"",""81640""
""focus"",""15"",""82039""
""fullscreenexit"",""15"",""82052""
""blur"",""16"",""85440""
""focus"",""16"",""266856""
""blur"",""16"",""267599""
""focus"",""16"",""413330""
""blur"",""34"",""442448""
""focus"",""34"",""451513""
""blur"",""39"",""483524""
""focus"",""39"",""631189""
""blur"",""42"",""662584""
""focus"",""42"",""673231""
","""event"",""trial"",""time""
""blur"",""15"",""81640""
""blur"",""16"",""85440""
""blur"",""16"",""267599""
""blur"",""34"",""442448""
""blur"",""39"",""483524""
""blur"",""42"",""662584""
","""event"",""trial"",""time""
""focus"",""0"",""0""
""focus"",""15"",""82039""
""focus"",""16"",""266856""
""focus"",""16"",""413330""
""focus"",""34"",""451513""
""focus"",""39"",""631189""
""focus"",""42"",""673231""
","""event"",""trial"",""time""
""fullscreenenter"",""1"",""5203""
","""event"",""trial"",""time""
""fullscreenexit"",""15"",""82052""
","","","","","","643","images/horse5.png","","","memory_trial","4","definitely_new",""
"html-keyboard-response","83","733619","0.0-18.0-0.20","7592","approach_avoid_sv1","""event"",""trial"",""time""
""focus"",""0"",""0""
""fullscreenenter"",""1"",""5203""
""blur"",""15"",""81640""
""focus"",""15"",""82039""
""fullscreenexit"",""15"",""82052""
""blur"",""16"",""85440""
""focus"",""16"",""266856""
""blur"",""16"",""267599""
""focus"",""16"",""413330""
""blur"",""34"",""442448""
""focus"",""34"",""451513""
""blur"",""39"",""483524""
""focus"",""39"",""631189""
""blur"",""42"",""662584""
""focus"",""42"",""673231""
","""event"",""trial"",""time""
""blur"",""15"",""81640""
""blur"",""16"",""85440""
""blur"",""16"",""267599""
""blur"",""34"",""442448""
""blur"",""39"",""483524""
""blur"",""42"",""662584""
","""event"",""trial"",""time""
""focus"",""0"",""0""
""focus"",""15"",""82039""
""focus"",""16"",""266856""
""focus"",""16"",""413330""
""focus"",""34"",""451513""
""focus"",""39"",""631189""
""focus"",""42"",""673231""
","""event"",""trial"",""time""
""fullscreenenter"",""1"",""5203""
","""event"",""trial"",""time""
""fullscreenexit"",""15"",""82052""
","","","","","","null","<div style=""font-size:60px;"">+</div>","null","","fixation","","",""
"memory-trial","84","735524","0.0-18.0-1.20","7592","approach_avoid_sv1","""event"",""trial"",""time""
""focus"",""0"",""0""
""fullscreenenter"",""1"",""5203""
""blur"",""15"",""81640""
""focus"",""15"",""82039""
""fullscreenexit"",""15"",""82052""
""blur"",""16"",""85440""
""focus"",""16"",""266856""
""blur"",""16"",""267599""
""focus"",""16"",""413330""
""blur"",""34"",""442448""
""focus"",""34"",""451513""
""blur"",""39"",""483524""
""focus"",""39"",""631189""
""blur"",""42"",""662584""
""focus"",""42"",""673231""
","""event"",""trial"",""time""
""blur"",""15"",""81640""
""blur"",""16"",""85440""
""blur"",""16"",""267599""
""blur"",""34"",""442448""
""blur"",""39"",""483524""
""blur"",""42"",""662584""
","""event"",""trial"",""time""
""focus"",""0"",""0""
""focus"",""15"",""82039""
""focus"",""16"",""266856""
""focus"",""16"",""413330""
""focus"",""34"",""451513""
""focus"",""39"",""631189""
""focus"",""42"",""673231""
","""event"",""trial"",""time""
""fullscreenenter"",""1"",""5203""
","""event"",""trial"",""time""
""fullscreenexit"",""15"",""82052""
","","","","","","897","images/cow4.png","","","memory_trial","1","definitely_old",""
"html-keyboard-response","85","736027","0.0-18.0-0.21","7592","approach_avoid_sv1","""event"",""trial"",""time""
""focus"",""0"",""0""
""fullscreenenter"",""1"",""5203""
""blur"",""15"",""81640""
""focus"",""15"",""82039""
""fullscreenexit"",""15"",""82052""
""blur"",""16"",""85440""
""focus"",""16"",""266856""
""blur"",""16"",""267599""
""focus"",""16"",""413330""
""blur"",""34"",""442448""
""focus"",""34"",""451513""
""blur"",""39"",""483524""
""focus"",""39"",""631189""
""blur"",""42"",""662584""
""focus"",""42"",""673231""
","""event"",""trial"",""time""
""blur"",""15"",""81640""
""blur"",""16"",""85440""
""blur"",""16"",""267599""
""blur"",""34"",""442448""
""blur"",""39"",""483524""
""blur"",""42"",""662584""
","""event"",""trial"",""time""
""focus"",""0"",""0""
""focus"",""15"",""82039""
""focus"",""16"",""266856""
""focus"",""16"",""413330""
""focus"",""34"",""451513""
""focus"",""39"",""631189""
""focus"",""42"",""673231""
","""event"",""trial"",""time""
""fullscreenenter"",""1"",""5203""
","""event"",""trial"",""time""
""fullscreenexit"",""15"",""82052""
","","","","","","null","<div style=""font-size:60px;"">+</div>","null","","fixation","","",""
"memory-trial","86","739262","0.0-18.0-1.21","7592","approach_avoid_sv1","""event"",""trial"",""time""
""focus"",""0"",""0""
""fullscreenenter"",""1"",""5203""
""blur"",""15"",""81640""
""focus"",""15"",""82039""
""fullscreenexit"",""15"",""82052""
""blur"",""16"",""85440""
""focus"",""16"",""266856""
""blur"",""16"",""267599""
""focus"",""16"",""413330""
""blur"",""34"",""442448""
""focus"",""34"",""451513""
""blur"",""39"",""483524""
""focus"",""39"",""631189""
""blur"",""42"",""662584""
""focus"",""42"",""673231""
","""event"",""trial"",""time""
""blur"",""15"",""81640""
""blur"",""16"",""85440""
""blur"",""16"",""267599""
""blur"",""34"",""442448""
""blur"",""39"",""483524""
""blur"",""42"",""662584""
","""event"",""trial"",""time""
""focus"",""0"",""0""
""focus"",""15"",""82039""
""focus"",""16"",""266856""
""focus"",""16"",""413330""
""focus"",""34"",""451513""
""focus"",""39"",""631189""
""focus"",""42"",""673231""
","""event"",""trial"",""time""
""fullscreenenter"",""1"",""5203""
","""event"",""trial"",""time""
""fullscreenexit"",""15"",""82052""
","","","","","","2228","images/cactus8.png","","","memory_trial","3","maybe_new",""
"html-keyboard-response","87","739766","0.0-18.0-0.22","7592","approach_avoid_sv1","""event"",""trial"",""time""
""focus"",""0"",""0""
""fullscreenenter"",""1"",""5203""
""blur"",""15"",""81640""
""focus"",""15"",""82039""
""fullscreenexit"",""15"",""82052""
""blur"",""16"",""85440""
""focus"",""16"",""266856""
""blur"",""16"",""267599""
""focus"",""16"",""413330""
""blur"",""34"",""442448""
""focus"",""34"",""451513""
""blur"",""39"",""483524""
""focus"",""39"",""631189""
""blur"",""42"",""662584""
""focus"",""42"",""673231""
","""event"",""trial"",""time""
""blur"",""15"",""81640""
""blur"",""16"",""85440""
""blur"",""16"",""267599""
""blur"",""34"",""442448""
""blur"",""39"",""483524""
""blur"",""42"",""662584""
","""event"",""trial"",""time""
""focus"",""0"",""0""
""focus"",""15"",""82039""
""focus"",""16"",""266856""
""focus"",""16"",""413330""
""focus"",""34"",""451513""
""focus"",""39"",""631189""
""focus"",""42"",""673231""
","""event"",""trial"",""time""
""fullscreenenter"",""1"",""5203""
","""event"",""trial"",""time""
""fullscreenexit"",""15"",""82052""
","","","","","","null","<div style=""font-size:60px;"">+</div>","null","","fixation","","",""
"memory-trial","88","742541","0.0-18.0-1.22","7592","approach_avoid_sv1","""event"",""trial"",""time""
""focus"",""0"",""0""
""fullscreenenter"",""1"",""5203""
""blur"",""15"",""81640""
""focus"",""15"",""82039""
""fullscreenexit"",""15"",""82052""
""blur"",""16"",""85440""
""focus"",""16"",""266856""
""blur"",""16"",""267599""
""focus"",""16"",""413330""
""blur"",""34"",""442448""
""focus"",""34"",""451513""
""blur"",""39"",""483524""
""focus"",""39"",""631189""
""blur"",""42"",""662584""
""focus"",""42"",""673231""
","""event"",""trial"",""time""
""blur"",""15"",""81640""
""blur"",""16"",""85440""
""blur"",""16"",""267599""
""blur"",""34"",""442448""
""blur"",""39"",""483524""
""blur"",""42"",""662584""
","""event"",""trial"",""time""
""focus"",""0"",""0""
""focus"",""15"",""82039""
""focus"",""16"",""266856""
""focus"",""16"",""413330""
""focus"",""34"",""451513""
""focus"",""39"",""631189""
""focus"",""42"",""673231""
","""event"",""trial"",""time""
""fullscreenenter"",""1"",""5203""
","""event"",""trial"",""time""
""fullscreenexit"",""15"",""82052""
","","","","","","1771","images/goat4.png","","","memory_trial","4","definitely_new",""
"html-keyboard-response","89","743044","0.0-18.0-0.23","7592","approach_avoid_sv1","""event"",""trial"",""time""
""focus"",""0"",""0""
""fullscreenenter"",""1"",""5203""
""blur"",""15"",""81640""
""focus"",""15"",""82039""
""fullscreenexit"",""15"",""82052""
""blur"",""16"",""85440""
""focus"",""16"",""266856""
""blur"",""16"",""267599""
""focus"",""16"",""413330""
""blur"",""34"",""442448""
""focus"",""34"",""451513""
""blur"",""39"",""483524""
""focus"",""39"",""631189""
""blur"",""42"",""662584""
""focus"",""42"",""673231""
","""event"",""trial"",""time""
""blur"",""15"",""81640""
""blur"",""16"",""85440""
""blur"",""16"",""267599""
""blur"",""34"",""442448""
""blur"",""39"",""483524""
""blur"",""42"",""662584""
","""event"",""trial"",""time""
""focus"",""0"",""0""
""focus"",""15"",""82039""
""focus"",""16"",""266856""
""focus"",""16"",""413330""
""focus"",""34"",""451513""
""focus"",""39"",""631189""
""focus"",""42"",""673231""
","""event"",""trial"",""time""
""fullscreenenter"",""1"",""5203""
","""event"",""trial"",""time""
""fullscreenexit"",""15"",""82052""
","","","","","","null","<div style=""font-size:60px;"">+</div>","null","","fixation","","",""
"memory-trial","90","745157","0.0-18.0-1.23","7592","approach_avoid_sv1","""event"",""trial"",""time""
""focus"",""0"",""0""
""fullscreenenter"",""1"",""5203""
""blur"",""15"",""81640""
""focus"",""15"",""82039""
""fullscreenexit"",""15"",""82052""
""blur"",""16"",""85440""
""focus"",""16"",""266856""
""blur"",""16"",""267599""
""focus"",""16"",""413330""
""blur"",""34"",""442448""
""focus"",""34"",""451513""
""blur"",""39"",""483524""
""focus"",""39"",""631189""
""blur"",""42"",""662584""
""focus"",""42"",""673231""
","""event"",""trial"",""time""
""blur"",""15"",""81640""
""blur"",""16"",""85440""
""blur"",""16"",""267599""
""blur"",""34"",""442448""
""blur"",""39"",""483524""
""blur"",""42"",""662584""
","""event"",""trial"",""time""
""focus"",""0"",""0""
""focus"",""15"",""82039""
""focus"",""16"",""266856""
""focus"",""16"",""413330""
""focus"",""34"",""451513""
""focus"",""39"",""631189""
""focus"",""42"",""673231""
","""event"",""trial"",""time""
""fullscreenenter"",""1"",""5203""
","""event"",""trial"",""time""
""fullscreenexit"",""15"",""82052""
","","","","","","1107","images/rodent6.png","","","memory_trial","4","definitely_new",""
"html-keyboard-response","91","745660","0.0-18.0-0.24","7592","approach_avoid_sv1","""event"",""trial"",""time""
""focus"",""0"",""0""
""fullscreenenter"",""1"",""5203""
""blur"",""15"",""81640""
""focus"",""15"",""82039""
""fullscreenexit"",""15"",""82052""
""blur"",""16"",""85440""
""focus"",""16"",""266856""
""blur"",""16"",""267599""
""focus"",""16"",""413330""
""blur"",""34"",""442448""
""focus"",""34"",""451513""
""blur"",""39"",""483524""
""focus"",""39"",""631189""
""blur"",""42"",""662584""
""focus"",""42"",""673231""
","""event"",""trial"",""time""
""blur"",""15"",""81640""
""blur"",""16"",""85440""
""blur"",""16"",""267599""
""blur"",""34"",""442448""
""blur"",""39"",""483524""
""blur"",""42"",""662584""
","""event"",""trial"",""time""
""focus"",""0"",""0""
""focus"",""15"",""82039""
""focus"",""16"",""266856""
""focus"",""16"",""413330""
""focus"",""34"",""451513""
""focus"",""39"",""631189""
""focus"",""42"",""673231""
","""event"",""trial"",""time""
""fullscreenenter"",""1"",""5203""
","""event"",""trial"",""time""
""fullscreenexit"",""15"",""82052""
","","","","","","null","<div style=""font-size:60px;"">+</div>","null","","fixation","","",""
"memory-trial","92","747961","0.0-18.0-1.24","7592","approach_avoid_sv1","""event"",""trial"",""time""
""focus"",""0"",""0""
""fullscreenenter"",""1"",""5203""
""blur"",""15"",""81640""
""focus"",""15"",""82039""
""fullscreenexit"",""15"",""82052""
""blur"",""16"",""85440""
""focus"",""16"",""266856""
""blur"",""16"",""267599""
""focus"",""16"",""413330""
""blur"",""34"",""442448""
""focus"",""34"",""451513""
""blur"",""39"",""483524""
""focus"",""39"",""631189""
""blur"",""42"",""662584""
""focus"",""42"",""673231""
","""event"",""trial"",""time""
""blur"",""15"",""81640""
""blur"",""16"",""85440""
""blur"",""16"",""267599""
""blur"",""34"",""442448""
""blur"",""39"",""483524""
""blur"",""42"",""662584""
","""event"",""trial"",""time""
""focus"",""0"",""0""
""focus"",""15"",""82039""
""focus"",""16"",""266856""
""focus"",""16"",""413330""
""focus"",""34"",""451513""
""focus"",""39"",""631189""
""focus"",""42"",""673231""
","""event"",""trial"",""time""
""fullscreenenter"",""1"",""5203""
","""event"",""trial"",""time""
""fullscreenexit"",""15"",""82052""
","","","","","","1294","images/banana3.png","","","memory_trial","1","definitely_old",""
"html-keyboard-response","93","748461","0.0-18.0-0.25","7592","approach_avoid_sv1","""event"",""trial"",""time""
""focus"",""0"",""0""
""fullscreenenter"",""1"",""5203""
""blur"",""15"",""81640""
""focus"",""15"",""82039""
""fullscreenexit"",""15"",""82052""
""blur"",""16"",""85440""
""focus"",""16"",""266856""
""blur"",""16"",""267599""
""focus"",""16"",""413330""
""blur"",""34"",""442448""
""focus"",""34"",""451513""
""blur"",""39"",""483524""
""focus"",""39"",""631189""
""blur"",""42"",""662584""
""focus"",""42"",""673231""
","""event"",""trial"",""time""
""blur"",""15"",""81640""
""blur"",""16"",""85440""
""blur"",""16"",""267599""
""blur"",""34"",""442448""
""blur"",""39"",""483524""
""blur"",""42"",""662584""
","""event"",""trial"",""time""
""focus"",""0"",""0""
""focus"",""15"",""82039""
""focus"",""16"",""266856""
""focus"",""16"",""413330""
""focus"",""34"",""451513""
""focus"",""39"",""631189""
""focus"",""42"",""673231""
","""event"",""trial"",""time""
""fullscreenenter"",""1"",""5203""
","""event"",""trial"",""time""
""fullscreenexit"",""15"",""82052""
","","","","","","null","<div style=""font-size:60px;"">+</div>","null","","fixation","","",""
"memory-trial","94","752641","0.0-18.0-1.25","7592","approach_avoid_sv1","""event"",""trial"",""time""
""focus"",""0"",""0""
""fullscreenenter"",""1"",""5203""
""blur"",""15"",""81640""
""focus"",""15"",""82039""
""fullscreenexit"",""15"",""82052""
""blur"",""16"",""85440""
""focus"",""16"",""266856""
""blur"",""16"",""267599""
""focus"",""16"",""413330""
""blur"",""34"",""442448""
""focus"",""34"",""451513""
""blur"",""39"",""483524""
""focus"",""39"",""631189""
""blur"",""42"",""662584""
""focus"",""42"",""673231""
","""event"",""trial"",""time""
""blur"",""15"",""81640""
""blur"",""16"",""85440""
""blur"",""16"",""267599""
""blur"",""34"",""442448""
""blur"",""39"",""483524""
""blur"",""42"",""662584""
","""event"",""trial"",""time""
""focus"",""0"",""0""
""focus"",""15"",""82039""
""focus"",""16"",""266856""
""focus"",""16"",""413330""
""focus"",""34"",""451513""
""focus"",""39"",""631189""
""focus"",""42"",""673231""
","""event"",""trial"",""time""
""fullscreenenter"",""1"",""5203""
","""event"",""trial"",""time""
""fullscreenexit"",""15"",""82052""
","","","","","","3174","images/train5.png","","","memory_trial","4","definitely_new",""
"html-keyboard-response","95","753147","0.0-18.0-0.26","7592","approach_avoid_sv1","""event"",""trial"",""time""
""focus"",""0"",""0""
""fullscreenenter"",""1"",""5203""
""blur"",""15"",""81640""
""focus"",""15"",""82039""
""fullscreenexit"",""15"",""82052""
""blur"",""16"",""85440""
""focus"",""16"",""266856""
""blur"",""16"",""267599""
""focus"",""16"",""413330""
""blur"",""34"",""442448""
""focus"",""34"",""451513""
""blur"",""39"",""483524""
""focus"",""39"",""631189""
""blur"",""42"",""662584""
""focus"",""42"",""673231""
","""event"",""trial"",""time""
""blur"",""15"",""81640""
""blur"",""16"",""85440""
""blur"",""16"",""267599""
""blur"",""34"",""442448""
""blur"",""39"",""483524""
""blur"",""42"",""662584""
","""event"",""trial"",""time""
""focus"",""0"",""0""
""focus"",""15"",""82039""
""focus"",""16"",""266856""
""focus"",""16"",""413330""
""focus"",""34"",""451513""
""focus"",""39"",""631189""
""focus"",""42"",""673231""
","""event"",""trial"",""time""
""fullscreenenter"",""1"",""5203""
","""event"",""trial"",""time""
""fullscreenexit"",""15"",""82052""
","","","","","","null","<div style=""font-size:60px;"">+</div>","null","","fixation","","",""
"memory-trial","96","754941","0.0-18.0-1.26","7592","approach_avoid_sv1","""event"",""trial"",""time""
""focus"",""0"",""0""
""fullscreenenter"",""1"",""5203""
""blur"",""15"",""81640""
""focus"",""15"",""82039""
""fullscreenexit"",""15"",""82052""
""blur"",""16"",""85440""
""focus"",""16"",""266856""
""blur"",""16"",""267599""
""focus"",""16"",""413330""
""blur"",""34"",""442448""
""focus"",""34"",""451513""
""blur"",""39"",""483524""
""focus"",""39"",""631189""
""blur"",""42"",""662584""
""focus"",""42"",""673231""
","""event"",""trial"",""time""
""blur"",""15"",""81640""
""blur"",""16"",""85440""
""blur"",""16"",""267599""
""blur"",""34"",""442448""
""blur"",""39"",""483524""
""blur"",""42"",""662584""
","""event"",""trial"",""time""
""focus"",""0"",""0""
""focus"",""15"",""82039""
""focus"",""16"",""266856""
""focus"",""16"",""413330""
""focus"",""34"",""451513""
""focus"",""39"",""631189""
""focus"",""42"",""673231""
","""event"",""trial"",""time""
""fullscreenenter"",""1"",""5203""
","""event"",""trial"",""time""
""fullscreenexit"",""15"",""82052""
","","","","","","789","images/cat1.png","","","memory_trial","4","definitely_new",""
"html-keyboard-response","97","755444","0.0-18.0-0.27","7592","approach_avoid_sv1","""event"",""trial"",""time""
""focus"",""0"",""0""
""fullscreenenter"",""1"",""5203""
""blur"",""15"",""81640""
""focus"",""15"",""82039""
""fullscreenexit"",""15"",""82052""
""blur"",""16"",""85440""
""focus"",""16"",""266856""
