"trial_type","trial_index","time_elapsed","internal_node_id","subject_id","task_version","interactions","blur_events","focus_events","fullscreenenter_events","fullscreenexit_events","success","timeout","failed_images","failed_audio","failed_video","rt","stimulus","response","button_pressed","task_part","key_press","answer","correct"
"pavlovia","0","8","0.0-0.0","5930","approach_avoid_sv1","""event"",""trial"",""time""
""fullscreenenter"",""1"",""2789""
","
","
","""event"",""trial"",""time""
""fullscreenenter"",""1"",""2789""
","
","","","","","","","","","","","","",""
"fullscreen","1","3701","0.0-1.0","5930","approach_avoid_sv1","""event"",""trial"",""time""
""fullscreenenter"",""1"",""2789""
","
","
","""event"",""trial"",""time""
""fullscreenenter"",""1"",""2789""
","
","true","","","","","","","","","","","",""
"preload","2","5409","0.0-2.0","5930","approach_avoid_sv1","""event"",""trial"",""time""
""fullscreenenter"",""1"",""2789""
","
","
","""event"",""trial"",""time""
""fullscreenenter"",""1"",""2789""
","
","true","false","[]","[]","[]","","","","","","","",""
"preload","3","6512","0.0-3.0","5930","approach_avoid_sv1","""event"",""trial"",""time""
""fullscreenenter"",""1"",""2789""
","
","
","""event"",""trial"",""time""
""fullscreenenter"",""1"",""2789""
","
","true","false","[]","[]","[]","","","","","","","",""
"preload","4","6875","0.0-4.0","5930","approach_avoid_sv1","""event"",""trial"",""time""
""fullscreenenter"",""1"",""2789""
","
","
","""event"",""trial"",""time""
""fullscreenenter"",""1"",""2789""
","
","true","false","[]","[]","[]","","","","","","","",""
"audio-keyboard-response","5","9599","0.0-5.0","5930","approach_avoid_sv1","""event"",""trial"",""time""
""fullscreenenter"",""1"",""2789""
","
","
","""event"",""trial"",""time""
""fullscreenenter"",""1"",""2789""
","
","","","","","","2589.3333333333335","audio/beep_loop.wav","audiovolumedown","","","","",""
"audio-button-response","6","12492","0.0-6.0","5930","approach_avoid_sv1","""event"",""trial"",""time""
""fullscreenenter"",""1"",""2789""
","
","
","""event"",""trial"",""time""
""fullscreenenter"",""1"",""2789""
","
","","","","","","2891","audio/turtle.wav","3","","","","",""
"audio-button-response","7","15537","0.0-7.0","5930","approach_avoid_sv1","""event"",""trial"",""time""
""fullscreenenter"",""1"",""2789""
","
","
","""event"",""trial"",""time""
""fullscreenenter"",""1"",""2789""
","
","","","","","","2029","audio/shark.wav","2","","","","",""
"preload","8","18250","0.0-8.0","5930","approach_avoid_sv1","""event"",""trial"",""time""
""fullscreenenter"",""1"",""2789""
","
","
","""event"",""trial"",""time""
""fullscreenenter"",""1"",""2789""
","
","true","false","[]","[]","[]","","","","","","","",""
"learning-instructions","9","24895","0.0-9.0-0.0","5930","approach_avoid_sv1","""event"",""trial"",""time""
""fullscreenenter"",""1"",""2789""
","
","
","""event"",""trial"",""time""
""fullscreenenter"",""1"",""2789""
","
","","","","","","2162.39999999851","<p> Welcome back! </p><p> Last week, you had to make choices about lots of different items.  </p>","","0","instructions","","",""
"learning-instructions","10","32144","0.0-9.0-0.1","5930","approach_avoid_sv1","""event"",""trial"",""time""
""fullscreenenter"",""1"",""2789""
","
","
","""event"",""trial"",""time""
""fullscreenenter"",""1"",""2789""
","
","","","","","","3122","<p> Today, we are going to ask you to try to remember all the items. </p>","","0","instructions","","",""
"learning-instructions","11","43525","0.0-9.0-0.2","5930","approach_avoid_sv1","""event"",""trial"",""time""
""fullscreenenter"",""1"",""2789""
","
","
","""event"",""trial"",""time""
""fullscreenenter"",""1"",""2789""
","
","","","","","","1242.7999999970198","<p> On every trial, you will see an image. </p><p> The image may be an OLD image you saw during the games last week or it may be a NEW image that was not presented. </p>","","0","instructions","","",""
"learning-instructions","12","53215","0.0-9.0-0.3","5930","approach_avoid_sv1","""event"",""trial"",""time""
""fullscreenenter"",""1"",""2789""
","
","
","""event"",""trial"",""time""
""fullscreenenter"",""1"",""2789""
","
","","","","","","1191.5","<p> You need to select whether the image is:  </p><p>  'Definitely old', 'Maybe old', 'Maybe new', or 'Definitely new.'  </p><div class=""mem-choice-instructions-grid""><div class=""choice-option"" id=""choice-option-1"" ><img src=""images/definitely_old_1.png"" id=""choice-option-img-1"" class=""choice-option-img"" stage=""1""></div><div class=""choice-option"" id=""choice-option-2"" ><img src=""images/maybe_old_1.png"" id=""choice-option-img-2"" class=""choice-option-img"" stage=""1""></div><div class=""choice-option"" id=""choice-option-3"" ><img src=""images/maybe_new_1.png"" id=""choice-option-img-3"" class=""choice-option-img"" stage=""1""></div><div class=""choice-option"" id=""choice-option-4"" > <img src=""images/definitely_new_1.png"" id=""choice-option-img-4"" class=""choice-option-img"" stage=""1""></div></div>","","0","instructions","","",""
"learning-instructions","13","64848","0.0-9.0-0.4","5930","approach_avoid_sv1","""event"",""trial"",""time""
""fullscreenenter"",""1"",""2789""
","
","
","""event"",""trial"",""time""
""fullscreenenter"",""1"",""2789""
","
","","","","","","5114.5999999940395","<p> You should use the 1, 2, 3, and 4 keys to make your responses.  </p><div class=""mem-choice-instructions-grid""><div class=""choice-option"" id=""choice-option-1"" ><img src=""images/definitely_old.png"" id=""choice-option-img-1"" class=""choice-option-img"" stage=""1""></div><div class=""choice-option"" id=""choice-option-2"" ><img src=""images/maybe_old.png"" id=""choice-option-img-2"" class=""choice-option-img"" stage=""1""></div><div class=""choice-option"" id=""choice-option-3"" ><img src=""images/maybe_new.png"" id=""choice-option-img-3"" class=""choice-option-img"" stage=""1""></div><div class=""choice-option"" id=""choice-option-4"" > <img src=""images/definitely_new.png"" id=""choice-option-img-4"" class=""choice-option-img"" stage=""1""></div></div>","","0","instructions","","",""
"learning-instructions","14","72421","0.0-9.0-0.5","5930","approach_avoid_sv1","""event"",""trial"",""time""
""fullscreenenter"",""1"",""2789""
","
","
","""event"",""trial"",""time""
""fullscreenenter"",""1"",""2789""
","
","","","","","","1228.2999999970198","<p> You will have 10 seconds to make each response.  </p><p>  Make sure to respond before time runs out! </p>","","0","instructions","","",""
"learning-instructions","15","80525","0.0-9.0-0.6","5930","approach_avoid_sv1","""event"",""trial"",""time""
""fullscreenenter"",""1"",""2789""
","
","
","""event"",""trial"",""time""
""fullscreenenter"",""1"",""2789""
","
","","","","","","1022.7999999970198","<p> Today, you will see each image ONCE only.  </p><p>  That means none of the images will repeat. </p>","","0","instructions","","",""
"learning-instructions","16","93683","0.0-9.0-0.7","5930","approach_avoid_sv1","""event"",""trial"",""time""
""fullscreenenter"",""1"",""2789""
","
","
","""event"",""trial"",""time""
""fullscreenenter"",""1"",""2789""
","
","","","","","","480.3999999985099","<p> Before you play the real game, it is time to practice. </p><p>  Just like in the real game, some of the images in the practice will be ones you have seen before. </p><p>  Others will be entirely new. </p>","","0","instructions","","",""
"html-button-response","17","96117","0.0-10.0","5930","approach_avoid_sv1","""event"",""trial"",""time""
""fullscreenenter"",""1"",""2789""
","
","
","""event"",""trial"",""time""
""fullscreenenter"",""1"",""2789""
","
","","","","","","2314","<p> Ready to practice? </p><p> Remember, use the 1, 2, 3, and 4 keys to make your responses. </p>","0","","instructions","","",""
"html-keyboard-response","18","96750","0.0-11.0-0.0","5930","approach_avoid_sv1","""event"",""trial"",""time""
""fullscreenenter"",""1"",""2789""
","
","
","""event"",""trial"",""time""
""fullscreenenter"",""1"",""2789""
","
","","","","","","null","<div style=""font-size:60px;"">+</div>","null","","fixation","","",""
"memory-trial","19","101650","0.0-11.0-1.0","5930","approach_avoid_sv1","""event"",""trial"",""time""
""fullscreenenter"",""1"",""2789""
","
","
","""event"",""trial"",""time""
""fullscreenenter"",""1"",""2789""
","
","","","","","","3872.60000000149","images/ball1.png","","","practice","1","definitely_old",""
"html-keyboard-response","20","102169","0.0-11.0-0.1","5930","approach_avoid_sv1","""event"",""trial"",""time""
""fullscreenenter"",""1"",""2789""
","
","
","""event"",""trial"",""time""
""fullscreenenter"",""1"",""2789""
","
","","","","","","null","<div style=""font-size:60px;"">+</div>","null","","fixation","","",""
"memory-trial","21","104619","0.0-11.0-1.1","5930","approach_avoid_sv1","""event"",""trial"",""time""
""fullscreenenter"",""1"",""2789""
","
","
","""event"",""trial"",""time""
""fullscreenenter"",""1"",""2789""
","
","","","","","","1425.4000000059605","images/racket2.png","","","practice","1","definitely_old",""
"html-keyboard-response","22","105129","0.0-11.0-0.2","5930","approach_avoid_sv1","""event"",""trial"",""time""
""fullscreenenter"",""1"",""2789""
","
","
","""event"",""trial"",""time""
""fullscreenenter"",""1"",""2789""
","
","","","","","","null","<div style=""font-size:60px;"">+</div>","null","","fixation","","",""
"memory-trial","23","107080","0.0-11.0-1.2","5930","approach_avoid_sv1","""event"",""trial"",""time""
""fullscreenenter"",""1"",""2789""
","
","
","""event"",""trial"",""time""
""fullscreenenter"",""1"",""2789""
","
","","","","","","939.8000000044703","images/ball5.png","","","practice","1","definitely_old",""
"html-keyboard-response","24","107599","0.0-11.0-0.3","5930","approach_avoid_sv1","""event"",""trial"",""time""
""fullscreenenter"",""1"",""2789""
","
","
","""event"",""trial"",""time""
""fullscreenenter"",""1"",""2789""
","
","","","","","","null","<div style=""font-size:60px;"">+</div>","null","","fixation","","",""
"memory-trial","25","109229","0.0-11.0-1.3","5930","approach_avoid_sv1","""event"",""trial"",""time""
""fullscreenenter"",""1"",""2789""
","
","
","""event"",""trial"",""time""
""fullscreenenter"",""1"",""2789""
","
","","","","","","621.6999999955297","images/ball2.png","","","practice","1","definitely_old",""
"html-keyboard-response","26","109749","0.0-11.0-0.4","5930","approach_avoid_sv1","""event"",""trial"",""time""
""fullscreenenter"",""1"",""2789""
","
","
","""event"",""trial"",""time""
""fullscreenenter"",""1"",""2789""
","
","","","","","","null","<div style=""font-size:60px;"">+</div>","null","","fixation","","",""
"memory-trial","27","112349","0.0-11.0-1.4","5930","approach_avoid_sv1","""event"",""trial"",""time""
""fullscreenenter"",""1"",""2789""
","
","
","""event"",""trial"",""time""
""fullscreenenter"",""1"",""2789""
","
","","","","","","1586.3999999985099","images/racket1.png","","","practice","1","definitely_old",""
"html-keyboard-response","28","112869","0.0-11.0-0.5","5930","approach_avoid_sv1","""event"",""trial"",""time""
""fullscreenenter"",""1"",""2789""
","
","
","""event"",""trial"",""time""
""fullscreenenter"",""1"",""2789""
","
","","","","","","null","<div style=""font-size:60px;"">+</div>","null","","fixation","","",""
"memory-trial","29","115179","0.0-11.0-1.5","5930","approach_avoid_sv1","""event"",""trial"",""time""
""fullscreenenter"",""1"",""2789""
","
","
","""event"",""trial"",""time""
""fullscreenenter"",""1"",""2789""
","
","","","","","","1287","images/racket3.png","","","practice","1","definitely_old",""
"html-keyboard-response","30","115689","0.0-11.0-0.6","5930","approach_avoid_sv1","""event"",""trial"",""time""
""fullscreenenter"",""1"",""2789""
","
","
","""event"",""trial"",""time""
""fullscreenenter"",""1"",""2789""
","
","","","","","","null","<div style=""font-size:60px;"">+</div>","null","","fixation","","",""
"memory-trial","31","120091","0.0-11.0-1.6","5930","approach_avoid_sv1","""event"",""trial"",""time""
""fullscreenenter"",""1"",""2789""
","
","
","""event"",""trial"",""time""
""fullscreenenter"",""1"",""2789""
","
","","","","","","3385.0999999940395","images/racket5.png","","","practice","4","definitely_new",""
"html-keyboard-response","32","120601","0.0-11.0-0.7","5930","approach_avoid_sv1","""event"",""trial"",""time""
""fullscreenenter"",""1"",""2789""
","
","
","""event"",""trial"",""time""
""fullscreenenter"",""1"",""2789""
","
","","","","","","null","<div style=""font-size:60px;"">+</div>","null","","fixation","","",""
"memory-trial","33","122681","0.0-11.0-1.7","5930","approach_avoid_sv1","""event"",""trial"",""time""
""fullscreenenter"",""1"",""2789""
","
","
","""event"",""trial"",""time""
""fullscreenenter"",""1"",""2789""
","
","","","","","","1069.6000000014901","images/ball3.png","","","practice","1","definitely_old",""
"learning-instructions","34","131639","0.0-12.0-0.0","5930","approach_avoid_sv1","""event"",""trial"",""time""
""fullscreenenter"",""1"",""2789""
","
","
","""event"",""trial"",""time""
""fullscreenenter"",""1"",""2789""
","
","","","","","","1654.6000000014901","<p> Great! You have completed the practice. </p><p> Before you start, we're going to ask you a few questions about how the game works.  </p>","","0","instructions","","",""
"preload","35","133084","0.0-13.0","5930","approach_avoid_sv1","""event"",""trial"",""time""
""fullscreenenter"",""1"",""2789""
","
","
","""event"",""trial"",""time""
""fullscreenenter"",""1"",""2789""
","
","true","false","[]","[]","[]","","","","","","","",""
"comp-q","36","139888","0.0-14.0-0.0","5930","approach_avoid_sv1","""event"",""trial"",""time""
""fullscreenenter"",""1"",""2789""
","
","
","""event"",""trial"",""time""
""fullscreenenter"",""1"",""2789""
","
","","","","","","973.5","<p> <b> True or False? </b> </p><p> In this game, you will only see each image once. </p>","","0","comp_question","","","true"
"comp-q","37","147784","0.0-14.0-1.0","5930","approach_avoid_sv1","""event"",""trial"",""time""
""fullscreenenter"",""1"",""2789""
","
","
","""event"",""trial"",""time""
""fullscreenenter"",""1"",""2789""
","
","","","","","","1559.8000000044703","<p> <b> That's right! </b> You will see many different images <i> one time each </i> in this game. </p>","","0","comp_answer","","",""
"comp-q","38","154962","0.0-15.0-0.0","5930","approach_avoid_sv1","""event"",""trial"",""time""
""fullscreenenter"",""1"",""2789""
","
","
","""event"",""trial"",""time""
""fullscreenenter"",""1"",""2789""
","
","","","","","","2158.4000000059605","<p> <b> True or False? </b> </p><p> You should use the mouse and click to make your response. </p>","","0","comp_question","","","false"
"comp-q","39","162662","0.0-15.0-1.0","5930","approach_avoid_sv1","""event"",""trial"",""time""
""fullscreenenter"",""1"",""2789""
","
","
","""event"",""trial"",""time""
""fullscreenenter"",""1"",""2789""
","
","","","","","","1158.2999999970198","<p><b> Incorrect. </b> You should use the '1', '2', '3', and '4' keys to make your response. </p>","","0","comp_answer","","",""
"comp-q","40","168278","0.0-15.1-0.1","5930","approach_avoid_sv1","""event"",""trial"",""time""
""fullscreenenter"",""1"",""2789""
","
","
","""event"",""trial"",""time""
""fullscreenenter"",""1"",""2789""
","
","","","","","","614","<p> <b> True or False? </b> </p><p> You should use the mouse and click to make your response. </p>","","1","comp_question","","","true"
"comp-q","41","176444","0.0-15.1-1.1","5930","approach_avoid_sv1","""event"",""trial"",""time""
""fullscreenenter"",""1"",""2789""
","
","
","""event"",""trial"",""time""
""fullscreenenter"",""1"",""2789""
","
","","","","","","1659.9000000059605","<p><b> That's right! </b> You should use the '1', '2', '3', and '4' keys to make your response. </p>","","0","comp_answer","","",""
"comp-q","42","182605","0.0-16.0-0.0","5930","approach_avoid_sv1","""event"",""trial"",""time""
""fullscreenenter"",""1"",""2789""
","
","
","""event"",""trial"",""time""
""fullscreenenter"",""1"",""2789""
","
","","","","","","480.3999999985099","<p> <b> True or False? </b> </p><p> You will have as much time as you want to make each choice. </p>","","1","comp_question","","","true"
"comp-q","43","190260","0.0-16.0-1.0","5930","approach_avoid_sv1","""event"",""trial"",""time""
""fullscreenenter"",""1"",""2789""
","
","
","""event"",""trial"",""time""
""fullscreenenter"",""1"",""2789""
","
","","","","","","2955.7999999970198","<p> <b> That's right! </b> You will only have 10 seconds to make each choice. </p>","","0","comp_answer","","",""
"learning-instructions","44","199649","0.0-17.0","5930","approach_avoid_sv1","""event"",""trial"",""time""
""fullscreenenter"",""1"",""2789""
","
","
","""event"",""trial"",""time""
""fullscreenenter"",""1"",""2789""
","
","","","","","","714.5","<p> Great! You are now ready to begin the game. </p><p> Remember, use the 1, 2, 3, and 4 keys to make your responses. </p>","","0","instructions","","",""
"html-keyboard-response","45","200281","0.0-18.0-0.0","5930","approach_avoid_sv1","""event"",""trial"",""time""
""fullscreenenter"",""1"",""2789""
","
","
","""event"",""trial"",""time""
""fullscreenenter"",""1"",""2789""
","
","","","","","","null","<div style=""font-size:60px;"">+</div>","null","","fixation","","",""
"memory-trial","46","203502","0.0-18.0-1.0","5930","approach_avoid_sv1","""event"",""trial"",""time""
""fullscreenenter"",""1"",""2789""
","
","
","""event"",""trial"",""time""
""fullscreenenter"",""1"",""2789""
","
","","","","","","2193.8000000044703","images/horse5.png","","","memory_trial","4","definitely_new",""
"html-keyboard-response","47","204011","0.0-18.0-0.1","5930","approach_avoid_sv1","""event"",""trial"",""time""
""fullscreenenter"",""1"",""2789""
","
","
","""event"",""trial"",""time""
""fullscreenenter"",""1"",""2789""
","
","","","","","","null","<div style=""font-size:60px;"">+</div>","null","","fixation","","",""
"memory-trial","48","206552","0.0-18.0-1.1","5930","approach_avoid_sv1","""event"",""trial"",""time""
""fullscreenenter"",""1"",""2789""
","
","
","""event"",""trial"",""time""
""fullscreenenter"",""1"",""2789""
","
","","","","","","1527","images/bush3.png","","","memory_trial","4","definitely_new",""
"html-keyboard-response","49","207061","0.0-18.0-0.2","5930","approach_avoid_sv1","""event"",""trial"",""time""
""fullscreenenter"",""1"",""2789""
","
","
","""event"",""trial"",""time""
""fullscreenenter"",""1"",""2789""
","
","","","","","","null","<div style=""font-size:60px;"">+</div>","null","","fixation","","",""
"memory-trial","50","209131","0.0-18.0-1.2","5930","approach_avoid_sv1","""event"",""trial"",""time""
""fullscreenenter"",""1"",""2789""
","
","
","""event"",""trial"",""time""
""fullscreenenter"",""1"",""2789""
","
","","","","","","1051","images/straw6.png","","","memory_trial","4","definitely_new",""
"html-keyboard-response","51","209641","0.0-18.0-0.3","5930","approach_avoid_sv1","""event"",""trial"",""time""
""fullscreenenter"",""1"",""2789""
","
","
","""event"",""trial"",""time""
""fullscreenenter"",""1"",""2789""
","
","","","","","","null","<div style=""font-size:60px;"">+</div>","null","","fixation","","",""
"memory-trial","52","211351","0.0-18.0-1.3","5930","approach_avoid_sv1","""event"",""trial"",""time""
""fullscreenenter"",""1"",""2789""
","
","
","""event"",""trial"",""time""
""fullscreenenter"",""1"",""2789""
","
","","","","","","700.7000000029802","images/cactus5.png","","","memory_trial","1","definitely_old",""
"html-keyboard-response","53","211871","0.0-18.0-0.4","5930","approach_avoid_sv1","""event"",""trial"",""time""
""fullscreenenter"",""1"",""2789""
","
","
","""event"",""trial"",""time""
""fullscreenenter"",""1"",""2789""
","
","","","","","","null","<div style=""font-size:60px;"">+</div>","null","","fixation","","",""
"memory-trial","54","213681","0.0-18.0-1.4","5930","approach_avoid_sv1","""event"",""trial"",""time""
""fullscreenenter"",""1"",""2789""
","
","
","""event"",""trial"",""time""
""fullscreenenter"",""1"",""2789""
","
","","","","","","790.3000000044703","images/boat2.png","","","memory_trial","1","definitely_old",""
"html-keyboard-response","55","214191","0.0-18.0-0.5","5930","approach_avoid_sv1","""event"",""trial"",""time""
""fullscreenenter"",""1"",""2789""
","
","
","""event"",""trial"",""time""
""fullscreenenter"",""1"",""2789""
","
","","","","","","null","<div style=""font-size:60px;"">+</div>","null","","fixation","","",""
"memory-trial","56","216841","0.0-18.0-1.5","5930","approach_avoid_sv1","""event"",""trial"",""time""
""fullscreenenter"",""1"",""2789""
","
","
","""event"",""trial"",""time""
""fullscreenenter"",""1"",""2789""
","
","","","","","","1638.8999999985099","images/chair8.png","","","memory_trial","4","definitely_new",""
"html-keyboard-response","57","217361","0.0-18.0-0.6","5930","approach_avoid_sv1","""event"",""trial"",""time""
""fullscreenenter"",""1"",""2789""
","
","
","""event"",""trial"",""time""
""fullscreenenter"",""1"",""2789""
","
","","","","","","null","<div style=""font-size:60px;"">+</div>","null","","fixation","","",""
"memory-trial","58","220111","0.0-18.0-1.6","5930","approach_avoid_sv1","""event"",""trial"",""time""
""fullscreenenter"",""1"",""2789""
","
","
","""event"",""trial"",""time""
""fullscreenenter"",""1"",""2789""
","
","","","","","","1731.6999999955297","images/table7.png","","","memory_trial","1","definitely_old",""
"html-keyboard-response","59","220621","0.0-18.0-0.7","5930","approach_avoid_sv1","""event"",""trial"",""time""
""fullscreenenter"",""1"",""2789""
","
","
","""event"",""trial"",""time""
""fullscreenenter"",""1"",""2789""
","
","","","","","","null","<div style=""font-size:60px;"">+</div>","null","","fixation","","",""
"memory-trial","60","224601","0.0-18.0-1.7","5930","approach_avoid_sv1","""event"",""trial"",""time""
""fullscreenenter"",""1"",""2789""
","
","
","""event"",""trial"",""time""
""fullscreenenter"",""1"",""2789""
","
","","","","","","2965.7000000029802","images/chair2.png","","","memory_trial","1","definitely_old",""
"html-keyboard-response","61","225111","0.0-18.0-0.8","5930","approach_avoid_sv1","""event"",""trial"",""time""
""fullscreenenter"",""1"",""2789""
","
","
","""event"",""trial"",""time""
""fullscreenenter"",""1"",""2789""
","
","","","","","","null","<div style=""font-size:60px;"">+</div>","null","","fixation","","",""
"memory-trial","62","227871","0.0-18.0-1.8","5930","approach_avoid_sv1","""event"",""trial"",""time""
""fullscreenenter"",""1"",""2789""
","
","
","""event"",""trial"",""time""
""fullscreenenter"",""1"",""2789""
","
","","","","","","1739.2999999970198","images/table6.png","","","memory_trial","3","maybe_new",""
"html-keyboard-response","63","228381","0.0-18.0-0.9","5930","approach_avoid_sv1","""event"",""trial"",""time""
""fullscreenenter"",""1"",""2789""
","
","
","""event"",""trial"",""time""
""fullscreenenter"",""1"",""2789""
","
","","","","","","null","<div style=""font-size:60px;"">+</div>","null","","fixation","","",""
"memory-trial","64","230352","0.0-18.0-1.9","5930","approach_avoid_sv1","""event"",""trial"",""time""
""fullscreenenter"",""1"",""2789""
","
","
","""event"",""trial"",""time""
""fullscreenenter"",""1"",""2789""
","
","","","","","","952.5999999940395","images/cactus6.png","","","memory_trial","1","definitely_old",""
"html-keyboard-response","65","230863","0.0-18.0-0.10","5930","approach_avoid_sv1","""event"",""trial"",""time""
""fullscreenenter"",""1"",""2789""
","
","
","""event"",""trial"",""time""
""fullscreenenter"",""1"",""2789""
","
","","","","","","null","<div style=""font-size:60px;"">+</div>","null","","fixation","","",""
"memory-trial","66","233819","0.0-18.0-1.10","5930","approach_avoid_sv1","""event"",""trial"",""time""
""fullscreenenter"",""1"",""2789""
","
","
","""event"",""trial"",""time""
""fullscreenenter"",""1"",""2789""
","
","","","","","","1944.5","images/apple5.png","","","memory_trial","1","definitely_old",""
"html-keyboard-response","67","234325","0.0-18.0-0.11","5930","approach_avoid_sv1","""event"",""trial"",""time""
""fullscreenenter"",""1"",""2789""
","
","
","""event"",""trial"",""time""
""fullscreenenter"",""1"",""2789""
","
","","","","","","null","<div style=""font-size:60px;"">+</div>","null","","fixation","","",""
"memory-trial","68","236621","0.0-18.0-1.11","5930","approach_avoid_sv1","""event"",""trial"",""time""
""fullscreenenter"",""1"",""2789""
","
","
","""event"",""trial"",""time""
""fullscreenenter"",""1"",""2789""
","
","","","","","","1277.4000000059605","images/table8.png","","","memory_trial","2","maybe_old",""
"html-keyboard-response","69","237125","0.0-18.0-0.12","5930","approach_avoid_sv1","""event"",""trial"",""time""
""fullscreenenter"",""1"",""2789""
","
","
","""event"",""trial"",""time""
""fullscreenenter"",""1"",""2789""
","
","","","","","","null","<div style=""font-size:60px;"">+</div>","null","","fixation","","",""
"memory-trial","70","240125","0.0-18.0-1.12","5930","approach_avoid_sv1","""event"",""trial"",""time""
""fullscreenenter"",""1"",""2789""
","
","
","""event"",""trial"",""time""
""fullscreenenter"",""1"",""2789""
","
","","","","","","1989.2000000029802","images/horse1.png","","","memory_trial","3","maybe_new",""
"html-keyboard-response","71","240638","0.0-18.0-0.13","5930","approach_avoid_sv1","""event"",""trial"",""time""
""fullscreenenter"",""1"",""2789""
","
","
","""event"",""trial"",""time""
""fullscreenenter"",""1"",""2789""
","
","","","","","","null","<div style=""font-size:60px;"">+</div>","null","","fixation","","",""
"memory-trial","72","243844","0.0-18.0-1.13","5930","approach_avoid_sv1","""event"",""trial"",""time""
""fullscreenenter"",""1"",""2789""
","
","
","""event"",""trial"",""time""
""fullscreenenter"",""1"",""2789""
","
","","","","","","2197.60000000149","images/goat2.png","","","memory_trial","4","definitely_new",""
"html-keyboard-response","73","244349","0.0-18.0-0.14","5930","approach_avoid_sv1","""event"",""trial"",""time""
""fullscreenenter"",""1"",""2789""
","
","
","""event"",""trial"",""time""
""fullscreenenter"",""1"",""2789""
","
","","","","","","null","<div style=""font-size:60px;"">+</div>","null","","fixation","","",""
"memory-trial","74","247389","0.0-18.0-1.14","5930","approach_avoid_sv1","""event"",""trial"",""time""
""fullscreenenter"",""1"",""2789""
","
","
","""event"",""trial"",""time""
""fullscreenenter"",""1"",""2789""
","
","","","","","","2029.8000000044703","images/tree7.png","","","memory_trial","4","definitely_new",""
"html-keyboard-response","75","247902","0.0-18.0-0.15","5930","approach_avoid_sv1","""event"",""trial"",""time""
""fullscreenenter"",""1"",""2789""
","
","
","""event"",""trial"",""time""
""fullscreenenter"",""1"",""2789""
","
","","","","","","null","<div style=""font-size:60px;"">+</div>","null","","fixation","","",""
"memory-trial","76","251549","0.0-18.0-1.15","5930","approach_avoid_sv1","""event"",""trial"",""time""
""fullscreenenter"",""1"",""2789""
","
","
","""event"",""trial"",""time""
""fullscreenenter"",""1"",""2789""
","
","","","","","","2640","images/plane2.png","","","memory_trial","2","maybe_old",""
"html-keyboard-response","77","252061","0.0-18.0-0.16","5930","approach_avoid_sv1","""event"",""trial"",""time""
""fullscreenenter"",""1"",""2789""
","
","
","""event"",""trial"",""time""
""fullscreenenter"",""1"",""2789""
","
","","","","","","null","<div style=""font-size:60px;"">+</div>","null","","fixation","","",""
"memory-trial","78","254584","0.0-18.0-1.16","5930","approach_avoid_sv1","""event"",""trial"",""time""
""fullscreenenter"",""1"",""2789""
","
","
","""event"",""trial"",""time""
""fullscreenenter"",""1"",""2789""
","
","","","","","","1502","images/rodent5.png","","","memory_trial","1","definitely_old",""
"html-keyboard-response","79","255099","0.0-18.0-0.17","5930","approach_avoid_sv1","""event"",""trial"",""time""
""fullscreenenter"",""1"",""2789""
","
","
","""event"",""trial"",""time""
""fullscreenenter"",""1"",""2789""
","
","","","","","","null","<div style=""font-size:60px;"">+</div>","null","","fixation","","",""
"memory-trial","80","257366","0.0-18.0-1.17","5930","approach_avoid_sv1","""event"",""trial"",""time""
""fullscreenenter"",""1"",""2789""
","
","
","""event"",""trial"",""time""
""fullscreenenter"",""1"",""2789""
","
","","","","","","1251.6000000014901","images/bed6.png","","","memory_trial","4","definitely_new",""
"html-keyboard-response","81","257885","0.0-18.0-0.18","5930","approach_avoid_sv1","""event"",""trial"",""time""
""fullscreenenter"",""1"",""2789""
","
","
","""event"",""trial"",""time""
""fullscreenenter"",""1"",""2789""
","
","","","","","","null","<div style=""font-size:60px;"">+</div>","null","","fixation","","",""
"memory-trial","82","260149","0.0-18.0-1.18","5930","approach_avoid_sv1","""event"",""trial"",""time""
""fullscreenenter"",""1"",""2789""
","
","
","""event"",""trial"",""time""
""fullscreenenter"",""1"",""2789""
","
","","","","","","1252.0999999940395","images/apple6.png","","","memory_trial","4","definitely_new",""
"html-keyboard-response","83","260659","0.0-18.0-0.19","5930","approach_avoid_sv1","""event"",""trial"",""time""
""fullscreenenter"",""1"",""2789""
","
","
","""event"",""trial"",""time""
""fullscreenenter"",""1"",""2789""
","
","","","","","","null","<div style=""font-size:60px;"">+</div>","null","","fixation","","",""
"memory-trial","84","262969","0.0-18.0-1.19","5930","approach_avoid_sv1","""event"",""trial"",""time""
""fullscreenenter"",""1"",""2789""
","
","
","""event"",""trial"",""time""
""fullscreenenter"",""1"",""2789""
","
","","","","","","1298.2000000029802","images/banana2.png","","","memory_trial","1","definitely_old",""
"html-keyboard-response","85","263488","0.0-18.0-0.20","5930","approach_avoid_sv1","""event"",""trial"",""time""
""fullscreenenter"",""1"",""2789""
","
","
","""event"",""trial"",""time""
""fullscreenenter"",""1"",""2789""
","
","","","","","","null","<div style=""font-size:60px;"">+</div>","null","","fixation","","",""
"memory-trial","86","265741","0.0-18.0-1.20","5930","approach_avoid_sv1","""event"",""trial"",""time""
""fullscreenenter"",""1"",""2789""
","
","
","""event"",""trial"",""time""
""fullscreenenter"",""1"",""2789""
","
","","","","","","1237.6000000014901","images/bed3.png","","","memory_trial","1","definitely_old",""
"html-keyboard-response","87","266255","0.0-18.0-0.21","5930","approach_avoid_sv1","""event"",""trial"",""time""
""fullscreenenter"",""1"",""2789""
","
","
","""event"",""trial"",""time""
""fullscreenenter"",""1"",""2789""
","
","","","","","","null","<div style=""font-size:60px;"">+</div>","null","","fixation","","",""
"memory-trial","88","268217","0.0-18.0-1.21","5930","approach_avoid_sv1","""event"",""trial"",""time""
""fullscreenenter"",""1"",""2789""
","
","
","""event"",""trial"",""time""
""fullscreenenter"",""1"",""2789""
","
","","","","","","951.9000000059605","images/goat4.png","","","memory_trial","4","definitely_new",""
"html-keyboard-response","89","268737","0.0-18.0-0.22","5930","approach_avoid_sv1","""event"",""trial"",""time""
""fullscreenenter"",""1"",""2789""
","
","
","""event"",""trial"",""time""
""fullscreenenter"",""1"",""2789""
","
","","","","","","null","<div style=""font-size:60px;"">+</div>","null","","fixation","","",""
"memory-trial","90","270854","0.0-18.0-1.22","5930","approach_avoid_sv1","""event"",""trial"",""time""
""fullscreenenter"",""1"",""2789""
","
","
","""event"",""trial"",""time""
""fullscreenenter"",""1"",""2789""
","
","","","","","","1096.8999999985099","images/bush8.png","","","memory_trial","1","definitely_old",""
"html-keyboard-response","91","271371","0.0-18.0-0.23","5930","approach_avoid_sv1","""event"",""trial"",""time""
""fullscreenenter"",""1"",""2789""
","
","
","""event"",""trial"",""time""
""fullscreenenter"",""1"",""2789""
","
","","","","","","null","<div style=""font-size:60px;"">+</div>","null","","fixation","","",""
"memory-trial","92","273196","0.0-18.0-1.23","5930","approach_avoid_sv1","""event"",""trial"",""time""
""fullscreenenter"",""1"",""2789""
","
","
","""event"",""trial"",""time""
""fullscreenenter"",""1"",""2789""
","
","","","","","","818","images/chair1.png","","","memory_trial","2","maybe_old",""
"html-keyboard-response","93","273708","0.0-18.0-0.24","5930","approach_avoid_sv1","""event"",""trial"",""time""
""fullscreenenter"",""1"",""2789""
","
","
","""event"",""trial"",""time""
""fullscreenenter"",""1"",""2789""
","
","","","","","","null","<div style=""font-size:60px;"">+</div>","null","","fixation","","",""
"memory-trial","94","276389","0.0-18.0-1.24","5930","approach_avoid_sv1","""event"",""trial"",""time""
""fullscreenenter"",""1"",""2789""
","
","
","""event"",""trial"",""time""
""fullscreenenter"",""1"",""2789""
","
","","","","","","1672.8999999985099","images/bed1.png","","","memory_trial","1","definitely_old",""
"html-keyboard-response","95","276899","0.0-18.0-0.25","5930","approach_avoid_sv1","""event"",""trial"",""time""
""fullscreenenter"",""1"",""2789""
","
","
","""event"",""trial"",""time""
""fullscreenenter"",""1"",""2789""
","
","","","","","","null","<div style=""font-size:60px;"">+</div>","null","","fixation","","",""
"memory-trial","96","279077","0.0-18.0-1.25","5930","approach_avoid_sv1","""event"",""trial"",""time""
""fullscreenenter"",""1"",""2789""
","
","
","""event"",""trial"",""time""
""fullscreenenter"",""1"",""2789""
","
","","","","","","1159.1000000014901","images/sofa3.png","","","memory_trial","1","definitely_old",""
"html-keyboard-response","97","279589","0.0-18.0-0.26","5930","approach_avoid_sv1","""event"",""trial"",""time""
""fullscreenenter"",""1"",""2789""
","
","
","""event"",""trial"",""time""
""fullscreenenter"",""1"",""2789""
","
","","","","","","null","<div style=""font-size:60px;"">+</div>","null","","fixation","","",""
"memory-trial","98","281971","0.0-18.0-1.26","5930","approach_avoid_sv1","""event"",""trial"",""time""
""fullscreenenter"",""1"",""2789""
","
","
","""event"",""trial"",""time""
""fullscreenenter"",""1"",""2789""
","
","","","","","","1363.7999999970198","images/flower4.png","","","memory_trial","4","definitely_new",""
"html-keyboard-response","99","282488","0.0-18.0-0.27","5930","approach_avoid_sv1","""event"",""trial"",""time""
""fullscreenenter"",""1"",""2789""
","
","
","""event"",""trial"",""time""
""fullscreenenter"",""1"",""2789""
","
","","","","","","null","<div style=""font-size:60px;"">+</div>","null","","fixation","","",""
"memory-trial","100","285171","0.0-18.0-1.27","5930","approach_avoid_sv1","""event"",""trial"",""time""
""fullscreenenter"",""1"",""2789""
","
","
","""event"",""trial"",""time""
""fullscreenenter"",""1"",""2789""
","
","","","","","","1666.1000000014901","images/goat7.png","","","memory_trial","4","definitely_new",""
"html-keyboard-response","101","285682","0.0-18.0-0.28","5930","approach_avoid_sv1","""event"",""trial"",""time""
""fullscreenenter"",""1"",""2789""
","
","
","""event"",""trial"",""time""
""fullscreenenter"",""1"",""2789""
","
","","","","","","null","<div style=""font-size:60px;"">+</div>","null","","fixation","","",""
"memory-trial","102","287691","0.0-18.0-1.28","5930","approach_avoid_sv1","""event"",""trial"",""time""
""fullscreenenter"",""1"",""2789""
","
","
","""event"",""trial"",""time""
""fullscreenenter"",""1"",""2789""
","
","","","","","","996.8999999985099","images/cat6.png","","","memory_trial","4","definitely_new",""
"html-keyboard-response","103","288205","0.0-18.0-0.29","5930","approach_avoid_sv1","""event"",""trial"",""time""
""fullscreenenter"",""1"",""2789""
","
","
","""event"",""trial"",""time""
""fullscreenenter"",""1"",""2789""
","
","","","","","","null","<div style=""font-size:60px;"">+</div>","null","","fixation","","",""
"memory-trial","104","290091","0.0-18.0-1.29","5930","approach_avoid_sv1","""event"",""trial"",""time""
""fullscreenenter"",""1"",""2789""
","
","
","""event"",""trial"",""time""
""fullscreenenter"",""1"",""2789""
","
","","","","","","873.7999999970198","images/truck5.png","","","memory_trial","4","definitely_new",""
"html-keyboard-response","105","290600","0.0-18.0-0.30","5930","approach_avoid_sv1","""event"",""trial"",""time""
""fullscreenenter"",""1"",""2789""
","
","
","""event"",""trial"",""time""
""fullscreenenter"",""1"",""2789""
","
","","","","","","null","<div style=""font-size:60px;"">+</div>","null","","fixation","","",""
"memory-trial","106","293052","0.0-18.0-1.30","5930","approach_avoid_sv1","""event"",""trial"",""time""
""fullscreenenter"",""1"",""2789""
","
","
","""event"",""trial"",""time""
""fullscreenenter"",""1"",""2789""
","
","","","","","","1436","images/bush5.png","","","memory_trial","3","maybe_new",""
"html-keyboard-response","107","293559","0.0-18.0-0.31","5930","approach_avoid_sv1","""event"",""trial"",""time""
""fullscreenenter"",""1"",""2789""
","
","
","""event"",""trial"",""time""
""fullscreenenter"",""1"",""2789""
","
","","","","","","null","<div style=""font-size:60px;"">+</div>","null","","fixation","","",""
"memory-trial","108","295754","0.0-18.0-1.31","5930","approach_avoid_sv1","""event"",""trial"",""time""
""fullscreenenter"",""1"",""2789""
","
","
","""event"",""trial"",""time""
""fullscreenenter"",""1"",""2789""
","
","","","","","","1179.6999999955297","images/train2.png","","","memory_trial","4","definitely_new",""
"html-keyboard-response","109","296265","0.0-18.0-0.32","5930","approach_avoid_sv1","""event"",""trial"",""time""
""fullscreenenter"",""1"",""2789""
","
","
","""event"",""trial"",""time""
""fullscreenenter"",""1"",""2789""
","
","","","","","","null","<div style=""font-size:60px;"">+</div>","null","","fixation","","",""
"memory-trial","110","298796","0.0-18.0-1.32","5930","approach_avoid_sv1","""event"",""trial"",""time""
""fullscreenenter"",""1"",""2789""
","
","
","""event"",""trial"",""time""
""fullscreenenter"",""1"",""2789""
","
","","","","","","1504.8000000044703","images/orange7.png","","","memory_trial","3","maybe_new",""
"html-keyboard-response","111","299301","0.0-18.0-0.33","5930","approach_avoid_sv1","""event"",""trial"",""time""
""fullscreenenter"",""1"",""2789""
","
","
","""event"",""trial"",""time""
""fullscreenenter"",""1"",""2789""
","
","","","","","","null","<div style=""font-size:60px;"">+</div>","null","","fixation","","",""
"memory-trial","112","301119","0.0-18.0-1.33","5930","approach_avoid_sv1","""event"",""trial"",""time""
""fullscreenenter"",""1"",""2789""
","
","
","""event"",""trial"",""time""
""fullscreenenter"",""1"",""2789""
","
","","","","","","805.2999999970198","images/cactus4.png","","","memory_trial","1","definitely_old",""
"html-keyboard-response","113","301634","0.0-18.0-0.34","5930","approach_avoid_sv1","""event"",""trial"",""time""
""fullscreenenter"",""1"",""2789""
","
","
","""event"",""trial"",""time""
""fullscreenenter"",""1"",""2789""
","
","","","","","","null","<div style=""font-size:60px;"">+</div>","null","","fixation","","",""
"memory-trial","114","303739","0.0-18.0-1.34","5930","approach_avoid_sv1","""event"",""trial"",""time""
""fullscreenenter"",""1"",""2789""
","
","
","""event"",""trial"",""time""
""fullscreenenter"",""1"",""2789""
","
","","","","","","1092.7000000029802","images/tree3.png","","","memory_trial","3","maybe_new",""
"html-keyboard-response","115","304248","0.0-18.0-0.35","5930","approach_avoid_sv1","""event"",""trial"",""time""
""fullscreenenter"",""1"",""2789""
","
","
","""event"",""trial"",""time""
""fullscreenenter"",""1"",""2789""
","
","","","","","","null","<div style=""font-size:60px;"">+</div>","null","","fixation","","",""
"memory-trial","116","306694","0.0-18.0-1.35","5930","approach_avoid_sv1","""event"",""trial"",""time""
""fullscreenenter"",""1"",""2789""
","
","
","""event"",""trial"",""time""
""fullscreenenter"",""1"",""2789""
","
","","","","","","1430.5","images/flower6.png","","","memory_trial","4","definitely_new",""
"html-keyboard-response","117","307205","0.0-18.0-0.36","5930","approach_avoid_sv1","""event"",""trial"",""time""
""fullscreenenter"",""1"",""2789""
","
","
","""event"",""trial"",""time""
""fullscreenenter"",""1"",""2789""
","
","","","","","","null","<div style=""font-size:60px;"">+</div>","null","","fixation","","",""
"memory-trial","118","310340","0.0-18.0-1.36","5930","approach_avoid_sv1","""event"",""trial"",""time""
""fullscreenenter"",""1"",""2789""
","
","
","""event"",""trial"",""time""
""fullscreenenter"",""1"",""2789""
","
","","","","","","2125.1999999955297","images/cactus8.png","","","memory_trial","1","definitely_old",""
"html-keyboard-response","119","310851","0.0-18.0-0.37","5930","approach_avoid_sv1","""event"",""trial"",""time""
""fullscreenenter"",""1"",""2789""
","
","
","""event"",""trial"",""time""
""fullscreenenter"",""1"",""2789""
","
","","","","","","null","<div style=""font-size:60px;"">+</div>","null","","fixation","","",""
"memory-trial","120","312988","0.0-18.0-1.37","5930","approach_avoid_sv1","""event"",""trial"",""time""
""fullscreenenter"",""1"",""2789""
","
","
","""event"",""trial"",""time""
""fullscreenenter"",""1"",""2789""
","
","","","","","","1109.8000000044703","images/train6.png","","","memory_trial","4","definitely_new",""
"html-keyboard-response","121","313500","0.0-18.0-0.38","5930","approach_avoid_sv1","""event"",""trial"",""time""
""fullscreenenter"",""1"",""2789""
","
","
","""event"",""trial"",""time""
""fullscreenenter"",""1"",""2789""
","
","","","","","","null","<div style=""font-size:60px;"">+</div>","null","","fixation","","",""
"memory-trial","122","315525","0.0-18.0-1.38","5930","approach_avoid_sv1","""event"",""trial"",""time""
""fullscreenenter"",""1"",""2789""
","
","
","""event"",""trial"",""time""
""fullscreenenter"",""1"",""2789""
","
","","","","","","1013.1999999955297","images/dog2.png","","","memory_trial","4","definitely_new",""
"html-keyboard-response","123","316036","0.0-18.0-0.39","5930","approach_avoid_sv1","""event"",""trial"",""time""
""fullscreenenter"",""1"",""2789""
","
","
","""event"",""trial"",""time""
""fullscreenenter"",""1"",""2789""
","
","","","","","","null","<div style=""font-size:60px;"">+</div>","null","","fixation","","",""
"memory-trial","124","318758","0.0-18.0-1.39","5930","approach_avoid_sv1","""event"",""trial"",""time""
""fullscreenenter"",""1"",""2789""
","
","
","""event"",""trial"",""time""
""fullscreenenter"",""1"",""2789""
","
","","","","","","1707.2000000029802","images/straw1.png","","","memory_trial","4","definitely_new",""
"html-keyboard-response","125","319268","0.0-18.0-0.40","5930","approach_avoid_sv1","""event"",""trial"",""time""
""fullscreenenter"",""1"",""2789""
","
","
","""event"",""trial"",""time""
""fullscreenenter"",""1"",""2789""
","
","","","","","","null","<div style=""font-size:60px;"">+</div>","null","","fixation","","",""
"memory-trial","126","321050","0.0-18.0-1.40","5930","approach_avoid_sv1","""event"",""trial"",""time""
""fullscreenenter"",""1"",""2789""
","
","
","""event"",""trial"",""time""
""fullscreenenter"",""1"",""2789""
","
","","","","","","766.1000000014901","images/straw4.png","","","memory_trial","4","definitely_new",""
"html-keyboard-response","127","321559","0.0-18.0-0.41","5930","approach_avoid_sv1","""event"",""trial"",""time""
""fullscreenenter"",""1"",""2789""
","
","
","""event"",""trial"",""time""
""fullscreenenter"",""1"",""2789""
","
","","","","","","null","<div style=""font-size:60px;"">+</div>","null","","fixation","","",""
"memory-trial","128","323692","0.0-18.0-1.41","5930","approach_avoid_sv1","""event"",""trial"",""time""
""fullscreenenter"",""1"",""2789""
","
","
","""event"",""trial"",""time""
""fullscreenenter"",""1"",""2789""
","
","","","","","","1114","images/banana5.png","","","memory_trial","4","definitely_new",""
"html-button-response","129","334073","0.0-18.0-2.41-0.41","5930","approach_avoid_sv1","""event"",""trial"",""time""
""fullscreenenter"",""1"",""2789""
","
","
","""event"",""trial"",""time""
""fullscreenenter"",""1"",""2789""
","
","","","","","","10379.80000000447","<p> Take a break! </p><p> Click the button to continue. </p>","0","","break","","",""
"html-keyboard-response","130","334586","0.0-18.0-0.42","5930","approach_avoid_sv1","""event"",""trial"",""time""
""fullscreenenter"",""1"",""2789""
","
","
","""event"",""trial"",""time""
""fullscreenenter"",""1"",""2789""
","
","","","","","","null","<div style=""font-size:60px;"">+</div>","null","","fixation","","",""
"memory-trial","131","337866","0.0-18.0-1.42","5930","approach_avoid_sv1","""event"",""trial"",""time""
""fullscreenenter"",""1"",""2789""
","
","
","""event"",""trial"",""time""
""fullscreenenter"",""1"",""2789""
","
","","","","","","2260.3000000044703","images/tree4.png","","","memory_trial","4","definitely_new",""
"html-keyboard-response","132","338375","0.0-18.0-0.43","5930","approach_avoid_sv1","""event"",""trial"",""time""
""fullscreenenter"",""1"",""2789""
","
","
","""event"",""trial"",""time""
""fullscreenenter"",""1"",""2789""
","
","","","","","","null","<div style=""font-size:60px;"">+</div>","null","","fixation","","",""
"memory-trial","133","340506","0.0-18.0-1.43","5930","approach_avoid_sv1","""event"",""trial"",""time""
""fullscreenenter"",""1"",""2789""
","
","
","""event"",""trial"",""time""
""fullscreenenter"",""1"",""2789""
","
","","","","","","1112.3999999985099","images/chair4.png","","","memory_trial","4","definitely_new",""
"html-keyboard-response","134","341017","0.0-18.0-0.44","5930","approach_avoid_sv1","""event"",""trial"",""time""
""fullscreenenter"",""1"",""2789""
","
","
","""event"",""trial"",""time""
""fullscreenenter"",""1"",""2789""
","
","","","","","","null","<div style=""font-size:60px;"">+</div>","null","","fixation","","",""
"memory-trial","135","343418","0.0-18.0-1.44","5930","approach_avoid_sv1","""event"",""trial"",""time""
""fullscreenenter"",""1"",""2789""
","
","
","""event"",""trial"",""time""
""fullscreenenter"",""1"",""2789""
","
","","","","","","1385.8000000044703","images/chair7.png","","","memory_trial","3","maybe_new",""
"html-keyboard-response","136","343929","0.0-18.0-0.45","5930","approach_avoid_sv1","""event"",""trial"",""time""
""fullscreenenter"",""1"",""2789""
","
","
","""event"",""trial"",""time""
""fullscreenenter"",""1"",""2789""
","
","","","","","","null","<div style=""font-size:60px;"">+</div>","null","","fixation","","",""
"memory-trial","137","346027","0.0-18.0-1.45","5930","approach_avoid_sv1","""event"",""trial"",""time""
""fullscreenenter"",""1"",""2789""
","
","
","""event"",""trial"",""time""
""fullscreenenter"",""1"",""2789""
","
","","","","","","1081.7999999970198","images/sheep8.png","","","memory_trial","3","maybe_new",""
"html-keyboard-response","138","346540","0.0-18.0-0.46","5930","approach_avoid_sv1","""event"",""trial"",""time""
""fullscreenenter"",""1"",""2789""
","
","
","""event"",""trial"",""time""
""fullscreenenter"",""1"",""2789""
","
","","","","","","null","<div style=""font-size:60px;"">+</div>","null","","fixation","","",""
"memory-trial","139","348386","0.0-18.0-1.46","5930","approach_avoid_sv1","""event"",""trial"",""time""
""fullscreenenter"",""1"",""2789""
","
","
","""event"",""trial"",""time""
""fullscreenenter"",""1"",""2789""
","
","","","","","","827.2999999970198","images/plane5.png","","","memory_trial","1","definitely_old",""
"html-keyboard-response","140","348896","0.0-18.0-0.47","5930","approach_avoid_sv1","""event"",""trial"",""time""
""fullscreenenter"",""1"",""2789""
","
","
","""event"",""trial"",""time""
""fullscreenenter"",""1"",""2789""
","
","","","","","","null","<div style=""font-size:60px;"">+</div>","null","","fixation","","",""
"memory-trial","141","350820","0.0-18.0-1.47","5930","approach_avoid_sv1","""event"",""trial"",""time""
""fullscreenenter"",""1"",""2789""
","
","
","""event"",""trial"",""time""
""fullscreenenter"",""1"",""2789""
","
","","","","","","908.6999999955297","images/cat1.png","","","memory_trial","4","definitely_new",""
"html-keyboard-response","142","351331","0.0-18.0-0.48","5930","approach_avoid_sv1","""event"",""trial"",""time""
""fullscreenenter"",""1"",""2789""
","
","
","""event"",""trial"",""time""
""fullscreenenter"",""1"",""2789""
","
","","","","","","null","<div style=""font-size:60px;"">+</div>","null","","fixation","","",""
"memory-trial","143","353332","0.0-18.0-1.48","5930","approach_avoid_sv1","""event"",""trial"",""time""
""fullscreenenter"",""1"",""2789""
","
","
","""event"",""trial"",""time""
""fullscreenenter"",""1"",""2789""
","
","","","","","","992.1999999955297","images/plane4.png","","","memory_trial","4","definitely_new",""
"html-keyboard-response","144","353840","0.0-18.0-0.49","5930","approach_avoid_sv1","""event"",""trial"",""time""
""fullscreenenter"",""1"",""2789""
","
","
","""event"",""trial"",""time""
""fullscreenenter"",""1"",""2789""
","
","","","","","","null","<div style=""font-size:60px;"">+</div>","null","","fixation","","",""
"memory-trial","145","355622","0.0-18.0-1.49","5930","approach_avoid_sv1","""event"",""trial"",""time""
""fullscreenenter"",""1"",""2789""
","
","
","""event"",""trial"",""time""
""fullscreenenter"",""1"",""2789""
","
","","","","","","774.3999999985099","images/dog5.png","","","memory_trial","3","maybe_new",""
"html-keyboard-response","146","356131","0.0-18.0-0.50","5930","approach_avoid_sv1","""event"",""trial"",""time""
""fullscreenenter"",""1"",""2789""
","
","
","""event"",""trial"",""time""
""fullscreenenter"",""1"",""2789""
","
","","","","","","null","<div style=""font-size:60px;"">+</div>","null","","fixation","","",""
"memory-trial","147","359355","0.0-18.0-1.50","5930","approach_avoid_sv1","""event"",""trial"",""time""
""fullscreenenter"",""1"",""2789""
","
","
","""event"",""trial"",""time""
""fullscreenenter"",""1"",""2789""
","
","","","","","","2205.6999999955297","images/orange5.png","","","memory_trial","1","definitely_old",""
"html-keyboard-response","148","359874","0.0-18.0-0.51","5930","approach_avoid_sv1","""event"",""trial"",""time""
""fullscreenenter"",""1"",""2789""
","
","
","""event"",""trial"",""time""
""fullscreenenter"",""1"",""2789""
","
","","","","","","null","<div style=""font-size:60px;"">+</div>","null","","fixation","","",""
"memory-trial","149","361548","0.0-18.0-1.51","5930","approach_avoid_sv1","""event"",""trial"",""time""
""fullscreenenter"",""1"",""2789""
","
","
","""event"",""trial"",""time""
""fullscreenenter"",""1"",""2789""
","
","","","","","","660.7000000029802","images/table2.png","","","memory_trial","4","definitely_new",""
"html-keyboard-response","150","362065","0.0-18.0-0.52","5930","approach_avoid_sv1","""event"",""trial"",""time""
""fullscreenenter"",""1"",""2789""
","
","
","""event"",""trial"",""time""
""fullscreenenter"",""1"",""2789""
","
","","","","","","null","<div style=""font-size:60px;"">+</div>","null","","fixation","","",""
"memory-trial","151","364486","0.0-18.0-1.52","5930","approach_avoid_sv1","""event"",""trial"",""time""
""fullscreenenter"",""1"",""2789""
","
","
","""event"",""trial"",""time""
""fullscreenenter"",""1"",""2789""
","
","","","","","","1412.8999999985099","images/boat3.png","","","memory_trial","4","definitely_new",""
"html-keyboard-response","152","364990","0.0-18.0-0.53","5930","approach_avoid_sv1","""event"",""trial"",""time""
""fullscreenenter"",""1"",""2789""
","
","
","""event"",""trial"",""time""
""fullscreenenter"",""1"",""2789""
","
","","","","","","null","<div style=""font-size:60px;"">+</div>","null","","fixation","","",""
"memory-trial","153","367415","0.0-18.0-1.53","5930","approach_avoid_sv1","""event"",""trial"",""time""
""fullscreenenter"",""1"",""2789""
","
","
","""event"",""trial"",""time""
""fullscreenenter"",""1"",""2789""
","
","","","","","","1412.2000000029802","images/rabbit5.png","","","memory_trial","3","maybe_new",""
"html-keyboard-response","154","367925","0.0-18.0-0.54","5930","approach_avoid_sv1","""event"",""trial"",""time""
""fullscreenenter"",""1"",""2789""
","
","
","""event"",""trial"",""time""
""fullscreenenter"",""1"",""2789""
","
","","","","","","null","<div style=""font-size:60px;"">+</div>","null","","fixation","","",""
"memory-trial","155","369685","0.0-18.0-1.54","5930","approach_avoid_sv1","""event"",""trial"",""time""
""fullscreenenter"",""1"",""2789""
","
","
","""event"",""trial"",""time""
""fullscreenenter"",""1"",""2789""
","
","","","","","","742.8999999985099","images/banana7.png","","","memory_trial","4","definitely_new",""
"html-keyboard-response","156","370190","0.0-18.0-0.55","5930","approach_avoid_sv1","""event"",""trial"",""time""
""fullscreenenter"",""1"",""2789""
","
","
","""event"",""trial"",""time""
""fullscreenenter"",""1"",""2789""
","
","","","","","","null","<div style=""font-size:60px;"">+</div>","null","","fixation","","",""
"memory-trial","157","371318","0.0-18.0-1.55","5930","approach_avoid_sv1","""event"",""trial"",""time""
""fullscreenenter"",""1"",""2789""
","
","
","""event"",""trial"",""time""
""fullscreenenter"",""1"",""2789""
","
","","","","","","117.29999999701977","images/truck2.png","","","memory_trial","4","definitely_new",""
"html-keyboard-response","158","371829","0.0-18.0-0.56","5930","approach_avoid_sv1","""event"",""trial"",""time""
""fullscreenenter"",""1"",""2789""
","
","
","""event"",""trial"",""time""
""fullscreenenter"",""1"",""2789""
","
","","","","","","null","<div style=""font-size:60px;"">+</div>","null","","fixation","","",""
"memory-trial","159","374754","0.0-18.0-1.56","5930","approach_avoid_sv1","""event"",""trial"",""time""
""fullscreenenter"",""1"",""2789""
","
","
","""event"",""trial"",""time""
""fullscreenenter"",""1"",""2789""
","
","","","","","","1911.0999999940395","images/straw5.png","","","memory_trial","4","definitely_new",""
"html-keyboard-response","160","375265","0.0-18.0-0.57","5930","approach_avoid_sv1","""event"",""trial"",""time""
""fullscreenenter"",""1"",""2789""
","
","
","""event"",""trial"",""time""
""fullscreenenter"",""1"",""2789""
","
","","","","","","null","<div style=""font-size:60px;"">+</div>","null","","fixation","","",""
"memory-trial","161","377578","0.0-18.0-1.57","5930","approach_avoid_sv1","""event"",""trial"",""time""
""fullscreenenter"",""1"",""2789""
","
","
","""event"",""trial"",""time""
""fullscreenenter"",""1"",""2789""
","
","","","","","","1301.5","images/flower2.png","","","memory_trial","3","maybe_new",""
"html-keyboard-response","162","378088","0.0-18.0-0.58","5930","approach_avoid_sv1","""event"",""trial"",""time""
""fullscreenenter"",""1"",""2789""
","
","
","""event"",""trial"",""time""
""fullscreenenter"",""1"",""2789""
","
","","","","","","null","<div style=""font-size:60px;"">+</div>","null","","fixation","","",""
"memory-trial","163","380329","0.0-18.0-1.58","5930","approach_avoid_sv1","""event"",""trial"",""time""
""fullscreenenter"",""1"",""2789""
","
","
","""event"",""trial"",""time""
""fullscreenenter"",""1"",""2789""
","
","","","","","","1228.3000000044703","images/dog4.png","","","memory_trial","4","definitely_new",""
"html-keyboard-response","164","380845","0.0-18.0-0.59","5930","approach_avoid_sv1","""event"",""trial"",""time""
""fullscreenenter"",""1"",""2789""
","
","
","""event"",""trial"",""time""
""fullscreenenter"",""1"",""2789""
","
","","","","","","null","<div style=""font-size:60px;"">+</div>","null","","fixation","","",""
"memory-trial","165","382699","0.0-18.0-1.59","5930","approach_avoid_sv1","""event"",""trial"",""time""
""fullscreenenter"",""1"",""2789""
","
","
","""event"",""trial"",""time""
""fullscreenenter"",""1"",""2789""
","
","","","","","","837.5","images/bush4.png","","","memory_trial","1","definitely_old",""
"html-keyboard-response","166","383221","0.0-18.0-0.60","5930","approach_avoid_sv1","""event"",""trial"",""time""
""fullscreenenter"",""1"",""2789""
","
","
","""event"",""trial"",""time""
""fullscreenenter"",""1"",""2789""
","
","","","","","","null","<div style=""font-size:60px;"">+</div>","null","","fixation","","",""
"memory-trial","167","385136","0.0-18.0-1.60","5930","approach_avoid_sv1","""event"",""trial"",""time""
""fullscreenenter"",""1"",""2789""
","
","
","""event"",""trial"",""time""
""fullscreenenter"",""1"",""2789""
","
","","","","","","903.6000000014901","images/apple8.png","","","memory_trial","1","definitely_old",""
"html-keyboard-response","168","385652","0.0-18.0-0.61","5930","approach_avoid_sv1","""event"",""trial"",""time""
""fullscreenenter"",""1"",""2789""
","
","
","""event"",""trial"",""time""
""fullscreenenter"",""1"",""2789""
","
","","","","","","null","<div style=""font-size:60px;"">+</div>","null","","fixation","","",""
"memory-trial","169","388161","0.0-18.0-1.61","5930","approach_avoid_sv1","""event"",""trial"",""time""
""fullscreenenter"",""1"",""2789""
","
","
","""event"",""trial"",""time""
""fullscreenenter"",""1"",""2789""
","
","","","","","","1495.5","images/rodent7.png","","","memory_trial","2","maybe_old",""
"html-keyboard-response","170","388676","0.0-18.0-0.62","5930","approach_avoid_sv1","""event"",""trial"",""time""
""fullscreenenter"",""1"",""2789""
","
","
","""event"",""trial"",""time""
""fullscreenenter"",""1"",""2789""
","
","","","","","","null","<div style=""font-size:60px;"">+</div>","null","","fixation","","",""
"memory-trial","171","391405","0.0-18.0-1.62","5930","approach_avoid_sv1","""event"",""trial"",""time""
""fullscreenenter"",""1"",""2789""
","
","
","""event"",""trial"",""time""
""fullscreenenter"",""1"",""2789""
","
","","","","","","1723.3000000044703","images/rabbit1.png","","","memory_trial","1","definitely_old",""
"html-keyboard-response","172","391909","0.0-18.0-0.63","5930","approach_avoid_sv1","""event"",""trial"",""time""
""fullscreenenter"",""1"",""2789""
","
","
","""event"",""trial"",""time""
""fullscreenenter"",""1"",""2789""
","
","","","","","","null","<div style=""font-size:60px;"">+</div>","null","","fixation","","",""
"memory-trial","173","394309","0.0-18.0-1.63","5930","approach_avoid_sv1","""event"",""trial"",""time""
""fullscreenenter"",""1"",""2789""
","
","
","""event"",""trial"",""time""
""fullscreenenter"",""1"",""2789""
","
","","","","","","1384.2999999970198","images/bed4.png","","","memory_trial","4","definitely_new",""
"html-keyboard-response","174","394818","0.0-18.0-0.64","5930","approach_avoid_sv1","""event"",""trial"",""time""
""fullscreenenter"",""1"",""2789""
","
","
","""event"",""trial"",""time""
""fullscreenenter"",""1"",""2789""
","
","","","","","","null","<div style=""font-size:60px;"">+</div>","null","","fixation","","",""
"memory-trial","175","397419","0.0-18.0-1.64","5930","approach_avoid_sv1","""event"",""trial"",""time""
""fullscreenenter"",""1"",""2789""
","
","
","""event"",""trial"",""time""
""fullscreenenter"",""1"",""2789""
","
","","","","","","1589.1999999955297","images/plane8.png","","","memory_trial","3","maybe_new",""
"html-keyboard-response","176","397930","0.0-18.0-0.65","5930","approach_avoid_sv1","""event"",""trial"",""time""
""fullscreenenter"",""1"",""2789""
","
","
","""event"",""trial"",""time""
""fullscreenenter"",""1"",""2789""
","
","","","","","","null","<div style=""font-size:60px;"">+</div>","null","","fixation","","",""
"memory-trial","177","399912","0.0-18.0-1.65","5930","approach_avoid_sv1","""event"",""trial"",""time""
""fullscreenenter"",""1"",""2789""
","
","
","""event"",""trial"",""time""
""fullscreenenter"",""1"",""2789""
","
","","","","","","973.5999999940395","images/sheep7.png","","","memory_trial","4","definitely_new",""
"html-keyboard-response","178","400437","0.0-18.0-0.66","5930","approach_avoid_sv1","""event"",""trial"",""time""
""fullscreenenter"",""1"",""2789""
","
","
","""event"",""trial"",""time""
""fullscreenenter"",""1"",""2789""
","
","","","","","","null","<div style=""font-size:60px;"">+</div>","null","","fixation","","",""
"memory-trial","179","402456","0.0-18.0-1.66","5930","approach_avoid_sv1","""event"",""trial"",""time""
""fullscreenenter"",""1"",""2789""
","
","
","""event"",""trial"",""time""
""fullscreenenter"",""1"",""2789""
","
","","","","","","1005.5","images/train3.png","","","memory_trial","4","definitely_new",""
"html-keyboard-response","180","402978","0.0-18.0-0.67","5930","approach_avoid_sv1","""event"",""trial"",""time""
""fullscreenenter"",""1"",""2789""
","
","
","""event"",""trial"",""time""
""fullscreenenter"",""1"",""2789""
","
","","","","","","null","<div style=""font-size:60px;"">+</div>","null","","fixation","","",""
"memory-trial","181","404701","0.0-18.0-1.67","5930","approach_avoid_sv1","""event"",""trial"",""time""
""fullscreenenter"",""1"",""2789""
","
","
","""event"",""trial"",""time""
""fullscreenenter"",""1"",""2789""
","
","","","","","","704.8999999985099","images/table5.png","","","memory_trial","4","definitely_new",""
"html-keyboard-response","182","405216","0.0-18.0-0.68","5930","approach_avoid_sv1","""event"",""trial"",""time""
""fullscreenenter"",""1"",""2789""
","
","
","""event"",""trial"",""time""
""fullscreenenter"",""1"",""2789""
","
","","","","","","null","<div style=""font-size:60px;"">+</div>","null","","fixation","","",""
"memory-trial","183","407113","0.0-18.0-1.68","5930","approach_avoid_sv1","""event"",""trial"",""time""
""fullscreenenter"",""1"",""2789""
","
","
","""event"",""trial"",""time""
""fullscreenenter"",""1"",""2789""
","
","","","","","","887.3000000044703","images/goat5.png","","","memory_trial","3","maybe_new",""
"html-keyboard-response","184","407628","0.0-18.0-0.69","5930","approach_avoid_sv1","""event"",""trial"",""time""
""fullscreenenter"",""1"",""2789""
","
","
","""event"",""trial"",""time""
""fullscreenenter"",""1"",""2789""
","
","","","","","","null","<div style=""font-size:60px;"">+</div>","null","","fixation","","",""
"memory-trial","185","409515","0.0-18.0-1.69","5930","approach_avoid_sv1","""event"",""trial"",""time""
""fullscreenenter"",""1"",""2789""
","
","
","""event"",""trial"",""time""
""fullscreenenter"",""1"",""2789""
","
","","","","","","868.7999999970198","images/tree6.png","","","memory_trial","4","definitely_new",""
"html-keyboard-response","186","410026","0.0-18.0-0.70","5930","approach_avoid_sv1","""event"",""trial"",""time""
""fullscreenenter"",""1"",""2789""
","
","
","""event"",""trial"",""time""
""fullscreenenter"",""1"",""2789""
","
","","","","","","null","<div style=""font-size:60px;"">+</div>","null","","fixation","","",""
"memory-trial","187","412419","0.0-18.0-1.70","5930","approach_avoid_sv1","""event"",""trial"",""time""
""fullscreenenter"",""1"",""2789""
","
","
","""event"",""trial"",""time""
""fullscreenenter"",""1"",""2789""
","
","","","","","","1367.7999999970198","images/apple2.png","","","memory_trial","2","maybe_old",""
"html-keyboard-response","188","412927","0.0-18.0-0.71","5930","approach_avoid_sv1","""event"",""trial"",""time""
""fullscreenenter"",""1"",""2789""
","
","
","""event"",""trial"",""time""
""fullscreenenter"",""1"",""2789""
","
","","","","","","null","<div style=""font-size:60px;"">+</div>","null","","fixation","","",""
"memory-trial","189","414908","0.0-18.0-1.71","5930","approach_avoid_sv1","""event"",""trial"",""time""
""fullscreenenter"",""1"",""2789""
","
","
","""event"",""trial"",""time""
""fullscreenenter"",""1"",""2789""
","
","","","","","","973.6000000014901","images/table3.png","","","memory_trial","4","definitely_new",""
"html-keyboard-response","190","415417","0.0-18.0-0.72","5930","approach_avoid_sv1","""event"",""trial"",""time""
""fullscreenenter"",""1"",""2789""
","
","
","""event"",""trial"",""time""
""fullscreenenter"",""1"",""2789""
","
","","","","","","null","<div style=""font-size:60px;"">+</div>","null","","fixation","","",""
"memory-trial","191","418216","0.0-18.0-1.72","5930","approach_avoid_sv1","""event"",""trial"",""time""
""fullscreenenter"",""1"",""2789""
","
","
","""event"",""trial"",""time""
""fullscreenenter"",""1"",""2789""
","
","","","","","","1787.7000000029802","images/apple1.png","","","memory_trial","4","definitely_new",""
"html-keyboard-response","192","418729","0.0-18.0-0.73","5930","approach_avoid_sv1","""event"",""trial"",""time""
""fullscreenenter"",""1"",""2789""
","
","
","""event"",""trial"",""time""
""fullscreenenter"",""1"",""2789""
","
","","","","","","null","<div style=""font-size:60px;"">+</div>","null","","fixation","","",""
"memory-trial","193","420764","0.0-18.0-1.73","5930","approach_avoid_sv1","""event"",""trial"",""time""
""fullscreenenter"",""1"",""2789""
","
","
","""event"",""trial"",""time""
""fullscreenenter"",""1"",""2789""
","
","","","","","","1030.9000000059605","images/bed7.png","","","memory_trial","4","definitely_new",""
"html-keyboard-response","194","421271","0.0-18.0-0.74","5930","approach_avoid_sv1","""event"",""trial"",""time""
""fullscreenenter"",""1"",""2789""
","
","
","""event"",""trial"",""time""
""fullscreenenter"",""1"",""2789""
","
","","","","","","null","<div style=""font-size:60px;"">+</div>","null","","fixation","","",""
"memory-trial","195","423299","0.0-18.0-1.74","5930","approach_avoid_sv1","""event"",""trial"",""time""
""fullscreenenter"",""1"",""2789""
","
","
","""event"",""trial"",""time""
""fullscreenenter"",""1"",""2789""
","
","","","","","","1017.6000000014901","images/banana3.png","","","memory_trial","2","maybe_old",""
"html-keyboard-response","196","423810","0.0-18.0-0.75","5930","approach_avoid_sv1","""event"",""trial"",""time""
""fullscreenenter"",""1"",""2789""
","
","
","""event"",""trial"",""time""
""fullscreenenter"",""1"",""2789""
","
","","","","","","null","<div style=""font-size:60px;"">+</div>","null","","fixation","","",""
"memory-trial","197","426230","0.0-18.0-1.75","5930","approach_avoid_sv1","""event"",""trial"",""time""
""fullscreenenter"",""1"",""2789""
","
","
","""event"",""trial"",""time""
""fullscreenenter"",""1"",""2789""
","
","","","","","","1409.7999999970198","images/goat8.png","","","memory_trial","4","definitely_new",""
"html-keyboard-response","198","426744","0.0-18.0-0.76","5930","approach_avoid_sv1","""event"",""trial"",""time""
""fullscreenenter"",""1"",""2789""
","
","
","""event"",""trial"",""time""
""fullscreenenter"",""1"",""2789""
","
","","","","","","null","<div style=""font-size:60px;"">+</div>","null","","fixation","","",""
"memory-trial","199","429199","0.0-18.0-1.76","5930","approach_avoid_sv1","""event"",""trial"",""time""
""fullscreenenter"",""1"",""2789""
","
","
","""event"",""trial"",""time""
""fullscreenenter"",""1"",""2789""
","
","","","","","","1445.7999999970198","images/truck4.png","","","memory_trial","3","maybe_new",""
"html-keyboard-response","200","429718","0.0-18.0-0.77","5930","approach_avoid_sv1","""event"",""trial"",""time""
""fullscreenenter"",""1"",""2789""
","
","
","""event"",""trial"",""time""
""fullscreenenter"",""1"",""2789""
","
","","","","","","null","<div style=""font-size:60px;"">+</div>","null","","fixation","","",""
"memory-trial","201","432346","0.0-18.0-1.77","5930","approach_avoid_sv1","""event"",""trial"",""time""
""fullscreenenter"",""1"",""2789""
","
","
","""event"",""trial"",""time""
""fullscreenenter"",""1"",""2789""
","
","","","","","","1612.7999999970198","images/horse2.png","","","memory_trial","4","definitely_new",""
"html-keyboard-response","202","432856","0.0-18.0-0.78","5930","approach_avoid_sv1","""event"",""trial"",""time""
""fullscreenenter"",""1"",""2789""
","
","
","""event"",""trial"",""time""
""fullscreenenter"",""1"",""2789""
","
","","","","","","null","<div style=""font-size:60px;"">+</div>","null","","fixation","","",""
"memory-trial","203","435417","0.0-18.0-1.78","5930","approach_avoid_sv1","""event"",""trial"",""time""
""fullscreenenter"",""1"",""2789""
","
","
","""event"",""trial"",""time""
""fullscreenenter"",""1"",""2789""
","
","","","","","","1543.5","images/plane1.png","","","memory_trial","1","definitely_old",""
"html-keyboard-response","204","435929","0.0-18.0-0.79","5930","approach_avoid_sv1","""event"",""trial"",""time""
""fullscreenenter"",""1"",""2789""
","
","
","""event"",""trial"",""time""
""fullscreenenter"",""1"",""2789""
","
","","","","","","null","<div style=""font-size:60px;"">+</div>","null","","fixation","","",""
"memory-trial","205","437844","0.0-18.0-1.79","5930","approach_avoid_sv1","""event"",""trial"",""time""
""fullscreenenter"",""1"",""2789""
","
","
","""event"",""trial"",""time""
""fullscreenenter"",""1"",""2789""
","
","","","","","","895.5","images/boat5.png","","","memory_trial","4","definitely_new",""
"html-keyboard-response","206","438350","0.0-18.0-0.80","5930","approach_avoid_sv1","""event"",""trial"",""time""
""fullscreenenter"",""1"",""2789""
","
","
","""event"",""trial"",""time""
""fullscreenenter"",""1"",""2789""
","
","","","","","","null","<div style=""font-size:60px;"">+</div>","null","","fixation","","",""
"memory-trial","207","443086","0.0-18.0-1.80","5930","approach_avoid_sv1","""event"",""trial"",""time""
""fullscreenenter"",""1"",""2789""
","
","
","""event"",""trial"",""time""
""fullscreenenter"",""1"",""2789""
","
","","","","","","3723.5","images/train5.png","","","memory_trial","3","maybe_new",""
"html-keyboard-response","208","443599","0.0-18.0-0.81","5930","approach_avoid_sv1","""event"",""trial"",""time""
""fullscreenenter"",""1"",""2789""
","
","
","""event"",""trial"",""time""
""fullscreenenter"",""1"",""2789""
","
","","","","","","null","<div style=""font-size:60px;"">+</div>","null","","fixation","","",""
"memory-trial","209","446334","0.0-18.0-1.81","5930","approach_avoid_sv1","""event"",""trial"",""time""
""fullscreenenter"",""1"",""2789""
","
","
","""event"",""trial"",""time""
""fullscreenenter"",""1"",""2789""
","
","","","","","","1726.3999999985099","images/cow3.png","","","memory_trial","1","definitely_old",""
"html-keyboard-response","210","446844","0.0-18.0-0.82","5930","approach_avoid_sv1","""event"",""trial"",""time""
""fullscreenenter"",""1"",""2789""
","
","
","""event"",""trial"",""time""
""fullscreenenter"",""1"",""2789""
","
","","","","","","null","<div style=""font-size:60px;"">+</div>","null","","fixation","","",""
"memory-trial","211","448681","0.0-18.0-1.82","5930","approach_avoid_sv1","""event"",""trial"",""time""
""fullscreenenter"",""1"",""2789""
","
","
","""event"",""trial"",""time""
""fullscreenenter"",""1"",""2789""
","
","","","","","","822","images/plane7.png","","","memory_trial","1","definitely_old",""
"html-keyboard-response","212","449195","0.0-18.0-0.83","5930","approach_avoid_sv1","""event"",""trial"",""time""
""fullscreenenter"",""1"",""2789""
","
","
","""event"",""trial"",""time""
""fullscreenenter"",""1"",""2789""
","
","","","","","","null","<div style=""font-size:60px;"">+</div>","null","","fixation","","",""
"memory-trial","213","450232","0.0-18.0-1.83","5930","approach_avoid_sv1","""event"",""trial"",""time""
""fullscreenenter"",""1"",""2789""
","
","
","""event"",""trial"",""time""
""fullscreenenter"",""1"",""2789""
","
","","","","","","21.799999997019768","images/table1.png","","","memory_trial","2","maybe_old",""
"html-keyboard-response","214","450756","0.0-18.0-0.84","5930","approach_avoid_sv1","""event"",""trial"",""time""
""fullscreenenter"",""1"",""2789""
","
","
","""event"",""trial"",""time""
""fullscreenenter"",""1"",""2789""
","
","","","","","","null","<div style=""font-size:60px;"">+</div>","null","","fixation","","",""
"memory-trial","215","452906","0.0-18.0-1.84","5930","approach_avoid_sv1","""event"",""trial"",""time""
""fullscreenenter"",""1"",""2789""
","
","
","""event"",""trial"",""time""
""fullscreenenter"",""1"",""2789""
","
","","","","","","1134.6000000014901","images/rabbit8.png","","","memory_trial","4","definitely_new",""
"html-keyboard-response","216","453420","0.0-18.0-0.85","5930","approach_avoid_sv1","""event"",""trial"",""time""
""fullscreenenter"",""1"",""2789""
","
","
","""event"",""trial"",""time""
""fullscreenenter"",""1"",""2789""
","
","","","","","","null","<div style=""font-size:60px;"">+</div>","null","","fixation","","",""
"memory-trial","217","455700","0.0-18.0-1.85","5930","approach_avoid_sv1","""event"",""trial"",""time""
""fullscreenenter"",""1"",""2789""
","
","
","""event"",""trial"",""time""
""fullscreenenter"",""1"",""2789""
","
","","","","","","1258.3999999985099","images/rabbit7.png","","","memory_trial","4","definitely_new",""
"html-keyboard-response","218","456205","0.0-18.0-0.86","5930","approach_avoid_sv1","""event"",""trial"",""time""
""fullscreenenter"",""1"",""2789""
","
","
","""event"",""trial"",""time""
""fullscreenenter"",""1"",""2789""
","
","","","","","","null","<div style=""font-size:60px;"">+</div>","null","","fixation","","",""
"memory-trial","219","458137","0.0-18.0-1.86","5930","approach_avoid_sv1","""event"",""trial"",""time""
""fullscreenenter"",""1"",""2789""
","
","
","""event"",""trial"",""time""
""fullscreenenter"",""1"",""2789""
","
","","","","","","921.8999999985099","images/cow5.png","","","memory_trial","4","definitely_new",""
"html-keyboard-response","220","458648","0.0-18.0-0.87","5930","approach_avoid_sv1","""event"",""trial"",""time""
""fullscreenenter"",""1"",""2789""
","
","
","""event"",""trial"",""time""
""fullscreenenter"",""1"",""2789""
","
","","","","","","null","<div style=""font-size:60px;"">+</div>","null","","fixation","","",""
"memory-trial","221","460457","0.0-18.0-1.87","5930","approach_avoid_sv1","""event"",""trial"",""time""
""fullscreenenter"",""1"",""2789""
","
","
","""event"",""trial"",""time""
""fullscreenenter"",""1"",""2789""
","
","","","","","","797.1999999955297","images/sofa2.png","","","memory_trial","1","definitely_old",""
"html-keyboard-response","222","460979","0.0-18.0-0.88","5930","approach_avoid_sv1","""event"",""trial"",""time""
""fullscreenenter"",""1"",""2789""
","
","
","""event"",""trial"",""time""
""fullscreenenter"",""1"",""2789""
","
","","","","","","null","<div style=""font-size:60px;"">+</div>","null","","fixation","","",""
"memory-trial","223","463172","0.0-18.0-1.88","5930","approach_avoid_sv1","""event"",""trial"",""time""
""fullscreenenter"",""1"",""2789""
","
","
","""event"",""trial"",""time""
""fullscreenenter"",""1"",""2789""
","
","","","","","","1182.5","images/sofa7.png","","","memory_trial","4","definitely_new",""
"html-keyboard-response","224","463686","0.0-18.0-0.89","5930","approach_avoid_sv1","""event"",""trial"",""time""
""fullscreenenter"",""1"",""2789""
","
","
","""event"",""trial"",""time""
""fullscreenenter"",""1"",""2789""
","
","","","","","","null","<div style=""font-size:60px;"">+</div>","null","","fixation","","",""
"memory-trial","225","465694","0.0-18.0-1.89","5930","approach_avoid_sv1","""event"",""trial"",""time""
""fullscreenenter"",""1"",""2789""
","
","
","""event"",""trial"",""time""
""fullscreenenter"",""1"",""2789""
","
","","","","","","1000.5999999940395","images/tree2.png","","","memory_trial","4","definitely_new",""
"html-keyboard-response","226","466210","0.0-18.0-0.90","5930","approach_avoid_sv1","""event"",""trial"",""time""
""fullscreenenter"",""1"",""2789""
","
","
","""event"",""trial"",""time""
""fullscreenenter"",""1"",""2789""
","
","","","","","","null","<div style=""font-size:60px;"">+</div>","null","","fixation","","",""
"memory-trial","227","467728","0.0-18.0-1.90","5930","approach_avoid_sv1","""event"",""trial"",""time""
""fullscreenenter"",""1"",""2789""
","
","
","""event"",""trial"",""time""
""fullscreenenter"",""1"",""2789""
","
","","","","","","508.8999999985099","images/banana6.png","","","memory_trial","1","definitely_old",""
"html-keyboard-response","228","468238","0.0-18.0-0.91","5930","approach_avoid_sv1","""event"",""trial"",""time""
""fullscreenenter"",""1"",""2789""
","
","
","""event"",""trial"",""time""
""fullscreenenter"",""1"",""2789""
","
","","","","","","null","<div style=""font-size:60px;"">+</div>","null","","fixation","","",""
"memory-trial","229","470043","0.0-18.0-1.91","5930","approach_avoid_sv1","""event"",""trial"",""time""
""fullscreenenter"",""1"",""2789""
","
","
","""event"",""trial"",""time""
""fullscreenenter"",""1"",""2789""
","
","","","","","","791.8999999985099","images/truck8.png","","","memory_trial","4","definitely_new",""
"html-button-response","230","486753","0.0-18.0-2.91-0.91","5930","approach_avoid_sv1","""event"",""trial"",""time""
""fullscreenenter"",""1"",""2789""
","
","
","""event"",""trial"",""time""
""fullscreenenter"",""1"",""2789""
","
","","","","","","16708.09999999404","<p> Take a break! </p><p> Click the button to continue. </p>","0","","break","","",""
"html-keyboard-response","231","487264","0.0-18.0-0.92","5930","approach_avoid_sv1","""event"",""trial"",""time""
""fullscreenenter"",""1"",""2789""
","
","
","""event"",""trial"",""time""
""fullscreenenter"",""1"",""2789""
","
","","","","","","null","<div style=""font-size:60px;"">+</div>","null","","fixation","","",""
"memory-trial","232","490295","0.0-18.0-1.92","5930","approach_avoid_sv1","""event"",""trial"",""time""
""fullscreenenter"",""1"",""2789""
","
","
","""event"",""trial"",""time""
""fullscreenenter"",""1"",""2789""
","
","","","","","","2019.6999999955297","images/dog7.png","","","memory_trial","4","definitely_new",""
"html-keyboard-response","233","490805","0.0-18.0-0.93","5930","approach_avoid_sv1","""event"",""trial"",""time""
""fullscreenenter"",""1"",""2789""
","
","
","""event"",""trial"",""time""
""fullscreenenter"",""1"",""2789""
","
","","","","","","null","<div style=""font-size:60px;"">+</div>","null","","fixation","","",""
"memory-trial","234","492478","0.0-18.0-1.93","5930","approach_avoid_sv1","""event"",""trial"",""time""
""fullscreenenter"",""1"",""2789""
","
","
","""event"",""trial"",""time""
""fullscreenenter"",""1"",""2789""
","
","","","","","","653.5","images/dog6.png","","","memory_trial","1","definitely_old",""
"html-keyboard-response","235","492980","0.0-18.0-0.94","5930","approach_avoid_sv1","""event"",""trial"",""time""
""fullscreenenter"",""1"",""2789""
","
","
","""event"",""trial"",""time""
""fullscreenenter"",""1"",""2789""
","
","","","","","","null","<div style=""font-size:60px;"">+</div>","null","","fixation","","",""
"memory-trial","236","494887","0.0-18.0-1.94","5930","approach_avoid_sv1","""event"",""trial"",""time""
""fullscreenenter"",""1"",""2789""
","
","
","""event"",""trial"",""time""
""fullscreenenter"",""1"",""2789""
","
","","","","","","899.6000000014901","images/apple7.png","","","memory_trial","4","definitely_new",""
"html-keyboard-response","237","495411","0.0-18.0-0.95","5930","approach_avoid_sv1","""event"",""trial"",""time""
""fullscreenenter"",""1"",""2789""
","
","
","""event"",""trial"",""time""
""fullscreenenter"",""1"",""2789""
","
","","","","","","null","<div style=""font-size:60px;"">+</div>","null","","fixation","","",""
"memory-trial","238","497378","0.0-18.0-1.95","5930","approach_avoid_sv1","""event"",""trial"",""time""
""fullscreenenter"",""1"",""2789""
","
","
","""event"",""trial"",""time""
""fullscreenenter"",""1"",""2789""
","
","","","","","","955.6000000014901","images/sofa5.png","","","memory_trial","4","definitely_new",""
"html-keyboard-response","239","497886","0.0-18.0-0.96","5930","approach_avoid_sv1","""event"",""trial"",""time""
""fullscreenenter"",""1"",""2789""
","
","
","""event"",""trial"",""time""
""fullscreenenter"",""1"",""2789""
","
","","","","","","null","<div style=""font-size:60px;"">+</div>","null","","fixation","","",""
"memory-trial","240","499642","0.0-18.0-1.96","5930","approach_avoid_sv1","""event"",""trial"",""time""
""fullscreenenter"",""1"",""2789""
","
","
","""event"",""trial"",""time""
""fullscreenenter"",""1"",""2789""
","
","","","","","","745.2000000029802","images/cactus3.png","","","memory_trial","1","definitely_old",""
"html-keyboard-response","241","500148","0.0-18.0-0.97","5930","approach_avoid_sv1","""event"",""trial"",""time""
""fullscreenenter"",""1"",""2789""
","
","
","""event"",""trial"",""time""
""fullscreenenter"",""1"",""2789""
","
","","","","","","null","<div style=""font-size:60px;"">+</div>","null","","fixation","","",""
"memory-trial","242","501556","0.0-18.0-1.97","5930","approach_avoid_sv1","""event"",""trial"",""time""
""fullscreenenter"",""1"",""2789""
","
","
","""event"",""trial"",""time""
""fullscreenenter"",""1"",""2789""
","
","","","","","","383.5","images/horse7.png","","","memory_trial","4","definitely_new",""
"html-keyboard-response","243","502067","0.0-18.0-0.98","5930","approach_avoid_sv1","""event"",""trial"",""time""
""fullscreenenter"",""1"",""2789""
","
","
","""event"",""trial"",""time""
""fullscreenenter"",""1"",""2789""
","
","","","","","","null","<div style=""font-size:60px;"">+</div>","null","","fixation","","",""
"memory-trial","244","503081","0.0-18.0-1.98","5930","approach_avoid_sv1","""event"",""trial"",""time""
""fullscreenenter"",""1"",""2789""
","
","
","""event"",""trial"",""time""
""fullscreenenter"",""1"",""2789""
","
","","","","","","2.899999998509884","images/sheep1.png","","","memory_trial","1","definitely_old",""
"html-keyboard-response","245","503596","0.0-18.0-0.99","5930","approach_avoid_sv1","""event"",""trial"",""time""
""fullscreenenter"",""1"",""2789""
","
","
","""event"",""trial"",""time""
""fullscreenenter"",""1"",""2789""
","
","","","","","","null","<div style=""font-size:60px;"">+</div>","null","","fixation","","",""
"memory-trial","246","505066","0.0-18.0-1.99","5930","approach_avoid_sv1","""event"",""trial"",""time""
""fullscreenenter"",""1"",""2789""
","
","
","""event"",""trial"",""time""
""fullscreenenter"",""1"",""2789""
","
","","","","","","453","images/orange8.png","","","memory_trial","3","maybe_new",""
"html-keyboard-response","247","505580","0.0-18.0-0.100","5930","approach_avoid_sv1","""event"",""trial"",""time""
""fullscreenenter"",""1"",""2789""
","
","
","""event"",""trial"",""time""
""fullscreenenter"",""1"",""2789""
","
","","","","","","null","<div style=""font-size:60px;"">+</div>","null","","fixation","","",""
"memory-trial","248","507365","0.0-18.0-1.100","5930","approach_avoid_sv1","""event"",""trial"",""time""
""fullscreenenter"",""1"",""2789""
","
","
","""event"",""trial"",""time""
""fullscreenenter"",""1"",""2789""
","
","","","","","","780.5","images/flower7.png","","","memory_trial","2","maybe_old",""
"html-keyboard-response","249","507870","0.0-18.0-0.101","5930","approach_avoid_sv1","""event"",""trial"",""time""
""fullscreenenter"",""1"",""2789""
","
","
","""event"",""trial"",""time""
""fullscreenenter"",""1"",""2789""
","
","","","","","","null","<div style=""font-size:60px;"">+</div>","null","","fixation","","",""
"memory-trial","250","509682","0.0-18.0-1.101","5930","approach_avoid_sv1","""event"",""trial"",""time""
""fullscreenenter"",""1"",""2789""
","
","
","""event"",""trial"",""time""
""fullscreenenter"",""1"",""2789""
","
","","","","","","801.6999999955297","images/sofa4.png","","","memory_trial","4","definitely_new",""
"html-keyboard-response","251","510190","0.0-18.0-0.102","5930","approach_avoid_sv1","""event"",""trial"",""time""
""fullscreenenter"",""1"",""2789""
","
","
","""event"",""trial"",""time""
""fullscreenenter"",""1"",""2789""
","
","","","","","","null","<div style=""font-size:60px;"">+</div>","null","","fixation","","",""
"memory-trial","252","512165","0.0-18.0-1.102","5930","approach_avoid_sv1","""event"",""trial"",""time""
""fullscreenenter"",""1"",""2789""
","
","
","""event"",""trial"",""time""
""fullscreenenter"",""1"",""2789""
","
","","","","","","965.2999999970198","images/truck6.png","","","memory_trial","4","definitely_new",""
"html-keyboard-response","253","512669","0.0-18.0-0.103","5930","approach_avoid_sv1","""event"",""trial"",""time""
""fullscreenenter"",""1"",""2789""
","
","
","""event"",""trial"",""time""
""fullscreenenter"",""1"",""2789""
","
","","","","","","null","<div style=""font-size:60px;"">+</div>","null","","fixation","","",""
"memory-trial","254","515045","0.0-18.0-1.103","5930","approach_avoid_sv1","""event"",""trial"",""time""
""fullscreenenter"",""1"",""2789""
","
","
","""event"",""trial"",""time""
""fullscreenenter"",""1"",""2789""
","
","","","","","","1357.8000000044703","images/boat7.png","","","memory_trial","1","definitely_old",""
"html-keyboard-response","255","515551","0.0-18.0-0.104","5930","approach_avoid_sv1","""event"",""trial"",""time""
""fullscreenenter"",""1"",""2789""
","
","
","""event"",""trial"",""time""
""fullscreenenter"",""1"",""2789""
","
","","","","","","null","<div style=""font-size:60px;"">+</div>","null","","fixation","","",""
"memory-trial","256","517437","0.0-18.0-1.104","5930","approach_avoid_sv1","""event"",""trial"",""time""
""fullscreenenter"",""1"",""2789""
","
","
","""event"",""trial"",""time""
""fullscreenenter"",""1"",""2789""
","
","","","","","","879.8999999985099","images/sheep4.png","","","memory_trial","4","definitely_new",""
"html-keyboard-response","257","517946","0.0-18.0-0.105","5930","approach_avoid_sv1","""event"",""trial"",""time""
""fullscreenenter"",""1"",""2789""
","
","
","""event"",""trial"",""time""
""fullscreenenter"",""1"",""2789""
","
","","","","","","null","<div style=""font-size:60px;"">+</div>","null","","fixation","","",""
"memory-trial","258","519739","0.0-18.0-1.105","5930","approach_avoid_sv1","""event"",""trial"",""time""
""fullscreenenter"",""1"",""2789""
","
","
","""event"",""trial"",""time""
""fullscreenenter"",""1"",""2789""
","
","","","","","","769","images/rodent4.png","","","memory_trial","4","definitely_new",""
"html-keyboard-response","259","520248","0.0-18.0-0.106","5930","approach_avoid_sv1","""event"",""trial"",""time""
""fullscreenenter"",""1"",""2789""
","
","
","""event"",""trial"",""time""
""fullscreenenter"",""1"",""2789""
","
","","","","","","null","<div style=""font-size:60px;"">+</div>","null","","fixation","","",""
"memory-trial","260","522249","0.0-18.0-1.106","5930","approach_avoid_sv1","""event"",""trial"",""time""
""fullscreenenter"",""1"",""2789""
","
","
","""event"",""trial"",""time""
""fullscreenenter"",""1"",""2789""
","
","","","","","","988.6999999955297","images/boat4.png","","","memory_trial","4","definitely_new",""
"html-keyboard-response","261","522769","0.0-18.0-0.107","5930","approach_avoid_sv1","""event"",""trial"",""time""
""fullscreenenter"",""1"",""2789""
","
","
","""event"",""trial"",""time""
""fullscreenenter"",""1"",""2789""
","
","","","","","","null","<div style=""font-size:60px;"">+</div>","null","","fixation","","",""
"memory-trial","262","524810","0.0-18.0-1.107","5930","approach_avoid_sv1","""event"",""trial"",""time""
""fullscreenenter"",""1"",""2789""
","
","
","""event"",""trial"",""time""
""fullscreenenter"",""1"",""2789""
","
","","","","","","1025.5","images/cat5.png","","","memory_trial","3","maybe_new",""
"html-keyboard-response","263","525318","0.0-18.0-0.108","5930","approach_avoid_sv1","""event"",""trial"",""time""
""fullscreenenter"",""1"",""2789""
","
","
","""event"",""trial"",""time""
""fullscreenenter"",""1"",""2789""
","
","","","","","","null","<div style=""font-size:60px;"">+</div>","null","","fixation","","",""
"memory-trial","264","527061","0.0-18.0-1.108","5930","approach_avoid_sv1","""event"",""trial"",""time""
""fullscreenenter"",""1"",""2789""
","
","
","""event"",""trial"",""time""
""fullscreenenter"",""1"",""2789""
","
","","","","","","732.5","images/bed2.png","","","memory_trial","2","maybe_old",""
"html-keyboard-response","265","527576","0.0-18.0-0.109","5930","approach_avoid_sv1","""event"",""trial"",""time""
""fullscreenenter"",""1"",""2789""
","
","
","""event"",""trial"",""time""
""fullscreenenter"",""1"",""2789""
","
","","","","","","null","<div style=""font-size:60px;"">+</div>","null","","fixation","","",""
"memory-trial","266","529348","0.0-18.0-1.109","5930","approach_avoid_sv1","""event"",""trial"",""time""
""fullscreenenter"",""1"",""2789""
","
","
","""event"",""trial"",""time""
""fullscreenenter"",""1"",""2789""
","
","","","","","","758.6000000014901","images/straw7.png","","","memory_trial","4","definitely_new",""
"html-keyboard-response","267","529860","0.0-18.0-0.110","5930","approach_avoid_sv1","""event"",""trial"",""time""
""fullscreenenter"",""1"",""2789""
","
","
","""event"",""trial"",""time""
""fullscreenenter"",""1"",""2789""
","
","","","","","","null","<div style=""font-size:60px;"">+</div>","null","","fixation","","",""
"memory-trial","268","531627","0.0-18.0-1.110","5930","approach_avoid_sv1","""event"",""trial"",""time""
""fullscreenenter"",""1"",""2789""
","
","
","""event"",""trial"",""time""
""fullscreenenter"",""1"",""2789""
","
","","","","","","754.2000000029802","images/rodent3.png","","","memory_trial","4","definitely_new",""
"html-keyboard-response","269","532141","0.0-18.0-0.111","5930","approach_avoid_sv1","""event"",""trial"",""time""
""fullscreenenter"",""1"",""2789""
","
","
","""event"",""trial"",""time""
""fullscreenenter"",""1"",""2789""
","
","","","","","","null","<div style=""font-size:60px;"">+</div>","null","","fixation","","",""
"memory-trial","270","535040","0.0-18.0-1.111","5930","approach_avoid_sv1","""event"",""trial"",""time""
""fullscreenenter"",""1"",""2789""
","
","
","""event"",""trial"",""time""
""fullscreenenter"",""1"",""2789""
","
","","","","","","1888.6000000014901","images/train1.png","","","memory_trial","1","definitely_old",""
"html-keyboard-response","271","535556","0.0-18.0-0.112","5930","approach_avoid_sv1","""event"",""trial"",""time""
""fullscreenenter"",""1"",""2789""
","
","
","""event"",""trial"",""time""
""fullscreenenter"",""1"",""2789""
","
","","","","","","null","<div style=""font-size:60px;"">+</div>","null","","fixation","","",""
"memory-trial","272","537446","0.0-18.0-1.112","5930","approach_avoid_sv1","""event"",""trial"",""time""
""fullscreenenter"",""1"",""2789""
","
","
","""event"",""trial"",""time""
""fullscreenenter"",""1"",""2789""
","
","","","","","","869.8999999985099","images/truck3.png","","","memory_trial","4","definitely_new",""
"html-keyboard-response","273","537959","0.0-18.0-0.113","5930","approach_avoid_sv1","""event"",""trial"",""time""
""fullscreenenter"",""1"",""2789""
","
","
","""event"",""trial"",""time""
""fullscreenenter"",""1"",""2789""
","
","","","","","","null","<div style=""font-size:60px;"">+</div>","null","","fixation","","",""
"memory-trial","274","540075","0.0-18.0-1.113","5930","approach_avoid_sv1","""event"",""trial"",""time""
""fullscreenenter"",""1"",""2789""
","
","
","""event"",""trial"",""time""
""fullscreenenter"",""1"",""2789""
","
","","","","","","1101.8999999985099","images/orange6.png","","","memory_trial","3","maybe_new",""
"html-keyboard-response","275","540592","0.0-18.0-0.114","5930","approach_avoid_sv1","""event"",""trial"",""time""
""fullscreenenter"",""1"",""2789""
","
","
","""event"",""trial"",""time""
""fullscreenenter"",""1"",""2789""
","
","","","","","","null","<div style=""font-size:60px;"">+</div>","null","","fixation","","",""
"memory-trial","276","542760","0.0-18.0-1.114","5930","approach_avoid_sv1","""event"",""trial"",""time""
""fullscreenenter"",""1"",""2789""
","
","
","""event"",""trial"",""time""
""fullscreenenter"",""1"",""2789""
","
","","","","","","1159.3999999985099","images/bush2.png","","","memory_trial","1","definitely_old",""
"html-keyboard-response","277","543269","0.0-18.0-0.115","5930","approach_avoid_sv1","""event"",""trial"",""time""
""fullscreenenter"",""1"",""2789""
","
","
","""event"",""trial"",""time""
""fullscreenenter"",""1"",""2789""
","
","","","","","","null","<div style=""font-size:60px;"">+</div>","null","","fixation","","",""
"memory-trial","278","545247","0.0-18.0-1.115","5930","approach_avoid_sv1","""event"",""trial"",""time""
""fullscreenenter"",""1"",""2789""
","
","
","""event"",""trial"",""time""
""fullscreenenter"",""1"",""2789""
","
","","","","","","964.2000000029802","images/chair5.png","","","memory_trial","4","definitely_new",""
"html-keyboard-response","279","545768","0.0-18.0-0.116","5930","approach_avoid_sv1","""event"",""trial"",""time""
""fullscreenenter"",""1"",""2789""
","
","
","""event"",""trial"",""time""
""fullscreenenter"",""1"",""2789""
","
","","","","","","null","<div style=""font-size:60px;"">+</div>","null","","fixation","","",""
"memory-trial","280","547670","0.0-18.0-1.116","5930","approach_avoid_sv1","""event"",""trial"",""time""
""fullscreenenter"",""1"",""2789""
","
","
","""event"",""trial"",""time""
""fullscreenenter"",""1"",""2789""
","
","","","","","","890.5","images/cow6.png","","","memory_trial","3","maybe_new",""
"html-keyboard-response","281","548180","0.0-18.0-0.117","5930","approach_avoid_sv1","""event"",""trial"",""time""
""fullscreenenter"",""1"",""2789""
","
","
","""event"",""trial"",""time""
""fullscreenenter"",""1"",""2789""
","
","","","","","","null","<div style=""font-size:60px;"">+</div>","null","","fixation","","",""
"memory-trial","282","550623","0.0-18.0-1.117","5930","approach_avoid_sv1","""event"",""trial"",""time""
""fullscreenenter"",""1"",""2789""
","
","
","""event"",""trial"",""time""
""fullscreenenter"",""1"",""2789""
","
","","","","","","1419.4000000059605","images/rodent6.png","","","memory_trial","1","definitely_old",""
"html-keyboard-response","283","551136","0.0-18.0-0.118","5930","approach_avoid_sv1","""event"",""trial"",""time""
""fullscreenenter"",""1"",""2789""
","
","
","""event"",""trial"",""time""
""fullscreenenter"",""1"",""2789""
","
","","","","","","null","<div style=""font-size:60px;"">+</div>","null","","fixation","","",""
"memory-trial","284","552978","0.0-18.0-1.118","5930","approach_avoid_sv1","""event"",""trial"",""time""
""fullscreenenter"",""1"",""2789""
","
","
","""event"",""trial"",""time""
""fullscreenenter"",""1"",""2789""
","
","","","","","","825.7000000029802","images/sheep5.png","","","memory_trial","2","maybe_old",""
"html-keyboard-response","285","553487","0.0-18.0-0.119","5930","approach_avoid_sv1","""event"",""trial"",""time""
""fullscreenenter"",""1"",""2789""
","
","
","""event"",""trial"",""time""
""fullscreenenter"",""1"",""2789""
","
","","","","","","null","<div style=""font-size:60px;"">+</div>","null","","fixation","","",""
"memory-trial","286","555199","0.0-18.0-1.119","5930","approach_avoid_sv1","""event"",""trial"",""time""
""fullscreenenter"",""1"",""2789""
","
","
","""event"",""trial"",""time""
""fullscreenenter"",""1"",""2789""
","
","","","","","","703.3999999985099","images/plane6.png","","","memory_trial","4","definitely_new",""
"html-keyboard-response","287","555715","0.0-18.0-0.120","5930","approach_avoid_sv1","""event"",""trial"",""time""
""fullscreenenter"",""1"",""2789""
","
","
","""event"",""trial"",""time""
""fullscreenenter"",""1"",""2789""
","
","","","","","","null","<div style=""font-size:60px;"">+</div>","null","","fixation","","",""
"memory-trial","288","557784","0.0-18.0-1.120","5930","approach_avoid_sv1","""event"",""trial"",""time""
""fullscreenenter"",""1"",""2789""
","
","
","""event"",""trial"",""time""
""fullscreenenter"",""1"",""2789""
","
","","","","","","1062.1999999955297","images/sheep2.png","","","memory_trial","4","definitely_new",""
"html-keyboard-response","289","558297","0.0-18.0-0.121","5930","approach_avoid_sv1","""event"",""trial"",""time""
""fullscreenenter"",""1"",""2789""
","
","
","""event"",""trial"",""time""
""fullscreenenter"",""1"",""2789""
","
","","","","","","null","<div style=""font-size:60px;"">+</div>","null","","fixation","","",""
"memory-trial","290","560942","0.0-18.0-1.121","5930","approach_avoid_sv1","""event"",""trial"",""time""
""fullscreenenter"",""1"",""2789""
","
","
","""event"",""trial"",""time""
""fullscreenenter"",""1"",""2789""
","
","","","","","","1632.1000000014901","images/goat6.png","","","memory_trial","4","definitely_new",""
"html-keyboard-response","291","561458","0.0-18.0-0.122","5930","approach_avoid_sv1","""event"",""trial"",""time""
""fullscreenenter"",""1"",""2789""
","
","
","""event"",""trial"",""time""
""fullscreenenter"",""1"",""2789""
","
","","","","","","null","<div style=""font-size:60px;"">+</div>","null","","fixation","","",""
"memory-trial","292","563506","0.0-18.0-1.122","5930","approach_avoid_sv1","""event"",""trial"",""time""
""fullscreenenter"",""1"",""2789""
","
","
","""event"",""trial"",""time""
""fullscreenenter"",""1"",""2789""
","
","","","","","","1031.3000000044703","images/goat1.png","","","memory_trial","1","definitely_old",""
"html-keyboard-response","293","564027","0.0-18.0-0.123","5930","approach_avoid_sv1","""event"",""trial"",""time""
""fullscreenenter"",""1"",""2789""
","
","
","""event"",""trial"",""time""
""fullscreenenter"",""1"",""2789""
","
","","","","","","null","<div style=""font-size:60px;"">+</div>","null","","fixation","","",""
"memory-trial","294","566319","0.0-18.0-1.123","5930","approach_avoid_sv1","""event"",""trial"",""time""
""fullscreenenter"",""1"",""2789""
","
","
","""event"",""trial"",""time""
""fullscreenenter"",""1"",""2789""
","
","","","","","","1274.2000000029802","images/cow7.png","","","memory_trial","4","definitely_new",""
"html-keyboard-response","295","566838","0.0-18.0-0.124","5930","approach_avoid_sv1","""event"",""trial"",""time""
""fullscreenenter"",""1"",""2789""
","
","
","""event"",""trial"",""time""
""fullscreenenter"",""1"",""2789""
","
","","","","","","null","<div style=""font-size:60px;"">+</div>","null","","fixation","","",""
"memory-trial","296","568467","0.0-18.0-1.124","5930","approach_avoid_sv1","""event"",""trial"",""time""
""fullscreenenter"",""1"",""2789""
","
","
","""event"",""trial"",""time""
""fullscreenenter"",""1"",""2789""
","
","","","","","","619.3999999985099","images/straw3.png","","","memory_trial","3","maybe_new",""
