"trial_type","trial_index","time_elapsed","internal_node_id","subject_id","task_version","interactions","blur_events","focus_events","fullscreenenter_events","fullscreenexit_events","success","timeout","failed_images","failed_audio","failed_video","rt","stimulus","response","button_pressed","task_part","key_press","answer","correct"
"pavlovia","0","6","0.0-0.0","5969","approach_avoid_sv1","""event"",""trial"",""time""
""fullscreenenter"",""1"",""2255""
","
","
","""event"",""trial"",""time""
""fullscreenenter"",""1"",""2255""
","
","","","","","","","","","","","","",""
"fullscreen","1","3245","0.0-1.0","5969","approach_avoid_sv1","""event"",""trial"",""time""
""fullscreenenter"",""1"",""2255""
","
","
","""event"",""trial"",""time""
""fullscreenenter"",""1"",""2255""
","
","true","","","","","","","","","","","",""
"preload","2","3660","0.0-2.0","5969","approach_avoid_sv1","""event"",""trial"",""time""
""fullscreenenter"",""1"",""2255""
","
","
","""event"",""trial"",""time""
""fullscreenenter"",""1"",""2255""
","
","true","false","[]","[]","[]","","","","","","","",""
"preload","3","4073","0.0-3.0","5969","approach_avoid_sv1","""event"",""trial"",""time""
""fullscreenenter"",""1"",""2255""
","
","
","""event"",""trial"",""time""
""fullscreenenter"",""1"",""2255""
","
","true","false","[]","[]","[]","","","","","","","",""
"preload","4","4161","0.0-4.0","5969","approach_avoid_sv1","""event"",""trial"",""time""
""fullscreenenter"",""1"",""2255""
","
","
","""event"",""trial"",""time""
""fullscreenenter"",""1"",""2255""
","
","true","false","[]","[]","[]","","","","","","","",""
"audio-keyboard-response","5","5480","0.0-5.0","5969","approach_avoid_sv1","""event"",""trial"",""time""
""fullscreenenter"",""1"",""2255""
","
","
","""event"",""trial"",""time""
""fullscreenenter"",""1"",""2255""
","
","","","","","","1312","audio/beep_loop.wav"," ","","","","",""
"audio-button-response","6","6799","0.0-6.0","5969","approach_avoid_sv1","""event"",""trial"",""time""
""fullscreenenter"",""1"",""2255""
","
","
","""event"",""trial"",""time""
""fullscreenenter"",""1"",""2255""
","
","","","","","","1323","audio/turtle.wav","3","","","","",""
"audio-button-response","7","8373","0.0-7.0","5969","approach_avoid_sv1","""event"",""trial"",""time""
""fullscreenenter"",""1"",""2255""
","
","
","""event"",""trial"",""time""
""fullscreenenter"",""1"",""2255""
","
","","","","","","565","audio/shark.wav","2","","","","",""
"preload","8","13528","0.0-8.0","5969","approach_avoid_sv1","""event"",""trial"",""time""
""fullscreenenter"",""1"",""2255""
","
","
","""event"",""trial"",""time""
""fullscreenenter"",""1"",""2255""
","
","true","false","[]","[]","[]","","","","","","","",""
"learning-instructions","9","19496","0.0-9.0-0.0","5969","approach_avoid_sv1","""event"",""trial"",""time""
""fullscreenenter"",""1"",""2255""
","
","
","""event"",""trial"",""time""
""fullscreenenter"",""1"",""2255""
","
","","","","","","1486.600000000035","<p> Welcome back! </p><p> Last week, you had to make choices about lots of different items.  </p>","","0","instructions","","",""
"learning-instructions","10","24305","0.0-9.0-0.1","5969","approach_avoid_sv1","""event"",""trial"",""time""
""fullscreenenter"",""1"",""2255""
","
","
","""event"",""trial"",""time""
""fullscreenenter"",""1"",""2255""
","
","","","","","","695.6999999999534","<p> Today, we are going to ask you to try to remember all the items. </p>","","0","instructions","","",""
"learning-instructions","11","34887","0.0-9.0-0.2","5969","approach_avoid_sv1","""event"",""trial"",""time""
""fullscreenenter"",""1"",""2255""
","
","
","""event"",""trial"",""time""
""fullscreenenter"",""1"",""2255""
","
","","","","","","452","<p> On every trial, you will see an image. </p><p> The image may be an OLD image you saw during the games last week or it may be a NEW image that was not presented. </p>","","0","instructions","","",""
"learning-instructions","12","43806","0.0-9.0-0.3","5969","approach_avoid_sv1","""event"",""trial"",""time""
""fullscreenenter"",""1"",""2255""
","
","
","""event"",""trial"",""time""
""fullscreenenter"",""1"",""2255""
","
","","","","","","420.0999999999767","<p> You need to select whether the image is:  </p><p>  'Definitely old', 'Maybe old', 'Maybe new', or 'Definitely new.'  </p><div class=""mem-choice-instructions-grid""><div class=""choice-option"" id=""choice-option-1"" ><img src=""images/definitely_old_1.png"" id=""choice-option-img-1"" class=""choice-option-img"" stage=""1""></div><div class=""choice-option"" id=""choice-option-2"" ><img src=""images/maybe_old_1.png"" id=""choice-option-img-2"" class=""choice-option-img"" stage=""1""></div><div class=""choice-option"" id=""choice-option-3"" ><img src=""images/maybe_new_1.png"" id=""choice-option-img-3"" class=""choice-option-img"" stage=""1""></div><div class=""choice-option"" id=""choice-option-4"" > <img src=""images/definitely_new_1.png"" id=""choice-option-img-4"" class=""choice-option-img"" stage=""1""></div></div>","","0","instructions","","",""
"learning-instructions","13","51061","0.0-9.0-0.4","5969","approach_avoid_sv1","""event"",""trial"",""time""
""fullscreenenter"",""1"",""2255""
","
","
","""event"",""trial"",""time""
""fullscreenenter"",""1"",""2255""
","
","","","","","","741.6000000000349","<p> You should use the 1, 2, 3, and 4 keys to make your responses.  </p><div class=""mem-choice-instructions-grid""><div class=""choice-option"" id=""choice-option-1"" ><img src=""images/definitely_old.png"" id=""choice-option-img-1"" class=""choice-option-img"" stage=""1""></div><div class=""choice-option"" id=""choice-option-2"" ><img src=""images/maybe_old.png"" id=""choice-option-img-2"" class=""choice-option-img"" stage=""1""></div><div class=""choice-option"" id=""choice-option-3"" ><img src=""images/maybe_new.png"" id=""choice-option-img-3"" class=""choice-option-img"" stage=""1""></div><div class=""choice-option"" id=""choice-option-4"" > <img src=""images/definitely_new.png"" id=""choice-option-img-4"" class=""choice-option-img"" stage=""1""></div></div>","","0","instructions","","",""
"learning-instructions","14","57992","0.0-9.0-0.5","5969","approach_avoid_sv1","""event"",""trial"",""time""
""fullscreenenter"",""1"",""2255""
","
","
","""event"",""trial"",""time""
""fullscreenenter"",""1"",""2255""
","
","","","","","","601.5","<p> You will have 10 seconds to make each response.  </p><p>  Make sure to respond before time runs out! </p>","","0","instructions","","",""
"learning-instructions","15","65475","0.0-9.0-0.6","5969","approach_avoid_sv1","""event"",""trial"",""time""
""fullscreenenter"",""1"",""2255""
","
","
","""event"",""trial"",""time""
""fullscreenenter"",""1"",""2255""
","
","","","","","","404.29999999998836","<p> Today, you will see each image ONCE only.  </p><p>  That means none of the images will repeat. </p>","","0","instructions","","",""
"learning-instructions","16","78611","0.0-9.0-0.7","5969","approach_avoid_sv1","""event"",""trial"",""time""
""fullscreenenter"",""1"",""2255""
","
","
","""event"",""trial"",""time""
""fullscreenenter"",""1"",""2255""
","
","","","","","","463.29999999998836","<p> Before you play the real game, it is time to practice. </p><p>  Just like in the real game, some of the images in the practice will be ones you have seen before. </p><p>  Others will be entirely new. </p>","","0","instructions","","",""
"html-button-response","17","80607","0.0-10.0","5969","approach_avoid_sv1","""event"",""trial"",""time""
""fullscreenenter"",""1"",""2255""
","
","
","""event"",""trial"",""time""
""fullscreenenter"",""1"",""2255""
","
","","","","","","1887","<p> Ready to practice? </p><p> Remember, use the 1, 2, 3, and 4 keys to make your responses. </p>","0","","instructions","","",""
"html-keyboard-response","18","81213","0.0-11.0-0.0","5969","approach_avoid_sv1","""event"",""trial"",""time""
""fullscreenenter"",""1"",""2255""
","
","
","""event"",""trial"",""time""
""fullscreenenter"",""1"",""2255""
","
","","","","","","null","<div style=""font-size:60px;"">+</div>","null","","fixation","","",""
"memory-trial","19","83742","0.0-11.0-1.0","5969","approach_avoid_sv1","""event"",""trial"",""time""
""fullscreenenter"",""1"",""2255""
","
","
","""event"",""trial"",""time""
""fullscreenenter"",""1"",""2255""
","
","","","","","","1516.2999999999884","images/racket5.png","","","practice","2","maybe_old",""
"html-keyboard-response","20","84245","0.0-11.0-0.1","5969","approach_avoid_sv1","""event"",""trial"",""time""
""fullscreenenter"",""1"",""2255""
","
","
","""event"",""trial"",""time""
""fullscreenenter"",""1"",""2255""
","
","","","","","","null","<div style=""font-size:60px;"">+</div>","null","","fixation","","",""
"memory-trial","21","86501","0.0-11.0-1.1","5969","approach_avoid_sv1","""event"",""trial"",""time""
""fullscreenenter"",""1"",""2255""
","
","
","""event"",""trial"",""time""
""fullscreenenter"",""1"",""2255""
","
","","","","","","1246.5999999999767","images/ball3.png","","","practice","1","definitely_old",""
"html-keyboard-response","22","87006","0.0-11.0-0.2","5969","approach_avoid_sv1","""event"",""trial"",""time""
""fullscreenenter"",""1"",""2255""
","
","
","""event"",""trial"",""time""
""fullscreenenter"",""1"",""2255""
","
","","","","","","null","<div style=""font-size:60px;"">+</div>","null","","fixation","","",""
"memory-trial","23","89646","0.0-11.0-1.2","5969","approach_avoid_sv1","""event"",""trial"",""time""
""fullscreenenter"",""1"",""2255""
","
","
","""event"",""trial"",""time""
""fullscreenenter"",""1"",""2255""
","
","","","","","","1637","images/ball5.png","","","practice","3","maybe_new",""
"html-keyboard-response","24","90149","0.0-11.0-0.3","5969","approach_avoid_sv1","""event"",""trial"",""time""
""fullscreenenter"",""1"",""2255""
","
","
","""event"",""trial"",""time""
""fullscreenenter"",""1"",""2255""
","
","","","","","","null","<div style=""font-size:60px;"">+</div>","null","","fixation","","",""
"memory-trial","25","93317","0.0-11.0-1.3","5969","approach_avoid_sv1","""event"",""trial"",""time""
""fullscreenenter"",""1"",""2255""
","
","
","""event"",""trial"",""time""
""fullscreenenter"",""1"",""2255""
","
","","","","","","2158.5","images/racket1.png","","","practice","3","maybe_new",""
"html-keyboard-response","26","93821","0.0-11.0-0.4","5969","approach_avoid_sv1","""event"",""trial"",""time""
""fullscreenenter"",""1"",""2255""
","
","
","""event"",""trial"",""time""
""fullscreenenter"",""1"",""2255""
","
","","","","","","null","<div style=""font-size:60px;"">+</div>","null","","fixation","","",""
"memory-trial","27","96597","0.0-11.0-1.4","5969","approach_avoid_sv1","""event"",""trial"",""time""
""fullscreenenter"",""1"",""2255""
","
","
","""event"",""trial"",""time""
""fullscreenenter"",""1"",""2255""
","
","","","","","","1769","images/ball1.png","","","practice","2","maybe_old",""
"html-keyboard-response","28","97102","0.0-11.0-0.5","5969","approach_avoid_sv1","""event"",""trial"",""time""
""fullscreenenter"",""1"",""2255""
","
","
","""event"",""trial"",""time""
""fullscreenenter"",""1"",""2255""
","
","","","","","","null","<div style=""font-size:60px;"">+</div>","null","","fixation","","",""
"memory-trial","29","99237","0.0-11.0-1.5","5969","approach_avoid_sv1","""event"",""trial"",""time""
""fullscreenenter"",""1"",""2255""
","
","
","""event"",""trial"",""time""
""fullscreenenter"",""1"",""2255""
","
","","","","","","1127.7000000000116","images/ball2.png","","","practice","3","maybe_new",""
"html-keyboard-response","30","99741","0.0-11.0-0.6","5969","approach_avoid_sv1","""event"",""trial"",""time""
""fullscreenenter"",""1"",""2255""
","
","
","""event"",""trial"",""time""
""fullscreenenter"",""1"",""2255""
","
","","","","","","null","<div style=""font-size:60px;"">+</div>","null","","fixation","","",""
"memory-trial","31","102062","0.0-11.0-1.6","5969","approach_avoid_sv1","""event"",""trial"",""time""
""fullscreenenter"",""1"",""2255""
","
","
","""event"",""trial"",""time""
""fullscreenenter"",""1"",""2255""
","
","","","","","","1312.899999999965","images/racket3.png","","","practice","1","definitely_old",""
"html-keyboard-response","32","102565","0.0-11.0-0.7","5969","approach_avoid_sv1","""event"",""trial"",""time""
""fullscreenenter"",""1"",""2255""
","
","
","""event"",""trial"",""time""
""fullscreenenter"",""1"",""2255""
","
","","","","","","null","<div style=""font-size:60px;"">+</div>","null","","fixation","","",""
"memory-trial","33","104245","0.0-11.0-1.7","5969","approach_avoid_sv1","""event"",""trial"",""time""
""fullscreenenter"",""1"",""2255""
","
","
","""event"",""trial"",""time""
""fullscreenenter"",""1"",""2255""
","
","","","","","","674.8999999999651","images/racket2.png","","","practice","1","definitely_old",""
"learning-instructions","34","112367","0.0-12.0-0.0","5969","approach_avoid_sv1","""event"",""trial"",""time""
""fullscreenenter"",""1"",""2255""
""fullscreenexit"",""35"",""129754""
""blur"",""35"",""133332""
""focus"",""35"",""137941""
","""event"",""trial"",""time""
""blur"",""35"",""133332""
","""event"",""trial"",""time""
""focus"",""35"",""137941""
","""event"",""trial"",""time""
""fullscreenenter"",""1"",""2255""
","""event"",""trial"",""time""
""fullscreenexit"",""35"",""129754""
","","","","","","821.4000000000233","<p> Great! You have completed the practice. </p><p> Before you start, we're going to ask you a few questions about how the game works.  </p>","","0","instructions","","",""
"preload","35","160297","0.0-13.0","5969","approach_avoid_sv1","""event"",""trial"",""time""
""fullscreenenter"",""1"",""2255""
""fullscreenexit"",""35"",""129754""
""blur"",""35"",""133332""
""focus"",""35"",""137941""
","""event"",""trial"",""time""
""blur"",""35"",""133332""
","""event"",""trial"",""time""
""focus"",""35"",""137941""
","""event"",""trial"",""time""
""fullscreenenter"",""1"",""2255""
","""event"",""trial"",""time""
""fullscreenexit"",""35"",""129754""
","true","false","[]","[]","[]","","","","","","","",""
"comp-q","36","167148","0.0-14.0-0.0","5969","approach_avoid_sv1","""event"",""trial"",""time""
""fullscreenenter"",""1"",""2255""
""fullscreenexit"",""35"",""129754""
""blur"",""35"",""133332""
""focus"",""35"",""137941""
","""event"",""trial"",""time""
""blur"",""35"",""133332""
","""event"",""trial"",""time""
""focus"",""35"",""137941""
","""event"",""trial"",""time""
""fullscreenenter"",""1"",""2255""
","""event"",""trial"",""time""
""fullscreenexit"",""35"",""129754""
","","","","","","933.0999999999767","<p> <b> True or False? </b> </p><p> In this game, you will only see each image once. </p>","","0","comp_question","","","true"
"comp-q","37","174430","0.0-14.0-1.0","5969","approach_avoid_sv1","""event"",""trial"",""time""
""fullscreenenter"",""1"",""2255""
""fullscreenexit"",""35"",""129754""
""blur"",""35"",""133332""
""focus"",""35"",""137941""
","""event"",""trial"",""time""
""blur"",""35"",""133332""
","""event"",""trial"",""time""
""focus"",""35"",""137941""
","""event"",""trial"",""time""
""fullscreenenter"",""1"",""2255""
","""event"",""trial"",""time""
""fullscreenexit"",""35"",""129754""
","","","","","","929.6999999999534","<p> <b> That's right! </b> You will see many different images <i> one time each </i> in this game. </p>","","0","comp_answer","","",""
"comp-q","38","179933","0.0-15.0-0.0","5969","approach_avoid_sv1","""event"",""trial"",""time""
""fullscreenenter"",""1"",""2255""
""fullscreenexit"",""35"",""129754""
""blur"",""35"",""133332""
""focus"",""35"",""137941""
","""event"",""trial"",""time""
""blur"",""35"",""133332""
","""event"",""trial"",""time""
""focus"",""35"",""137941""
","""event"",""trial"",""time""
""fullscreenenter"",""1"",""2255""
","""event"",""trial"",""time""
""fullscreenexit"",""35"",""129754""
","","","","","","491.5999999999767","<p> <b> True or False? </b> </p><p> You should use the mouse and click to make your response. </p>","","1","comp_question","","","true"
"comp-q","39","187127","0.0-15.0-1.0","5969","approach_avoid_sv1","""event"",""trial"",""time""
""fullscreenenter"",""1"",""2255""
""fullscreenexit"",""35"",""129754""
""blur"",""35"",""133332""
""focus"",""35"",""137941""
","""event"",""trial"",""time""
""blur"",""35"",""133332""
","""event"",""trial"",""time""
""focus"",""35"",""137941""
","""event"",""trial"",""time""
""fullscreenenter"",""1"",""2255""
","""event"",""trial"",""time""
""fullscreenexit"",""35"",""129754""
","","","","","","688.2000000000698","<p><b> That's right! </b> You should use the '1', '2', '3', and '4' keys to make your response. </p>","","0","comp_answer","","",""
"comp-q","40","193239","0.0-16.0-0.0","5969","approach_avoid_sv1","""event"",""trial"",""time""
""fullscreenenter"",""1"",""2255""
""fullscreenexit"",""35"",""129754""
""blur"",""35"",""133332""
""focus"",""35"",""137941""
","""event"",""trial"",""time""
""blur"",""35"",""133332""
","""event"",""trial"",""time""
""focus"",""35"",""137941""
","""event"",""trial"",""time""
""fullscreenenter"",""1"",""2255""
","""event"",""trial"",""time""
""fullscreenexit"",""35"",""129754""
","","","","","","432.69999999995343","<p> <b> True or False? </b> </p><p> You will have as much time as you want to make each choice. </p>","","1","comp_question","","","true"
"comp-q","41","198789","0.0-16.0-1.0","5969","approach_avoid_sv1","""event"",""trial"",""time""
""fullscreenenter"",""1"",""2255""
""fullscreenexit"",""35"",""129754""
""blur"",""35"",""133332""
""focus"",""35"",""137941""
","""event"",""trial"",""time""
""blur"",""35"",""133332""
","""event"",""trial"",""time""
""focus"",""35"",""137941""
","""event"",""trial"",""time""
""fullscreenenter"",""1"",""2255""
","""event"",""trial"",""time""
""fullscreenexit"",""35"",""129754""
","","","","","","852","<p> <b> That's right! </b> You will only have 10 seconds to make each choice. </p>","","0","comp_answer","","",""
"learning-instructions","42","208580","0.0-17.0","5969","approach_avoid_sv1","""event"",""trial"",""time""
""fullscreenenter"",""1"",""2255""
""fullscreenexit"",""35"",""129754""
""blur"",""35"",""133332""
""focus"",""35"",""137941""
","""event"",""trial"",""time""
""blur"",""35"",""133332""
","""event"",""trial"",""time""
""focus"",""35"",""137941""
","""event"",""trial"",""time""
""fullscreenenter"",""1"",""2255""
","""event"",""trial"",""time""
""fullscreenexit"",""35"",""129754""
","","","","","","1117.3999999999069","<p> Great! You are now ready to begin the game. </p><p> Remember, use the 1, 2, 3, and 4 keys to make your responses. </p>","","0","instructions","","",""
"html-keyboard-response","43","209189","0.0-18.0-0.0","5969","approach_avoid_sv1","""event"",""trial"",""time""
""fullscreenenter"",""1"",""2255""
""fullscreenexit"",""35"",""129754""
""blur"",""35"",""133332""
""focus"",""35"",""137941""
","""event"",""trial"",""time""
""blur"",""35"",""133332""
","""event"",""trial"",""time""
""focus"",""35"",""137941""
","""event"",""trial"",""time""
""fullscreenenter"",""1"",""2255""
","""event"",""trial"",""time""
""fullscreenexit"",""35"",""129754""
","","","","","","null","<div style=""font-size:60px;"">+</div>","null","","fixation","","",""
"memory-trial","44","211973","0.0-18.0-1.0","5969","approach_avoid_sv1","""event"",""trial"",""time""
""fullscreenenter"",""1"",""2255""
""fullscreenexit"",""35"",""129754""
""blur"",""35"",""133332""
""focus"",""35"",""137941""
","""event"",""trial"",""time""
""blur"",""35"",""133332""
","""event"",""trial"",""time""
""focus"",""35"",""137941""
","""event"",""trial"",""time""
""fullscreenenter"",""1"",""2255""
","""event"",""trial"",""time""
""fullscreenexit"",""35"",""129754""
","","","","","","1777.1999999999534","images/truck5.png","","","memory_trial","2","maybe_old",""
"html-keyboard-response","45","212477","0.0-18.0-0.1","5969","approach_avoid_sv1","""event"",""trial"",""time""
""fullscreenenter"",""1"",""2255""
""fullscreenexit"",""35"",""129754""
""blur"",""35"",""133332""
""focus"",""35"",""137941""
","""event"",""trial"",""time""
""blur"",""35"",""133332""
","""event"",""trial"",""time""
""focus"",""35"",""137941""
","""event"",""trial"",""time""
""fullscreenenter"",""1"",""2255""
","""event"",""trial"",""time""
""fullscreenexit"",""35"",""129754""
","","","","","","null","<div style=""font-size:60px;"">+</div>","null","","fixation","","",""
"memory-trial","46","214645","0.0-18.0-1.1","5969","approach_avoid_sv1","""event"",""trial"",""time""
""fullscreenenter"",""1"",""2255""
""fullscreenexit"",""35"",""129754""
""blur"",""35"",""133332""
""focus"",""35"",""137941""
","""event"",""trial"",""time""
""blur"",""35"",""133332""
","""event"",""trial"",""time""
""focus"",""35"",""137941""
","""event"",""trial"",""time""
""fullscreenenter"",""1"",""2255""
","""event"",""trial"",""time""
""fullscreenexit"",""35"",""129754""
","","","","","","1161.1000000000931","images/train7.png","","","memory_trial","1","definitely_old",""
"html-keyboard-response","47","215157","0.0-18.0-0.2","5969","approach_avoid_sv1","""event"",""trial"",""time""
""fullscreenenter"",""1"",""2255""
""fullscreenexit"",""35"",""129754""
""blur"",""35"",""133332""
""focus"",""35"",""137941""
","""event"",""trial"",""time""
""blur"",""35"",""133332""
","""event"",""trial"",""time""
""focus"",""35"",""137941""
","""event"",""trial"",""time""
""fullscreenenter"",""1"",""2255""
","""event"",""trial"",""time""
""fullscreenexit"",""35"",""129754""
","","","","","","null","<div style=""font-size:60px;"">+</div>","null","","fixation","","",""
"memory-trial","48","217525","0.0-18.0-1.2","5969","approach_avoid_sv1","""event"",""trial"",""time""
""fullscreenenter"",""1"",""2255""
""fullscreenexit"",""35"",""129754""
""blur"",""35"",""133332""
""focus"",""35"",""137941""
","""event"",""trial"",""time""
""blur"",""35"",""133332""
","""event"",""trial"",""time""
""focus"",""35"",""137941""
","""event"",""trial"",""time""
""fullscreenenter"",""1"",""2255""
","""event"",""trial"",""time""
""fullscreenexit"",""35"",""129754""
","","","","","","1357.5999999999767","images/flower8.png","","","memory_trial","1","definitely_old",""
"html-keyboard-response","49","218029","0.0-18.0-0.3","5969","approach_avoid_sv1","""event"",""trial"",""time""
""fullscreenenter"",""1"",""2255""
""fullscreenexit"",""35"",""129754""
""blur"",""35"",""133332""
""focus"",""35"",""137941""
","""event"",""trial"",""time""
""blur"",""35"",""133332""
","""event"",""trial"",""time""
""focus"",""35"",""137941""
","""event"",""trial"",""time""
""fullscreenenter"",""1"",""2255""
","""event"",""trial"",""time""
""fullscreenexit"",""35"",""129754""
","","","","","","null","<div style=""font-size:60px;"">+</div>","null","","fixation","","",""
"memory-trial","50","219797","0.0-18.0-1.3","5969","approach_avoid_sv1","""event"",""trial"",""time""
""fullscreenenter"",""1"",""2255""
""fullscreenexit"",""35"",""129754""
""blur"",""35"",""133332""
""focus"",""35"",""137941""
","""event"",""trial"",""time""
""blur"",""35"",""133332""
","""event"",""trial"",""time""
""focus"",""35"",""137941""
","""event"",""trial"",""time""
""fullscreenenter"",""1"",""2255""
","""event"",""trial"",""time""
""fullscreenexit"",""35"",""129754""
","","","","","","757","images/cactus4.png","","","memory_trial","1","definitely_old",""
"html-keyboard-response","51","220309","0.0-18.0-0.4","5969","approach_avoid_sv1","""event"",""trial"",""time""
""fullscreenenter"",""1"",""2255""
""fullscreenexit"",""35"",""129754""
""blur"",""35"",""133332""
""focus"",""35"",""137941""
","""event"",""trial"",""time""
""blur"",""35"",""133332""
","""event"",""trial"",""time""
""focus"",""35"",""137941""
","""event"",""trial"",""time""
""fullscreenenter"",""1"",""2255""
","""event"",""trial"",""time""
""fullscreenexit"",""35"",""129754""
","","","","","","null","<div style=""font-size:60px;"">+</div>","null","","fixation","","",""
"memory-trial","52","222453","0.0-18.0-1.4","5969","approach_avoid_sv1","""event"",""trial"",""time""
""fullscreenenter"",""1"",""2255""
""fullscreenexit"",""35"",""129754""
""blur"",""35"",""133332""
""focus"",""35"",""137941""
","""event"",""trial"",""time""
""blur"",""35"",""133332""
","""event"",""trial"",""time""
""focus"",""35"",""137941""
","""event"",""trial"",""time""
""fullscreenenter"",""1"",""2255""
","""event"",""trial"",""time""
""fullscreenexit"",""35"",""129754""
","","","","","","1140.7999999999302","images/apple4.png","","","memory_trial","1","definitely_old",""
"html-keyboard-response","53","222958","0.0-18.0-0.5","5969","approach_avoid_sv1","""event"",""trial"",""time""
""fullscreenenter"",""1"",""2255""
""fullscreenexit"",""35"",""129754""
""blur"",""35"",""133332""
""focus"",""35"",""137941""
","""event"",""trial"",""time""
""blur"",""35"",""133332""
","""event"",""trial"",""time""
""focus"",""35"",""137941""
","""event"",""trial"",""time""
""fullscreenenter"",""1"",""2255""
","""event"",""trial"",""time""
""fullscreenexit"",""35"",""129754""
","","","","","","null","<div style=""font-size:60px;"">+</div>","null","","fixation","","",""
"memory-trial","54","225125","0.0-18.0-1.5","5969","approach_avoid_sv1","""event"",""trial"",""time""
""fullscreenenter"",""1"",""2255""
""fullscreenexit"",""35"",""129754""
""blur"",""35"",""133332""
""focus"",""35"",""137941""
","""event"",""trial"",""time""
""blur"",""35"",""133332""
","""event"",""trial"",""time""
""focus"",""35"",""137941""
","""event"",""trial"",""time""
""fullscreenenter"",""1"",""2255""
","""event"",""trial"",""time""
""fullscreenexit"",""35"",""129754""
","","","","","","1158.0999999999767","images/plane8.png","","","memory_trial","3","maybe_new",""
"html-keyboard-response","55","225629","0.0-18.0-0.6","5969","approach_avoid_sv1","""event"",""trial"",""time""
""fullscreenenter"",""1"",""2255""
""fullscreenexit"",""35"",""129754""
""blur"",""35"",""133332""
""focus"",""35"",""137941""
","""event"",""trial"",""time""
""blur"",""35"",""133332""
","""event"",""trial"",""time""
""focus"",""35"",""137941""
","""event"",""trial"",""time""
""fullscreenenter"",""1"",""2255""
","""event"",""trial"",""time""
""fullscreenexit"",""35"",""129754""
","","","","","","null","<div style=""font-size:60px;"">+</div>","null","","fixation","","",""
"memory-trial","56","227605","0.0-18.0-1.6","5969","approach_avoid_sv1","""event"",""trial"",""time""
""fullscreenenter"",""1"",""2255""
""fullscreenexit"",""35"",""129754""
""blur"",""35"",""133332""
""focus"",""35"",""137941""
","""event"",""trial"",""time""
""blur"",""35"",""133332""
","""event"",""trial"",""time""
""focus"",""35"",""137941""
","""event"",""trial"",""time""
""fullscreenenter"",""1"",""2255""
","""event"",""trial"",""time""
""fullscreenexit"",""35"",""129754""
","","","","","","972.8000000000466","images/banana3.png","","","memory_trial","1","definitely_old",""
"html-keyboard-response","57","228109","0.0-18.0-0.7","5969","approach_avoid_sv1","""event"",""trial"",""time""
""fullscreenenter"",""1"",""2255""
""fullscreenexit"",""35"",""129754""
""blur"",""35"",""133332""
""focus"",""35"",""137941""
","""event"",""trial"",""time""
""blur"",""35"",""133332""
","""event"",""trial"",""time""
""focus"",""35"",""137941""
","""event"",""trial"",""time""
""fullscreenenter"",""1"",""2255""
","""event"",""trial"",""time""
""fullscreenexit"",""35"",""129754""
","","","","","","null","<div style=""font-size:60px;"">+</div>","null","","fixation","","",""
"memory-trial","58","230390","0.0-18.0-1.7","5969","approach_avoid_sv1","""event"",""trial"",""time""
""fullscreenenter"",""1"",""2255""
""fullscreenexit"",""35"",""129754""
""blur"",""35"",""133332""
""focus"",""35"",""137941""
","""event"",""trial"",""time""
""blur"",""35"",""133332""
","""event"",""trial"",""time""
""focus"",""35"",""137941""
","""event"",""trial"",""time""
""fullscreenenter"",""1"",""2255""
","""event"",""trial"",""time""
""fullscreenexit"",""35"",""129754""
","","","","","","1271.4000000000233","images/orange2.png","","","memory_trial","3","maybe_new",""
"html-keyboard-response","59","230894","0.0-18.0-0.8","5969","approach_avoid_sv1","""event"",""trial"",""time""
""fullscreenenter"",""1"",""2255""
""fullscreenexit"",""35"",""129754""
""blur"",""35"",""133332""
""focus"",""35"",""137941""
","""event"",""trial"",""time""
""blur"",""35"",""133332""
","""event"",""trial"",""time""
""focus"",""35"",""137941""
","""event"",""trial"",""time""
""fullscreenenter"",""1"",""2255""
","""event"",""trial"",""time""
""fullscreenexit"",""35"",""129754""
","","","","","","null","<div style=""font-size:60px;"">+</div>","null","","fixation","","",""
"memory-trial","60","232965","0.0-18.0-1.8","5969","approach_avoid_sv1","""event"",""trial"",""time""
""fullscreenenter"",""1"",""2255""
""fullscreenexit"",""35"",""129754""
""blur"",""35"",""133332""
""focus"",""35"",""137941""
","""event"",""trial"",""time""
""blur"",""35"",""133332""
","""event"",""trial"",""time""
""focus"",""35"",""137941""
","""event"",""trial"",""time""
""fullscreenenter"",""1"",""2255""
","""event"",""trial"",""time""
""fullscreenexit"",""35"",""129754""
","","","","","","1061.5","images/bed4.png","","","memory_trial","3","maybe_new",""
"html-keyboard-response","61","233469","0.0-18.0-0.9","5969","approach_avoid_sv1","""event"",""trial"",""time""
""fullscreenenter"",""1"",""2255""
""fullscreenexit"",""35"",""129754""
""blur"",""35"",""133332""
""focus"",""35"",""137941""
","""event"",""trial"",""time""
""blur"",""35"",""133332""
","""event"",""trial"",""time""
""focus"",""35"",""137941""
","""event"",""trial"",""time""
""fullscreenenter"",""1"",""2255""
","""event"",""trial"",""time""
""fullscreenexit"",""35"",""129754""
","","","","","","null","<div style=""font-size:60px;"">+</div>","null","","fixation","","",""
"memory-trial","62","235397","0.0-18.0-1.9","5969","approach_avoid_sv1","""event"",""trial"",""time""
""fullscreenenter"",""1"",""2255""
""fullscreenexit"",""35"",""129754""
""blur"",""35"",""133332""
""focus"",""35"",""137941""
","""event"",""trial"",""time""
""blur"",""35"",""133332""
","""event"",""trial"",""time""
""focus"",""35"",""137941""
","""event"",""trial"",""time""
""fullscreenenter"",""1"",""2255""
","""event"",""trial"",""time""
""fullscreenexit"",""35"",""129754""
","","","","","","922.9000000000233","images/plane2.png","","","memory_trial","4","definitely_new",""
"html-keyboard-response","63","235902","0.0-18.0-0.10","5969","approach_avoid_sv1","""event"",""trial"",""time""
""fullscreenenter"",""1"",""2255""
""fullscreenexit"",""35"",""129754""
""blur"",""35"",""133332""
""focus"",""35"",""137941""
","""event"",""trial"",""time""
""blur"",""35"",""133332""
","""event"",""trial"",""time""
""focus"",""35"",""137941""
","""event"",""trial"",""time""
""fullscreenenter"",""1"",""2255""
","""event"",""trial"",""time""
""fullscreenexit"",""35"",""129754""
","","","","","","null","<div style=""font-size:60px;"">+</div>","null","","fixation","","",""
"memory-trial","64","239405","0.0-18.0-1.10","5969","approach_avoid_sv1","""event"",""trial"",""time""
""fullscreenenter"",""1"",""2255""
""fullscreenexit"",""35"",""129754""
""blur"",""35"",""133332""
""focus"",""35"",""137941""
","""event"",""trial"",""time""
""blur"",""35"",""133332""
","""event"",""trial"",""time""
""focus"",""35"",""137941""
","""event"",""trial"",""time""
""fullscreenenter"",""1"",""2255""
","""event"",""trial"",""time""
""fullscreenexit"",""35"",""129754""
","","","","","","2499.3000000000466","images/flower5.png","","","memory_trial","4","definitely_new",""
"html-keyboard-response","65","239909","0.0-18.0-0.11","5969","approach_avoid_sv1","""event"",""trial"",""time""
""fullscreenenter"",""1"",""2255""
""fullscreenexit"",""35"",""129754""
""blur"",""35"",""133332""
""focus"",""35"",""137941""
","""event"",""trial"",""time""
""blur"",""35"",""133332""
","""event"",""trial"",""time""
""focus"",""35"",""137941""
","""event"",""trial"",""time""
""fullscreenenter"",""1"",""2255""
","""event"",""trial"",""time""
""fullscreenexit"",""35"",""129754""
","","","","","","null","<div style=""font-size:60px;"">+</div>","null","","fixation","","",""
"memory-trial","66","242829","0.0-18.0-1.11","5969","approach_avoid_sv1","""event"",""trial"",""time""
""fullscreenenter"",""1"",""2255""
""fullscreenexit"",""35"",""129754""
""blur"",""35"",""133332""
""focus"",""35"",""137941""
","""event"",""trial"",""time""
""blur"",""35"",""133332""
","""event"",""trial"",""time""
""focus"",""35"",""137941""
","""event"",""trial"",""time""
""fullscreenenter"",""1"",""2255""
","""event"",""trial"",""time""
""fullscreenexit"",""35"",""129754""
","","","","","","1915.6999999999534","images/apple1.png","","","memory_trial","3","maybe_new",""
"html-keyboard-response","67","243333","0.0-18.0-0.12","5969","approach_avoid_sv1","""event"",""trial"",""time""
""fullscreenenter"",""1"",""2255""
""fullscreenexit"",""35"",""129754""
""blur"",""35"",""133332""
""focus"",""35"",""137941""
","""event"",""trial"",""time""
""blur"",""35"",""133332""
","""event"",""trial"",""time""
""focus"",""35"",""137941""
","""event"",""trial"",""time""
""fullscreenenter"",""1"",""2255""
","""event"",""trial"",""time""
""fullscreenexit"",""35"",""129754""
","","","","","","null","<div style=""font-size:60px;"">+</div>","null","","fixation","","",""
"memory-trial","68","246038","0.0-18.0-1.12","5969","approach_avoid_sv1","""event"",""trial"",""time""
""fullscreenenter"",""1"",""2255""
""fullscreenexit"",""35"",""129754""
""blur"",""35"",""133332""
""focus"",""35"",""137941""
","""event"",""trial"",""time""
""blur"",""35"",""133332""
","""event"",""trial"",""time""
""focus"",""35"",""137941""
","""event"",""trial"",""time""
""fullscreenenter"",""1"",""2255""
","""event"",""trial"",""time""
""fullscreenexit"",""35"",""129754""
","","","","","","1694.6999999999534","images/bed6.png","","","memory_trial","4","definitely_new",""
"html-keyboard-response","69","246541","0.0-18.0-0.13","5969","approach_avoid_sv1","""event"",""trial"",""time""
""fullscreenenter"",""1"",""2255""
""fullscreenexit"",""35"",""129754""
""blur"",""35"",""133332""
""focus"",""35"",""137941""
","""event"",""trial"",""time""
""blur"",""35"",""133332""
","""event"",""trial"",""time""
""focus"",""35"",""137941""
","""event"",""trial"",""time""
""fullscreenenter"",""1"",""2255""
","""event"",""trial"",""time""
""fullscreenexit"",""35"",""129754""
","","","","","","null","<div style=""font-size:60px;"">+</div>","null","","fixation","","",""
"memory-trial","70","248629","0.0-18.0-1.13","5969","approach_avoid_sv1","""event"",""trial"",""time""
""fullscreenenter"",""1"",""2255""
""fullscreenexit"",""35"",""129754""
""blur"",""35"",""133332""
""focus"",""35"",""137941""
","""event"",""trial"",""time""
""blur"",""35"",""133332""
","""event"",""trial"",""time""
""focus"",""35"",""137941""
","""event"",""trial"",""time""
""fullscreenenter"",""1"",""2255""
","""event"",""trial"",""time""
""fullscreenexit"",""35"",""129754""
","","","","","","1077.6999999999534","images/cow5.png","","","memory_trial","1","definitely_old",""
"html-keyboard-response","71","249134","0.0-18.0-0.14","5969","approach_avoid_sv1","""event"",""trial"",""time""
""fullscreenenter"",""1"",""2255""
""fullscreenexit"",""35"",""129754""
""blur"",""35"",""133332""
""focus"",""35"",""137941""
","""event"",""trial"",""time""
""blur"",""35"",""133332""
","""event"",""trial"",""time""
""focus"",""35"",""137941""
","""event"",""trial"",""time""
""fullscreenenter"",""1"",""2255""
","""event"",""trial"",""time""
""fullscreenexit"",""35"",""129754""
","","","","","","null","<div style=""font-size:60px;"">+</div>","null","","fixation","","",""
"memory-trial","72","251701","0.0-18.0-1.14","5969","approach_avoid_sv1","""event"",""trial"",""time""
""fullscreenenter"",""1"",""2255""
""fullscreenexit"",""35"",""129754""
""blur"",""35"",""133332""
""focus"",""35"",""137941""
","""event"",""trial"",""time""
""blur"",""35"",""133332""
","""event"",""trial"",""time""
""focus"",""35"",""137941""
","""event"",""trial"",""time""
""fullscreenenter"",""1"",""2255""
","""event"",""trial"",""time""
""fullscreenexit"",""35"",""129754""
","","","","","","1564.6999999999534","images/bush7.png","","","memory_trial","4","definitely_new",""
"html-keyboard-response","73","252206","0.0-18.0-0.15","5969","approach_avoid_sv1","""event"",""trial"",""time""
""fullscreenenter"",""1"",""2255""
""fullscreenexit"",""35"",""129754""
""blur"",""35"",""133332""
""focus"",""35"",""137941""
","""event"",""trial"",""time""
""blur"",""35"",""133332""
","""event"",""trial"",""time""
""focus"",""35"",""137941""
","""event"",""trial"",""time""
""fullscreenenter"",""1"",""2255""
","""event"",""trial"",""time""
""fullscreenexit"",""35"",""129754""
","","","","","","null","<div style=""font-size:60px;"">+</div>","null","","fixation","","",""
"memory-trial","74","254278","0.0-18.0-1.15","5969","approach_avoid_sv1","""event"",""trial"",""time""
""fullscreenenter"",""1"",""2255""
""fullscreenexit"",""35"",""129754""
""blur"",""35"",""133332""
""focus"",""35"",""137941""
","""event"",""trial"",""time""
""blur"",""35"",""133332""
","""event"",""trial"",""time""
""focus"",""35"",""137941""
","""event"",""trial"",""time""
""fullscreenenter"",""1"",""2255""
","""event"",""trial"",""time""
""fullscreenexit"",""35"",""129754""
","","","","","","1062.9000000000233","images/horse3.png","","","memory_trial","4","definitely_new",""
"html-keyboard-response","75","254782","0.0-18.0-0.16","5969","approach_avoid_sv1","""event"",""trial"",""time""
""fullscreenenter"",""1"",""2255""
""fullscreenexit"",""35"",""129754""
""blur"",""35"",""133332""
""focus"",""35"",""137941""
","""event"",""trial"",""time""
""blur"",""35"",""133332""
","""event"",""trial"",""time""
""focus"",""35"",""137941""
","""event"",""trial"",""time""
""fullscreenenter"",""1"",""2255""
","""event"",""trial"",""time""
""fullscreenexit"",""35"",""129754""
","","","","","","null","<div style=""font-size:60px;"">+</div>","null","","fixation","","",""
"memory-trial","76","256758","0.0-18.0-1.16","5969","approach_avoid_sv1","""event"",""trial"",""time""
""fullscreenenter"",""1"",""2255""
""fullscreenexit"",""35"",""129754""
""blur"",""35"",""133332""
""focus"",""35"",""137941""
","""event"",""trial"",""time""
""blur"",""35"",""133332""
","""event"",""trial"",""time""
""focus"",""35"",""137941""
","""event"",""trial"",""time""
""fullscreenenter"",""1"",""2255""
","""event"",""trial"",""time""
""fullscreenexit"",""35"",""129754""
","","","","","","970.8000000000466","images/apple5.png","","","memory_trial","1","definitely_old",""
"html-keyboard-response","77","257261","0.0-18.0-0.17","5969","approach_avoid_sv1","""event"",""trial"",""time""
""fullscreenenter"",""1"",""2255""
""fullscreenexit"",""35"",""129754""
""blur"",""35"",""133332""
""focus"",""35"",""137941""
","""event"",""trial"",""time""
""blur"",""35"",""133332""
","""event"",""trial"",""time""
""focus"",""35"",""137941""
","""event"",""trial"",""time""
""fullscreenenter"",""1"",""2255""
","""event"",""trial"",""time""
""fullscreenexit"",""35"",""129754""
","","","","","","null","<div style=""font-size:60px;"">+</div>","null","","fixation","","",""
"memory-trial","78","259493","0.0-18.0-1.17","5969","approach_avoid_sv1","""event"",""trial"",""time""
""fullscreenenter"",""1"",""2255""
""fullscreenexit"",""35"",""129754""
""blur"",""35"",""133332""
""focus"",""35"",""137941""
","""event"",""trial"",""time""
""blur"",""35"",""133332""
","""event"",""trial"",""time""
""focus"",""35"",""137941""
","""event"",""trial"",""time""
""fullscreenenter"",""1"",""2255""
","""event"",""trial"",""time""
""fullscreenexit"",""35"",""129754""
","","","","","","1224.1999999999534","images/tree8.png","","","memory_trial","1","definitely_old",""
"html-keyboard-response","79","259998","0.0-18.0-0.18","5969","approach_avoid_sv1","""event"",""trial"",""time""
""fullscreenenter"",""1"",""2255""
""fullscreenexit"",""35"",""129754""
""blur"",""35"",""133332""
""focus"",""35"",""137941""
","""event"",""trial"",""time""
""blur"",""35"",""133332""
","""event"",""trial"",""time""
""focus"",""35"",""137941""
","""event"",""trial"",""time""
""fullscreenenter"",""1"",""2255""
","""event"",""trial"",""time""
""fullscreenexit"",""35"",""129754""
","","","","","","null","<div style=""font-size:60px;"">+</div>","null","","fixation","","",""
"memory-trial","80","262382","0.0-18.0-1.18","5969","approach_avoid_sv1","""event"",""trial"",""time""
""fullscreenenter"",""1"",""2255""
""fullscreenexit"",""35"",""129754""
""blur"",""35"",""133332""
""focus"",""35"",""137941""
","""event"",""trial"",""time""
""blur"",""35"",""133332""
","""event"",""trial"",""time""
""focus"",""35"",""137941""
","""event"",""trial"",""time""
""fullscreenenter"",""1"",""2255""
","""event"",""trial"",""time""
""fullscreenexit"",""35"",""129754""
","","","","","","1377.6999999999534","images/plane6.png","","","memory_trial","3","maybe_new",""
"html-keyboard-response","81","262885","0.0-18.0-0.19","5969","approach_avoid_sv1","""event"",""trial"",""time""
""fullscreenenter"",""1"",""2255""
""fullscreenexit"",""35"",""129754""
""blur"",""35"",""133332""
""focus"",""35"",""137941""
","""event"",""trial"",""time""
""blur"",""35"",""133332""
","""event"",""trial"",""time""
""focus"",""35"",""137941""
","""event"",""trial"",""time""
""fullscreenenter"",""1"",""2255""
","""event"",""trial"",""time""
""fullscreenexit"",""35"",""129754""
","","","","","","null","<div style=""font-size:60px;"">+</div>","null","","fixation","","",""
"memory-trial","82","265685","0.0-18.0-1.19","5969","approach_avoid_sv1","""event"",""trial"",""time""
""fullscreenenter"",""1"",""2255""
""fullscreenexit"",""35"",""129754""
""blur"",""35"",""133332""
""focus"",""35"",""137941""
","""event"",""trial"",""time""
""blur"",""35"",""133332""
","""event"",""trial"",""time""
""focus"",""35"",""137941""
","""event"",""trial"",""time""
""fullscreenenter"",""1"",""2255""
","""event"",""trial"",""time""
""fullscreenexit"",""35"",""129754""
","","","","","","1790.9000000000233","images/horse7.png","","","memory_trial","4","definitely_new",""
"html-keyboard-response","83","266189","0.0-18.0-0.20","5969","approach_avoid_sv1","""event"",""trial"",""time""
""fullscreenenter"",""1"",""2255""
""fullscreenexit"",""35"",""129754""
""blur"",""35"",""133332""
""focus"",""35"",""137941""
","""event"",""trial"",""time""
""blur"",""35"",""133332""
","""event"",""trial"",""time""
""focus"",""35"",""137941""
","""event"",""trial"",""time""
""fullscreenenter"",""1"",""2255""
","""event"",""trial"",""time""
""fullscreenexit"",""35"",""129754""
","","","","","","null","<div style=""font-size:60px;"">+</div>","null","","fixation","","",""
"memory-trial","84","268613","0.0-18.0-1.20","5969","approach_avoid_sv1","""event"",""trial"",""time""
""fullscreenenter"",""1"",""2255""
""fullscreenexit"",""35"",""129754""
""blur"",""35"",""133332""
""focus"",""35"",""137941""
","""event"",""trial"",""time""
""blur"",""35"",""133332""
","""event"",""trial"",""time""
""focus"",""35"",""137941""
","""event"",""trial"",""time""
""fullscreenenter"",""1"",""2255""
","""event"",""trial"",""time""
""fullscreenexit"",""35"",""129754""
","","","","","","1420.8999999999069","images/table4.png","","","memory_trial","1","definitely_old",""
"html-keyboard-response","85","269117","0.0-18.0-0.21","5969","approach_avoid_sv1","""event"",""trial"",""time""
""fullscreenenter"",""1"",""2255""
""fullscreenexit"",""35"",""129754""
""blur"",""35"",""133332""
""focus"",""35"",""137941""
","""event"",""trial"",""time""
""blur"",""35"",""133332""
","""event"",""trial"",""time""
""focus"",""35"",""137941""
","""event"",""trial"",""time""
""fullscreenenter"",""1"",""2255""
","""event"",""trial"",""time""
""fullscreenexit"",""35"",""129754""
","","","","","","null","<div style=""font-size:60px;"">+</div>","null","","fixation","","",""
"memory-trial","86","271566","0.0-18.0-1.21","5969","approach_avoid_sv1","""event"",""trial"",""time""
""fullscreenenter"",""1"",""2255""
""fullscreenexit"",""35"",""129754""
""blur"",""35"",""133332""
""focus"",""35"",""137941""
","""event"",""trial"",""time""
""blur"",""35"",""133332""
","""event"",""trial"",""time""
""focus"",""35"",""137941""
","""event"",""trial"",""time""
""fullscreenenter"",""1"",""2255""
","""event"",""trial"",""time""
""fullscreenexit"",""35"",""129754""
","","","","","","1444.0999999999767","images/rabbit4.png","","","memory_trial","1","definitely_old",""
"html-keyboard-response","87","272069","0.0-18.0-0.22","5969","approach_avoid_sv1","""event"",""trial"",""time""
""fullscreenenter"",""1"",""2255""
""fullscreenexit"",""35"",""129754""
""blur"",""35"",""133332""
""focus"",""35"",""137941""
","""event"",""trial"",""time""
""blur"",""35"",""133332""
","""event"",""trial"",""time""
""focus"",""35"",""137941""
","""event"",""trial"",""time""
""fullscreenenter"",""1"",""2255""
","""event"",""trial"",""time""
""fullscreenexit"",""35"",""129754""
","","","","","","null","<div style=""font-size:60px;"">+</div>","null","","fixation","","",""
"memory-trial","88","274510","0.0-18.0-1.22","5969","approach_avoid_sv1","""event"",""trial"",""time""
""fullscreenenter"",""1"",""2255""
""fullscreenexit"",""35"",""129754""
""blur"",""35"",""133332""
""focus"",""35"",""137941""
","""event"",""trial"",""time""
""blur"",""35"",""133332""
","""event"",""trial"",""time""
""focus"",""35"",""137941""
","""event"",""trial"",""time""
""fullscreenenter"",""1"",""2255""
","""event"",""trial"",""time""
""fullscreenexit"",""35"",""129754""
","","","","","","1433.1000000000931","images/flower2.png","","","memory_trial","3","maybe_new",""
"html-keyboard-response","89","275013","0.0-18.0-0.23","5969","approach_avoid_sv1","""event"",""trial"",""time""
""fullscreenenter"",""1"",""2255""
""fullscreenexit"",""35"",""129754""
""blur"",""35"",""133332""
""focus"",""35"",""137941""
","""event"",""trial"",""time""
""blur"",""35"",""133332""
","""event"",""trial"",""time""
""focus"",""35"",""137941""
","""event"",""trial"",""time""
""fullscreenenter"",""1"",""2255""
","""event"",""trial"",""time""
""fullscreenexit"",""35"",""129754""
","","","","","","null","<div style=""font-size:60px;"">+</div>","null","","fixation","","",""
"memory-trial","90","278030","0.0-18.0-1.23","5969","approach_avoid_sv1","""event"",""trial"",""time""
""fullscreenenter"",""1"",""2255""
""fullscreenexit"",""35"",""129754""
""blur"",""35"",""133332""
""focus"",""35"",""137941""
","""event"",""trial"",""time""
""blur"",""35"",""133332""
","""event"",""trial"",""time""
""focus"",""35"",""137941""
","""event"",""trial"",""time""
""fullscreenenter"",""1"",""2255""
","""event"",""trial"",""time""
""fullscreenexit"",""35"",""129754""
","","","","","","2012.1999999999534","images/plane4.png","","","memory_trial","2","maybe_old",""
"html-keyboard-response","91","278533","0.0-18.0-0.24","5969","approach_avoid_sv1","""event"",""trial"",""time""
""fullscreenenter"",""1"",""2255""
""fullscreenexit"",""35"",""129754""
""blur"",""35"",""133332""
""focus"",""35"",""137941""
","""event"",""trial"",""time""
""blur"",""35"",""133332""
","""event"",""trial"",""time""
""focus"",""35"",""137941""
","""event"",""trial"",""time""
""fullscreenenter"",""1"",""2255""
","""event"",""trial"",""time""
""fullscreenexit"",""35"",""129754""
","","","","","","null","<div style=""font-size:60px;"">+</div>","null","","fixation","","",""
"memory-trial","92","280773","0.0-18.0-1.24","5969","approach_avoid_sv1","""event"",""trial"",""time""
""fullscreenenter"",""1"",""2255""
""fullscreenexit"",""35"",""129754""
""blur"",""35"",""133332""
""focus"",""35"",""137941""
","""event"",""trial"",""time""
""blur"",""35"",""133332""
","""event"",""trial"",""time""
""focus"",""35"",""137941""
","""event"",""trial"",""time""
""fullscreenenter"",""1"",""2255""
","""event"",""trial"",""time""
""fullscreenexit"",""35"",""129754""
","","","","","","1234.6999999999534","images/apple8.png","","","memory_trial","1","definitely_old",""
"html-keyboard-response","93","281277","0.0-18.0-0.25","5969","approach_avoid_sv1","""event"",""trial"",""time""
""fullscreenenter"",""1"",""2255""
""fullscreenexit"",""35"",""129754""
""blur"",""35"",""133332""
""focus"",""35"",""137941""
","""event"",""trial"",""time""
""blur"",""35"",""133332""
","""event"",""trial"",""time""
""focus"",""35"",""137941""
","""event"",""trial"",""time""
""fullscreenenter"",""1"",""2255""
","""event"",""trial"",""time""
""fullscreenexit"",""35"",""129754""
","","","","","","null","<div style=""font-size:60px;"">+</div>","null","","fixation","","",""
"memory-trial","94","283870","0.0-18.0-1.25","5969","approach_avoid_sv1","""event"",""trial"",""time""
""fullscreenenter"",""1"",""2255""
""fullscreenexit"",""35"",""129754""
""blur"",""35"",""133332""
""focus"",""35"",""137941""
","""event"",""trial"",""time""
""blur"",""35"",""133332""
","""event"",""trial"",""time""
""focus"",""35"",""137941""
","""event"",""trial"",""time""
""fullscreenenter"",""1"",""2255""
","""event"",""trial"",""time""
""fullscreenexit"",""35"",""129754""
","","","","","","1585.7999999999302","images/bush2.png","","","memory_trial","3","maybe_new",""
"html-keyboard-response","95","284373","0.0-18.0-0.26","5969","approach_avoid_sv1","""event"",""trial"",""time""
""fullscreenenter"",""1"",""2255""
""fullscreenexit"",""35"",""129754""
""blur"",""35"",""133332""
""focus"",""35"",""137941""
","""event"",""trial"",""time""
""blur"",""35"",""133332""
","""event"",""trial"",""time""
""focus"",""35"",""137941""
","""event"",""trial"",""time""
""fullscreenenter"",""1"",""2255""
","""event"",""trial"",""time""
""fullscreenexit"",""35"",""129754""
","","","","","","null","<div style=""font-size:60px;"">+</div>","null","","fixation","","",""
"memory-trial","96","287054","0.0-18.0-1.26","5969","approach_avoid_sv1","""event"",""trial"",""time""
""fullscreenenter"",""1"",""2255""
""fullscreenexit"",""35"",""129754""
""blur"",""35"",""133332""
""focus"",""35"",""137941""
","""event"",""trial"",""time""
""blur"",""35"",""133332""
","""event"",""trial"",""time""
""focus"",""35"",""137941""
","""event"",""trial"",""time""
""fullscreenenter"",""1"",""2255""
","""event"",""trial"",""time""
""fullscreenexit"",""35"",""129754""
","","","","","","1673.5","images/straw4.png","","","memory_trial","1","definitely_old",""
"html-keyboard-response","97","287557","0.0-18.0-0.27","5969","approach_avoid_sv1","""event"",""trial"",""time""
""fullscreenenter"",""1"",""2255""
""fullscreenexit"",""35"",""129754""
""blur"",""35"",""133332""
""focus"",""35"",""137941""
","""event"",""trial"",""time""
""blur"",""35"",""133332""
","""event"",""trial"",""time""
""focus"",""35"",""137941""
","""event"",""trial"",""time""
""fullscreenenter"",""1"",""2255""
","""event"",""trial"",""time""
""fullscreenexit"",""35"",""129754""
","","","","","","null","<div style=""font-size:60px;"">+</div>","null","","fixation","","",""
"memory-trial","98","290565","0.0-18.0-1.27","5969","approach_avoid_sv1","""event"",""trial"",""time""
""fullscreenenter"",""1"",""2255""
""fullscreenexit"",""35"",""129754""
""blur"",""35"",""133332""
""focus"",""35"",""137941""
","""event"",""trial"",""time""
""blur"",""35"",""133332""
","""event"",""trial"",""time""
""focus"",""35"",""137941""
","""event"",""trial"",""time""
""fullscreenenter"",""1"",""2255""
","""event"",""trial"",""time""
""fullscreenexit"",""35"",""129754""
","","","","","","2002.8999999999069","images/flower3.png","","","memory_trial","4","definitely_new",""
"html-keyboard-response","99","291069","0.0-18.0-0.28","5969","approach_avoid_sv1","""event"",""trial"",""time""
""fullscreenenter"",""1"",""2255""
""fullscreenexit"",""35"",""129754""
""blur"",""35"",""133332""
""focus"",""35"",""137941""
","""event"",""trial"",""time""
""blur"",""35"",""133332""
","""event"",""trial"",""time""
""focus"",""35"",""137941""
","""event"",""trial"",""time""
""fullscreenenter"",""1"",""2255""
","""event"",""trial"",""time""
""fullscreenexit"",""35"",""129754""
","","","","","","null","<div style=""font-size:60px;"">+</div>","null","","fixation","","",""
"memory-trial","100","293445","0.0-18.0-1.28","5969","approach_avoid_sv1","""event"",""trial"",""time""
""fullscreenenter"",""1"",""2255""
""fullscreenexit"",""35"",""129754""
""blur"",""35"",""133332""
""focus"",""35"",""137941""
","""event"",""trial"",""time""
""blur"",""35"",""133332""
","""event"",""trial"",""time""
""focus"",""35"",""137941""
","""event"",""trial"",""time""
""fullscreenenter"",""1"",""2255""
","""event"",""trial"",""time""
""fullscreenexit"",""35"",""129754""
","","","","","","1369.8000000000466","images/apple6.png","","","memory_trial","1","definitely_old",""
"html-keyboard-response","101","293949","0.0-18.0-0.29","5969","approach_avoid_sv1","""event"",""trial"",""time""
""fullscreenenter"",""1"",""2255""
""fullscreenexit"",""35"",""129754""
""blur"",""35"",""133332""
""focus"",""35"",""137941""
","""event"",""trial"",""time""
""blur"",""35"",""133332""
","""event"",""trial"",""time""
""focus"",""35"",""137941""
","""event"",""trial"",""time""
""fullscreenenter"",""1"",""2255""
","""event"",""trial"",""time""
""fullscreenexit"",""35"",""129754""
","","","","","","null","<div style=""font-size:60px;"">+</div>","null","","fixation","","",""
"memory-trial","102","296038","0.0-18.0-1.29","5969","approach_avoid_sv1","""event"",""trial"",""time""
""fullscreenenter"",""1"",""2255""
""fullscreenexit"",""35"",""129754""
""blur"",""35"",""133332""
""focus"",""35"",""137941""
","""event"",""trial"",""time""
""blur"",""35"",""133332""
","""event"",""trial"",""time""
""focus"",""35"",""137941""
","""event"",""trial"",""time""
""fullscreenenter"",""1"",""2255""
","""event"",""trial"",""time""
""fullscreenexit"",""35"",""129754""
","","","","","","1078.2999999999302","images/straw5.png","","","memory_trial","1","definitely_old",""
"html-keyboard-response","103","296541","0.0-18.0-0.30","5969","approach_avoid_sv1","""event"",""trial"",""time""
""fullscreenenter"",""1"",""2255""
""fullscreenexit"",""35"",""129754""
""blur"",""35"",""133332""
""focus"",""35"",""137941""
","""event"",""trial"",""time""
""blur"",""35"",""133332""
","""event"",""trial"",""time""
""focus"",""35"",""137941""
","""event"",""trial"",""time""
""fullscreenenter"",""1"",""2255""
","""event"",""trial"",""time""
""fullscreenexit"",""35"",""129754""
","","","","","","null","<div style=""font-size:60px;"">+</div>","null","","fixation","","",""
"memory-trial","104","298973","0.0-18.0-1.30","5969","approach_avoid_sv1","""event"",""trial"",""time""
""fullscreenenter"",""1"",""2255""
""fullscreenexit"",""35"",""129754""
""blur"",""35"",""133332""
""focus"",""35"",""137941""
","""event"",""trial"",""time""
""blur"",""35"",""133332""
","""event"",""trial"",""time""
""focus"",""35"",""137941""
","""event"",""trial"",""time""
""fullscreenenter"",""1"",""2255""
","""event"",""trial"",""time""
""fullscreenexit"",""35"",""129754""
","","","","","","1424.2999999999302","images/bush5.png","","","memory_trial","4","definitely_new",""
"html-keyboard-response","105","299478","0.0-18.0-0.31","5969","approach_avoid_sv1","""event"",""trial"",""time""
""fullscreenenter"",""1"",""2255""
""fullscreenexit"",""35"",""129754""
""blur"",""35"",""133332""
""focus"",""35"",""137941""
","""event"",""trial"",""time""
""blur"",""35"",""133332""
","""event"",""trial"",""time""
""focus"",""35"",""137941""
","""event"",""trial"",""time""
""fullscreenenter"",""1"",""2255""
","""event"",""trial"",""time""
""fullscreenexit"",""35"",""129754""
","","","","","","null","<div style=""font-size:60px;"">+</div>","null","","fixation","","",""
"memory-trial","106","302821","0.0-18.0-1.31","5969","approach_avoid_sv1","""event"",""trial"",""time""
""fullscreenenter"",""1"",""2255""
""fullscreenexit"",""35"",""129754""
""blur"",""35"",""133332""
""focus"",""35"",""137941""
","""event"",""trial"",""time""
""blur"",""35"",""133332""
","""event"",""trial"",""time""
""focus"",""35"",""137941""
","""event"",""trial"",""time""
""fullscreenenter"",""1"",""2255""
","""event"",""trial"",""time""
""fullscreenexit"",""35"",""129754""
","","","","","","2339.29999999993","images/rodent6.png","","","memory_trial","2","maybe_old",""
"html-keyboard-response","107","303325","0.0-18.0-0.32","5969","approach_avoid_sv1","""event"",""trial"",""time""
""fullscreenenter"",""1"",""2255""
""fullscreenexit"",""35"",""129754""
""blur"",""35"",""133332""
""focus"",""35"",""137941""
","""event"",""trial"",""time""
""blur"",""35"",""133332""
","""event"",""trial"",""time""
""focus"",""35"",""137941""
","""event"",""trial"",""time""
""fullscreenenter"",""1"",""2255""
","""event"",""trial"",""time""
""fullscreenexit"",""35"",""129754""
","","","","","","null","<div style=""font-size:60px;"">+</div>","null","","fixation","","",""
"memory-trial","108","305654","0.0-18.0-1.32","5969","approach_avoid_sv1","""event"",""trial"",""time""
""fullscreenenter"",""1"",""2255""
""fullscreenexit"",""35"",""129754""
""blur"",""35"",""133332""
""focus"",""35"",""137941""
","""event"",""trial"",""time""
""blur"",""35"",""133332""
","""event"",""trial"",""time""
""focus"",""35"",""137941""
","""event"",""trial"",""time""
""fullscreenenter"",""1"",""2255""
","""event"",""trial"",""time""
""fullscreenexit"",""35"",""129754""
","","","","","","1321.6999999999534","images/flower7.png","","","memory_trial","4","definitely_new",""
"html-keyboard-response","109","306158","0.0-18.0-0.33","5969","approach_avoid_sv1","""event"",""trial"",""time""
""fullscreenenter"",""1"",""2255""
""fullscreenexit"",""35"",""129754""
""blur"",""35"",""133332""
""focus"",""35"",""137941""
","""event"",""trial"",""time""
""blur"",""35"",""133332""
","""event"",""trial"",""time""
""focus"",""35"",""137941""
","""event"",""trial"",""time""
""fullscreenenter"",""1"",""2255""
","""event"",""trial"",""time""
""fullscreenexit"",""35"",""129754""
","","","","","","null","<div style=""font-size:60px;"">+</div>","null","","fixation","","",""
"memory-trial","110","309109","0.0-18.0-1.33","5969","approach_avoid_sv1","""event"",""trial"",""time""
""fullscreenenter"",""1"",""2255""
""fullscreenexit"",""35"",""129754""
""blur"",""35"",""133332""
""focus"",""35"",""137941""
","""event"",""trial"",""time""
""blur"",""35"",""133332""
","""event"",""trial"",""time""
""focus"",""35"",""137941""
","""event"",""trial"",""time""
""fullscreenenter"",""1"",""2255""
","""event"",""trial"",""time""
""fullscreenexit"",""35"",""129754""
","","","","","","1943.3000000000466","images/orange7.png","","","memory_trial","4","definitely_new",""
"html-keyboard-response","111","309614","0.0-18.0-0.34","5969","approach_avoid_sv1","""event"",""trial"",""time""
""fullscreenenter"",""1"",""2255""
""fullscreenexit"",""35"",""129754""
""blur"",""35"",""133332""
""focus"",""35"",""137941""
","""event"",""trial"",""time""
""blur"",""35"",""133332""
","""event"",""trial"",""time""
""focus"",""35"",""137941""
","""event"",""trial"",""time""
""fullscreenenter"",""1"",""2255""
","""event"",""trial"",""time""
""fullscreenexit"",""35"",""129754""
","","","","","","null","<div style=""font-size:60px;"">+</div>","null","","fixation","","",""
"memory-trial","112","311461","0.0-18.0-1.34","5969","approach_avoid_sv1","""event"",""trial"",""time""
""fullscreenenter"",""1"",""2255""
""fullscreenexit"",""35"",""129754""
""blur"",""35"",""133332""
""focus"",""35"",""137941""
","""event"",""trial"",""time""
""blur"",""35"",""133332""
","""event"",""trial"",""time""
""focus"",""35"",""137941""
","""event"",""trial"",""time""
""fullscreenenter"",""1"",""2255""
","""event"",""trial"",""time""
""fullscreenexit"",""35"",""129754""
","","","","","","842.3000000000466","images/bush1.png","","","memory_trial","4","definitely_new",""
"html-keyboard-response","113","311965","0.0-18.0-0.35","5969","approach_avoid_sv1","""event"",""trial"",""time""
""fullscreenenter"",""1"",""2255""
""fullscreenexit"",""35"",""129754""
""blur"",""35"",""133332""
""focus"",""35"",""137941""
","""event"",""trial"",""time""
""blur"",""35"",""133332""
","""event"",""trial"",""time""
""focus"",""35"",""137941""
","""event"",""trial"",""time""
""fullscreenenter"",""1"",""2255""
","""event"",""trial"",""time""
""fullscreenexit"",""35"",""129754""
","","","","","","null","<div style=""font-size:60px;"">+</div>","null","","fixation","","",""
"memory-trial","114","314174","0.0-18.0-1.35","5969","approach_avoid_sv1","""event"",""trial"",""time""
""fullscreenenter"",""1"",""2255""
""fullscreenexit"",""35"",""129754""
""blur"",""35"",""133332""
""focus"",""35"",""137941""
","""event"",""trial"",""time""
""blur"",""35"",""133332""
","""event"",""trial"",""time""
""focus"",""35"",""137941""
","""event"",""trial"",""time""
""fullscreenenter"",""1"",""2255""
","""event"",""trial"",""time""
""fullscreenexit"",""35"",""129754""
","","","","","","1197.0999999999767","images/rodent3.png","","","memory_trial","1","definitely_old",""
"html-keyboard-response","115","314678","0.0-18.0-0.36","5969","approach_avoid_sv1","""event"",""trial"",""time""
""fullscreenenter"",""1"",""2255""
""fullscreenexit"",""35"",""129754""
""blur"",""35"",""133332""
""focus"",""35"",""137941""
","""event"",""trial"",""time""
""blur"",""35"",""133332""
","""event"",""trial"",""time""
""focus"",""35"",""137941""
","""event"",""trial"",""time""
""fullscreenenter"",""1"",""2255""
","""event"",""trial"",""time""
""fullscreenexit"",""35"",""129754""
","","","","","","null","<div style=""font-size:60px;"">+</div>","null","","fixation","","",""
"memory-trial","116","317294","0.0-18.0-1.36","5969","approach_avoid_sv1","""event"",""trial"",""time""
""fullscreenenter"",""1"",""2255""
""fullscreenexit"",""35"",""129754""
""blur"",""35"",""133332""
""focus"",""35"",""137941""
","""event"",""trial"",""time""
""blur"",""35"",""133332""
","""event"",""trial"",""time""
""focus"",""35"",""137941""
","""event"",""trial"",""time""
""fullscreenenter"",""1"",""2255""
","""event"",""trial"",""time""
""fullscreenexit"",""35"",""129754""
","","","","","","1606.6999999999534","images/dog2.png","","","memory_trial","4","definitely_new",""
"html-keyboard-response","117","317798","0.0-18.0-0.37","5969","approach_avoid_sv1","""event"",""trial"",""time""
""fullscreenenter"",""1"",""2255""
""fullscreenexit"",""35"",""129754""
""blur"",""35"",""133332""
""focus"",""35"",""137941""
","""event"",""trial"",""time""
""blur"",""35"",""133332""
","""event"",""trial"",""time""
""focus"",""35"",""137941""
","""event"",""trial"",""time""
""fullscreenenter"",""1"",""2255""
","""event"",""trial"",""time""
""fullscreenexit"",""35"",""129754""
","","","","","","null","<div style=""font-size:60px;"">+</div>","null","","fixation","","",""
"memory-trial","118","320245","0.0-18.0-1.37","5969","approach_avoid_sv1","""event"",""trial"",""time""
""fullscreenenter"",""1"",""2255""
""fullscreenexit"",""35"",""129754""
""blur"",""35"",""133332""
""focus"",""35"",""137941""
","""event"",""trial"",""time""
""blur"",""35"",""133332""
","""event"",""trial"",""time""
""focus"",""35"",""137941""
","""event"",""trial"",""time""
""fullscreenenter"",""1"",""2255""
","""event"",""trial"",""time""
""fullscreenexit"",""35"",""129754""
","","","","","","1439.8000000000466","images/boat8.png","","","memory_trial","3","maybe_new",""
"html-keyboard-response","119","320750","0.0-18.0-0.38","5969","approach_avoid_sv1","""event"",""trial"",""time""
""fullscreenenter"",""1"",""2255""
""fullscreenexit"",""35"",""129754""
""blur"",""35"",""133332""
""focus"",""35"",""137941""
","""event"",""trial"",""time""
""blur"",""35"",""133332""
","""event"",""trial"",""time""
""focus"",""35"",""137941""
","""event"",""trial"",""time""
""fullscreenenter"",""1"",""2255""
","""event"",""trial"",""time""
""fullscreenexit"",""35"",""129754""
","","","","","","null","<div style=""font-size:60px;"">+</div>","null","","fixation","","",""
"memory-trial","120","322893","0.0-18.0-1.38","5969","approach_avoid_sv1","""event"",""trial"",""time""
""fullscreenenter"",""1"",""2255""
""fullscreenexit"",""35"",""129754""
""blur"",""35"",""133332""
""focus"",""35"",""137941""
","""event"",""trial"",""time""
""blur"",""35"",""133332""
","""event"",""trial"",""time""
""focus"",""35"",""137941""
","""event"",""trial"",""time""
""fullscreenenter"",""1"",""2255""
","""event"",""trial"",""time""
""fullscreenexit"",""35"",""129754""
","","","","","","1137.5","images/truck6.png","","","memory_trial","1","definitely_old",""
"html-keyboard-response","121","323397","0.0-18.0-0.39","5969","approach_avoid_sv1","""event"",""trial"",""time""
""fullscreenenter"",""1"",""2255""
""fullscreenexit"",""35"",""129754""
""blur"",""35"",""133332""
""focus"",""35"",""137941""
","""event"",""trial"",""time""
""blur"",""35"",""133332""
","""event"",""trial"",""time""
""focus"",""35"",""137941""
","""event"",""trial"",""time""
""fullscreenenter"",""1"",""2255""
","""event"",""trial"",""time""
""fullscreenexit"",""35"",""129754""
","","","","","","null","<div style=""font-size:60px;"">+</div>","null","","fixation","","",""
"memory-trial","122","325765","0.0-18.0-1.39","5969","approach_avoid_sv1","""event"",""trial"",""time""
""fullscreenenter"",""1"",""2255""
""fullscreenexit"",""35"",""129754""
""blur"",""35"",""133332""
""focus"",""35"",""137941""
","""event"",""trial"",""time""
""blur"",""35"",""133332""
","""event"",""trial"",""time""
""focus"",""35"",""137941""
","""event"",""trial"",""time""
""fullscreenenter"",""1"",""2255""
","""event"",""trial"",""time""
""fullscreenexit"",""35"",""129754""
","","","","","","1360.3000000000466","images/goat8.png","","","memory_trial","1","definitely_old",""
"html-keyboard-response","123","326269","0.0-18.0-0.40","5969","approach_avoid_sv1","""event"",""trial"",""time""
""fullscreenenter"",""1"",""2255""
""fullscreenexit"",""35"",""129754""
""blur"",""35"",""133332""
""focus"",""35"",""137941""
","""event"",""trial"",""time""
""blur"",""35"",""133332""
","""event"",""trial"",""time""
""focus"",""35"",""137941""
","""event"",""trial"",""time""
""fullscreenenter"",""1"",""2255""
","""event"",""trial"",""time""
""fullscreenexit"",""35"",""129754""
","","","","","","null","<div style=""font-size:60px;"">+</div>","null","","fixation","","",""
"memory-trial","124","329069","0.0-18.0-1.40","5969","approach_avoid_sv1","""event"",""trial"",""time""
""fullscreenenter"",""1"",""2255""
""fullscreenexit"",""35"",""129754""
""blur"",""35"",""133332""
""focus"",""35"",""137941""
","""event"",""trial"",""time""
""blur"",""35"",""133332""
","""event"",""trial"",""time""
""focus"",""35"",""137941""
","""event"",""trial"",""time""
""fullscreenenter"",""1"",""2255""
","""event"",""trial"",""time""
""fullscreenexit"",""35"",""129754""
","","","","","","1791.5999999999767","images/cow3.png","","","memory_trial","2","maybe_old",""
"html-keyboard-response","125","329573","0.0-18.0-0.41","5969","approach_avoid_sv1","""event"",""trial"",""time""
""fullscreenenter"",""1"",""2255""
""fullscreenexit"",""35"",""129754""
""blur"",""35"",""133332""
""focus"",""35"",""137941""
","""event"",""trial"",""time""
""blur"",""35"",""133332""
","""event"",""trial"",""time""
""focus"",""35"",""137941""
","""event"",""trial"",""time""
""fullscreenenter"",""1"",""2255""
","""event"",""trial"",""time""
""fullscreenexit"",""35"",""129754""
","","","","","","null","<div style=""font-size:60px;"">+</div>","null","","fixation","","",""
"memory-trial","126","331878","0.0-18.0-1.41","5969","approach_avoid_sv1","""event"",""trial"",""time""
""fullscreenenter"",""1"",""2255""
""fullscreenexit"",""35"",""129754""
""blur"",""35"",""133332""
""focus"",""35"",""137941""
","""event"",""trial"",""time""
""blur"",""35"",""133332""
","""event"",""trial"",""time""
""focus"",""35"",""137941""
","""event"",""trial"",""time""
""fullscreenenter"",""1"",""2255""
","""event"",""trial"",""time""
""fullscreenexit"",""35"",""129754""
","","","","","","1295.7000000000698","images/dog5.png","","","memory_trial","4","definitely_new",""
"html-button-response","127","333741","0.0-18.0-2.41-0.41","5969","approach_avoid_sv1","""event"",""trial"",""time""
""fullscreenenter"",""1"",""2255""
""fullscreenexit"",""35"",""129754""
""blur"",""35"",""133332""
""focus"",""35"",""137941""
","""event"",""trial"",""time""
""blur"",""35"",""133332""
","""event"",""trial"",""time""
""focus"",""35"",""137941""
","""event"",""trial"",""time""
""fullscreenenter"",""1"",""2255""
","""event"",""trial"",""time""
""fullscreenexit"",""35"",""129754""
","","","","","","1857.3000000000466","<p> Take a break! </p><p> Click the button to continue. </p>","0","","break","","",""
"html-keyboard-response","128","334244","0.0-18.0-0.42","5969","approach_avoid_sv1","""event"",""trial"",""time""
""fullscreenenter"",""1"",""2255""
""fullscreenexit"",""35"",""129754""
""blur"",""35"",""133332""
""focus"",""35"",""137941""
","""event"",""trial"",""time""
""blur"",""35"",""133332""
","""event"",""trial"",""time""
""focus"",""35"",""137941""
","""event"",""trial"",""time""
""fullscreenenter"",""1"",""2255""
","""event"",""trial"",""time""
""fullscreenexit"",""35"",""129754""
","","","","","","null","<div style=""font-size:60px;"">+</div>","null","","fixation","","",""
"memory-trial","129","336477","0.0-18.0-1.42","5969","approach_avoid_sv1","""event"",""trial"",""time""
""fullscreenenter"",""1"",""2255""
""fullscreenexit"",""35"",""129754""
""blur"",""35"",""133332""
""focus"",""35"",""137941""
","""event"",""trial"",""time""
""blur"",""35"",""133332""
","""event"",""trial"",""time""
""focus"",""35"",""137941""
","""event"",""trial"",""time""
""fullscreenenter"",""1"",""2255""
","""event"",""trial"",""time""
""fullscreenexit"",""35"",""129754""
","","","","","","1228.2000000000698","images/bush3.png","","","memory_trial","4","definitely_new",""
"html-keyboard-response","130","336981","0.0-18.0-0.43","5969","approach_avoid_sv1","""event"",""trial"",""time""
""fullscreenenter"",""1"",""2255""
""fullscreenexit"",""35"",""129754""
""blur"",""35"",""133332""
""focus"",""35"",""137941""
","""event"",""trial"",""time""
""blur"",""35"",""133332""
","""event"",""trial"",""time""
""focus"",""35"",""137941""
","""event"",""trial"",""time""
""fullscreenenter"",""1"",""2255""
","""event"",""trial"",""time""
""fullscreenexit"",""35"",""129754""
","","","","","","null","<div style=""font-size:60px;"">+</div>","null","","fixation","","",""
"memory-trial","131","339205","0.0-18.0-1.43","5969","approach_avoid_sv1","""event"",""trial"",""time""
""fullscreenenter"",""1"",""2255""
""fullscreenexit"",""35"",""129754""
""blur"",""35"",""133332""
""focus"",""35"",""137941""
","""event"",""trial"",""time""
""blur"",""35"",""133332""
","""event"",""trial"",""time""
""focus"",""35"",""137941""
","""event"",""trial"",""time""
""fullscreenenter"",""1"",""2255""
","""event"",""trial"",""time""
""fullscreenexit"",""35"",""129754""
","","","","","","1218.2000000000698","images/truck7.png","","","memory_trial","2","maybe_old",""
"html-keyboard-response","132","339710","0.0-18.0-0.44","5969","approach_avoid_sv1","""event"",""trial"",""time""
""fullscreenenter"",""1"",""2255""
""fullscreenexit"",""35"",""129754""
""blur"",""35"",""133332""
""focus"",""35"",""137941""
","""event"",""trial"",""time""
""blur"",""35"",""133332""
","""event"",""trial"",""time""
""focus"",""35"",""137941""
","""event"",""trial"",""time""
""fullscreenenter"",""1"",""2255""
","""event"",""trial"",""time""
""fullscreenexit"",""35"",""129754""
","","","","","","null","<div style=""font-size:60px;"">+</div>","null","","fixation","","",""
"memory-trial","133","341742","0.0-18.0-1.44","5969","approach_avoid_sv1","""event"",""trial"",""time""
""fullscreenenter"",""1"",""2255""
""fullscreenexit"",""35"",""129754""
""blur"",""35"",""133332""
""focus"",""35"",""137941""
","""event"",""trial"",""time""
""blur"",""35"",""133332""
","""event"",""trial"",""time""
""focus"",""35"",""137941""
","""event"",""trial"",""time""
""fullscreenenter"",""1"",""2255""
","""event"",""trial"",""time""
""fullscreenexit"",""35"",""129754""
","","","","","","1028.4000000000233","images/truck3.png","","","memory_trial","1","definitely_old",""
"html-keyboard-response","134","342246","0.0-18.0-0.45","5969","approach_avoid_sv1","""event"",""trial"",""time""
""fullscreenenter"",""1"",""2255""
""fullscreenexit"",""35"",""129754""
""blur"",""35"",""133332""
""focus"",""35"",""137941""
","""event"",""trial"",""time""
""blur"",""35"",""133332""
","""event"",""trial"",""time""
""focus"",""35"",""137941""
","""event"",""trial"",""time""
""fullscreenenter"",""1"",""2255""
","""event"",""trial"",""time""
""fullscreenexit"",""35"",""129754""
","","","","","","null","<div style=""font-size:60px;"">+</div>","null","","fixation","","",""
"memory-trial","135","347549","0.0-18.0-1.45","5969","approach_avoid_sv1","""event"",""trial"",""time""
""fullscreenenter"",""1"",""2255""
""fullscreenexit"",""35"",""129754""
""blur"",""35"",""133332""
""focus"",""35"",""137941""
","""event"",""trial"",""time""
""blur"",""35"",""133332""
","""event"",""trial"",""time""
""focus"",""35"",""137941""
","""event"",""trial"",""time""
""fullscreenenter"",""1"",""2255""
","""event"",""trial"",""time""
""fullscreenexit"",""35"",""129754""
","","","","","","4298.900000000023","images/table6.png","","","memory_trial","3","maybe_new",""
"html-keyboard-response","136","348053","0.0-18.0-0.46","5969","approach_avoid_sv1","""event"",""trial"",""time""
""fullscreenenter"",""1"",""2255""
""fullscreenexit"",""35"",""129754""
""blur"",""35"",""133332""
""focus"",""35"",""137941""
","""event"",""trial"",""time""
""blur"",""35"",""133332""
","""event"",""trial"",""time""
""focus"",""35"",""137941""
","""event"",""trial"",""time""
""fullscreenenter"",""1"",""2255""
","""event"",""trial"",""time""
""fullscreenexit"",""35"",""129754""
","","","","","","null","<div style=""font-size:60px;"">+</div>","null","","fixation","","",""
"memory-trial","137","352550","0.0-18.0-1.46","5969","approach_avoid_sv1","""event"",""trial"",""time""
""fullscreenenter"",""1"",""2255""
""fullscreenexit"",""35"",""129754""
""blur"",""35"",""133332""
""focus"",""35"",""137941""
","""event"",""trial"",""time""
""blur"",""35"",""133332""
","""event"",""trial"",""time""
""focus"",""35"",""137941""
","""event"",""trial"",""time""
""fullscreenenter"",""1"",""2255""
","""event"",""trial"",""time""
""fullscreenexit"",""35"",""129754""
","","","","","","3487.5","images/sheep3.png","","","memory_trial","2","maybe_old",""
"html-keyboard-response","138","353053","0.0-18.0-0.47","5969","approach_avoid_sv1","""event"",""trial"",""time""
""fullscreenenter"",""1"",""2255""
""fullscreenexit"",""35"",""129754""
""blur"",""35"",""133332""
""focus"",""35"",""137941""
","""event"",""trial"",""time""
""blur"",""35"",""133332""
","""event"",""trial"",""time""
""focus"",""35"",""137941""
","""event"",""trial"",""time""
""fullscreenenter"",""1"",""2255""
","""event"",""trial"",""time""
""fullscreenexit"",""35"",""129754""
","","","","","","null","<div style=""font-size:60px;"">+</div>","null","","fixation","","",""
"memory-trial","139","357294","0.0-18.0-1.47","5969","approach_avoid_sv1","""event"",""trial"",""time""
""fullscreenenter"",""1"",""2255""
""fullscreenexit"",""35"",""129754""
""blur"",""35"",""133332""
""focus"",""35"",""137941""
","""event"",""trial"",""time""
""blur"",""35"",""133332""
","""event"",""trial"",""time""
""focus"",""35"",""137941""
","""event"",""trial"",""time""
""fullscreenenter"",""1"",""2255""
","""event"",""trial"",""time""
""fullscreenexit"",""35"",""129754""
","","","","","","3236.3000000000466","images/orange1.png","","","memory_trial","3","maybe_new",""
"html-keyboard-response","140","357797","0.0-18.0-0.48","5969","approach_avoid_sv1","""event"",""trial"",""time""
""fullscreenenter"",""1"",""2255""
""fullscreenexit"",""35"",""129754""
""blur"",""35"",""133332""
""focus"",""35"",""137941""
","""event"",""trial"",""time""
""blur"",""35"",""133332""
","""event"",""trial"",""time""
""focus"",""35"",""137941""
","""event"",""trial"",""time""
""fullscreenenter"",""1"",""2255""
","""event"",""trial"",""time""
""fullscreenexit"",""35"",""129754""
","","","","","","null","<div style=""font-size:60px;"">+</div>","null","","fixation","","",""
"memory-trial","141","360166","0.0-18.0-1.48","5969","approach_avoid_sv1","""event"",""trial"",""time""
""fullscreenenter"",""1"",""2255""
""fullscreenexit"",""35"",""129754""
""blur"",""35"",""133332""
""focus"",""35"",""137941""
","""event"",""trial"",""time""
""blur"",""35"",""133332""
","""event"",""trial"",""time""
""focus"",""35"",""137941""
","""event"",""trial"",""time""
""fullscreenenter"",""1"",""2255""
","""event"",""trial"",""time""
""fullscreenexit"",""35"",""129754""
","","","","","","1357","images/sofa6.png","","","memory_trial","1","definitely_old",""
"html-keyboard-response","142","360669","0.0-18.0-0.49","5969","approach_avoid_sv1","""event"",""trial"",""time""
""fullscreenenter"",""1"",""2255""
""fullscreenexit"",""35"",""129754""
""blur"",""35"",""133332""
""focus"",""35"",""137941""
","""event"",""trial"",""time""
""blur"",""35"",""133332""
","""event"",""trial"",""time""
""focus"",""35"",""137941""
","""event"",""trial"",""time""
""fullscreenenter"",""1"",""2255""
","""event"",""trial"",""time""
""fullscreenexit"",""35"",""129754""
","","","","","","null","<div style=""font-size:60px;"">+</div>","null","","fixation","","",""
"memory-trial","143","362741","0.0-18.0-1.49","5969","approach_avoid_sv1","""event"",""trial"",""time""
""fullscreenenter"",""1"",""2255""
""fullscreenexit"",""35"",""129754""
""blur"",""35"",""133332""
""focus"",""35"",""137941""
","""event"",""trial"",""time""
""blur"",""35"",""133332""
","""event"",""trial"",""time""
""focus"",""35"",""137941""
","""event"",""trial"",""time""
""fullscreenenter"",""1"",""2255""
","""event"",""trial"",""time""
""fullscreenexit"",""35"",""129754""
","","","","","","1063.5","images/sofa3.png","","","memory_trial","2","maybe_old",""
"html-keyboard-response","144","363246","0.0-18.0-0.50","5969","approach_avoid_sv1","""event"",""trial"",""time""
""fullscreenenter"",""1"",""2255""
""fullscreenexit"",""35"",""129754""
""blur"",""35"",""133332""
""focus"",""35"",""137941""
","""event"",""trial"",""time""
""blur"",""35"",""133332""
","""event"",""trial"",""time""
""focus"",""35"",""137941""
","""event"",""trial"",""time""
""fullscreenenter"",""1"",""2255""
","""event"",""trial"",""time""
""fullscreenexit"",""35"",""129754""
","","","","","","null","<div style=""font-size:60px;"">+</div>","null","","fixation","","",""
"memory-trial","145","366398","0.0-18.0-1.50","5969","approach_avoid_sv1","""event"",""trial"",""time""
""fullscreenenter"",""1"",""2255""
""fullscreenexit"",""35"",""129754""
""blur"",""35"",""133332""
""focus"",""35"",""137941""
","""event"",""trial"",""time""
""blur"",""35"",""133332""
","""event"",""trial"",""time""
""focus"",""35"",""137941""
","""event"",""trial"",""time""
""fullscreenenter"",""1"",""2255""
","""event"",""trial"",""time""
""fullscreenexit"",""35"",""129754""
","","","","","","2142.1999999999534","images/horse8.png","","","memory_trial","4","definitely_new",""
"html-keyboard-response","146","366902","0.0-18.0-0.51","5969","approach_avoid_sv1","""event"",""trial"",""time""
""fullscreenenter"",""1"",""2255""
""fullscreenexit"",""35"",""129754""
""blur"",""35"",""133332""
""focus"",""35"",""137941""
","""event"",""trial"",""time""
""blur"",""35"",""133332""
","""event"",""trial"",""time""
""focus"",""35"",""137941""
","""event"",""trial"",""time""
""fullscreenenter"",""1"",""2255""
","""event"",""trial"",""time""
""fullscreenexit"",""35"",""129754""
","","","","","","null","<div style=""font-size:60px;"">+</div>","null","","fixation","","",""
"memory-trial","147","368814","0.0-18.0-1.51","5969","approach_avoid_sv1","""event"",""trial"",""time""
""fullscreenenter"",""1"",""2255""
""fullscreenexit"",""35"",""129754""
""blur"",""35"",""133332""
""focus"",""35"",""137941""
","""event"",""trial"",""time""
""blur"",""35"",""133332""
","""event"",""trial"",""time""
""focus"",""35"",""137941""
","""event"",""trial"",""time""
""fullscreenenter"",""1"",""2255""
","""event"",""trial"",""time""
""fullscreenexit"",""35"",""129754""
","","","","","","907.6000000000931","images/cactus8.png","","","memory_trial","1","definitely_old",""
"html-keyboard-response","148","369318","0.0-18.0-0.52","5969","approach_avoid_sv1","""event"",""trial"",""time""
""fullscreenenter"",""1"",""2255""
""fullscreenexit"",""35"",""129754""
""blur"",""35"",""133332""
""focus"",""35"",""137941""
","""event"",""trial"",""time""
""blur"",""35"",""133332""
","""event"",""trial"",""time""
""focus"",""35"",""137941""
","""event"",""trial"",""time""
""fullscreenenter"",""1"",""2255""
","""event"",""trial"",""time""
""fullscreenexit"",""35"",""129754""
","","","","","","null","<div style=""font-size:60px;"">+</div>","null","","fixation","","",""
"memory-trial","149","371125","0.0-18.0-1.52","5969","approach_avoid_sv1","""event"",""trial"",""time""
""fullscreenenter"",""1"",""2255""
""fullscreenexit"",""35"",""129754""
""blur"",""35"",""133332""
""focus"",""35"",""137941""
","""event"",""trial"",""time""
""blur"",""35"",""133332""
","""event"",""trial"",""time""
""focus"",""35"",""137941""
","""event"",""trial"",""time""
""fullscreenenter"",""1"",""2255""
","""event"",""trial"",""time""
""fullscreenexit"",""35"",""129754""
","","","","","","799.2000000000698","images/goat2.png","","","memory_trial","1","definitely_old",""
"html-keyboard-response","150","371629","0.0-18.0-0.53","5969","approach_avoid_sv1","""event"",""trial"",""time""
""fullscreenenter"",""1"",""2255""
""fullscreenexit"",""35"",""129754""
""blur"",""35"",""133332""
""focus"",""35"",""137941""
","""event"",""trial"",""time""
""blur"",""35"",""133332""
","""event"",""trial"",""time""
""focus"",""35"",""137941""
","""event"",""trial"",""time""
""fullscreenenter"",""1"",""2255""
","""event"",""trial"",""time""
""fullscreenexit"",""35"",""129754""
","","","","","","null","<div style=""font-size:60px;"">+</div>","null","","fixation","","",""
"memory-trial","151","374230","0.0-18.0-1.53","5969","approach_avoid_sv1","""event"",""trial"",""time""
""fullscreenenter"",""1"",""2255""
""fullscreenexit"",""35"",""129754""
""blur"",""35"",""133332""
""focus"",""35"",""137941""
","""event"",""trial"",""time""
""blur"",""35"",""133332""
","""event"",""trial"",""time""
""focus"",""35"",""137941""
","""event"",""trial"",""time""
""fullscreenenter"",""1"",""2255""
","""event"",""trial"",""time""
""fullscreenexit"",""35"",""129754""
","","","","","","1591.4000000000233","images/straw3.png","","","memory_trial","2","maybe_old",""
"html-keyboard-response","152","374734","0.0-18.0-0.54","5969","approach_avoid_sv1","""event"",""trial"",""time""
""fullscreenenter"",""1"",""2255""
""fullscreenexit"",""35"",""129754""
""blur"",""35"",""133332""
""focus"",""35"",""137941""
","""event"",""trial"",""time""
""blur"",""35"",""133332""
","""event"",""trial"",""time""
""focus"",""35"",""137941""
","""event"",""trial"",""time""
""fullscreenenter"",""1"",""2255""
","""event"",""trial"",""time""
""fullscreenexit"",""35"",""129754""
","","","","","","null","<div style=""font-size:60px;"">+</div>","null","","fixation","","",""
"memory-trial","153","376926","0.0-18.0-1.54","5969","approach_avoid_sv1","""event"",""trial"",""time""
""fullscreenenter"",""1"",""2255""
""fullscreenexit"",""35"",""129754""
""blur"",""35"",""133332""
""focus"",""35"",""137941""
","""event"",""trial"",""time""
""blur"",""35"",""133332""
","""event"",""trial"",""time""
""focus"",""35"",""137941""
","""event"",""trial"",""time""
""fullscreenenter"",""1"",""2255""
","""event"",""trial"",""time""
""fullscreenexit"",""35"",""129754""
","","","","","","1187.7000000000698","images/cactus5.png","","","memory_trial","1","definitely_old",""
"html-keyboard-response","154","377430","0.0-18.0-0.55","5969","approach_avoid_sv1","""event"",""trial"",""time""
""fullscreenenter"",""1"",""2255""
""fullscreenexit"",""35"",""129754""
""blur"",""35"",""133332""
""focus"",""35"",""137941""
","""event"",""trial"",""time""
""blur"",""35"",""133332""
","""event"",""trial"",""time""
""focus"",""35"",""137941""
","""event"",""trial"",""time""
""fullscreenenter"",""1"",""2255""
","""event"",""trial"",""time""
""fullscreenexit"",""35"",""129754""
","","","","","","null","<div style=""font-size:60px;"">+</div>","null","","fixation","","",""
"memory-trial","155","379989","0.0-18.0-1.55","5969","approach_avoid_sv1","""event"",""trial"",""time""
""fullscreenenter"",""1"",""2255""
""fullscreenexit"",""35"",""129754""
""blur"",""35"",""133332""
""focus"",""35"",""137941""
","""event"",""trial"",""time""
""blur"",""35"",""133332""
","""event"",""trial"",""time""
""focus"",""35"",""137941""
","""event"",""trial"",""time""
""fullscreenenter"",""1"",""2255""
","""event"",""trial"",""time""
""fullscreenexit"",""35"",""129754""
","","","","","","1556.2000000000698","images/sheep1.png","","","memory_trial","2","maybe_old",""
"html-keyboard-response","156","380493","0.0-18.0-0.56","5969","approach_avoid_sv1","""event"",""trial"",""time""
""fullscreenenter"",""1"",""2255""
""fullscreenexit"",""35"",""129754""
""blur"",""35"",""133332""
""focus"",""35"",""137941""
","""event"",""trial"",""time""
""blur"",""35"",""133332""
","""event"",""trial"",""time""
""focus"",""35"",""137941""
","""event"",""trial"",""time""
""fullscreenenter"",""1"",""2255""
","""event"",""trial"",""time""
""fullscreenexit"",""35"",""129754""
","","","","","","null","<div style=""font-size:60px;"">+</div>","null","","fixation","","",""
"memory-trial","157","382853","0.0-18.0-1.56","5969","approach_avoid_sv1","""event"",""trial"",""time""
""fullscreenenter"",""1"",""2255""
""fullscreenexit"",""35"",""129754""
""blur"",""35"",""133332""
""focus"",""35"",""137941""
","""event"",""trial"",""time""
""blur"",""35"",""133332""
","""event"",""trial"",""time""
""focus"",""35"",""137941""
","""event"",""trial"",""time""
""fullscreenenter"",""1"",""2255""
","""event"",""trial"",""time""
""fullscreenexit"",""35"",""129754""
","","","","","","1351.8000000000466","images/goat1.png","","","memory_trial","1","definitely_old",""
"html-keyboard-response","158","383357","0.0-18.0-0.57","5969","approach_avoid_sv1","""event"",""trial"",""time""
""fullscreenenter"",""1"",""2255""
""fullscreenexit"",""35"",""129754""
""blur"",""35"",""133332""
""focus"",""35"",""137941""
","""event"",""trial"",""time""
""blur"",""35"",""133332""
","""event"",""trial"",""time""
""focus"",""35"",""137941""
","""event"",""trial"",""time""
""fullscreenenter"",""1"",""2255""
","""event"",""trial"",""time""
""fullscreenexit"",""35"",""129754""
","","","","","","null","<div style=""font-size:60px;"">+</div>","null","","fixation","","",""
"memory-trial","159","385853","0.0-18.0-1.57","5969","approach_avoid_sv1","""event"",""trial"",""time""
""fullscreenenter"",""1"",""2255""
""fullscreenexit"",""35"",""129754""
""blur"",""35"",""133332""
""focus"",""35"",""137941""
","""event"",""trial"",""time""
""blur"",""35"",""133332""
","""event"",""trial"",""time""
""focus"",""35"",""137941""
","""event"",""trial"",""time""
""fullscreenenter"",""1"",""2255""
","""event"",""trial"",""time""
""fullscreenexit"",""35"",""129754""
","","","","","","1489.7000000000698","images/banana4.png","","","memory_trial","3","maybe_new",""
"html-keyboard-response","160","386357","0.0-18.0-0.58","5969","approach_avoid_sv1","""event"",""trial"",""time""
""fullscreenenter"",""1"",""2255""
""fullscreenexit"",""35"",""129754""
""blur"",""35"",""133332""
""focus"",""35"",""137941""
","""event"",""trial"",""time""
""blur"",""35"",""133332""
","""event"",""trial"",""time""
""focus"",""35"",""137941""
","""event"",""trial"",""time""
""fullscreenenter"",""1"",""2255""
","""event"",""trial"",""time""
""fullscreenexit"",""35"",""129754""
","","","","","","null","<div style=""font-size:60px;"">+</div>","null","","fixation","","",""
"memory-trial","161","389262","0.0-18.0-1.58","5969","approach_avoid_sv1","""event"",""trial"",""time""
""fullscreenenter"",""1"",""2255""
""fullscreenexit"",""35"",""129754""
""blur"",""35"",""133332""
""focus"",""35"",""137941""
","""event"",""trial"",""time""
""blur"",""35"",""133332""
","""event"",""trial"",""time""
""focus"",""35"",""137941""
","""event"",""trial"",""time""
""fullscreenenter"",""1"",""2255""
","""event"",""trial"",""time""
""fullscreenexit"",""35"",""129754""
","","","","","","1892.8999999999069","images/straw6.png","","","memory_trial","1","definitely_old",""
"html-keyboard-response","162","389766","0.0-18.0-0.59","5969","approach_avoid_sv1","""event"",""trial"",""time""
""fullscreenenter"",""1"",""2255""
""fullscreenexit"",""35"",""129754""
""blur"",""35"",""133332""
""focus"",""35"",""137941""
","""event"",""trial"",""time""
""blur"",""35"",""133332""
","""event"",""trial"",""time""
""focus"",""35"",""137941""
","""event"",""trial"",""time""
""fullscreenenter"",""1"",""2255""
","""event"",""trial"",""time""
""fullscreenexit"",""35"",""129754""
","","","","","","null","<div style=""font-size:60px;"">+</div>","null","","fixation","","",""
"memory-trial","163","391526","0.0-18.0-1.59","5969","approach_avoid_sv1","""event"",""trial"",""time""
""fullscreenenter"",""1"",""2255""
""fullscreenexit"",""35"",""129754""
""blur"",""35"",""133332""
""focus"",""35"",""137941""
","""event"",""trial"",""time""
""blur"",""35"",""133332""
","""event"",""trial"",""time""
""focus"",""35"",""137941""
","""event"",""trial"",""time""
""fullscreenenter"",""1"",""2255""
","""event"",""trial"",""time""
""fullscreenexit"",""35"",""129754""
","","","","","","755.1999999999534","images/banana6.png","","","memory_trial","1","definitely_old",""
"html-keyboard-response","164","392030","0.0-18.0-0.60","5969","approach_avoid_sv1","""event"",""trial"",""time""
""fullscreenenter"",""1"",""2255""
""fullscreenexit"",""35"",""129754""
""blur"",""35"",""133332""
""focus"",""35"",""137941""
","""event"",""trial"",""time""
""blur"",""35"",""133332""
","""event"",""trial"",""time""
""focus"",""35"",""137941""
","""event"",""trial"",""time""
""fullscreenenter"",""1"",""2255""
","""event"",""trial"",""time""
""fullscreenexit"",""35"",""129754""
","","","","","","null","<div style=""font-size:60px;"">+</div>","null","","fixation","","",""
"memory-trial","165","394430","0.0-18.0-1.60","5969","approach_avoid_sv1","""event"",""trial"",""time""
""fullscreenenter"",""1"",""2255""
""fullscreenexit"",""35"",""129754""
""blur"",""35"",""133332""
""focus"",""35"",""137941""
","""event"",""trial"",""time""
""blur"",""35"",""133332""
","""event"",""trial"",""time""
""focus"",""35"",""137941""
","""event"",""trial"",""time""
""fullscreenenter"",""1"",""2255""
","""event"",""trial"",""time""
""fullscreenexit"",""35"",""129754""
","","","","","","1395.3000000000466","images/bed8.png","","","memory_trial","3","maybe_new",""
"html-keyboard-response","166","394934","0.0-18.0-0.61","5969","approach_avoid_sv1","""event"",""trial"",""time""
""fullscreenenter"",""1"",""2255""
""fullscreenexit"",""35"",""129754""
""blur"",""35"",""133332""
""focus"",""35"",""137941""
","""event"",""trial"",""time""
""blur"",""35"",""133332""
","""event"",""trial"",""time""
""focus"",""35"",""137941""
","""event"",""trial"",""time""
""fullscreenenter"",""1"",""2255""
","""event"",""trial"",""time""
""fullscreenexit"",""35"",""129754""
","","","","","","null","<div style=""font-size:60px;"">+</div>","null","","fixation","","",""
"memory-trial","167","396597","0.0-18.0-1.61","5969","approach_avoid_sv1","""event"",""trial"",""time""
""fullscreenenter"",""1"",""2255""
""fullscreenexit"",""35"",""129754""
""blur"",""35"",""133332""
""focus"",""35"",""137941""
","""event"",""trial"",""time""
""blur"",""35"",""133332""
","""event"",""trial"",""time""
""focus"",""35"",""137941""
","""event"",""trial"",""time""
""fullscreenenter"",""1"",""2255""
","""event"",""trial"",""time""
""fullscreenexit"",""35"",""129754""
","","","","","","658.5999999999767","images/sofa1.png","","","memory_trial","3","maybe_new",""
"html-keyboard-response","168","397101","0.0-18.0-0.62","5969","approach_avoid_sv1","""event"",""trial"",""time""
""fullscreenenter"",""1"",""2255""
""fullscreenexit"",""35"",""129754""
""blur"",""35"",""133332""
""focus"",""35"",""137941""
","""event"",""trial"",""time""
""blur"",""35"",""133332""
","""event"",""trial"",""time""
""focus"",""35"",""137941""
","""event"",""trial"",""time""
""fullscreenenter"",""1"",""2255""
","""event"",""trial"",""time""
""fullscreenexit"",""35"",""129754""
","","","","","","null","<div style=""font-size:60px;"">+</div>","null","","fixation","","",""
"memory-trial","169","399214","0.0-18.0-1.62","5969","approach_avoid_sv1","""event"",""trial"",""time""
""fullscreenenter"",""1"",""2255""
""fullscreenexit"",""35"",""129754""
""blur"",""35"",""133332""
""focus"",""35"",""137941""
","""event"",""trial"",""time""
""blur"",""35"",""133332""
","""event"",""trial"",""time""
""focus"",""35"",""137941""
","""event"",""trial"",""time""
""fullscreenenter"",""1"",""2255""
","""event"",""trial"",""time""
""fullscreenexit"",""35"",""129754""
","","","","","","1109","images/cat2.png","","","memory_trial","1","definitely_old",""
"html-keyboard-response","170","399717","0.0-18.0-0.63","5969","approach_avoid_sv1","""event"",""trial"",""time""
""fullscreenenter"",""1"",""2255""
""fullscreenexit"",""35"",""129754""
""blur"",""35"",""133332""
""focus"",""35"",""137941""
","""event"",""trial"",""time""
""blur"",""35"",""133332""
","""event"",""trial"",""time""
""focus"",""35"",""137941""
","""event"",""trial"",""time""
""fullscreenenter"",""1"",""2255""
","""event"",""trial"",""time""
""fullscreenexit"",""35"",""129754""
","","","","","","null","<div style=""font-size:60px;"">+</div>","null","","fixation","","",""
"memory-trial","171","401966","0.0-18.0-1.63","5969","approach_avoid_sv1","""event"",""trial"",""time""
""fullscreenenter"",""1"",""2255""
""fullscreenexit"",""35"",""129754""
""blur"",""35"",""133332""
""focus"",""35"",""137941""
","""event"",""trial"",""time""
""blur"",""35"",""133332""
","""event"",""trial"",""time""
""focus"",""35"",""137941""
","""event"",""trial"",""time""
""fullscreenenter"",""1"",""2255""
","""event"",""trial"",""time""
""fullscreenexit"",""35"",""129754""
","","","","","","1241.5999999999767","images/cactus2.png","","","memory_trial","1","definitely_old",""
"html-keyboard-response","172","402469","0.0-18.0-0.64","5969","approach_avoid_sv1","""event"",""trial"",""time""
""fullscreenenter"",""1"",""2255""
""fullscreenexit"",""35"",""129754""
""blur"",""35"",""133332""
""focus"",""35"",""137941""
","""event"",""trial"",""time""
""blur"",""35"",""133332""
","""event"",""trial"",""time""
""focus"",""35"",""137941""
","""event"",""trial"",""time""
""fullscreenenter"",""1"",""2255""
","""event"",""trial"",""time""
""fullscreenexit"",""35"",""129754""
","","","","","","null","<div style=""font-size:60px;"">+</div>","null","","fixation","","",""
"memory-trial","173","404661","0.0-18.0-1.64","5969","approach_avoid_sv1","""event"",""trial"",""time""
""fullscreenenter"",""1"",""2255""
""fullscreenexit"",""35"",""129754""
""blur"",""35"",""133332""
""focus"",""35"",""137941""
","""event"",""trial"",""time""
""blur"",""35"",""133332""
","""event"",""trial"",""time""
""focus"",""35"",""137941""
","""event"",""trial"",""time""
""fullscreenenter"",""1"",""2255""
","""event"",""trial"",""time""
""fullscreenexit"",""35"",""129754""
","","","","","","1183.5","images/train6.png","","","memory_trial","1","definitely_old",""
"html-keyboard-response","174","405165","0.0-18.0-0.65","5969","approach_avoid_sv1","""event"",""trial"",""time""
""fullscreenenter"",""1"",""2255""
""fullscreenexit"",""35"",""129754""
""blur"",""35"",""133332""
""focus"",""35"",""137941""
","""event"",""trial"",""time""
""blur"",""35"",""133332""
","""event"",""trial"",""time""
""focus"",""35"",""137941""
","""event"",""trial"",""time""
""fullscreenenter"",""1"",""2255""
","""event"",""trial"",""time""
""fullscreenexit"",""35"",""129754""
","","","","","","null","<div style=""font-size:60px;"">+</div>","null","","fixation","","",""
"memory-trial","175","407270","0.0-18.0-1.65","5969","approach_avoid_sv1","""event"",""trial"",""time""
""fullscreenenter"",""1"",""2255""
""fullscreenexit"",""35"",""129754""
""blur"",""35"",""133332""
""focus"",""35"",""137941""
","""event"",""trial"",""time""
""blur"",""35"",""133332""
","""event"",""trial"",""time""
""focus"",""35"",""137941""
","""event"",""trial"",""time""
""fullscreenenter"",""1"",""2255""
","""event"",""trial"",""time""
""fullscreenexit"",""35"",""129754""
","","","","","","1094.2999999999302","images/goat4.png","","","memory_trial","1","definitely_old",""
"html-keyboard-response","176","407774","0.0-18.0-0.66","5969","approach_avoid_sv1","""event"",""trial"",""time""
""fullscreenenter"",""1"",""2255""
""fullscreenexit"",""35"",""129754""
""blur"",""35"",""133332""
""focus"",""35"",""137941""
","""event"",""trial"",""time""
""blur"",""35"",""133332""
","""event"",""trial"",""time""
""focus"",""35"",""137941""
","""event"",""trial"",""time""
""fullscreenenter"",""1"",""2255""
","""event"",""trial"",""time""
""fullscreenexit"",""35"",""129754""
","","","","","","null","<div style=""font-size:60px;"">+</div>","null","","fixation","","",""
"memory-trial","177","409845","0.0-18.0-1.66","5969","approach_avoid_sv1","""event"",""trial"",""time""
""fullscreenenter"",""1"",""2255""
""fullscreenexit"",""35"",""129754""
""blur"",""35"",""133332""
""focus"",""35"",""137941""
","""event"",""trial"",""time""
""blur"",""35"",""133332""
","""event"",""trial"",""time""
""focus"",""35"",""137941""
","""event"",""trial"",""time""
