"trial_type","trial_index","time_elapsed","internal_node_id","subject_id","task_version","interactions","blur_events","focus_events","fullscreenenter_events","fullscreenexit_events","success","timeout","failed_images","failed_audio","failed_video","rt","stimulus","response","button_pressed","task_part","key_press","answer","correct"
"pavlovia","0","3","0.0-0.0","7588","approach_avoid_sv1","""event"",""trial"",""time""
""fullscreenenter"",""1"",""1814""
","
","
","""event"",""trial"",""time""
""fullscreenenter"",""1"",""1814""
","
","","","","","","","","","","","","",""
"fullscreen","1","2786","0.0-1.0","7588","approach_avoid_sv1","""event"",""trial"",""time""
""fullscreenenter"",""1"",""1814""
","
","
","""event"",""trial"",""time""
""fullscreenenter"",""1"",""1814""
","
","true","","","","","","","","","","","",""
"preload","2","5670","0.0-2.0","7588","approach_avoid_sv1","""event"",""trial"",""time""
""fullscreenenter"",""1"",""1814""
","
","
","""event"",""trial"",""time""
""fullscreenenter"",""1"",""1814""
","
","true","false","[]","[]","[]","","","","","","","",""
"preload","3","9806","0.0-3.0","7588","approach_avoid_sv1","""event"",""trial"",""time""
""fullscreenenter"",""1"",""1814""
","
","
","""event"",""trial"",""time""
""fullscreenenter"",""1"",""1814""
","
","true","false","[]","[]","[]","","","","","","","",""
"preload","4","10258","0.0-4.0","7588","approach_avoid_sv1","""event"",""trial"",""time""
""fullscreenenter"",""1"",""1814""
","
","
","""event"",""trial"",""time""
""fullscreenenter"",""1"",""1814""
","
","true","false","[]","[]","[]","","","","","","","",""
"audio-keyboard-response","5","12198","0.0-5.0","7588","approach_avoid_sv1","""event"",""trial"",""time""
""fullscreenenter"",""1"",""1814""
","
","
","""event"",""trial"",""time""
""fullscreenenter"",""1"",""1814""
","
","","","","","","1941.3333333333333","audio/beep_loop.wav"," ","","","","",""
"audio-button-response","6","13384","0.0-6.0","7588","approach_avoid_sv1","""event"",""trial"",""time""
""fullscreenenter"",""1"",""1814""
","
","
","""event"",""trial"",""time""
""fullscreenenter"",""1"",""1814""
","
","","","","","","1179","audio/turtle.wav","3","","","","",""
"audio-button-response","7","15462","0.0-7.0","7588","approach_avoid_sv1","""event"",""trial"",""time""
""fullscreenenter"",""1"",""1814""
","
","
","""event"",""trial"",""time""
""fullscreenenter"",""1"",""1814""
","
","","","","","","1080","audio/shark.wav","2","","","","",""
"preload","8","26097","0.0-8.0","7588","approach_avoid_sv1","""event"",""trial"",""time""
""fullscreenenter"",""1"",""1814""
","
","
","""event"",""trial"",""time""
""fullscreenenter"",""1"",""1814""
","
","true","false","[]","[]","[]","","","","","","","",""
"learning-instructions","9","31549","0.0-9.0-0.0","7588","approach_avoid_sv1","""event"",""trial"",""time""
""fullscreenenter"",""1"",""1814""
","
","
","""event"",""trial"",""time""
""fullscreenenter"",""1"",""1814""
","
","","","","","","973","<p> Welcome back! </p><p> Last week, you had to make choices about lots of different items.  </p>","","0","instructions","","",""
"learning-instructions","10","36758","0.0-9.0-0.1","7588","approach_avoid_sv1","""event"",""trial"",""time""
""fullscreenenter"",""1"",""1814""
","
","
","""event"",""trial"",""time""
""fullscreenenter"",""1"",""1814""
","
","","","","","","1086","<p> Today, we are going to ask you to try to remember all the items. </p>","","0","instructions","","",""
"learning-instructions","11","47693","0.0-9.0-0.2","7588","approach_avoid_sv1","""event"",""trial"",""time""
""fullscreenenter"",""1"",""1814""
","
","
","""event"",""trial"",""time""
""fullscreenenter"",""1"",""1814""
","
","","","","","","815","<p> On every trial, you will see an image. </p><p> The image may be an OLD image you saw during the games last week or it may be a NEW image that was not presented. </p>","","0","instructions","","",""
"learning-instructions","12","57006","0.0-9.0-0.3","7588","approach_avoid_sv1","""event"",""trial"",""time""
""fullscreenenter"",""1"",""1814""
","
","
","""event"",""trial"",""time""
""fullscreenenter"",""1"",""1814""
","
","","","","","","813","<p> You need to select whether the image is:  </p><p>  'Definitely old', 'Maybe old', 'Maybe new', or 'Definitely new.'  </p><div class=""mem-choice-instructions-grid""><div class=""choice-option"" id=""choice-option-1"" ><img src=""images/definitely_old_1.png"" id=""choice-option-img-1"" class=""choice-option-img"" stage=""1""></div><div class=""choice-option"" id=""choice-option-2"" ><img src=""images/maybe_old_1.png"" id=""choice-option-img-2"" class=""choice-option-img"" stage=""1""></div><div class=""choice-option"" id=""choice-option-3"" ><img src=""images/maybe_new_1.png"" id=""choice-option-img-3"" class=""choice-option-img"" stage=""1""></div><div class=""choice-option"" id=""choice-option-4"" > <img src=""images/definitely_new_1.png"" id=""choice-option-img-4"" class=""choice-option-img"" stage=""1""></div></div>","","0","instructions","","",""
"learning-instructions","13","64961","0.0-9.0-0.4","7588","approach_avoid_sv1","""event"",""trial"",""time""
""fullscreenenter"",""1"",""1814""
","
","
","""event"",""trial"",""time""
""fullscreenenter"",""1"",""1814""
","
","","","","","","1452","<p> You should use the 1, 2, 3, and 4 keys to make your responses.  </p><div class=""mem-choice-instructions-grid""><div class=""choice-option"" id=""choice-option-1"" ><img src=""images/definitely_old.png"" id=""choice-option-img-1"" class=""choice-option-img"" stage=""1""></div><div class=""choice-option"" id=""choice-option-2"" ><img src=""images/maybe_old.png"" id=""choice-option-img-2"" class=""choice-option-img"" stage=""1""></div><div class=""choice-option"" id=""choice-option-3"" ><img src=""images/maybe_new.png"" id=""choice-option-img-3"" class=""choice-option-img"" stage=""1""></div><div class=""choice-option"" id=""choice-option-4"" > <img src=""images/definitely_new.png"" id=""choice-option-img-4"" class=""choice-option-img"" stage=""1""></div></div>","","0","instructions","","",""
"learning-instructions","14","72683","0.0-9.0-0.5","7588","approach_avoid_sv1","""event"",""trial"",""time""
""fullscreenenter"",""1"",""1814""
","
","
","""event"",""trial"",""time""
""fullscreenenter"",""1"",""1814""
","
","","","","","","1393","<p> You will have 10 seconds to make each response.  </p><p>  Make sure to respond before time runs out! </p>","","0","instructions","","",""
"learning-instructions","15","84043","0.0-9.0-0.6","7588","approach_avoid_sv1","""event"",""trial"",""time""
""fullscreenenter"",""1"",""1814""
","
","
","""event"",""trial"",""time""
""fullscreenenter"",""1"",""1814""
","
","","","","","","4263","<p> Today, you will see each image ONCE only.  </p><p>  That means none of the images will repeat. </p>","","0","instructions","","",""
"learning-instructions","16","97550","0.0-9.0-0.7","7588","approach_avoid_sv1","""event"",""trial"",""time""
""fullscreenenter"",""1"",""1814""
","
","
","""event"",""trial"",""time""
""fullscreenenter"",""1"",""1814""
","
","","","","","","830","<p> Before you play the real game, it is time to practice. </p><p>  Just like in the real game, some of the images in the practice will be ones you have seen before. </p><p>  Others will be entirely new. </p>","","0","instructions","","",""
"html-button-response","17","99156","0.0-10.0","7588","approach_avoid_sv1","""event"",""trial"",""time""
""fullscreenenter"",""1"",""1814""
","
","
","""event"",""trial"",""time""
""fullscreenenter"",""1"",""1814""
","
","","","","","","1490","<p> Ready to practice? </p><p> Remember, use the 1, 2, 3, and 4 keys to make your responses. </p>","0","","instructions","","",""
"html-keyboard-response","18","99765","0.0-11.0-0.0","7588","approach_avoid_sv1","""event"",""trial"",""time""
""fullscreenenter"",""1"",""1814""
","
","
","""event"",""trial"",""time""
""fullscreenenter"",""1"",""1814""
","
","","","","","","null","<div style=""font-size:60px;"">+</div>","null","","fixation","","",""
"memory-trial","19","101884","0.0-11.0-1.0","7588","approach_avoid_sv1","""event"",""trial"",""time""
""fullscreenenter"",""1"",""1814""
","
","
","""event"",""trial"",""time""
""fullscreenenter"",""1"",""1814""
","
","","","","","","1101","images/racket3.png","","","practice","1","definitely_old",""
"html-keyboard-response","20","102396","0.0-11.0-0.1","7588","approach_avoid_sv1","""event"",""trial"",""time""
""fullscreenenter"",""1"",""1814""
","
","
","""event"",""trial"",""time""
""fullscreenenter"",""1"",""1814""
","
","","","","","","null","<div style=""font-size:60px;"">+</div>","null","","fixation","","",""
"memory-trial","21","104390","0.0-11.0-1.1","7588","approach_avoid_sv1","""event"",""trial"",""time""
""fullscreenenter"",""1"",""1814""
","
","
","""event"",""trial"",""time""
""fullscreenenter"",""1"",""1814""
","
","","","","","","992","images/ball3.png","","","practice","2","maybe_old",""
"html-keyboard-response","22","104904","0.0-11.0-0.2","7588","approach_avoid_sv1","""event"",""trial"",""time""
""fullscreenenter"",""1"",""1814""
","
","
","""event"",""trial"",""time""
""fullscreenenter"",""1"",""1814""
","
","","","","","","null","<div style=""font-size:60px;"">+</div>","null","","fixation","","",""
"memory-trial","23","106789","0.0-11.0-1.2","7588","approach_avoid_sv1","""event"",""trial"",""time""
""fullscreenenter"",""1"",""1814""
","
","
","""event"",""trial"",""time""
""fullscreenenter"",""1"",""1814""
","
","","","","","","870","images/racket1.png","","","practice","1","definitely_old",""
"html-keyboard-response","24","107303","0.0-11.0-0.3","7588","approach_avoid_sv1","""event"",""trial"",""time""
""fullscreenenter"",""1"",""1814""
","
","
","""event"",""trial"",""time""
""fullscreenenter"",""1"",""1814""
","
","","","","","","null","<div style=""font-size:60px;"">+</div>","null","","fixation","","",""
"memory-trial","25","109388","0.0-11.0-1.3","7588","approach_avoid_sv1","""event"",""trial"",""time""
""fullscreenenter"",""1"",""1814""
","
","
","""event"",""trial"",""time""
""fullscreenenter"",""1"",""1814""
","
","","","","","","1075","images/racket5.png","","","practice","3","maybe_new",""
"html-keyboard-response","26","109904","0.0-11.0-0.4","7588","approach_avoid_sv1","""event"",""trial"",""time""
""fullscreenenter"",""1"",""1814""
","
","
","""event"",""trial"",""time""
""fullscreenenter"",""1"",""1814""
","
","","","","","","null","<div style=""font-size:60px;"">+</div>","null","","fixation","","",""
"memory-trial","27","112114","0.0-11.0-1.4","7588","approach_avoid_sv1","""event"",""trial"",""time""
""fullscreenenter"",""1"",""1814""
","
","
","""event"",""trial"",""time""
""fullscreenenter"",""1"",""1814""
","
","","","","","","1201","images/ball1.png","","","practice","2","maybe_old",""
"html-keyboard-response","28","112626","0.0-11.0-0.5","7588","approach_avoid_sv1","""event"",""trial"",""time""
""fullscreenenter"",""1"",""1814""
","
","
","""event"",""trial"",""time""
""fullscreenenter"",""1"",""1814""
","
","","","","","","null","<div style=""font-size:60px;"">+</div>","null","","fixation","","",""
"memory-trial","29","114899","0.0-11.0-1.5","7588","approach_avoid_sv1","""event"",""trial"",""time""
""fullscreenenter"",""1"",""1814""
","
","
","""event"",""trial"",""time""
""fullscreenenter"",""1"",""1814""
","
","","","","","","1267","images/racket2.png","","","practice","4","definitely_new",""
"html-keyboard-response","30","115412","0.0-11.0-0.6","7588","approach_avoid_sv1","""event"",""trial"",""time""
""fullscreenenter"",""1"",""1814""
","
","
","""event"",""trial"",""time""
""fullscreenenter"",""1"",""1814""
","
","","","","","","null","<div style=""font-size:60px;"">+</div>","null","","fixation","","",""
"memory-trial","31","117317","0.0-11.0-1.6","7588","approach_avoid_sv1","""event"",""trial"",""time""
""fullscreenenter"",""1"",""1814""
","
","
","""event"",""trial"",""time""
""fullscreenenter"",""1"",""1814""
","
","","","","","","894","images/ball2.png","","","practice","2","maybe_old",""
"html-keyboard-response","32","117832","0.0-11.0-0.7","7588","approach_avoid_sv1","""event"",""trial"",""time""
""fullscreenenter"",""1"",""1814""
","
","
","""event"",""trial"",""time""
""fullscreenenter"",""1"",""1814""
","
","","","","","","null","<div style=""font-size:60px;"">+</div>","null","","fixation","","",""
"memory-trial","33","119696","0.0-11.0-1.7","7588","approach_avoid_sv1","""event"",""trial"",""time""
""fullscreenenter"",""1"",""1814""
","
","
","""event"",""trial"",""time""
""fullscreenenter"",""1"",""1814""
","
","","","","","","853","images/ball5.png","","","practice","2","maybe_old",""
"learning-instructions","34","128105","0.0-12.0-0.0","7588","approach_avoid_sv1","""event"",""trial"",""time""
""fullscreenenter"",""1"",""1814""
","
","
","""event"",""trial"",""time""
""fullscreenenter"",""1"",""1814""
","
","","","","","","1103","<p> Great! You have completed the practice. </p><p> Before you start, we're going to ask you a few questions about how the game works.  </p>","","0","instructions","","",""
"preload","35","131935","0.0-13.0","7588","approach_avoid_sv1","""event"",""trial"",""time""
""fullscreenenter"",""1"",""1814""
","
","
","""event"",""trial"",""time""
""fullscreenenter"",""1"",""1814""
","
","true","false","[]","[]","[]","","","","","","","",""
"comp-q","36","138868","0.0-14.0-0.0","7588","approach_avoid_sv1","""event"",""trial"",""time""
""fullscreenenter"",""1"",""1814""
","
","
","""event"",""trial"",""time""
""fullscreenenter"",""1"",""1814""
","
","","","","","","1110","<p> <b> True or False? </b> </p><p> In this game, you will only see each image once. </p>","","1","comp_question","","","false"
"comp-q","37","146081","0.0-14.0-1.0","7588","approach_avoid_sv1","""event"",""trial"",""time""
""fullscreenenter"",""1"",""1814""
","
","
","""event"",""trial"",""time""
""fullscreenenter"",""1"",""1814""
","
","","","","","","683","<p> <b>Incorrect.</b> You will see many different images <i> one time each </i> in this game. </p>","","0","comp_answer","","",""
"comp-q","38","152544","0.0-14.1-0.1","7588","approach_avoid_sv1","""event"",""trial"",""time""
""fullscreenenter"",""1"",""1814""
","
","
","""event"",""trial"",""time""
""fullscreenenter"",""1"",""1814""
","
","","","","","","537","<p> <b> True or False? </b> </p><p> In this game, you will only see each image once. </p>","","0","comp_question","","","true"
"comp-q","39","159659","0.0-14.1-1.1","7588","approach_avoid_sv1","""event"",""trial"",""time""
""fullscreenenter"",""1"",""1814""
","
","
","""event"",""trial"",""time""
""fullscreenenter"",""1"",""1814""
","
","","","","","","781","<p> <b> That's right! </b> You will see many different images <i> one time each </i> in this game. </p>","","0","comp_answer","","",""
"comp-q","40","165148","0.0-15.0-0.0","7588","approach_avoid_sv1","""event"",""trial"",""time""
""fullscreenenter"",""1"",""1814""
","
","
","""event"",""trial"",""time""
""fullscreenenter"",""1"",""1814""
","
","","","","","","480","<p> <b> True or False? </b> </p><p> You should use the mouse and click to make your response. </p>","","1","comp_question","","","true"
"comp-q","41","172572","0.0-15.0-1.0","7588","approach_avoid_sv1","""event"",""trial"",""time""
""fullscreenenter"",""1"",""1814""
","
","
","""event"",""trial"",""time""
""fullscreenenter"",""1"",""1814""
","
","","","","","","933","<p><b> That's right! </b> You should use the '1', '2', '3', and '4' keys to make your response. </p>","","0","comp_answer","","",""
"comp-q","42","179484","0.0-16.0-0.0","7588","approach_avoid_sv1","""event"",""trial"",""time""
""fullscreenenter"",""1"",""1814""
","
","
","""event"",""trial"",""time""
""fullscreenenter"",""1"",""1814""
","
","","","","","","1223","<p> <b> True or False? </b> </p><p> You will have as much time as you want to make each choice. </p>","","1","comp_question","","","true"
"comp-q","43","184839","0.0-16.0-1.0","7588","approach_avoid_sv1","""event"",""trial"",""time""
""fullscreenenter"",""1"",""1814""
","
","
","""event"",""trial"",""time""
""fullscreenenter"",""1"",""1814""
","
","","","","","","660","<p> <b> That's right! </b> You will only have 10 seconds to make each choice. </p>","","0","comp_answer","","",""
"learning-instructions","44","199759","0.0-17.0","7588","approach_avoid_sv1","""event"",""trial"",""time""
""fullscreenenter"",""1"",""1814""
","
","
","""event"",""trial"",""time""
""fullscreenenter"",""1"",""1814""
","
","","","","","","6237","<p> Great! You are now ready to begin the game. </p><p> Remember, use the 1, 2, 3, and 4 keys to make your responses. </p>","","0","instructions","","",""
"html-keyboard-response","45","200364","0.0-18.0-0.0","7588","approach_avoid_sv1","""event"",""trial"",""time""
""fullscreenenter"",""1"",""1814""
","
","
","""event"",""trial"",""time""
""fullscreenenter"",""1"",""1814""
","
","","","","","","null","<div style=""font-size:60px;"">+</div>","null","","fixation","","",""
"memory-trial","46","202347","0.0-18.0-1.0","7588","approach_avoid_sv1","""event"",""trial"",""time""
""fullscreenenter"",""1"",""1814""
","
","
","""event"",""trial"",""time""
""fullscreenenter"",""1"",""1814""
","
","","","","","","975","images/bush7.png","","","memory_trial","3","maybe_new",""
"html-keyboard-response","47","202848","0.0-18.0-0.1","7588","approach_avoid_sv1","""event"",""trial"",""time""
""fullscreenenter"",""1"",""1814""
","
","
","""event"",""trial"",""time""
""fullscreenenter"",""1"",""1814""
","
","","","","","","null","<div style=""font-size:60px;"">+</div>","null","","fixation","","",""
"memory-trial","48","204620","0.0-18.0-1.1","7588","approach_avoid_sv1","""event"",""trial"",""time""
""fullscreenenter"",""1"",""1814""
","
","
","""event"",""trial"",""time""
""fullscreenenter"",""1"",""1814""
","
","","","","","","757","images/dog6.png","","","memory_trial","2","maybe_old",""
"html-keyboard-response","49","205136","0.0-18.0-0.2","7588","approach_avoid_sv1","""event"",""trial"",""time""
""fullscreenenter"",""1"",""1814""
","
","
","""event"",""trial"",""time""
""fullscreenenter"",""1"",""1814""
","
","","","","","","null","<div style=""font-size:60px;"">+</div>","null","","fixation","","",""
"memory-trial","50","206931","0.0-18.0-1.2","7588","approach_avoid_sv1","""event"",""trial"",""time""
""fullscreenenter"",""1"",""1814""
","
","
","""event"",""trial"",""time""
""fullscreenenter"",""1"",""1814""
","
","","","","","","777","images/train1.png","","","memory_trial","1","definitely_old",""
"html-keyboard-response","51","207432","0.0-18.0-0.3","7588","approach_avoid_sv1","""event"",""trial"",""time""
""fullscreenenter"",""1"",""1814""
","
","
","""event"",""trial"",""time""
""fullscreenenter"",""1"",""1814""
","
","","","","","","null","<div style=""font-size:60px;"">+</div>","null","","fixation","","",""
"memory-trial","52","209507","0.0-18.0-1.3","7588","approach_avoid_sv1","""event"",""trial"",""time""
""fullscreenenter"",""1"",""1814""
","
","
","""event"",""trial"",""time""
""fullscreenenter"",""1"",""1814""
","
","","","","","","1062","images/plane4.png","","","memory_trial","3","maybe_new",""
"html-keyboard-response","53","210021","0.0-18.0-0.4","7588","approach_avoid_sv1","""event"",""trial"",""time""
""fullscreenenter"",""1"",""1814""
","
","
","""event"",""trial"",""time""
""fullscreenenter"",""1"",""1814""
","
","","","","","","null","<div style=""font-size:60px;"">+</div>","null","","fixation","","",""
"memory-trial","54","212030","0.0-18.0-1.4","7588","approach_avoid_sv1","""event"",""trial"",""time""
""fullscreenenter"",""1"",""1814""
","
","
","""event"",""trial"",""time""
""fullscreenenter"",""1"",""1814""
","
","","","","","","1006","images/table2.png","","","memory_trial","1","definitely_old",""
"html-keyboard-response","55","212547","0.0-18.0-0.5","7588","approach_avoid_sv1","""event"",""trial"",""time""
""fullscreenenter"",""1"",""1814""
","
","
","""event"",""trial"",""time""
""fullscreenenter"",""1"",""1814""
","
","","","","","","null","<div style=""font-size:60px;"">+</div>","null","","fixation","","",""
"memory-trial","56","214826","0.0-18.0-1.5","7588","approach_avoid_sv1","""event"",""trial"",""time""
""fullscreenenter"",""1"",""1814""
","
","
","""event"",""trial"",""time""
""fullscreenenter"",""1"",""1814""
","
","","","","","","1270","images/dog2.png","","","memory_trial","3","maybe_new",""
"html-keyboard-response","57","215342","0.0-18.0-0.6","7588","approach_avoid_sv1","""event"",""trial"",""time""
""fullscreenenter"",""1"",""1814""
","
","
","""event"",""trial"",""time""
""fullscreenenter"",""1"",""1814""
","
","","","","","","null","<div style=""font-size:60px;"">+</div>","null","","fixation","","",""
"memory-trial","58","217508","0.0-18.0-1.6","7588","approach_avoid_sv1","""event"",""trial"",""time""
""fullscreenenter"",""1"",""1814""
","
","
","""event"",""trial"",""time""
""fullscreenenter"",""1"",""1814""
","
","","","","","","1157","images/cat6.png","","","memory_trial","2","maybe_old",""
"html-keyboard-response","59","218023","0.0-18.0-0.7","7588","approach_avoid_sv1","""event"",""trial"",""time""
""fullscreenenter"",""1"",""1814""
","
","
","""event"",""trial"",""time""
""fullscreenenter"",""1"",""1814""
","
","","","","","","null","<div style=""font-size:60px;"">+</div>","null","","fixation","","",""
"memory-trial","60","220625","0.0-18.0-1.7","7588","approach_avoid_sv1","""event"",""trial"",""time""
""fullscreenenter"",""1"",""1814""
","
","
","""event"",""trial"",""time""
""fullscreenenter"",""1"",""1814""
","
","","","","","","1597","images/bush3.png","","","memory_trial","3","maybe_new",""
"html-keyboard-response","61","221136","0.0-18.0-0.8","7588","approach_avoid_sv1","""event"",""trial"",""time""
""fullscreenenter"",""1"",""1814""
","
","
","""event"",""trial"",""time""
""fullscreenenter"",""1"",""1814""
","
","","","","","","null","<div style=""font-size:60px;"">+</div>","null","","fixation","","",""
"memory-trial","62","223703","0.0-18.0-1.8","7588","approach_avoid_sv1","""event"",""trial"",""time""
""fullscreenenter"",""1"",""1814""
","
","
","""event"",""trial"",""time""
""fullscreenenter"",""1"",""1814""
","
","","","","","","1563","images/chair8.png","","","memory_trial","2","maybe_old",""
"html-keyboard-response","63","224203","0.0-18.0-0.9","7588","approach_avoid_sv1","""event"",""trial"",""time""
""fullscreenenter"",""1"",""1814""
","
","
","""event"",""trial"",""time""
""fullscreenenter"",""1"",""1814""
","
","","","","","","null","<div style=""font-size:60px;"">+</div>","null","","fixation","","",""
"memory-trial","64","226084","0.0-18.0-1.9","7588","approach_avoid_sv1","""event"",""trial"",""time""
""fullscreenenter"",""1"",""1814""
","
","
","""event"",""trial"",""time""
""fullscreenenter"",""1"",""1814""
","
","","","","","","879","images/boat6.png","","","memory_trial","1","definitely_old",""
"html-keyboard-response","65","226586","0.0-18.0-0.10","7588","approach_avoid_sv1","""event"",""trial"",""time""
""fullscreenenter"",""1"",""1814""
","
","
","""event"",""trial"",""time""
""fullscreenenter"",""1"",""1814""
","
","","","","","","null","<div style=""font-size:60px;"">+</div>","null","","fixation","","",""
"memory-trial","66","228336","0.0-18.0-1.10","7588","approach_avoid_sv1","""event"",""trial"",""time""
""fullscreenenter"",""1"",""1814""
","
","
","""event"",""trial"",""time""
""fullscreenenter"",""1"",""1814""
","
","","","","","","746","images/flower1.png","","","memory_trial","1","definitely_old",""
"html-keyboard-response","67","228838","0.0-18.0-0.11","7588","approach_avoid_sv1","""event"",""trial"",""time""
""fullscreenenter"",""1"",""1814""
","
","
","""event"",""trial"",""time""
""fullscreenenter"",""1"",""1814""
","
","","","","","","null","<div style=""font-size:60px;"">+</div>","null","","fixation","","",""
"memory-trial","68","231144","0.0-18.0-1.11","7588","approach_avoid_sv1","""event"",""trial"",""time""
""fullscreenenter"",""1"",""1814""
","
","
","""event"",""trial"",""time""
""fullscreenenter"",""1"",""1814""
","
","","","","","","1303","images/rodent2.png","","","memory_trial","1","definitely_old",""
"html-keyboard-response","69","231646","0.0-18.0-0.12","7588","approach_avoid_sv1","""event"",""trial"",""time""
""fullscreenenter"",""1"",""1814""
","
","
","""event"",""trial"",""time""
""fullscreenenter"",""1"",""1814""
","
","","","","","","null","<div style=""font-size:60px;"">+</div>","null","","fixation","","",""
"memory-trial","70","233863","0.0-18.0-1.12","7588","approach_avoid_sv1","""event"",""trial"",""time""
""fullscreenenter"",""1"",""1814""
","
","
","""event"",""trial"",""time""
""fullscreenenter"",""1"",""1814""
","
","","","","","","1214","images/chair7.png","","","memory_trial","2","maybe_old",""
"html-keyboard-response","71","234378","0.0-18.0-0.13","7588","approach_avoid_sv1","""event"",""trial"",""time""
""fullscreenenter"",""1"",""1814""
","
","
","""event"",""trial"",""time""
""fullscreenenter"",""1"",""1814""
","
","","","","","","null","<div style=""font-size:60px;"">+</div>","null","","fixation","","",""
"memory-trial","72","236585","0.0-18.0-1.13","7588","approach_avoid_sv1","""event"",""trial"",""time""
""fullscreenenter"",""1"",""1814""
","
","
","""event"",""trial"",""time""
""fullscreenenter"",""1"",""1814""
","
","","","","","","1204","images/flower4.png","","","memory_trial","2","maybe_old",""
"html-keyboard-response","73","237086","0.0-18.0-0.14","7588","approach_avoid_sv1","""event"",""trial"",""time""
""fullscreenenter"",""1"",""1814""
","
","
","""event"",""trial"",""time""
""fullscreenenter"",""1"",""1814""
","
","","","","","","null","<div style=""font-size:60px;"">+</div>","null","","fixation","","",""
"memory-trial","74","238959","0.0-18.0-1.14","7588","approach_avoid_sv1","""event"",""trial"",""time""
""fullscreenenter"",""1"",""1814""
","
","
","""event"",""trial"",""time""
""fullscreenenter"",""1"",""1814""
","
","","","","","","871","images/train4.png","","","memory_trial","1","definitely_old",""
"html-keyboard-response","75","239461","0.0-18.0-0.15","7588","approach_avoid_sv1","""event"",""trial"",""time""
""fullscreenenter"",""1"",""1814""
","
","
","""event"",""trial"",""time""
""fullscreenenter"",""1"",""1814""
","
","","","","","","null","<div style=""font-size:60px;"">+</div>","null","","fixation","","",""
"memory-trial","76","241472","0.0-18.0-1.15","7588","approach_avoid_sv1","""event"",""trial"",""time""
""fullscreenenter"",""1"",""1814""
","
","
","""event"",""trial"",""time""
""fullscreenenter"",""1"",""1814""
","
","","","","","","1008","images/cactus6.png","","","memory_trial","2","maybe_old",""
"html-keyboard-response","77","241975","0.0-18.0-0.16","7588","approach_avoid_sv1","""event"",""trial"",""time""
""fullscreenenter"",""1"",""1814""
","
","
","""event"",""trial"",""time""
""fullscreenenter"",""1"",""1814""
","
","","","","","","null","<div style=""font-size:60px;"">+</div>","null","","fixation","","",""
"memory-trial","78","243993","0.0-18.0-1.16","7588","approach_avoid_sv1","""event"",""trial"",""time""
""fullscreenenter"",""1"",""1814""
","
","
","""event"",""trial"",""time""
""fullscreenenter"",""1"",""1814""
","
","","","","","","1015","images/truck3.png","","","memory_trial","4","definitely_new",""
"html-keyboard-response","79","244495","0.0-18.0-0.17","7588","approach_avoid_sv1","""event"",""trial"",""time""
""fullscreenenter"",""1"",""1814""
","
","
","""event"",""trial"",""time""
""fullscreenenter"",""1"",""1814""
","
","","","","","","null","<div style=""font-size:60px;"">+</div>","null","","fixation","","",""
"memory-trial","80","246455","0.0-18.0-1.17","7588","approach_avoid_sv1","""event"",""trial"",""time""
""fullscreenenter"",""1"",""1814""
","
","
","""event"",""trial"",""time""
""fullscreenenter"",""1"",""1814""
","
","","","","","","955","images/straw5.png","","","memory_trial","1","definitely_old",""
"html-keyboard-response","81","246957","0.0-18.0-0.18","7588","approach_avoid_sv1","""event"",""trial"",""time""
""fullscreenenter"",""1"",""1814""
","
","
","""event"",""trial"",""time""
""fullscreenenter"",""1"",""1814""
","
","","","","","","null","<div style=""font-size:60px;"">+</div>","null","","fixation","","",""
"memory-trial","82","248608","0.0-18.0-1.18","7588","approach_avoid_sv1","""event"",""trial"",""time""
""fullscreenenter"",""1"",""1814""
","
","
","""event"",""trial"",""time""
""fullscreenenter"",""1"",""1814""
","
","","","","","","650","images/boat7.png","","","memory_trial","1","definitely_old",""
"html-keyboard-response","83","249111","0.0-18.0-0.19","7588","approach_avoid_sv1","""event"",""trial"",""time""
""fullscreenenter"",""1"",""1814""
","
","
","""event"",""trial"",""time""
""fullscreenenter"",""1"",""1814""
","
","","","","","","null","<div style=""font-size:60px;"">+</div>","null","","fixation","","",""
"memory-trial","84","251359","0.0-18.0-1.19","7588","approach_avoid_sv1","""event"",""trial"",""time""
""fullscreenenter"",""1"",""1814""
","
","
","""event"",""trial"",""time""
""fullscreenenter"",""1"",""1814""
","
","","","","","","1246","images/cat3.png","","","memory_trial","4","definitely_new",""
"html-keyboard-response","85","251860","0.0-18.0-0.20","7588","approach_avoid_sv1","""event"",""trial"",""time""
""fullscreenenter"",""1"",""1814""
","
","
","""event"",""trial"",""time""
""fullscreenenter"",""1"",""1814""
","
","","","","","","null","<div style=""font-size:60px;"">+</div>","null","","fixation","","",""
"memory-trial","86","253696","0.0-18.0-1.20","7588","approach_avoid_sv1","""event"",""trial"",""time""
""fullscreenenter"",""1"",""1814""
","
","
","""event"",""trial"",""time""
""fullscreenenter"",""1"",""1814""
","
","","","","","","831","images/cow2.png","","","memory_trial","1","definitely_old",""
"html-keyboard-response","87","254198","0.0-18.0-0.21","7588","approach_avoid_sv1","""event"",""trial"",""time""
""fullscreenenter"",""1"",""1814""
","
","
","""event"",""trial"",""time""
""fullscreenenter"",""1"",""1814""
","
","","","","","","null","<div style=""font-size:60px;"">+</div>","null","","fixation","","",""
"memory-trial","88","256865","0.0-18.0-1.21","7588","approach_avoid_sv1","""event"",""trial"",""time""
""fullscreenenter"",""1"",""1814""
","
","
","""event"",""trial"",""time""
""fullscreenenter"",""1"",""1814""
","
","","","","","","1665","images/banana8.png","","","memory_trial","1","definitely_old",""
"html-keyboard-response","89","257367","0.0-18.0-0.22","7588","approach_avoid_sv1","""event"",""trial"",""time""
""fullscreenenter"",""1"",""1814""
","
","
","""event"",""trial"",""time""
""fullscreenenter"",""1"",""1814""
","
","","","","","","null","<div style=""font-size:60px;"">+</div>","null","","fixation","","",""
"memory-trial","90","259702","0.0-18.0-1.22","7588","approach_avoid_sv1","""event"",""trial"",""time""
""fullscreenenter"",""1"",""1814""
","
","
","""event"",""trial"",""time""
""fullscreenenter"",""1"",""1814""
","
","","","","","","1333","images/cactus2.png","","","memory_trial","2","maybe_old",""
"html-keyboard-response","91","260203","0.0-18.0-0.23","7588","approach_avoid_sv1","""event"",""trial"",""time""
""fullscreenenter"",""1"",""1814""
","
","
","""event"",""trial"",""time""
""fullscreenenter"",""1"",""1814""
","
","","","","","","null","<div style=""font-size:60px;"">+</div>","null","","fixation","","",""
"memory-trial","92","262240","0.0-18.0-1.23","7588","approach_avoid_sv1","""event"",""trial"",""time""
""fullscreenenter"",""1"",""1814""
","
","
","""event"",""trial"",""time""
""fullscreenenter"",""1"",""1814""
","
","","","","","","1035","images/banana2.png","","","memory_trial","1","definitely_old",""
"html-keyboard-response","93","262742","0.0-18.0-0.24","7588","approach_avoid_sv1","""event"",""trial"",""time""
""fullscreenenter"",""1"",""1814""
","
","
","""event"",""trial"",""time""
""fullscreenenter"",""1"",""1814""
","
","","","","","","null","<div style=""font-size:60px;"">+</div>","null","","fixation","","",""
"memory-trial","94","265223","0.0-18.0-1.24","7588","approach_avoid_sv1","""event"",""trial"",""time""
""fullscreenenter"",""1"",""1814""
","
","
","""event"",""trial"",""time""
""fullscreenenter"",""1"",""1814""
","
","","","","","","1478","images/cow4.png","","","memory_trial","2","maybe_old",""
"html-keyboard-response","95","265740","0.0-18.0-0.25","7588","approach_avoid_sv1","""event"",""trial"",""time""
""fullscreenenter"",""1"",""1814""
","
","
","""event"",""trial"",""time""
""fullscreenenter"",""1"",""1814""
","
","","","","","","null","<div style=""font-size:60px;"">+</div>","null","","fixation","","",""
"memory-trial","96","267689","0.0-18.0-1.25","7588","approach_avoid_sv1","""event"",""trial"",""time""
""fullscreenenter"",""1"",""1814""
","
","
","""event"",""trial"",""time""
""fullscreenenter"",""1"",""1814""
","
","","","","","","947","images/rabbit1.png","","","memory_trial","2","maybe_old",""
"html-keyboard-response","97","268190","0.0-18.0-0.26","7588","approach_avoid_sv1","""event"",""trial"",""time""
""fullscreenenter"",""1"",""1814""
","
","
","""event"",""trial"",""time""
""fullscreenenter"",""1"",""1814""
","
","","","","","","null","<div style=""font-size:60px;"">+</div>","null","","fixation","","",""
"memory-trial","98","271400","0.0-18.0-1.26","7588","approach_avoid_sv1","""event"",""trial"",""time""
""fullscreenenter"",""1"",""1814""
","
","
","""event"",""trial"",""time""
""fullscreenenter"",""1"",""1814""
","
","","","","","","2206","images/goat7.png","","","memory_trial","3","maybe_new",""
"html-keyboard-response","99","271902","0.0-18.0-0.27","7588","approach_avoid_sv1","""event"",""trial"",""time""
""fullscreenenter"",""1"",""1814""
","
","
","""event"",""trial"",""time""
""fullscreenenter"",""1"",""1814""
","
","","","","","","null","<div style=""font-size:60px;"">+</div>","null","","fixation","","",""
"memory-trial","100","274078","0.0-18.0-1.27","7588","approach_avoid_sv1","""event"",""trial"",""time""
""fullscreenenter"",""1"",""1814""
","
","
","""event"",""trial"",""time""
""fullscreenenter"",""1"",""1814""
","
","","","","","","1172","images/rodent5.png","","","memory_trial","1","definitely_old",""
"html-keyboard-response","101","274580","0.0-18.0-0.28","7588","approach_avoid_sv1","""event"",""trial"",""time""
""fullscreenenter"",""1"",""1814""
","
","
","""event"",""trial"",""time""
""fullscreenenter"",""1"",""1814""
","
","","","","","","null","<div style=""font-size:60px;"">+</div>","null","","fixation","","",""
"memory-trial","102","276450","0.0-18.0-1.28","7588","approach_avoid_sv1","""event"",""trial"",""time""
""fullscreenenter"",""1"",""1814""
","
","
","""event"",""trial"",""time""
""fullscreenenter"",""1"",""1814""
","
","","","","","","865","images/bed8.png","","","memory_trial","4","definitely_new",""
"html-keyboard-response","103","276951","0.0-18.0-0.29","7588","approach_avoid_sv1","""event"",""trial"",""time""
""fullscreenenter"",""1"",""1814""
","
","
","""event"",""trial"",""time""
""fullscreenenter"",""1"",""1814""
","
","","","","","","null","<div style=""font-size:60px;"">+</div>","null","","fixation","","",""
"memory-trial","104","279036","0.0-18.0-1.29","7588","approach_avoid_sv1","""event"",""trial"",""time""
""fullscreenenter"",""1"",""1814""
","
","
","""event"",""trial"",""time""
""fullscreenenter"",""1"",""1814""
","
","","","","","","1083","images/sofa5.png","","","memory_trial","1","definitely_old",""
"html-keyboard-response","105","279538","0.0-18.0-0.30","7588","approach_avoid_sv1","""event"",""trial"",""time""
""fullscreenenter"",""1"",""1814""
","
","
","""event"",""trial"",""time""
""fullscreenenter"",""1"",""1814""
","
","","","","","","null","<div style=""font-size:60px;"">+</div>","null","","fixation","","",""
"memory-trial","106","282020","0.0-18.0-1.30","7588","approach_avoid_sv1","""event"",""trial"",""time""
""fullscreenenter"",""1"",""1814""
","
","
","""event"",""trial"",""time""
""fullscreenenter"",""1"",""1814""
","
","","","","","","1480","images/straw7.png","","","memory_trial","2","maybe_old",""
"html-keyboard-response","107","282522","0.0-18.0-0.31","7588","approach_avoid_sv1","""event"",""trial"",""time""
""fullscreenenter"",""1"",""1814""
","
","
","""event"",""trial"",""time""
""fullscreenenter"",""1"",""1814""
","
","","","","","","null","<div style=""font-size:60px;"">+</div>","null","","fixation","","",""
"memory-trial","108","284461","0.0-18.0-1.31","7588","approach_avoid_sv1","""event"",""trial"",""time""
""fullscreenenter"",""1"",""1814""
","
","
","""event"",""trial"",""time""
""fullscreenenter"",""1"",""1814""
","
","","","","","","935","images/bed1.png","","","memory_trial","4","definitely_new",""
"html-keyboard-response","109","284964","0.0-18.0-0.32","7588","approach_avoid_sv1","""event"",""trial"",""time""
""fullscreenenter"",""1"",""1814""
","
","
","""event"",""trial"",""time""
""fullscreenenter"",""1"",""1814""
","
","","","","","","null","<div style=""font-size:60px;"">+</div>","null","","fixation","","",""
"memory-trial","110","287046","0.0-18.0-1.32","7588","approach_avoid_sv1","""event"",""trial"",""time""
""fullscreenenter"",""1"",""1814""
","
","
","""event"",""trial"",""time""
""fullscreenenter"",""1"",""1814""
","
","","","","","","1080","images/rabbit8.png","","","memory_trial","2","maybe_old",""
"html-keyboard-response","111","287548","0.0-18.0-0.33","7588","approach_avoid_sv1","""event"",""trial"",""time""
""fullscreenenter"",""1"",""1814""
","
","
","""event"",""trial"",""time""
""fullscreenenter"",""1"",""1814""
","
","","","","","","null","<div style=""font-size:60px;"">+</div>","null","","fixation","","",""
"memory-trial","112","289303","0.0-18.0-1.33","7588","approach_avoid_sv1","""event"",""trial"",""time""
""fullscreenenter"",""1"",""1814""
","
","
","""event"",""trial"",""time""
""fullscreenenter"",""1"",""1814""
","
","","","","","","751","images/horse1.png","","","memory_trial","1","definitely_old",""
"html-keyboard-response","113","289815","0.0-18.0-0.34","7588","approach_avoid_sv1","""event"",""trial"",""time""
""fullscreenenter"",""1"",""1814""
","
","
","""event"",""trial"",""time""
""fullscreenenter"",""1"",""1814""
","
","","","","","","null","<div style=""font-size:60px;"">+</div>","null","","fixation","","",""
"memory-trial","114","291552","0.0-18.0-1.34","7588","approach_avoid_sv1","""event"",""trial"",""time""
""fullscreenenter"",""1"",""1814""
","
","
","""event"",""trial"",""time""
""fullscreenenter"",""1"",""1814""
","
","","","","","","734","images/orange4.png","","","memory_trial","1","definitely_old",""
"html-keyboard-response","115","292053","0.0-18.0-0.35","7588","approach_avoid_sv1","""event"",""trial"",""time""
""fullscreenenter"",""1"",""1814""
","
","
","""event"",""trial"",""time""
""fullscreenenter"",""1"",""1814""
","
","","","","","","null","<div style=""font-size:60px;"">+</div>","null","","fixation","","",""
"memory-trial","116","294139","0.0-18.0-1.35","7588","approach_avoid_sv1","""event"",""trial"",""time""
""fullscreenenter"",""1"",""1814""
","
","
","""event"",""trial"",""time""
""fullscreenenter"",""1"",""1814""
","
","","","","","","1082","images/dog4.png","","","memory_trial","3","maybe_new",""
"html-keyboard-response","117","294640","0.0-18.0-0.36","7588","approach_avoid_sv1","""event"",""trial"",""time""
""fullscreenenter"",""1"",""1814""
","
","
","""event"",""trial"",""time""
""fullscreenenter"",""1"",""1814""
","
","","","","","","null","<div style=""font-size:60px;"">+</div>","null","","fixation","","",""
"memory-trial","118","296397","0.0-18.0-1.36","7588","approach_avoid_sv1","""event"",""trial"",""time""
""fullscreenenter"",""1"",""1814""
","
","
","""event"",""trial"",""time""
""fullscreenenter"",""1"",""1814""
","
","","","","","","753","images/dog8.png","","","memory_trial","3","maybe_new",""
"html-keyboard-response","119","296898","0.0-18.0-0.37","7588","approach_avoid_sv1","""event"",""trial"",""time""
""fullscreenenter"",""1"",""1814""
","
","
","""event"",""trial"",""time""
""fullscreenenter"",""1"",""1814""
","
","","","","","","null","<div style=""font-size:60px;"">+</div>","null","","fixation","","",""
"memory-trial","120","298982","0.0-18.0-1.37","7588","approach_avoid_sv1","""event"",""trial"",""time""
""fullscreenenter"",""1"",""1814""
","
","
","""event"",""trial"",""time""
""fullscreenenter"",""1"",""1814""
","
","","","","","","1081","images/sofa4.png","","","memory_trial","1","definitely_old",""
"html-keyboard-response","121","299484","0.0-18.0-0.38","7588","approach_avoid_sv1","""event"",""trial"",""time""
""fullscreenenter"",""1"",""1814""
","
","
","""event"",""trial"",""time""
""fullscreenenter"",""1"",""1814""
","
","","","","","","null","<div style=""font-size:60px;"">+</div>","null","","fixation","","",""
"memory-trial","122","301510","0.0-18.0-1.38","7588","approach_avoid_sv1","""event"",""trial"",""time""
""fullscreenenter"",""1"",""1814""
","
","
","""event"",""trial"",""time""
""fullscreenenter"",""1"",""1814""
","
","","","","","","1023","images/tree3.png","","","memory_trial","2","maybe_old",""
"html-keyboard-response","123","302011","0.0-18.0-0.39","7588","approach_avoid_sv1","""event"",""trial"",""time""
""fullscreenenter"",""1"",""1814""
","
","
","""event"",""trial"",""time""
""fullscreenenter"",""1"",""1814""
","
","","","","","","null","<div style=""font-size:60px;"">+</div>","null","","fixation","","",""
"memory-trial","124","303888","0.0-18.0-1.39","7588","approach_avoid_sv1","""event"",""trial"",""time""
""fullscreenenter"",""1"",""1814""
","
","
","""event"",""trial"",""time""
""fullscreenenter"",""1"",""1814""
","
","","","","","","874","images/rabbit6.png","","","memory_trial","2","maybe_old",""
"html-keyboard-response","125","304390","0.0-18.0-0.40","7588","approach_avoid_sv1","""event"",""trial"",""time""
""fullscreenenter"",""1"",""1814""
","
","
","""event"",""trial"",""time""
""fullscreenenter"",""1"",""1814""
","
","","","","","","null","<div style=""font-size:60px;"">+</div>","null","","fixation","","",""
"memory-trial","126","306112","0.0-18.0-1.40","7588","approach_avoid_sv1","""event"",""trial"",""time""
""fullscreenenter"",""1"",""1814""
","
","
","""event"",""trial"",""time""
""fullscreenenter"",""1"",""1814""
","
","","","","","","719","images/bed3.png","","","memory_trial","4","definitely_new",""
"html-keyboard-response","127","306613","0.0-18.0-0.41","7588","approach_avoid_sv1","""event"",""trial"",""time""
""fullscreenenter"",""1"",""1814""
","
","
","""event"",""trial"",""time""
""fullscreenenter"",""1"",""1814""
","
","","","","","","null","<div style=""font-size:60px;"">+</div>","null","","fixation","","",""
"memory-trial","128","308406","0.0-18.0-1.41","7588","approach_avoid_sv1","""event"",""trial"",""time""
""fullscreenenter"",""1"",""1814""
","
","
","""event"",""trial"",""time""
""fullscreenenter"",""1"",""1814""
","
","","","","","","789","images/sofa1.png","","","memory_trial","2","maybe_old",""
"html-button-response","129","310340","0.0-18.0-2.41-0.41","7588","approach_avoid_sv1","""event"",""trial"",""time""
""fullscreenenter"",""1"",""1814""
","
","
","""event"",""trial"",""time""
""fullscreenenter"",""1"",""1814""
","
","","","","","","1933","<p> Take a break! </p><p> Click the button to continue. </p>","0","","break","","",""
"html-keyboard-response","130","310843","0.0-18.0-0.42","7588","approach_avoid_sv1","""event"",""trial"",""time""
""fullscreenenter"",""1"",""1814""
","
","
","""event"",""trial"",""time""
""fullscreenenter"",""1"",""1814""
","
","","","","","","null","<div style=""font-size:60px;"">+</div>","null","","fixation","","",""
"memory-trial","131","312921","0.0-18.0-1.42","7588","approach_avoid_sv1","""event"",""trial"",""time""
""fullscreenenter"",""1"",""1814""
","
","
","""event"",""trial"",""time""
""fullscreenenter"",""1"",""1814""
","
","","","","","","1075","images/apple3.png","","","memory_trial","3","maybe_new",""
"html-keyboard-response","132","313423","0.0-18.0-0.43","7588","approach_avoid_sv1","""event"",""trial"",""time""
""fullscreenenter"",""1"",""1814""
","
","
","""event"",""trial"",""time""
""fullscreenenter"",""1"",""1814""
","
","","","","","","null","<div style=""font-size:60px;"">+</div>","null","","fixation","","",""
"memory-trial","133","315383","0.0-18.0-1.43","7588","approach_avoid_sv1","""event"",""trial"",""time""
""fullscreenenter"",""1"",""1814""
","
","
","""event"",""trial"",""time""
""fullscreenenter"",""1"",""1814""
","
","","","","","","957","images/sheep2.png","","","memory_trial","3","maybe_new",""
"html-keyboard-response","134","315884","0.0-18.0-0.44","7588","approach_avoid_sv1","""event"",""trial"",""time""
""fullscreenenter"",""1"",""1814""
","
","
","""event"",""trial"",""time""
""fullscreenenter"",""1"",""1814""
","
","","","","","","null","<div style=""font-size:60px;"">+</div>","null","","fixation","","",""
"memory-trial","135","318165","0.0-18.0-1.44","7588","approach_avoid_sv1","""event"",""trial"",""time""
""fullscreenenter"",""1"",""1814""
","
","
","""event"",""trial"",""time""
""fullscreenenter"",""1"",""1814""
","
","","","","","","1277","images/banana7.png","","","memory_trial","1","definitely_old",""
"html-keyboard-response","136","318667","0.0-18.0-0.45","7588","approach_avoid_sv1","""event"",""trial"",""time""
""fullscreenenter"",""1"",""1814""
","
","
","""event"",""trial"",""time""
""fullscreenenter"",""1"",""1814""
","
","","","","","","null","<div style=""font-size:60px;"">+</div>","null","","fixation","","",""
"memory-trial","137","320899","0.0-18.0-1.45","7588","approach_avoid_sv1","""event"",""trial"",""time""
""fullscreenenter"",""1"",""1814""
","
","
","""event"",""trial"",""time""
""fullscreenenter"",""1"",""1814""
","
","","","","","","1231","images/goat1.png","","","memory_trial","1","definitely_old",""
"html-keyboard-response","138","321402","0.0-18.0-0.46","7588","approach_avoid_sv1","""event"",""trial"",""time""
""fullscreenenter"",""1"",""1814""
","
","
","""event"",""trial"",""time""
""fullscreenenter"",""1"",""1814""
","
","","","","","","null","<div style=""font-size:60px;"">+</div>","null","","fixation","","",""
"memory-trial","139","323381","0.0-18.0-1.46","7588","approach_avoid_sv1","""event"",""trial"",""time""
""fullscreenenter"",""1"",""1814""
","
","
","""event"",""trial"",""time""
""fullscreenenter"",""1"",""1814""
","
","","","","","","976","images/cow7.png","","","memory_trial","1","definitely_old",""
"html-keyboard-response","140","323883","0.0-18.0-0.47","7588","approach_avoid_sv1","""event"",""trial"",""time""
""fullscreenenter"",""1"",""1814""
","
","
","""event"",""trial"",""time""
""fullscreenenter"",""1"",""1814""
","
","","","","","","null","<div style=""font-size:60px;"">+</div>","null","","fixation","","",""
"memory-trial","141","325991","0.0-18.0-1.47","7588","approach_avoid_sv1","""event"",""trial"",""time""
""fullscreenenter"",""1"",""1814""
","
","
","""event"",""trial"",""time""
""fullscreenenter"",""1"",""1814""
","
","","","","","","1104","images/goat8.png","","","memory_trial","4","definitely_new",""
"html-keyboard-response","142","326492","0.0-18.0-0.48","7588","approach_avoid_sv1","""event"",""trial"",""time""
""fullscreenenter"",""1"",""1814""
","
","
","""event"",""trial"",""time""
""fullscreenenter"",""1"",""1814""
","
","","","","","","null","<div style=""font-size:60px;"">+</div>","null","","fixation","","",""
"memory-trial","143","328527","0.0-18.0-1.48","7588","approach_avoid_sv1","""event"",""trial"",""time""
""fullscreenenter"",""1"",""1814""
","
","
","""event"",""trial"",""time""
""fullscreenenter"",""1"",""1814""
","
","","","","","","1032","images/cactus3.png","","","memory_trial","3","maybe_new",""
"html-keyboard-response","144","329028","0.0-18.0-0.49","7588","approach_avoid_sv1","""event"",""trial"",""time""
""fullscreenenter"",""1"",""1814""
","
","
","""event"",""trial"",""time""
""fullscreenenter"",""1"",""1814""
","
","","","","","","null","<div style=""font-size:60px;"">+</div>","null","","fixation","","",""
"memory-trial","145","331195","0.0-18.0-1.49","7588","approach_avoid_sv1","""event"",""trial"",""time""
""fullscreenenter"",""1"",""1814""
","
","
","""event"",""trial"",""time""
""fullscreenenter"",""1"",""1814""
","
","","","","","","1163","images/horse7.png","","","memory_trial","3","maybe_new",""
"html-keyboard-response","146","331698","0.0-18.0-0.50","7588","approach_avoid_sv1","""event"",""trial"",""time""
""fullscreenenter"",""1"",""1814""
","
","
","""event"",""trial"",""time""
""fullscreenenter"",""1"",""1814""
","
","","","","","","null","<div style=""font-size:60px;"">+</div>","null","","fixation","","",""
"memory-trial","147","333981","0.0-18.0-1.50","7588","approach_avoid_sv1","""event"",""trial"",""time""
""fullscreenenter"",""1"",""1814""
","
","
","""event"",""trial"",""time""
""fullscreenenter"",""1"",""1814""
","
","","","","","","1281","images/horse8.png","","","memory_trial","2","maybe_old",""
"html-keyboard-response","148","334484","0.0-18.0-0.51","7588","approach_avoid_sv1","""event"",""trial"",""time""
""fullscreenenter"",""1"",""1814""
","
","
","""event"",""trial"",""time""
""fullscreenenter"",""1"",""1814""
","
","","","","","","null","<div style=""font-size:60px;"">+</div>","null","","fixation","","",""
"memory-trial","149","336276","0.0-18.0-1.51","7588","approach_avoid_sv1","""event"",""trial"",""time""
""fullscreenenter"",""1"",""1814""
","
","
","""event"",""trial"",""time""
""fullscreenenter"",""1"",""1814""
","
","","","","","","789","images/bed6.png","","","memory_trial","4","definitely_new",""
"html-keyboard-response","150","336779","0.0-18.0-0.52","7588","approach_avoid_sv1","""event"",""trial"",""time""
""fullscreenenter"",""1"",""1814""
","
","
","""event"",""trial"",""time""
""fullscreenenter"",""1"",""1814""
","
","","","","","","null","<div style=""font-size:60px;"">+</div>","null","","fixation","","",""
"memory-trial","151","338487","0.0-18.0-1.52","7588","approach_avoid_sv1","""event"",""trial"",""time""
""fullscreenenter"",""1"",""1814""
","
","
","""event"",""trial"",""time""
""fullscreenenter"",""1"",""1814""
","
","","","","","","705","images/straw3.png","","","memory_trial","1","definitely_old",""
"html-keyboard-response","152","338990","0.0-18.0-0.53","7588","approach_avoid_sv1","""event"",""trial"",""time""
""fullscreenenter"",""1"",""1814""
","
","
","""event"",""trial"",""time""
""fullscreenenter"",""1"",""1814""
","
","","","","","","null","<div style=""font-size:60px;"">+</div>","null","","fixation","","",""
"memory-trial","153","341487","0.0-18.0-1.53","7588","approach_avoid_sv1","""event"",""trial"",""time""
""fullscreenenter"",""1"",""1814""
","
","
","""event"",""trial"",""time""
""fullscreenenter"",""1"",""1814""
","
","","","","","","1494","images/horse4.png","","","memory_trial","3","maybe_new",""
"html-keyboard-response","154","341989","0.0-18.0-0.54","7588","approach_avoid_sv1","""event"",""trial"",""time""
""fullscreenenter"",""1"",""1814""
","
","
","""event"",""trial"",""time""
""fullscreenenter"",""1"",""1814""
","
","","","","","","null","<div style=""font-size:60px;"">+</div>","null","","fixation","","",""
"memory-trial","155","344062","0.0-18.0-1.54","7588","approach_avoid_sv1","""event"",""trial"",""time""
""fullscreenenter"",""1"",""1814""
","
","
","""event"",""trial"",""time""
""fullscreenenter"",""1"",""1814""
","
","","","","","","1071","images/table8.png","","","memory_trial","1","definitely_old",""
"html-keyboard-response","156","344563","0.0-18.0-0.55","7588","approach_avoid_sv1","""event"",""trial"",""time""
""fullscreenenter"",""1"",""1814""
","
","
","""event"",""trial"",""time""
""fullscreenenter"",""1"",""1814""
","
","","","","","","null","<div style=""font-size:60px;"">+</div>","null","","fixation","","",""
"memory-trial","157","346623","0.0-18.0-1.55","7588","approach_avoid_sv1","""event"",""trial"",""time""
""fullscreenenter"",""1"",""1814""
","
","
","""event"",""trial"",""time""
""fullscreenenter"",""1"",""1814""
","
","","","","","","1059","images/sheep3.png","","","memory_trial","4","definitely_new",""
"html-keyboard-response","158","347124","0.0-18.0-0.56","7588","approach_avoid_sv1","""event"",""trial"",""time""
""fullscreenenter"",""1"",""1814""
","
","
","""event"",""trial"",""time""
""fullscreenenter"",""1"",""1814""
","
","","","","","","null","<div style=""font-size:60px;"">+</div>","null","","fixation","","",""
"memory-trial","159","349368","0.0-18.0-1.56","7588","approach_avoid_sv1","""event"",""trial"",""time""
""fullscreenenter"",""1"",""1814""
","
","
","""event"",""trial"",""time""
""fullscreenenter"",""1"",""1814""
","
","","","","","","1241","images/orange2.png","","","memory_trial","3","maybe_new",""
"html-keyboard-response","160","349870","0.0-18.0-0.57","7588","approach_avoid_sv1","""event"",""trial"",""time""
""fullscreenenter"",""1"",""1814""
","
","
","""event"",""trial"",""time""
""fullscreenenter"",""1"",""1814""
","
","","","","","","null","<div style=""font-size:60px;"">+</div>","null","","fixation","","",""
"memory-trial","161","352247","0.0-18.0-1.57","7588","approach_avoid_sv1","""event"",""trial"",""time""
""fullscreenenter"",""1"",""1814""
","
","
","""event"",""trial"",""time""
""fullscreenenter"",""1"",""1814""
","
","","","","","","1375","images/rabbit4.png","","","memory_trial","2","maybe_old",""
"html-keyboard-response","162","352749","0.0-18.0-0.58","7588","approach_avoid_sv1","""event"",""trial"",""time""
""fullscreenenter"",""1"",""1814""
","
","
","""event"",""trial"",""time""
""fullscreenenter"",""1"",""1814""
","
","","","","","","null","<div style=""font-size:60px;"">+</div>","null","","fixation","","",""
"memory-trial","163","354918","0.0-18.0-1.58","7588","approach_avoid_sv1","""event"",""trial"",""time""
""fullscreenenter"",""1"",""1814""
","
","
","""event"",""trial"",""time""
""fullscreenenter"",""1"",""1814""
","
","","","","","","1166","images/train5.png","","","memory_trial","4","definitely_new",""
"html-keyboard-response","164","355419","0.0-18.0-0.59","7588","approach_avoid_sv1","""event"",""trial"",""time""
""fullscreenenter"",""1"",""1814""
","
","
","""event"",""trial"",""time""
""fullscreenenter"",""1"",""1814""
","
","","","","","","null","<div style=""font-size:60px;"">+</div>","null","","fixation","","",""
"memory-trial","165","357877","0.0-18.0-1.59","7588","approach_avoid_sv1","""event"",""trial"",""time""
""fullscreenenter"",""1"",""1814""
","
","
","""event"",""trial"",""time""
""fullscreenenter"",""1"",""1814""
","
","","","","","","1455","images/rabbit5.png","","","memory_trial","2","maybe_old",""
"html-keyboard-response","166","358379","0.0-18.0-0.60","7588","approach_avoid_sv1","""event"",""trial"",""time""
""fullscreenenter"",""1"",""1814""
","
","
","""event"",""trial"",""time""
""fullscreenenter"",""1"",""1814""
","
","","","","","","null","<div style=""font-size:60px;"">+</div>","null","","fixation","","",""
"memory-trial","167","360151","0.0-18.0-1.60","7588","approach_avoid_sv1","""event"",""trial"",""time""
""fullscreenenter"",""1"",""1814""
","
","
","""event"",""trial"",""time""
""fullscreenenter"",""1"",""1814""
","
","","","","","","769","images/dog5.png","","","memory_trial","3","maybe_new",""
"html-keyboard-response","168","360653","0.0-18.0-0.61","7588","approach_avoid_sv1","""event"",""trial"",""time""
""fullscreenenter"",""1"",""1814""
","
","
","""event"",""trial"",""time""
""fullscreenenter"",""1"",""1814""
","
","","","","","","null","<div style=""font-size:60px;"">+</div>","null","","fixation","","",""
"memory-trial","169","362724","0.0-18.0-1.61","7588","approach_avoid_sv1","""event"",""trial"",""time""
""fullscreenenter"",""1"",""1814""
","
","
","""event"",""trial"",""time""
""fullscreenenter"",""1"",""1814""
","
","","","","","","1068","images/goat5.png","","","memory_trial","1","definitely_old",""
"html-keyboard-response","170","363226","0.0-18.0-0.62","7588","approach_avoid_sv1","""event"",""trial"",""time""
""fullscreenenter"",""1"",""1814""
","
","
","""event"",""trial"",""time""
""fullscreenenter"",""1"",""1814""
","
","","","","","","null","<div style=""font-size:60px;"">+</div>","null","","fixation","","",""
"memory-trial","171","365270","0.0-18.0-1.62","7588","approach_avoid_sv1","""event"",""trial"",""time""
""fullscreenenter"",""1"",""1814""
","
","
","""event"",""trial"",""time""
""fullscreenenter"",""1"",""1814""
","
","","","","","","1040","images/banana1.png","","","memory_trial","2","maybe_old",""
"html-keyboard-response","172","365771","0.0-18.0-0.63","7588","approach_avoid_sv1","""event"",""trial"",""time""
""fullscreenenter"",""1"",""1814""
","
","
","""event"",""trial"",""time""
""fullscreenenter"",""1"",""1814""
","
","","","","","","null","<div style=""font-size:60px;"">+</div>","null","","fixation","","",""
"memory-trial","173","367856","0.0-18.0-1.63","7588","approach_avoid_sv1","""event"",""trial"",""time""
""fullscreenenter"",""1"",""1814""
","
","
","""event"",""trial"",""time""
""fullscreenenter"",""1"",""1814""
","
","","","","","","1082","images/cow1.png","","","memory_trial","1","definitely_old",""
"html-keyboard-response","174","368359","0.0-18.0-0.64","7588","approach_avoid_sv1","""event"",""trial"",""time""
""fullscreenenter"",""1"",""1814""
","
","
","""event"",""trial"",""time""
""fullscreenenter"",""1"",""1814""
","
","","","","","","null","<div style=""font-size:60px;"">+</div>","null","","fixation","","",""
"memory-trial","175","370673","0.0-18.0-1.64","7588","approach_avoid_sv1","""event"",""trial"",""time""
""fullscreenenter"",""1"",""1814""
","
","
","""event"",""trial"",""time""
""fullscreenenter"",""1"",""1814""
","
","","","","","","1311","images/goat2.png","","","memory_trial","2","maybe_old",""
"html-keyboard-response","176","371174","0.0-18.0-0.65","7588","approach_avoid_sv1","""event"",""trial"",""time""
""fullscreenenter"",""1"",""1814""
","
","
","""event"",""trial"",""time""
""fullscreenenter"",""1"",""1814""
","
","","","","","","null","<div style=""font-size:60px;"">+</div>","null","","fixation","","",""
"memory-trial","177","372878","0.0-18.0-1.65","7588","approach_avoid_sv1","""event"",""trial"",""time""
""fullscreenenter"",""1"",""1814""
","
","
","""event"",""trial"",""time""
""fullscreenenter"",""1"",""1814""
","
","","","","","","702","images/train7.png","","","memory_trial","1","definitely_old",""
"html-keyboard-response","178","373380","0.0-18.0-0.66","7588","approach_avoid_sv1","""event"",""trial"",""time""
""fullscreenenter"",""1"",""1814""
","
","
","""event"",""trial"",""time""
""fullscreenenter"",""1"",""1814""
","
","","","","","","null","<div style=""font-size:60px;"">+</div>","null","","fixation","","",""
"memory-trial","179","375134","0.0-18.0-1.66","7588","approach_avoid_sv1","""event"",""trial"",""time""
""fullscreenenter"",""1"",""1814""
","
","
","""event"",""trial"",""time""
""fullscreenenter"",""1"",""1814""
","
","","","","","","751","images/boat5.png","","","memory_trial","1","definitely_old",""
"html-keyboard-response","180","375636","0.0-18.0-0.67","7588","approach_avoid_sv1","""event"",""trial"",""time""
""fullscreenenter"",""1"",""1814""
","
","
","""event"",""trial"",""time""
""fullscreenenter"",""1"",""1814""
","
","","","","","","null","<div style=""font-size:60px;"">+</div>","null","","fixation","","",""
"memory-trial","181","378660","0.0-18.0-1.67","7588","approach_avoid_sv1","""event"",""trial"",""time""
""fullscreenenter"",""1"",""1814""
","
","
","""event"",""trial"",""time""
""fullscreenenter"",""1"",""1814""
","
","","","","","","2021","images/train6.png","","","memory_trial","2","maybe_old",""
"html-keyboard-response","182","379163","0.0-18.0-0.68","7588","approach_avoid_sv1","""event"",""trial"",""time""
""fullscreenenter"",""1"",""1814""
","
","
","""event"",""trial"",""time""
""fullscreenenter"",""1"",""1814""
","
","","","","","","null","<div style=""font-size:60px;"">+</div>","null","","fixation","","",""
"memory-trial","183","381097","0.0-18.0-1.68","7588","approach_avoid_sv1","""event"",""trial"",""time""
""fullscreenenter"",""1"",""1814""
","
","
","""event"",""trial"",""time""
""fullscreenenter"",""1"",""1814""
","
","","","","","","930","images/chair2.png","","","memory_trial","1","definitely_old",""
"html-keyboard-response","184","381598","0.0-18.0-0.69","7588","approach_avoid_sv1","""event"",""trial"",""time""
""fullscreenenter"",""1"",""1814""
","
","
","""event"",""trial"",""time""
""fullscreenenter"",""1"",""1814""
","
","","","","","","null","<div style=""font-size:60px;"">+</div>","null","","fixation","","",""
"memory-trial","185","383655","0.0-18.0-1.69","7588","approach_avoid_sv1","""event"",""trial"",""time""
""fullscreenenter"",""1"",""1814""
","
","
","""event"",""trial"",""time""
""fullscreenenter"",""1"",""1814""
","
","","","","","","1053","images/cow5.png","","","memory_trial","1","definitely_old",""
"html-keyboard-response","186","384156","0.0-18.0-0.70","7588","approach_avoid_sv1","""event"",""trial"",""time""
""fullscreenenter"",""1"",""1814""
","
","
","""event"",""trial"",""time""
""fullscreenenter"",""1"",""1814""
","
","","","","","","null","<div style=""font-size:60px;"">+</div>","null","","fixation","","",""
"memory-trial","187","385919","0.0-18.0-1.70","7588","approach_avoid_sv1","""event"",""trial"",""time""
""fullscreenenter"",""1"",""1814""
","
","
","""event"",""trial"",""time""
""fullscreenenter"",""1"",""1814""
","
","","","","","","759","images/cactus8.png","","","memory_trial","1","definitely_old",""
"html-keyboard-response","188","386420","0.0-18.0-0.71","7588","approach_avoid_sv1","""event"",""trial"",""time""
""fullscreenenter"",""1"",""1814""
","
","
","""event"",""trial"",""time""
""fullscreenenter"",""1"",""1814""
","
","","","","","","null","<div style=""font-size:60px;"">+</div>","null","","fixation","","",""
"memory-trial","189","388679","0.0-18.0-1.71","7588","approach_avoid_sv1","""event"",""trial"",""time""
""fullscreenenter"",""1"",""1814""
","
","
","""event"",""trial"",""time""
""fullscreenenter"",""1"",""1814""
","
","","","","","","1257","images/straw1.png","","","memory_trial","1","definitely_old",""
"html-keyboard-response","190","389181","0.0-18.0-0.72","7588","approach_avoid_sv1","""event"",""trial"",""time""
""fullscreenenter"",""1"",""1814""
","
","
","""event"",""trial"",""time""
""fullscreenenter"",""1"",""1814""
","
","","","","","","null","<div style=""font-size:60px;"">+</div>","null","","fixation","","",""
"memory-trial","191","391112","0.0-18.0-1.72","7588","approach_avoid_sv1","""event"",""trial"",""time""
""fullscreenenter"",""1"",""1814""
","
","
","""event"",""trial"",""time""
""fullscreenenter"",""1"",""1814""
","
","","","","","","926","images/sheep1.png","","","memory_trial","4","definitely_new",""
"html-keyboard-response","192","391614","0.0-18.0-0.73","7588","approach_avoid_sv1","""event"",""trial"",""time""
""fullscreenenter"",""1"",""1814""
","
","
","""event"",""trial"",""time""
""fullscreenenter"",""1"",""1814""
","
","","","","","","null","<div style=""font-size:60px;"">+</div>","null","","fixation","","",""
"memory-trial","193","393972","0.0-18.0-1.73","7588","approach_avoid_sv1","""event"",""trial"",""time""
""fullscreenenter"",""1"",""1814""
","
","
","""event"",""trial"",""time""
""fullscreenenter"",""1"",""1814""
","
","","","","","","1355","images/train8.png","","","memory_trial","4","definitely_new",""
"html-keyboard-response","194","394474","0.0-18.0-0.74","7588","approach_avoid_sv1","""event"",""trial"",""time""
""fullscreenenter"",""1"",""1814""
","
","
","""event"",""trial"",""time""
""fullscreenenter"",""1"",""1814""
","
","","","","","","null","<div style=""font-size:60px;"">+</div>","null","","fixation","","",""
"memory-trial","195","396660","0.0-18.0-1.74","7588","approach_avoid_sv1","""event"",""trial"",""time""
""fullscreenenter"",""1"",""1814""
","
","
","""event"",""trial"",""time""
""fullscreenenter"",""1"",""1814""
","
","","","","","","1185","images/banana3.png","","","memory_trial","1","definitely_old",""
"html-keyboard-response","196","397161","0.0-18.0-0.75","7588","approach_avoid_sv1","""event"",""trial"",""time""
""fullscreenenter"",""1"",""1814""
","
","
","""event"",""trial"",""time""
""fullscreenenter"",""1"",""1814""
","
","","","","","","null","<div style=""font-size:60px;"">+</div>","null","","fixation","","",""
"memory-trial","197","399246","0.0-18.0-1.75","7588","approach_avoid_sv1","""event"",""trial"",""time""
""fullscreenenter"",""1"",""1814""
","
","
","""event"",""trial"",""time""
""fullscreenenter"",""1"",""1814""
","
","","","","","","1081","images/goat6.png","","","memory_trial","3","maybe_new",""
"html-keyboard-response","198","399748","0.0-18.0-0.76","7588","approach_avoid_sv1","""event"",""trial"",""time""
""fullscreenenter"",""1"",""1814""
","
","
","""event"",""trial"",""time""
""fullscreenenter"",""1"",""1814""
","
","","","","","","null","<div style=""font-size:60px;"">+</div>","null","","fixation","","",""
"memory-trial","199","402239","0.0-18.0-1.76","7588","approach_avoid_sv1","""event"",""trial"",""time""
""fullscreenenter"",""1"",""1814""
","
","
","""event"",""trial"",""time""
""fullscreenenter"",""1"",""1814""
","
","","","","","","1489","images/sofa3.png","","","memory_trial","3","maybe_new",""
"html-keyboard-response","200","402740","0.0-18.0-0.77","7588","approach_avoid_sv1","""event"",""trial"",""time""
""fullscreenenter"",""1"",""1814""
","
","
","""event"",""trial"",""time""
""fullscreenenter"",""1"",""1814""
","
","","","","","","null","<div style=""font-size:60px;"">+</div>","null","","fixation","","",""
"memory-trial","201","404644","0.0-18.0-1.77","7588","approach_avoid_sv1","""event"",""trial"",""time""
""fullscreenenter"",""1"",""1814""
","
","
","""event"",""trial"",""time""
""fullscreenenter"",""1"",""1814""
","
","","","","","","898","images/apple4.png","","","memory_trial","4","definitely_new",""
"html-keyboard-response","202","405145","0.0-18.0-0.78","7588","approach_avoid_sv1","""event"",""trial"",""time""
""fullscreenenter"",""1"",""1814""
","
","
","""event"",""trial"",""time""
""fullscreenenter"",""1"",""1814""
","
","","","","","","null","<div style=""font-size:60px;"">+</div>","null","","fixation","","",""
"memory-trial","203","408189","0.0-18.0-1.78","7588","approach_avoid_sv1","""event"",""trial"",""time""
""fullscreenenter"",""1"",""1814""
","
","
","""event"",""trial"",""time""
""fullscreenenter"",""1"",""1814""
","
","","","","","","2042","images/rodent3.png","","","memory_trial","3","maybe_new",""
"html-keyboard-response","204","408691","0.0-18.0-0.79","7588","approach_avoid_sv1","""event"",""trial"",""time""
""fullscreenenter"",""1"",""1814""
","
","
","""event"",""trial"",""time""
""fullscreenenter"",""1"",""1814""
","
","","","","","","null","<div style=""font-size:60px;"">+</div>","null","","fixation","","",""
"memory-trial","205","410559","0.0-18.0-1.79","7588","approach_avoid_sv1","""event"",""trial"",""time""
""fullscreenenter"",""1"",""1814""
","
","
","""event"",""trial"",""time""
""fullscreenenter"",""1"",""1814""
","
","","","","","","865","images/cactus5.png","","","memory_trial","2","maybe_old",""
"html-keyboard-response","206","411060","0.0-18.0-0.80","7588","approach_avoid_sv1","""event"",""trial"",""time""
""fullscreenenter"",""1"",""1814""
","
","
","""event"",""trial"",""time""
""fullscreenenter"",""1"",""1814""
","
","","","","","","null","<div style=""font-size:60px;"">+</div>","null","","fixation","","",""
"memory-trial","207","412951","0.0-18.0-1.80","7588","approach_avoid_sv1","""event"",""trial"",""time""
""fullscreenenter"",""1"",""1814""
","
","
","""event"",""trial"",""time""
""fullscreenenter"",""1"",""1814""
","
","","","","","","889","images/goat3.png","","","memory_trial","2","maybe_old",""
"html-keyboard-response","208","413453","0.0-18.0-0.81","7588","approach_avoid_sv1","""event"",""trial"",""time""
""fullscreenenter"",""1"",""1814""
","
","
","""event"",""trial"",""time""
""fullscreenenter"",""1"",""1814""
","
","","","","","","null","<div style=""font-size:60px;"">+</div>","null","","fixation","","",""
"memory-trial","209","415510","0.0-18.0-1.81","7588","approach_avoid_sv1","""event"",""trial"",""time""
""fullscreenenter"",""1"",""1814""
","
","
","""event"",""trial"",""time""
""fullscreenenter"",""1"",""1814""
","
","","","","","","1054","images/bush8.png","","","memory_trial","3","maybe_new",""
"html-keyboard-response","210","416011","0.0-18.0-0.82","7588","approach_avoid_sv1","""event"",""trial"",""time""
""fullscreenenter"",""1"",""1814""
","
","
","""event"",""trial"",""time""
""fullscreenenter"",""1"",""1814""
","
","","","","","","null","<div style=""font-size:60px;"">+</div>","null","","fixation","","",""
"memory-trial","211","418086","0.0-18.0-1.82","7588","approach_avoid_sv1","""event"",""trial"",""time""
""fullscreenenter"",""1"",""1814""
","
","
","""event"",""trial"",""time""
""fullscreenenter"",""1"",""1814""
","
","","","","","","1071","images/horse6.png","","","memory_trial","2","maybe_old",""
"html-keyboard-response","212","418588","0.0-18.0-0.83","7588","approach_avoid_sv1","""event"",""trial"",""time""
""fullscreenenter"",""1"",""1814""
","
","
","""event"",""trial"",""time""
""fullscreenenter"",""1"",""1814""
","
","","","","","","null","<div style=""font-size:60px;"">+</div>","null","","fixation","","",""
"memory-trial","213","422069","0.0-18.0-1.83","7588","approach_avoid_sv1","""event"",""trial"",""time""
""fullscreenenter"",""1"",""1814""
","
","
","""event"",""trial"",""time""
""fullscreenenter"",""1"",""1814""
","
","","","","","","2477","images/table6.png","","","memory_trial","2","maybe_old",""
"html-keyboard-response","214","422570","0.0-18.0-0.84","7588","approach_avoid_sv1","""event"",""trial"",""time""
""fullscreenenter"",""1"",""1814""
","
","
","""event"",""trial"",""time""
""fullscreenenter"",""1"",""1814""
","
","","","","","","null","<div style=""font-size:60px;"">+</div>","null","","fixation","","",""
"memory-trial","215","424756","0.0-18.0-1.84","7588","approach_avoid_sv1","""event"",""trial"",""time""
""fullscreenenter"",""1"",""1814""
","
","
","""event"",""trial"",""time""
""fullscreenenter"",""1"",""1814""
","
","","","","","","1182","images/plane6.png","","","memory_trial","4","definitely_new",""
"html-keyboard-response","216","425258","0.0-18.0-0.85","7588","approach_avoid_sv1","""event"",""trial"",""time""
""fullscreenenter"",""1"",""1814""
","
","
","""event"",""trial"",""time""
""fullscreenenter"",""1"",""1814""
","
","","","","","","null","<div style=""font-size:60px;"">+</div>","null","","fixation","","",""
"memory-trial","217","426980","0.0-18.0-1.85","7588","approach_avoid_sv1","""event"",""trial"",""time""
""fullscreenenter"",""1"",""1814""
","
","
","""event"",""trial"",""time""
""fullscreenenter"",""1"",""1814""
","
","","","","","","718","images/bed4.png","","","memory_trial","4","definitely_new",""
"html-keyboard-response","218","427481","0.0-18.0-0.86","7588","approach_avoid_sv1","""event"",""trial"",""time""
""fullscreenenter"",""1"",""1814""
","
","
","""event"",""trial"",""time""
""fullscreenenter"",""1"",""1814""
","
","","","","","","null","<div style=""font-size:60px;"">+</div>","null","","fixation","","",""
"memory-trial","219","429719","0.0-18.0-1.86","7588","approach_avoid_sv1","""event"",""trial"",""time""
""fullscreenenter"",""1"",""1814""
","
","
","""event"",""trial"",""time""
""fullscreenenter"",""1"",""1814""
","
","","","","","","1236","images/flower2.png","","","memory_trial","2","maybe_old",""
"html-keyboard-response","220","430221","0.0-18.0-0.87","7588","approach_avoid_sv1","""event"",""trial"",""time""
""fullscreenenter"",""1"",""1814""
","
","
","""event"",""trial"",""time""
""fullscreenenter"",""1"",""1814""
","
","","","","","","null","<div style=""font-size:60px;"">+</div>","null","","fixation","","",""
"memory-trial","221","432252","0.0-18.0-1.87","7588","approach_avoid_sv1","""event"",""trial"",""time""
""fullscreenenter"",""1"",""1814""
","
","
","""event"",""trial"",""time""
""fullscreenenter"",""1"",""1814""
","
","","","","","","1028","images/cactus7.png","","","memory_trial","2","maybe_old",""
"html-keyboard-response","222","432754","0.0-18.0-0.88","7588","approach_avoid_sv1","""event"",""trial"",""time""
""fullscreenenter"",""1"",""1814""
","
","
","""event"",""trial"",""time""
""fullscreenenter"",""1"",""1814""
","
","","","","","","null","<div style=""font-size:60px;"">+</div>","null","","fixation","","",""
"memory-trial","223","434647","0.0-18.0-1.88","7588","approach_avoid_sv1","""event"",""trial"",""time""
""fullscreenenter"",""1"",""1814""
","
","
","""event"",""trial"",""time""
""fullscreenenter"",""1"",""1814""
","
","","","","","","889","images/sheep5.png","","","memory_trial","3","maybe_new",""
"html-keyboard-response","224","435148","0.0-18.0-0.89","7588","approach_avoid_sv1","""event"",""trial"",""time""
""fullscreenenter"",""1"",""1814""
","
","
","""event"",""trial"",""time""
""fullscreenenter"",""1"",""1814""
","
","","","","","","null","<div style=""font-size:60px;"">+</div>","null","","fixation","","",""
"memory-trial","225","437296","0.0-18.0-1.89","7588","approach_avoid_sv1","""event"",""trial"",""time""
""fullscreenenter"",""1"",""1814""
","
","
","""event"",""trial"",""time""
""fullscreenenter"",""1"",""1814""
","
","","","","","","1144","images/flower5.png","","","memory_trial","1","definitely_old",""
"html-keyboard-response","226","437798","0.0-18.0-0.90","7588","approach_avoid_sv1","""event"",""trial"",""time""
""fullscreenenter"",""1"",""1814""
","
","
","""event"",""trial"",""time""
""fullscreenenter"",""1"",""1814""
","
","","","","","","null","<div style=""font-size:60px;"">+</div>","null","","fixation","","",""
"memory-trial","227","439841","0.0-18.0-1.90","7588","approach_avoid_sv1","""event"",""trial"",""time""
""fullscreenenter"",""1"",""1814""
","
","
","""event"",""trial"",""time""
""fullscreenenter"",""1"",""1814""
","
","","","","","","1040","images/truck5.png","","","memory_trial","1","definitely_old",""
"html-keyboard-response","228","440344","0.0-18.0-0.91","7588","approach_avoid_sv1","""event"",""trial"",""time""
""fullscreenenter"",""1"",""1814""
","
","
","""event"",""trial"",""time""
""fullscreenenter"",""1"",""1814""
","
","","","","","","null","<div style=""font-size:60px;"">+</div>","null","","fixation","","",""
"memory-trial","229","441951","0.0-18.0-1.91","7588","approach_avoid_sv1","""event"",""trial"",""time""
""fullscreenenter"",""1"",""1814""
","
","
","""event"",""trial"",""time""
""fullscreenenter"",""1"",""1814""
","
","","","","","","605","images/boat8.png","","","memory_trial","1","definitely_old",""
"html-button-response","230","443205","0.0-18.0-2.91-0.91","7588","approach_avoid_sv1","""event"",""trial"",""time""
""fullscreenenter"",""1"",""1814""
","
","
","""event"",""trial"",""time""
""fullscreenenter"",""1"",""1814""
","
","","","","","","1252","<p> Take a break! </p><p> Click the button to continue. </p>","0","","break","","",""
"html-keyboard-response","231","443706","0.0-18.0-0.92","7588","approach_avoid_sv1","""event"",""trial"",""time""
""fullscreenenter"",""1"",""1814""
","
","
","""event"",""trial"",""time""
""fullscreenenter"",""1"",""1814""
","
","","","","","","null","<div style=""font-size:60px;"">+</div>","null","","fixation","","",""
"memory-trial","232","445646","0.0-18.0-1.92","7588","approach_avoid_sv1","""event"",""trial"",""time""
""fullscreenenter"",""1"",""1814""
","
","
","""event"",""trial"",""time""
""fullscreenenter"",""1"",""1814""
","
","","","","","","938","images/apple5.png","","","memory_trial","3","maybe_new",""
"html-keyboard-response","233","446148","0.0-18.0-0.93","7588","approach_avoid_sv1","""event"",""trial"",""time""
""fullscreenenter"",""1"",""1814""
","
","
","""event"",""trial"",""time""
""fullscreenenter"",""1"",""1814""
","
","","","","","","null","<div style=""font-size:60px;"">+</div>","null","","fixation","","",""
"memory-trial","234","449151","0.0-18.0-1.93","7588","approach_avoid_sv1","""event"",""trial"",""time""
""fullscreenenter"",""1"",""1814""
","
","
","""event"",""trial"",""time""
""fullscreenenter"",""1"",""1814""
","
","","","","","","2000","images/cow8.png","","","memory_trial","2","maybe_old",""
"html-keyboard-response","235","449652","0.0-18.0-0.94","7588","approach_avoid_sv1","""event"",""trial"",""time""
""fullscreenenter"",""1"",""1814""
","
","
","""event"",""trial"",""time""
""fullscreenenter"",""1"",""1814""
","
","","","","","","null","<div style=""font-size:60px;"">+</div>","null","","fixation","","",""
"memory-trial","236","451517","0.0-18.0-1.94","7588","approach_avoid_sv1","""event"",""trial"",""time""
""fullscreenenter"",""1"",""1814""
","
","
","""event"",""trial"",""time""
""fullscreenenter"",""1"",""1814""
","
","","","","","","861","images/apple8.png","","","memory_trial","3","maybe_new",""
"html-keyboard-response","237","452019","0.0-18.0-0.95","7588","approach_avoid_sv1","""event"",""trial"",""time""
""fullscreenenter"",""1"",""1814""
","
","
","""event"",""trial"",""time""
""fullscreenenter"",""1"",""1814""
","
","","","","","","null","<div style=""font-size:60px;"">+</div>","null","","fixation","","",""
"memory-trial","238","453927","0.0-18.0-1.95","7588","approach_avoid_sv1","""event"",""trial"",""time""
""fullscreenenter"",""1"",""1814""
","
","
","""event"",""trial"",""time""
""fullscreenenter"",""1"",""1814""
","
","","","","","","905","images/horse3.png","","","memory_trial","3","maybe_new",""
"html-keyboard-response","239","454429","0.0-18.0-0.96","7588","approach_avoid_sv1","""event"",""trial"",""time""
""fullscreenenter"",""1"",""1814""
","
","
","""event"",""trial"",""time""
""fullscreenenter"",""1"",""1814""
","
","","","","","","null","<div style=""font-size:60px;"">+</div>","null","","fixation","","",""
"memory-trial","240","456925","0.0-18.0-1.96","7588","approach_avoid_sv1","""event"",""trial"",""time""
""fullscreenenter"",""1"",""1814""
","
","
","""event"",""trial"",""time""
""fullscreenenter"",""1"",""1814""
","
","","","","","","1492","images/cat1.png","","","memory_trial","4","definitely_new",""
"html-keyboard-response","241","457427","0.0-18.0-0.97","7588","approach_avoid_sv1","""event"",""trial"",""time""
""fullscreenenter"",""1"",""1814""
","
","
","""event"",""trial"",""time""
""fullscreenenter"",""1"",""1814""
","
","","","","","","null","<div style=""font-size:60px;"">+</div>","null","","fixation","","",""
"memory-trial","242","459651","0.0-18.0-1.97","7588","approach_avoid_sv1","""event"",""trial"",""time""
""fullscreenenter"",""1"",""1814""
","
","
","""event"",""trial"",""time""
""fullscreenenter"",""1"",""1814""
","
","","","","","","1216","images/straw4.png","","","memory_trial","3","maybe_new",""
"html-keyboard-response","243","460153","0.0-18.0-0.98","7588","approach_avoid_sv1","""event"",""trial"",""time""
""fullscreenenter"",""1"",""1814""
","
","
","""event"",""trial"",""time""
""fullscreenenter"",""1"",""1814""
","
","","","","","","null","<div style=""font-size:60px;"">+</div>","null","","fixation","","",""
"memory-trial","244","461956","0.0-18.0-1.98","7588","approach_avoid_sv1","""event"",""trial"",""time""
""fullscreenenter"",""1"",""1814""
","
","
","""event"",""trial"",""time""
""fullscreenenter"",""1"",""1814""
","
","","","","","","802","images/truck2.png","","","memory_trial","1","definitely_old",""
"html-keyboard-response","245","462459","0.0-18.0-0.99","7588","approach_avoid_sv1","""event"",""trial"",""time""
""fullscreenenter"",""1"",""1814""
","
","
","""event"",""trial"",""time""
""fullscreenenter"",""1"",""1814""
","
","","","","","","null","<div style=""font-size:60px;"">+</div>","null","","fixation","","",""
"memory-trial","246","464731","0.0-18.0-1.99","7588","approach_avoid_sv1","""event"",""trial"",""time""
""fullscreenenter"",""1"",""1814""
","
","
","""event"",""trial"",""time""
""fullscreenenter"",""1"",""1814""
","
","","","","","","1270","images/cow3.png","","","memory_trial","2","maybe_old",""
"html-keyboard-response","247","465233","0.0-18.0-0.100","7588","approach_avoid_sv1","""event"",""trial"",""time""
""fullscreenenter"",""1"",""1814""
","
","
","""event"",""trial"",""time""
""fullscreenenter"",""1"",""1814""
","
","","","","","","null","<div style=""font-size:60px;"">+</div>","null","","fixation","","",""
"memory-trial","248","467111","0.0-18.0-1.100","7588","approach_avoid_sv1","""event"",""trial"",""time""
""fullscreenenter"",""1"",""1814""
","
","
","""event"",""trial"",""time""
""fullscreenenter"",""1"",""1814""
","
","","","","","","873","images/rodent8.png","","","memory_trial","1","definitely_old",""
"html-keyboard-response","249","467613","0.0-18.0-0.101","7588","approach_avoid_sv1","""event"",""trial"",""time""
""fullscreenenter"",""1"",""1814""
","
","
","""event"",""trial"",""time""
""fullscreenenter"",""1"",""1814""
","
","","","","","","null","<div style=""font-size:60px;"">+</div>","null","","fixation","","",""
"memory-trial","250","470559","0.0-18.0-1.101","7588","approach_avoid_sv1","""event"",""trial"",""time""
""fullscreenenter"",""1"",""1814""
","
","
","""event"",""trial"",""time""
""fullscreenenter"",""1"",""1814""
","
","","","","","","1943","images/chair5.png","","","memory_trial","3","maybe_new",""
"html-keyboard-response","251","471060","0.0-18.0-0.102","7588","approach_avoid_sv1","""event"",""trial"",""time""
""fullscreenenter"",""1"",""1814""
","
","
","""event"",""trial"",""time""
""fullscreenenter"",""1"",""1814""
","
","","","","","","null","<div style=""font-size:60px;"">+</div>","null","","fixation","","",""
"memory-trial","252","473168","0.0-18.0-1.102","7588","approach_avoid_sv1","""event"",""trial"",""time""
""fullscreenenter"",""1"",""1814""
","
","
","""event"",""trial"",""time""
""fullscreenenter"",""1"",""1814""
","
","","","","","","1105","images/bed7.png","","","memory_trial","3","maybe_new",""
"html-keyboard-response","253","473670","0.0-18.0-0.103","7588","approach_avoid_sv1","""event"",""trial"",""time""
""fullscreenenter"",""1"",""1814""
","
","
","""event"",""trial"",""time""
""fullscreenenter"",""1"",""1814""
","
","","","","","","null","<div style=""font-size:60px;"">+</div>","null","","fixation","","",""
"memory-trial","254","475782","0.0-18.0-1.103","7588","approach_avoid_sv1","""event"",""trial"",""time""
""fullscreenenter"",""1"",""1814""
","
","
","""event"",""trial"",""time""
""fullscreenenter"",""1"",""1814""
","
","","","","","","1110","images/horse2.png","","","memory_trial","1","definitely_old",""
"html-keyboard-response","255","476284","0.0-18.0-0.104","7588","approach_avoid_sv1","""event"",""trial"",""time""
""fullscreenenter"",""1"",""1814""
","
","
","""event"",""trial"",""time""
""fullscreenenter"",""1"",""1814""
","
","","","","","","null","<div style=""font-size:60px;"">+</div>","null","","fixation","","",""
"memory-trial","256","478619","0.0-18.0-1.104","7588","approach_avoid_sv1","""event"",""trial"",""time""
""fullscreenenter"",""1"",""1814""
","
","
","""event"",""trial"",""time""
""fullscreenenter"",""1"",""1814""
","
","","","","","","1332","images/plane3.png","","","memory_trial","3","maybe_new",""
"html-keyboard-response","257","479120","0.0-18.0-0.105","7588","approach_avoid_sv1","""event"",""trial"",""time""
""fullscreenenter"",""1"",""1814""
","
","
","""event"",""trial"",""time""
""fullscreenenter"",""1"",""1814""
","
","","","","","","null","<div style=""font-size:60px;"">+</div>","null","","fixation","","",""
"memory-trial","258","481313","0.0-18.0-1.105","7588","approach_avoid_sv1","""event"",""trial"",""time""
""fullscreenenter"",""1"",""1814""
","
","
","""event"",""trial"",""time""
""fullscreenenter"",""1"",""1814""
","
","","","","","","1190","images/bush6.png","","","memory_trial","4","definitely_new",""
"html-keyboard-response","259","481815","0.0-18.0-0.106","7588","approach_avoid_sv1","""event"",""trial"",""time""
""fullscreenenter"",""1"",""1814""
","
","
","""event"",""trial"",""time""
""fullscreenenter"",""1"",""1814""
","
","","","","","","null","<div style=""font-size:60px;"">+</div>","null","","fixation","","",""
"memory-trial","260","484136","0.0-18.0-1.106","7588","approach_avoid_sv1","""event"",""trial"",""time""
""fullscreenenter"",""1"",""1814""
","
","
","""event"",""trial"",""time""
""fullscreenenter"",""1"",""1814""
","
","","","","","","1318","images/sofa6.png","","","memory_trial","2","maybe_old",""
"html-keyboard-response","261","484639","0.0-18.0-0.107","7588","approach_avoid_sv1","""event"",""trial"",""time""
""fullscreenenter"",""1"",""1814""
","
","
","""event"",""trial"",""time""
""fullscreenenter"",""1"",""1814""
","
","","","","","","null","<div style=""font-size:60px;"">+</div>","null","","fixation","","",""
"memory-trial","262","486320","0.0-18.0-1.107","7588","approach_avoid_sv1","""event"",""trial"",""time""
""fullscreenenter"",""1"",""1814""
","
","
","""event"",""trial"",""time""
""fullscreenenter"",""1"",""1814""
","
","","","","","","677","images/sheep6.png","","","memory_trial","3","maybe_new",""
"html-keyboard-response","263","486822","0.0-18.0-0.108","7588","approach_avoid_sv1","""event"",""trial"",""time""
""fullscreenenter"",""1"",""1814""
","
","
","""event"",""trial"",""time""
""fullscreenenter"",""1"",""1814""
","
","","","","","","null","<div style=""font-size:60px;"">+</div>","null","","fixation","","",""
"memory-trial","264","488656","0.0-18.0-1.108","7588","approach_avoid_sv1","""event"",""trial"",""time""
""fullscreenenter"",""1"",""1814""
","
","
","""event"",""trial"",""time""
""fullscreenenter"",""1"",""1814""
","
","","","","","","830","images/orange5.png","","","memory_trial","1","definitely_old",""
"html-keyboard-response","265","489159","0.0-18.0-0.109","7588","approach_avoid_sv1","""event"",""trial"",""time""
""fullscreenenter"",""1"",""1814""
","
","
","""event"",""trial"",""time""
""fullscreenenter"",""1"",""1814""
","
","","","","","","null","<div style=""font-size:60px;"">+</div>","null","","fixation","","",""
"memory-trial","266","491095","0.0-18.0-1.109","7588","approach_avoid_sv1","""event"",""trial"",""time""
""fullscreenenter"",""1"",""1814""
","
","
","""event"",""trial"",""time""
""fullscreenenter"",""1"",""1814""
","
","","","","","","932","images/sofa8.png","","","memory_trial","4","definitely_new",""
"html-keyboard-response","267","491597","0.0-18.0-0.110","7588","approach_avoid_sv1","""event"",""trial"",""time""
""fullscreenenter"",""1"",""1814""
","
","
","""event"",""trial"",""time""
""fullscreenenter"",""1"",""1814""
","
","","","","","","null","<div style=""font-size:60px;"">+</div>","null","","fixation","","",""
"memory-trial","268","493739","0.0-18.0-1.110","7588","approach_avoid_sv1","""event"",""trial"",""time""
""fullscreenenter"",""1"",""1814""
","
","
","""event"",""trial"",""time""
""fullscreenenter"",""1"",""1814""
","
","","","","","","1140","images/rabbit3.png","","","memory_trial","2","maybe_old",""
"html-keyboard-response","269","494240","0.0-18.0-0.111","7588","approach_avoid_sv1","""event"",""trial"",""time""
""fullscreenenter"",""1"",""1814""
","
","
","""event"",""trial"",""time""
""fullscreenenter"",""1"",""1814""
","
","","","","","","null","<div style=""font-size:60px;"">+</div>","null","","fixation","","",""
"memory-trial","270","496039","0.0-18.0-1.111","7588","approach_avoid_sv1","""event"",""trial"",""time""
""fullscreenenter"",""1"",""1814""
","
","
","""event"",""trial"",""time""
""fullscreenenter"",""1"",""1814""
","
","","","","","","796","images/chair3.png","","","memory_trial","1","definitely_old",""
"html-keyboard-response","271","496541","0.0-18.0-0.112","7588","approach_avoid_sv1","""event"",""trial"",""time""
""fullscreenenter"",""1"",""1814""
","
","
","""event"",""trial"",""time""
""fullscreenenter"",""1"",""1814""
","
","","","","","","null","<div style=""font-size:60px;"">+</div>","null","","fixation","","",""
"memory-trial","272","498813","0.0-18.0-1.112","7588","approach_avoid_sv1","""event"",""trial"",""time""
""fullscreenenter"",""1"",""1814""
","
","
","""event"",""trial"",""time""
""fullscreenenter"",""1"",""1814""
","
","","","","","","1269","images/table4.png","","","memory_trial","2","maybe_old",""
"html-keyboard-response","273","499315","0.0-18.0-0.113","7588","approach_avoid_sv1","""event"",""trial"",""time""
""fullscreenenter"",""1"",""1814""
","
","
","""event"",""trial"",""time""
""fullscreenenter"",""1"",""1814""
","
","","","","","","null","<div style=""font-size:60px;"">+</div>","null","","fixation","","",""
"memory-trial","274","501447","0.0-18.0-1.113","7588","approach_avoid_sv1","""event"",""trial"",""time""
""fullscreenenter"",""1"",""1814""
","
","
","""event"",""trial"",""time""
""fullscreenenter"",""1"",""1814""
","
","","","","","","1129","images/truck4.png","","","memory_trial","4","definitely_new",""
"html-keyboard-response","275","501948","0.0-18.0-0.114","7588","approach_avoid_sv1","""event"",""trial"",""time""
""fullscreenenter"",""1"",""1814""
","
","
","""event"",""trial"",""time""
""fullscreenenter"",""1"",""1814""
","
","","","","","","null","<div style=""font-size:60px;"">+</div>","null","","fixation","","",""
"memory-trial","276","503879","0.0-18.0-1.114","7588","approach_avoid_sv1","""event"",""trial"",""time""
""fullscreenenter"",""1"",""1814""
","
","
","""event"",""trial"",""time""
""fullscreenenter"",""1"",""1814""
","
","","","","","","929","images/tree4.png","","","memory_trial","1","definitely_old",""
"html-keyboard-response","277","504380","0.0-18.0-0.115","7588","approach_avoid_sv1","""event"",""trial"",""time""
""fullscreenenter"",""1"",""1814""
","
","
","""event"",""trial"",""time""
""fullscreenenter"",""1"",""1814""
","
","","","","","","null","<div style=""font-size:60px;"">+</div>","null","","fixation","","",""
"memory-trial","278","506496","0.0-18.0-1.115","7588","approach_avoid_sv1","""event"",""trial"",""time""
""fullscreenenter"",""1"",""1814""
","
","
","""event"",""trial"",""time""
""fullscreenenter"",""1"",""1814""
","
","","","","","","1113","images/banana4.png","","","memory_trial","3","maybe_new",""
"html-keyboard-response","279","506998","0.0-18.0-0.116","7588","approach_avoid_sv1","""event"",""trial"",""time""
""fullscreenenter"",""1"",""1814""
","
","
","""event"",""trial"",""time""
""fullscreenenter"",""1"",""1814""
","
","","","","","","null","<div style=""font-size:60px;"">+</div>","null","","fixation","","",""
"memory-trial","280","508630","0.0-18.0-1.116","7588","approach_avoid_sv1","""event"",""trial"",""time""
""fullscreenenter"",""1"",""1814""
","
","
","""event"",""trial"",""time""
""fullscreenenter"",""1"",""1814""
","
","","","","","","629","images/truck1.png","","","memory_trial","1","definitely_old",""
"html-keyboard-response","281","509131","0.0-18.0-0.117","7588","approach_avoid_sv1","""event"",""trial"",""time""
""fullscreenenter"",""1"",""1814""
","
","
","""event"",""trial"",""time""
""fullscreenenter"",""1"",""1814""
","
","","","","","","null","<div style=""font-size:60px;"">+</div>","null","","fixation","","",""
"memory-trial","282","511176","0.0-18.0-1.117","7588","approach_avoid_sv1","""event"",""trial"",""time""
""fullscreenenter"",""1"",""1814""
","
","
","""event"",""trial"",""time""
""fullscreenenter"",""1"",""1814""
","
","","","","","","1042","images/cat4.png","","","memory_trial","1","definitely_old",""
"html-keyboard-response","283","511678","0.0-18.0-0.118","7588","approach_avoid_sv1","""event"",""trial"",""time""
""fullscreenenter"",""1"",""1814""
","
","
","""event"",""trial"",""time""
""fullscreenenter"",""1"",""1814""
","
","","","","","","null","<div style=""font-size:60px;"">+</div>","null","","fixation","","",""
"memory-trial","284","513814","0.0-18.0-1.118","7588","approach_avoid_sv1","""event"",""trial"",""time""
""fullscreenenter"",""1"",""1814""
","
","
","""event"",""trial"",""time""
""fullscreenenter"",""1"",""1814""
","
","","","","","","1133","images/dog1.png","","","memory_trial","4","definitely_new",""
"html-keyboard-response","285","514316","0.0-18.0-0.119","7588","approach_avoid_sv1","""event"",""trial"",""time""
""fullscreenenter"",""1"",""1814""
","
","
","""event"",""trial"",""time""
""fullscreenenter"",""1"",""1814""
","
","","","","","","null","<div style=""font-size:60px;"">+</div>","null","","fixation","","",""
"memory-trial","286","516367","0.0-18.0-1.119","7588","approach_avoid_sv1","""event"",""trial"",""time""
""fullscreenenter"",""1"",""1814""
","
","
","""event"",""trial"",""time""
""fullscreenenter"",""1"",""1814""
","
","","","","","","1048","images/chair6.png","","","memory_trial","4","definitely_new",""
"html-keyboard-response","287","516869","0.0-18.0-0.120","7588","approach_avoid_sv1","""event"",""trial"",""time""
""fullscreenenter"",""1"",""1814""
","
","
","""event"",""trial"",""time""
""fullscreenenter"",""1"",""1814""
","
","","","","","","null","<div style=""font-size:60px;"">+</div>","null","","fixation","","",""
"memory-trial","288","518670","0.0-18.0-1.120","7588","approach_avoid_sv1","""event"",""trial"",""time""
""fullscreenenter"",""1"",""1814""
","
","
","""event"",""trial"",""time""
""fullscreenenter"",""1"",""1814""
","
","","","","","","797","images/cat2.png","","","memory_trial","1","definitely_old",""
"html-keyboard-response","289","519173","0.0-18.0-0.121","7588","approach_avoid_sv1","""event"",""trial"",""time""
""fullscreenenter"",""1"",""1814""
","
","
","""event"",""trial"",""time""
""fullscreenenter"",""1"",""1814""
","
","","","","","","null","<div style=""font-size:60px;"">+</div>","null","","fixation","","",""
"memory-trial","290","521207","0.0-18.0-1.121","7588","approach_avoid_sv1","""event"",""trial"",""time""
""fullscreenenter"",""1"",""1814""
","
","
","""event"",""trial"",""time""
""fullscreenenter"",""1"",""1814""
","
","","","","","","1030","images/rodent7.png","","","memory_trial","3","maybe_new",""
"html-keyboard-response","291","521709","0.0-18.0-0.122","7588","approach_avoid_sv1","""event"",""trial"",""time""
""fullscreenenter"",""1"",""1814""
","
","
","""event"",""trial"",""time""
""fullscreenenter"",""1"",""1814""
","
","","","","","","null","<div style=""font-size:60px;"">+</div>","null","","fixation","","",""
"memory-trial","292","523620","0.0-18.0-1.122","7588","approach_avoid_sv1","""event"",""trial"",""time""
""fullscreenenter"",""1"",""1814""
","
","
","""event"",""trial"",""time""
""fullscreenenter"",""1"",""1814""
","
","","","","","","909","images/chair1.png","","","memory_trial","2","maybe_old",""
"html-keyboard-response","293","524121","0.0-18.0-0.123","7588","approach_avoid_sv1","""event"",""trial"",""time""
""fullscreenenter"",""1"",""1814""
","
","
","""event"",""trial"",""time""
""fullscreenenter"",""1"",""1814""
","
","","","","","","null","<div style=""font-size:60px;"">+</div>","null","","fixation","","",""
"memory-trial","294","526071","0.0-18.0-1.123","7588","approach_avoid_sv1","""event"",""trial"",""time""
""fullscreenenter"",""1"",""1814""
","
","
","""event"",""trial"",""time""
""fullscreenenter"",""1"",""1814""
","
","","","","","","948","images/sheep7.png","","","memory_trial","4","definitely_new",""
"html-keyboard-response","295","526574","0.0-18.0-0.124","7588","approach_avoid_sv1","""event"",""trial"",""time""
""fullscreenenter"",""1"",""1814""
","
","
","""event"",""trial"",""time""
""fullscreenenter"",""1"",""1814""
","
","","","","","","null","<div style=""font-size:60px;"">+</div>","null","","fixation","","",""
"memory-trial","296","528392","0.0-18.0-1.124","7588","approach_avoid_sv1","""event"",""trial"",""time""
""fullscreenenter"",""1"",""1814""
","
","
","""event"",""trial"",""time""
""fullscreenenter"",""1"",""1814""
","
","","","","","","816","images/table3.png","","","memory_trial","1","definitely_old",""
"html-keyboard-response","297","528894","0.0-18.0-0.125","7588","approach_avoid_sv1","""event"",""trial"",""time""
""fullscreenenter"",""1"",""1814""
","
","
","""event"",""trial"",""time""
""fullscreenenter"",""1"",""1814""
","
","","","","","","null","<div style=""font-size:60px;"">+</div>","null","","fixation","","",""
"memory-trial","298","530796","0.0-18.0-1.125","7588","approach_avoid_sv1","""event"",""trial"",""time""
""fullscreenenter"",""1"",""1814""
","
","
","""event"",""trial"",""time""
""fullscreenenter"",""1"",""1814""
","
","","","","","","899","images/sofa2.png","","","memory_trial","1","definitely_old",""
"html-keyboard-response","299","531299","0.0-18.0-0.126","7588","approach_avoid_sv1","""event"",""trial"",""time""
""fullscreenenter"",""1"",""1814""
","
","
","""event"",""trial"",""time""
""fullscreenenter"",""1"",""1814""
","
","","","","","","null","<div style=""font-size:60px;"">+</div>","null","","fixation","","",""
"memory-trial","300","533262","0.0-18.0-1.126","7588","approach_avoid_sv1","""event"",""trial"",""time""
""fullscreenenter"",""1"",""1814""
","
","
","""event"",""trial"",""time""
""fullscreenenter"",""1"",""1814""
","
","","","","","","960","images/straw8.png","","","memory_trial","3","maybe_new",""
"html-keyboard-response","301","533764","0.0-18.0-0.127","7588","approach_avoid_sv1","""event"",""trial"",""time""
""fullscreenenter"",""1"",""1814""
","
","
","""event"",""trial"",""time""
""fullscreenenter"",""1"",""1814""
","
","","","","","","null","<div style=""font-size:60px;"">+</div>","null","","fixation","","",""
"memory-trial","302","536023","0.0-18.0-1.127","7588","approach_avoid_sv1","""event"",""trial"",""time""
""fullscreenenter"",""1"",""1814""
","
","
","""event"",""trial"",""time""
""fullscreenenter"",""1"",""1814""
","
","","","","","","1257","images/goat4.png","","","memory_trial","3","maybe_new",""
