"trial_type","trial_index","time_elapsed","internal_node_id","subject_id","task_version","interactions","blur_events","focus_events","fullscreenenter_events","fullscreenexit_events","success","timeout","failed_images","failed_audio","failed_video","rt","stimulus","response","button_pressed","task_part","key_press","answer","correct"
"pavlovia","0","2","0.0-0.0","5738","approach_avoid_sv1","""event"",""trial"",""time""
""fullscreenenter"",""1"",""18237""
","
","
","""event"",""trial"",""time""
""fullscreenenter"",""1"",""18237""
","
","","","","","","","","","","","","",""
"fullscreen","1","19228","0.0-1.0","5738","approach_avoid_sv1","""event"",""trial"",""time""
""fullscreenenter"",""1"",""18237""
","
","
","""event"",""trial"",""time""
""fullscreenenter"",""1"",""18237""
","
","true","","","","","","","","","","","",""
"preload","2","20860","0.0-2.0","5738","approach_avoid_sv1","""event"",""trial"",""time""
""fullscreenenter"",""1"",""18237""
","
","
","""event"",""trial"",""time""
""fullscreenenter"",""1"",""18237""
","
","true","false","[]","[]","[]","","","","","","","",""
"preload","3","21354","0.0-3.0","5738","approach_avoid_sv1","""event"",""trial"",""time""
""fullscreenenter"",""1"",""18237""
","
","
","""event"",""trial"",""time""
""fullscreenenter"",""1"",""18237""
","
","true","false","[]","[]","[]","","","","","","","",""
"preload","4","21539","0.0-4.0","5738","approach_avoid_sv1","""event"",""trial"",""time""
""fullscreenenter"",""1"",""18237""
","
","
","""event"",""trial"",""time""
""fullscreenenter"",""1"",""18237""
","
","true","false","[]","[]","[]","","","","","","","",""
"audio-keyboard-response","5","24791","0.0-5.0","5738","approach_avoid_sv1","""event"",""trial"",""time""
""fullscreenenter"",""1"",""18237""
","
","
","""event"",""trial"",""time""
""fullscreenenter"",""1"",""18237""
","
","","","","","","3248","audio/beep_loop.wav"," ","","","","",""
"audio-button-response","6","25910","0.0-6.0","5738","approach_avoid_sv1","""event"",""trial"",""time""
""fullscreenenter"",""1"",""18237""
","
","
","""event"",""trial"",""time""
""fullscreenenter"",""1"",""18237""
","
","","","","","","1120","audio/turtle.wav","3","","","","",""
"audio-button-response","7","28642","0.0-7.0","5738","approach_avoid_sv1","""event"",""trial"",""time""
""fullscreenenter"",""1"",""18237""
","
","
","""event"",""trial"",""time""
""fullscreenenter"",""1"",""18237""
","
","","","","","","1728","audio/shark.wav","2","","","","",""
"preload","8","31403","0.0-8.0","5738","approach_avoid_sv1","""event"",""trial"",""time""
""fullscreenenter"",""1"",""18237""
","
","
","""event"",""trial"",""time""
""fullscreenenter"",""1"",""18237""
","
","true","false","[]","[]","[]","","","","","","","",""
"learning-instructions","9","45692","0.0-9.0-0.0","5738","approach_avoid_sv1","""event"",""trial"",""time""
""fullscreenenter"",""1"",""18237""
","
","
","""event"",""trial"",""time""
""fullscreenenter"",""1"",""18237""
","
","","","","","","9809.300000011921","<p> Welcome back! </p><p> Last week, you had to make choices about lots of different items.  </p>","","0","instructions","","",""
"learning-instructions","10","52095","0.0-9.0-0.1","5738","approach_avoid_sv1","""event"",""trial"",""time""
""fullscreenenter"",""1"",""18237""
","
","
","""event"",""trial"",""time""
""fullscreenenter"",""1"",""18237""
","
","","","","","","2288.300000011921","<p> Today, we are going to ask you to try to remember all the items. </p>","","0","instructions","","",""
"learning-instructions","11","62724","0.0-9.0-0.2","5738","approach_avoid_sv1","""event"",""trial"",""time""
""fullscreenenter"",""1"",""18237""
","
","
","""event"",""trial"",""time""
""fullscreenenter"",""1"",""18237""
","
","","","","","","495.30000001192093","<p> On every trial, you will see an image. </p><p> The image may be an OLD image you saw during the games last week or it may be a NEW image that was not presented. </p>","","0","instructions","","",""
"learning-instructions","12","72596","0.0-9.0-0.3","5738","approach_avoid_sv1","""event"",""trial"",""time""
""fullscreenenter"",""1"",""18237""
","
","
","""event"",""trial"",""time""
""fullscreenenter"",""1"",""18237""
","
","","","","","","1374.0999999940395","<p> You need to select whether the image is:  </p><p>  'Definitely old', 'Maybe old', 'Maybe new', or 'Definitely new.'  </p><div class=""mem-choice-instructions-grid""><div class=""choice-option"" id=""choice-option-1"" ><img src=""images/definitely_old_1.png"" id=""choice-option-img-1"" class=""choice-option-img"" stage=""1""></div><div class=""choice-option"" id=""choice-option-2"" ><img src=""images/maybe_old_1.png"" id=""choice-option-img-2"" class=""choice-option-img"" stage=""1""></div><div class=""choice-option"" id=""choice-option-3"" ><img src=""images/maybe_new_1.png"" id=""choice-option-img-3"" class=""choice-option-img"" stage=""1""></div><div class=""choice-option"" id=""choice-option-4"" > <img src=""images/definitely_new_1.png"" id=""choice-option-img-4"" class=""choice-option-img"" stage=""1""></div></div>","","0","instructions","","",""
"learning-instructions","13","81795","0.0-9.0-0.4","5738","approach_avoid_sv1","""event"",""trial"",""time""
""fullscreenenter"",""1"",""18237""
","
","
","""event"",""trial"",""time""
""fullscreenenter"",""1"",""18237""
","
","","","","","","2680","<p> You should use the 1, 2, 3, and 4 keys to make your responses.  </p><div class=""mem-choice-instructions-grid""><div class=""choice-option"" id=""choice-option-1"" ><img src=""images/definitely_old.png"" id=""choice-option-img-1"" class=""choice-option-img"" stage=""1""></div><div class=""choice-option"" id=""choice-option-2"" ><img src=""images/maybe_old.png"" id=""choice-option-img-2"" class=""choice-option-img"" stage=""1""></div><div class=""choice-option"" id=""choice-option-3"" ><img src=""images/maybe_new.png"" id=""choice-option-img-3"" class=""choice-option-img"" stage=""1""></div><div class=""choice-option"" id=""choice-option-4"" > <img src=""images/definitely_new.png"" id=""choice-option-img-4"" class=""choice-option-img"" stage=""1""></div></div>","","0","instructions","","",""
"learning-instructions","14","89767","0.0-9.0-0.5","5738","approach_avoid_sv1","""event"",""trial"",""time""
""fullscreenenter"",""1"",""18237""
","
","
","""event"",""trial"",""time""
""fullscreenenter"",""1"",""18237""
","
","","","","","","1645.800000011921","<p> You will have 10 seconds to make each response.  </p><p>  Make sure to respond before time runs out! </p>","","0","instructions","","",""
"learning-instructions","15","102006","0.0-9.0-0.6","5738","approach_avoid_sv1","""event"",""trial"",""time""
""fullscreenenter"",""1"",""18237""
","
","
","""event"",""trial"",""time""
""fullscreenenter"",""1"",""18237""
","
","","","","","","5165.200000017881","<p> Today, you will see each image ONCE only.  </p><p>  That means none of the images will repeat. </p>","","0","instructions","","",""
"learning-instructions","16","115208","0.0-9.0-0.7","5738","approach_avoid_sv1","""event"",""trial"",""time""
""fullscreenenter"",""1"",""18237""
","
","
","""event"",""trial"",""time""
""fullscreenenter"",""1"",""18237""
","
","","","","","","531.7000000178814","<p> Before you play the real game, it is time to practice. </p><p>  Just like in the real game, some of the images in the practice will be ones you have seen before. </p><p>  Others will be entirely new. </p>","","0","instructions","","",""
"html-button-response","17","116825","0.0-10.0","5738","approach_avoid_sv1","""event"",""trial"",""time""
""fullscreenenter"",""1"",""18237""
","
","
","""event"",""trial"",""time""
""fullscreenenter"",""1"",""18237""
","
","","","","","","1512.5","<p> Ready to practice? </p><p> Remember, use the 1, 2, 3, and 4 keys to make your responses. </p>","0","","instructions","","",""
"html-keyboard-response","18","117429","0.0-11.0-0.0","5738","approach_avoid_sv1","""event"",""trial"",""time""
""fullscreenenter"",""1"",""18237""
","
","
","""event"",""trial"",""time""
""fullscreenenter"",""1"",""18237""
","
","","","","","","null","<div style=""font-size:60px;"">+</div>","null","","fixation","","",""
"memory-trial","19","121665","0.0-11.0-1.0","5738","approach_avoid_sv1","""event"",""trial"",""time""
""fullscreenenter"",""1"",""18237""
","
","
","""event"",""trial"",""time""
""fullscreenenter"",""1"",""18237""
","
","","","","","","3230.0999999940395","images/racket1.png","","","practice","1","definitely_old",""
"html-keyboard-response","20","122168","0.0-11.0-0.1","5738","approach_avoid_sv1","""event"",""trial"",""time""
""fullscreenenter"",""1"",""18237""
","
","
","""event"",""trial"",""time""
""fullscreenenter"",""1"",""18237""
","
","","","","","","null","<div style=""font-size:60px;"">+</div>","null","","fixation","","",""
"memory-trial","21","126046","0.0-11.0-1.1","5738","approach_avoid_sv1","""event"",""trial"",""time""
""fullscreenenter"",""1"",""18237""
","
","
","""event"",""trial"",""time""
""fullscreenenter"",""1"",""18237""
","
","","","","","","2871.5999999940395","images/ball3.png","","","practice","3","maybe_new",""
"html-keyboard-response","22","126548","0.0-11.0-0.2","5738","approach_avoid_sv1","""event"",""trial"",""time""
""fullscreenenter"",""1"",""18237""
","
","
","""event"",""trial"",""time""
""fullscreenenter"",""1"",""18237""
","
","","","","","","null","<div style=""font-size:60px;"">+</div>","null","","fixation","","",""
"memory-trial","23","128416","0.0-11.0-1.2","5738","approach_avoid_sv1","""event"",""trial"",""time""
""fullscreenenter"",""1"",""18237""
","
","
","""event"",""trial"",""time""
""fullscreenenter"",""1"",""18237""
","
","","","","","","861","images/ball5.png","","","practice","1","definitely_old",""
"html-keyboard-response","24","128921","0.0-11.0-0.3","5738","approach_avoid_sv1","""event"",""trial"",""time""
""fullscreenenter"",""1"",""18237""
","
","
","""event"",""trial"",""time""
""fullscreenenter"",""1"",""18237""
","
","","","","","","null","<div style=""font-size:60px;"">+</div>","null","","fixation","","",""
"memory-trial","25","132163","0.0-11.0-1.3","5738","approach_avoid_sv1","""event"",""trial"",""time""
""fullscreenenter"",""1"",""18237""
","
","
","""event"",""trial"",""time""
""fullscreenenter"",""1"",""18237""
","
","","","","","","2237.199999988079","images/racket3.png","","","practice","2","maybe_old",""
"html-keyboard-response","26","132665","0.0-11.0-0.4","5738","approach_avoid_sv1","""event"",""trial"",""time""
""fullscreenenter"",""1"",""18237""
","
","
","""event"",""trial"",""time""
""fullscreenenter"",""1"",""18237""
","
","","","","","","null","<div style=""font-size:60px;"">+</div>","null","","fixation","","",""
"memory-trial","27","135223","0.0-11.0-1.4","5738","approach_avoid_sv1","""event"",""trial"",""time""
""fullscreenenter"",""1"",""18237""
","
","
","""event"",""trial"",""time""
""fullscreenenter"",""1"",""18237""
","
","","","","","","1551.4000000059605","images/ball1.png","","","practice","2","maybe_old",""
"html-keyboard-response","28","135727","0.0-11.0-0.5","5738","approach_avoid_sv1","""event"",""trial"",""time""
""fullscreenenter"",""1"",""18237""
","
","
","""event"",""trial"",""time""
""fullscreenenter"",""1"",""18237""
","
","","","","","","null","<div style=""font-size:60px;"">+</div>","null","","fixation","","",""
"memory-trial","29","138267","0.0-11.0-1.5","5738","approach_avoid_sv1","""event"",""trial"",""time""
""fullscreenenter"",""1"",""18237""
","
","
","""event"",""trial"",""time""
""fullscreenenter"",""1"",""18237""
","
","","","","","","1534.7999999821186","images/racket5.png","","","practice","2","maybe_old",""
"html-keyboard-response","30","138770","0.0-11.0-0.6","5738","approach_avoid_sv1","""event"",""trial"",""time""
""fullscreenenter"",""1"",""18237""
","
","
","""event"",""trial"",""time""
""fullscreenenter"",""1"",""18237""
","
","","","","","","null","<div style=""font-size:60px;"">+</div>","null","","fixation","","",""
"memory-trial","31","141853","0.0-11.0-1.6","5738","approach_avoid_sv1","""event"",""trial"",""time""
""fullscreenenter"",""1"",""18237""
","
","
","""event"",""trial"",""time""
""fullscreenenter"",""1"",""18237""
","
","","","","","","2079.9000000059605","images/ball2.png","","","practice","2","maybe_old",""
"html-keyboard-response","32","142355","0.0-11.0-0.7","5738","approach_avoid_sv1","""event"",""trial"",""time""
""fullscreenenter"",""1"",""18237""
","
","
","""event"",""trial"",""time""
""fullscreenenter"",""1"",""18237""
","
","","","","","","null","<div style=""font-size:60px;"">+</div>","null","","fixation","","",""
"memory-trial","33","146126","0.0-11.0-1.7","5738","approach_avoid_sv1","""event"",""trial"",""time""
""fullscreenenter"",""1"",""18237""
","
","
","""event"",""trial"",""time""
""fullscreenenter"",""1"",""18237""
","
","","","","","","2763.100000023842","images/racket2.png","","","practice","4","definitely_new",""
"learning-instructions","34","153933","0.0-12.0-0.0","5738","approach_avoid_sv1","""event"",""trial"",""time""
""fullscreenenter"",""1"",""18237""
","
","
","""event"",""trial"",""time""
""fullscreenenter"",""1"",""18237""
","
","","","","","","473.19999998807907","<p> Great! You have completed the practice. </p><p> Before you start, we're going to ask you a few questions about how the game works.  </p>","","0","instructions","","",""
"preload","35","155451","0.0-13.0","5738","approach_avoid_sv1","""event"",""trial"",""time""
""fullscreenenter"",""1"",""18237""
","
","
","""event"",""trial"",""time""
""fullscreenenter"",""1"",""18237""
","
","true","false","[]","[]","[]","","","","","","","",""
"comp-q","36","162055","0.0-14.0-0.0","5738","approach_avoid_sv1","""event"",""trial"",""time""
""fullscreenenter"",""1"",""18237""
","
","
","""event"",""trial"",""time""
""fullscreenenter"",""1"",""18237""
","
","","","","","","775.4000000059605","<p> <b> True or False? </b> </p><p> In this game, you will only see each image once. </p>","","0","comp_question","","","true"
"comp-q","37","170671","0.0-14.0-1.0","5738","approach_avoid_sv1","""event"",""trial"",""time""
""fullscreenenter"",""1"",""18237""
","
","
","""event"",""trial"",""time""
""fullscreenenter"",""1"",""18237""
","
","","","","","","2282","<p> <b> That's right! </b> You will see many different images <i> one time each </i> in this game. </p>","","0","comp_answer","","",""
"comp-q","38","176389","0.0-15.0-0.0","5738","approach_avoid_sv1","""event"",""trial"",""time""
""fullscreenenter"",""1"",""18237""
","
","
","""event"",""trial"",""time""
""fullscreenenter"",""1"",""18237""
","
","","","","","","715.5999999940395","<p> <b> True or False? </b> </p><p> You should use the mouse and click to make your response. </p>","","1","comp_question","","","true"
"comp-q","39","184310","0.0-15.0-1.0","5738","approach_avoid_sv1","""event"",""trial"",""time""
""fullscreenenter"",""1"",""18237""
","
","
","""event"",""trial"",""time""
""fullscreenenter"",""1"",""18237""
","
","","","","","","1421","<p><b> That's right! </b> You should use the '1', '2', '3', and '4' keys to make your response. </p>","","0","comp_answer","","",""
"comp-q","40","191686","0.0-16.0-0.0","5738","approach_avoid_sv1","""event"",""trial"",""time""
""fullscreenenter"",""1"",""18237""
","
","
","""event"",""trial"",""time""
""fullscreenenter"",""1"",""18237""
","
","","","","","","1697.699999988079","<p> <b> True or False? </b> </p><p> You will have as much time as you want to make each choice. </p>","","1","comp_question","","","true"
"comp-q","41","197616","0.0-16.0-1.0","5738","approach_avoid_sv1","""event"",""trial"",""time""
""fullscreenenter"",""1"",""18237""
","
","
","""event"",""trial"",""time""
""fullscreenenter"",""1"",""18237""
","
","","","","","","1239.199999988079","<p> <b> That's right! </b> You will only have 10 seconds to make each choice. </p>","","0","comp_answer","","",""
"learning-instructions","42","213274","0.0-17.0","5738","approach_avoid_sv1","""event"",""trial"",""time""
""fullscreenenter"",""1"",""18237""
","
","
","""event"",""trial"",""time""
""fullscreenenter"",""1"",""18237""
","
","","","","","","6993.9000000059605","<p> Great! You are now ready to begin the game. </p><p> Remember, use the 1, 2, 3, and 4 keys to make your responses. </p>","","0","instructions","","",""
"html-keyboard-response","43","213880","0.0-18.0-0.0","5738","approach_avoid_sv1","""event"",""trial"",""time""
""fullscreenenter"",""1"",""18237""
","
","
","""event"",""trial"",""time""
""fullscreenenter"",""1"",""18237""
","
","","","","","","null","<div style=""font-size:60px;"">+</div>","null","","fixation","","",""
"memory-trial","44","216405","0.0-18.0-1.0","5738","approach_avoid_sv1","""event"",""trial"",""time""
""fullscreenenter"",""1"",""18237""
","
","
","""event"",""trial"",""time""
""fullscreenenter"",""1"",""18237""
","
","","","","","","1519.5","images/chair1.png","","","memory_trial","1","definitely_old",""
"html-keyboard-response","45","216908","0.0-18.0-0.1","5738","approach_avoid_sv1","""event"",""trial"",""time""
""fullscreenenter"",""1"",""18237""
","
","
","""event"",""trial"",""time""
""fullscreenenter"",""1"",""18237""
","
","","","","","","null","<div style=""font-size:60px;"">+</div>","null","","fixation","","",""
"memory-trial","46","218919","0.0-18.0-1.1","5738","approach_avoid_sv1","""event"",""trial"",""time""
""fullscreenenter"",""1"",""18237""
","
","
","""event"",""trial"",""time""
""fullscreenenter"",""1"",""18237""
","
","","","","","","1005.6999999880791","images/horse8.png","","","memory_trial","1","definitely_old",""
"html-keyboard-response","47","219421","0.0-18.0-0.2","5738","approach_avoid_sv1","""event"",""trial"",""time""
""fullscreenenter"",""1"",""18237""
","
","
","""event"",""trial"",""time""
""fullscreenenter"",""1"",""18237""
","
","","","","","","null","<div style=""font-size:60px;"">+</div>","null","","fixation","","",""
"memory-trial","48","221520","0.0-18.0-1.2","5738","approach_avoid_sv1","""event"",""trial"",""time""
""fullscreenenter"",""1"",""18237""
","
","
","""event"",""trial"",""time""
""fullscreenenter"",""1"",""18237""
","
","","","","","","1095","images/sheep7.png","","","memory_trial","1","definitely_old",""
"html-keyboard-response","49","222025","0.0-18.0-0.3","5738","approach_avoid_sv1","""event"",""trial"",""time""
""fullscreenenter"",""1"",""18237""
","
","
","""event"",""trial"",""time""
""fullscreenenter"",""1"",""18237""
","
","","","","","","null","<div style=""font-size:60px;"">+</div>","null","","fixation","","",""
"memory-trial","50","224328","0.0-18.0-1.3","5738","approach_avoid_sv1","""event"",""trial"",""time""
""fullscreenenter"",""1"",""18237""
","
","
","""event"",""trial"",""time""
""fullscreenenter"",""1"",""18237""
","
","","","","","","1298.4000000059605","images/cat2.png","","","memory_trial","4","definitely_new",""
"html-keyboard-response","51","224832","0.0-18.0-0.4","5738","approach_avoid_sv1","""event"",""trial"",""time""
""fullscreenenter"",""1"",""18237""
","
","
","""event"",""trial"",""time""
""fullscreenenter"",""1"",""18237""
","
","","","","","","null","<div style=""font-size:60px;"">+</div>","null","","fixation","","",""
"memory-trial","52","228203","0.0-18.0-1.4","5738","approach_avoid_sv1","""event"",""trial"",""time""
""fullscreenenter"",""1"",""18237""
","
","
","""event"",""trial"",""time""
""fullscreenenter"",""1"",""18237""
","
","","","","","","2367.0999999940395","images/straw4.png","","","memory_trial","3","maybe_new",""
"html-keyboard-response","53","228708","0.0-18.0-0.5","5738","approach_avoid_sv1","""event"",""trial"",""time""
""fullscreenenter"",""1"",""18237""
","
","
","""event"",""trial"",""time""
""fullscreenenter"",""1"",""18237""
","
","","","","","","null","<div style=""font-size:60px;"">+</div>","null","","fixation","","",""
"memory-trial","54","231489","0.0-18.0-1.5","5738","approach_avoid_sv1","""event"",""trial"",""time""
""fullscreenenter"",""1"",""18237""
","
","
","""event"",""trial"",""time""
""fullscreenenter"",""1"",""18237""
","
","","","","","","1776","images/tree3.png","","","memory_trial","4","definitely_new",""
"html-keyboard-response","55","231992","0.0-18.0-0.6","5738","approach_avoid_sv1","""event"",""trial"",""time""
""fullscreenenter"",""1"",""18237""
","
","
","""event"",""trial"",""time""
""fullscreenenter"",""1"",""18237""
","
","","","","","","null","<div style=""font-size:60px;"">+</div>","null","","fixation","","",""
"memory-trial","56","233755","0.0-18.0-1.6","5738","approach_avoid_sv1","""event"",""trial"",""time""
""fullscreenenter"",""1"",""18237""
","
","
","""event"",""trial"",""time""
""fullscreenenter"",""1"",""18237""
","
","","","","","","758.7999999821186","images/boat4.png","","","memory_trial","4","definitely_new",""
"html-keyboard-response","57","234257","0.0-18.0-0.7","5738","approach_avoid_sv1","""event"",""trial"",""time""
""fullscreenenter"",""1"",""18237""
","
","
","""event"",""trial"",""time""
""fullscreenenter"",""1"",""18237""
","
","","","","","","null","<div style=""font-size:60px;"">+</div>","null","","fixation","","",""
"memory-trial","58","236634","0.0-18.0-1.7","5738","approach_avoid_sv1","""event"",""trial"",""time""
""fullscreenenter"",""1"",""18237""
","
","
","""event"",""trial"",""time""
""fullscreenenter"",""1"",""18237""
","
","","","","","","1371.9000000059605","images/train4.png","","","memory_trial","3","maybe_new",""
"html-keyboard-response","59","237139","0.0-18.0-0.8","5738","approach_avoid_sv1","""event"",""trial"",""time""
""fullscreenenter"",""1"",""18237""
","
","
","""event"",""trial"",""time""
""fullscreenenter"",""1"",""18237""
","
","","","","","","null","<div style=""font-size:60px;"">+</div>","null","","fixation","","",""
"memory-trial","60","239358","0.0-18.0-1.8","5738","approach_avoid_sv1","""event"",""trial"",""time""
""fullscreenenter"",""1"",""18237""
","
","
","""event"",""trial"",""time""
""fullscreenenter"",""1"",""18237""
","
","","","","","","1211.9000000059605","images/horse2.png","","","memory_trial","1","definitely_old",""
"html-keyboard-response","61","239864","0.0-18.0-0.9","5738","approach_avoid_sv1","""event"",""trial"",""time""
""fullscreenenter"",""1"",""18237""
","
","
","""event"",""trial"",""time""
""fullscreenenter"",""1"",""18237""
","
","","","","","","null","<div style=""font-size:60px;"">+</div>","null","","fixation","","",""
"memory-trial","62","242637","0.0-18.0-1.9","5738","approach_avoid_sv1","""event"",""trial"",""time""
""fullscreenenter"",""1"",""18237""
","
","
","""event"",""trial"",""time""
""fullscreenenter"",""1"",""18237""
","
","","","","","","1766.3999999761581","images/horse1.png","","","memory_trial","3","maybe_new",""
"html-keyboard-response","63","243143","0.0-18.0-0.10","5738","approach_avoid_sv1","""event"",""trial"",""time""
""fullscreenenter"",""1"",""18237""
","
","
","""event"",""trial"",""time""
""fullscreenenter"",""1"",""18237""
","
","","","","","","null","<div style=""font-size:60px;"">+</div>","null","","fixation","","",""
"memory-trial","64","245091","0.0-18.0-1.10","5738","approach_avoid_sv1","""event"",""trial"",""time""
""fullscreenenter"",""1"",""18237""
","
","
","""event"",""trial"",""time""
""fullscreenenter"",""1"",""18237""
","
","","","","","","940.2999999821186","images/orange2.png","","","memory_trial","3","maybe_new",""
"html-keyboard-response","65","245593","0.0-18.0-0.11","5738","approach_avoid_sv1","""event"",""trial"",""time""
""fullscreenenter"",""1"",""18237""
","
","
","""event"",""trial"",""time""
""fullscreenenter"",""1"",""18237""
","
","","","","","","null","<div style=""font-size:60px;"">+</div>","null","","fixation","","",""
"memory-trial","66","247582","0.0-18.0-1.11","5738","approach_avoid_sv1","""event"",""trial"",""time""
""fullscreenenter"",""1"",""18237""
","
","
","""event"",""trial"",""time""
""fullscreenenter"",""1"",""18237""
","
","","","","","","981.5","images/table3.png","","","memory_trial","4","definitely_new",""
"html-keyboard-response","67","248088","0.0-18.0-0.12","5738","approach_avoid_sv1","""event"",""trial"",""time""
""fullscreenenter"",""1"",""18237""
","
","
","""event"",""trial"",""time""
""fullscreenenter"",""1"",""18237""
","
","","","","","","null","<div style=""font-size:60px;"">+</div>","null","","fixation","","",""
"memory-trial","68","250131","0.0-18.0-1.12","5738","approach_avoid_sv1","""event"",""trial"",""time""
""fullscreenenter"",""1"",""18237""
","
","
","""event"",""trial"",""time""
""fullscreenenter"",""1"",""18237""
","
","","","","","","1035.9000000059605","images/cat5.png","","","memory_trial","4","definitely_new",""
"html-keyboard-response","69","250634","0.0-18.0-0.13","5738","approach_avoid_sv1","""event"",""trial"",""time""
""fullscreenenter"",""1"",""18237""
","
","
","""event"",""trial"",""time""
""fullscreenenter"",""1"",""18237""
","
","","","","","","null","<div style=""font-size:60px;"">+</div>","null","","fixation","","",""
"memory-trial","70","252320","0.0-18.0-1.13","5738","approach_avoid_sv1","""event"",""trial"",""time""
""fullscreenenter"",""1"",""18237""
","
","
","""event"",""trial"",""time""
""fullscreenenter"",""1"",""18237""
","
","","","","","","678.4000000059605","images/boat6.png","","","memory_trial","4","definitely_new",""
"html-keyboard-response","71","252824","0.0-18.0-0.14","5738","approach_avoid_sv1","""event"",""trial"",""time""
""fullscreenenter"",""1"",""18237""
","
","
","""event"",""trial"",""time""
""fullscreenenter"",""1"",""18237""
","
","","","","","","null","<div style=""font-size:60px;"">+</div>","null","","fixation","","",""
"memory-trial","72","254983","0.0-18.0-1.14","5738","approach_avoid_sv1","""event"",""trial"",""time""
""fullscreenenter"",""1"",""18237""
","
","
","""event"",""trial"",""time""
""fullscreenenter"",""1"",""18237""
","
","","","","","","1154.199999988079","images/sofa3.png","","","memory_trial","1","definitely_old",""
"html-keyboard-response","73","255488","0.0-18.0-0.15","5738","approach_avoid_sv1","""event"",""trial"",""time""
""fullscreenenter"",""1"",""18237""
","
","
","""event"",""trial"",""time""
""fullscreenenter"",""1"",""18237""
","
","","","","","","null","<div style=""font-size:60px;"">+</div>","null","","fixation","","",""
"memory-trial","74","257368","0.0-18.0-1.15","5738","approach_avoid_sv1","""event"",""trial"",""time""
""fullscreenenter"",""1"",""18237""
","
","
","""event"",""trial"",""time""
""fullscreenenter"",""1"",""18237""
","
","","","","","","874.8999999761581","images/cat6.png","","","memory_trial","1","definitely_old",""
"html-keyboard-response","75","257874","0.0-18.0-0.16","5738","approach_avoid_sv1","""event"",""trial"",""time""
""fullscreenenter"",""1"",""18237""
","
","
","""event"",""trial"",""time""
""fullscreenenter"",""1"",""18237""
","
","","","","","","null","<div style=""font-size:60px;"">+</div>","null","","fixation","","",""
"memory-trial","76","259990","0.0-18.0-1.16","5738","approach_avoid_sv1","""event"",""trial"",""time""
""fullscreenenter"",""1"",""18237""
","
","
","""event"",""trial"",""time""
""fullscreenenter"",""1"",""18237""
","
","","","","","","1109","images/rabbit1.png","","","memory_trial","1","definitely_old",""
"html-keyboard-response","77","260495","0.0-18.0-0.17","5738","approach_avoid_sv1","""event"",""trial"",""time""
""fullscreenenter"",""1"",""18237""
","
","
","""event"",""trial"",""time""
""fullscreenenter"",""1"",""18237""
","
","","","","","","null","<div style=""font-size:60px;"">+</div>","null","","fixation","","",""
"memory-trial","78","262376","0.0-18.0-1.17","5738","approach_avoid_sv1","""event"",""trial"",""time""
""fullscreenenter"",""1"",""18237""
","
","
","""event"",""trial"",""time""
""fullscreenenter"",""1"",""18237""
","
","","","","","","874.0999999940395","images/sofa5.png","","","memory_trial","1","definitely_old",""
"html-keyboard-response","79","262878","0.0-18.0-0.18","5738","approach_avoid_sv1","""event"",""trial"",""time""
""fullscreenenter"",""1"",""18237""
","
","
","""event"",""trial"",""time""
""fullscreenenter"",""1"",""18237""
","
","","","","","","null","<div style=""font-size:60px;"">+</div>","null","","fixation","","",""
"memory-trial","80","265394","0.0-18.0-1.18","5738","approach_avoid_sv1","""event"",""trial"",""time""
""fullscreenenter"",""1"",""18237""
","
","
","""event"",""trial"",""time""
""fullscreenenter"",""1"",""18237""
","
","","","","","","1508.3999999761581","images/goat4.png","","","memory_trial","3","maybe_new",""
"html-keyboard-response","81","265900","0.0-18.0-0.19","5738","approach_avoid_sv1","""event"",""trial"",""time""
""fullscreenenter"",""1"",""18237""
","
","
","""event"",""trial"",""time""
""fullscreenenter"",""1"",""18237""
","
","","","","","","null","<div style=""font-size:60px;"">+</div>","null","","fixation","","",""
"memory-trial","82","268562","0.0-18.0-1.19","5738","approach_avoid_sv1","""event"",""trial"",""time""
""fullscreenenter"",""1"",""18237""
","
","
","""event"",""trial"",""time""
""fullscreenenter"",""1"",""18237""
","
","","","","","","1657","images/sheep5.png","","","memory_trial","4","definitely_new",""
"html-keyboard-response","83","269068","0.0-18.0-0.20","5738","approach_avoid_sv1","""event"",""trial"",""time""
""fullscreenenter"",""1"",""18237""
","
","
","""event"",""trial"",""time""
""fullscreenenter"",""1"",""18237""
","
","","","","","","null","<div style=""font-size:60px;"">+</div>","null","","fixation","","",""
"memory-trial","84","271851","0.0-18.0-1.20","5738","approach_avoid_sv1","""event"",""trial"",""time""
""fullscreenenter"",""1"",""18237""
","
","
","""event"",""trial"",""time""
""fullscreenenter"",""1"",""18237""
","
","","","","","","1775.5999999940395","images/goat6.png","","","memory_trial","4","definitely_new",""
"html-keyboard-response","85","272355","0.0-18.0-0.21","5738","approach_avoid_sv1","""event"",""trial"",""time""
""fullscreenenter"",""1"",""18237""
","
","
","""event"",""trial"",""time""
""fullscreenenter"",""1"",""18237""
","
","","","","","","null","<div style=""font-size:60px;"">+</div>","null","","fixation","","",""
"memory-trial","86","276386","0.0-18.0-1.21","5738","approach_avoid_sv1","""event"",""trial"",""time""
""fullscreenenter"",""1"",""18237""
","
","
","""event"",""trial"",""time""
""fullscreenenter"",""1"",""18237""
","
","","","","","","3027.2000000178814","images/tree6.png","","","memory_trial","3","maybe_new",""
"html-keyboard-response","87","276892","0.0-18.0-0.22","5738","approach_avoid_sv1","""event"",""trial"",""time""
""fullscreenenter"",""1"",""18237""
","
","
","""event"",""trial"",""time""
""fullscreenenter"",""1"",""18237""
","
","","","","","","null","<div style=""font-size:60px;"">+</div>","null","","fixation","","",""
"memory-trial","88","279079","0.0-18.0-1.22","5738","approach_avoid_sv1","""event"",""trial"",""time""
""fullscreenenter"",""1"",""18237""
","
","
","""event"",""trial"",""time""
""fullscreenenter"",""1"",""18237""
","
","","","","","","1179.199999988079","images/bush1.png","","","memory_trial","4","definitely_new",""
"html-keyboard-response","89","279581","0.0-18.0-0.23","5738","approach_avoid_sv1","""event"",""trial"",""time""
""fullscreenenter"",""1"",""18237""
","
","
","""event"",""trial"",""time""
""fullscreenenter"",""1"",""18237""
","
","","","","","","null","<div style=""font-size:60px;"">+</div>","null","","fixation","","",""
"memory-trial","90","282023","0.0-18.0-1.23","5738","approach_avoid_sv1","""event"",""trial"",""time""
""fullscreenenter"",""1"",""18237""
","
","
","""event"",""trial"",""time""
""fullscreenenter"",""1"",""18237""
","
","","","","","","1436.800000011921","images/orange3.png","","","memory_trial","2","maybe_old",""
"html-keyboard-response","91","282527","0.0-18.0-0.24","5738","approach_avoid_sv1","""event"",""trial"",""time""
""fullscreenenter"",""1"",""18237""
","
","
","""event"",""trial"",""time""
""fullscreenenter"",""1"",""18237""
","
","","","","","","null","<div style=""font-size:60px;"">+</div>","null","","fixation","","",""
"memory-trial","92","284941","0.0-18.0-1.24","5738","approach_avoid_sv1","""event"",""trial"",""time""
""fullscreenenter"",""1"",""18237""
","
","
","""event"",""trial"",""time""
""fullscreenenter"",""1"",""18237""
","
","","","","","","1408.4000000059605","images/cactus3.png","","","memory_trial","2","maybe_old",""
"html-keyboard-response","93","285447","0.0-18.0-0.25","5738","approach_avoid_sv1","""event"",""trial"",""time""
""fullscreenenter"",""1"",""18237""
","
","
","""event"",""trial"",""time""
""fullscreenenter"",""1"",""18237""
","
","","","","","","null","<div style=""font-size:60px;"">+</div>","null","","fixation","","",""
"memory-trial","94","287809","0.0-18.0-1.25","5738","approach_avoid_sv1","""event"",""trial"",""time""
""fullscreenenter"",""1"",""18237""
","
","
","""event"",""trial"",""time""
""fullscreenenter"",""1"",""18237""
","
","","","","","","1357.5","images/bush7.png","","","memory_trial","4","definitely_new",""
"html-keyboard-response","95","288315","0.0-18.0-0.26","5738","approach_avoid_sv1","""event"",""trial"",""time""
""fullscreenenter"",""1"",""18237""
","
","
","""event"",""trial"",""time""
""fullscreenenter"",""1"",""18237""
","
","","","","","","null","<div style=""font-size:60px;"">+</div>","null","","fixation","","",""
"memory-trial","96","291047","0.0-18.0-1.26","5738","approach_avoid_sv1","""event"",""trial"",""time""
""fullscreenenter"",""1"",""18237""
","
","
","""event"",""trial"",""time""
""fullscreenenter"",""1"",""18237""
","
","","","","","","1728.2000000178814","images/horse3.png","","","memory_trial","3","maybe_new",""
"html-keyboard-response","97","291553","0.0-18.0-0.27","5738","approach_avoid_sv1","""event"",""trial"",""time""
""fullscreenenter"",""1"",""18237""
","
","
","""event"",""trial"",""time""
""fullscreenenter"",""1"",""18237""
","
","","","","","","null","<div style=""font-size:60px;"">+</div>","null","","fixation","","",""
"memory-trial","98","294364","0.0-18.0-1.27","5738","approach_avoid_sv1","""event"",""trial"",""time""
""fullscreenenter"",""1"",""18237""
","
","
","""event"",""trial"",""time""
""fullscreenenter"",""1"",""18237""
","
","","","","","","1806.5999999940395","images/straw2.png","","","memory_trial","2","maybe_old",""
"html-keyboard-response","99","294868","0.0-18.0-0.28","5738","approach_avoid_sv1","""event"",""trial"",""time""
""fullscreenenter"",""1"",""18237""
","
","
","""event"",""trial"",""time""
""fullscreenenter"",""1"",""18237""
","
","","","","","","null","<div style=""font-size:60px;"">+</div>","null","","fixation","","",""
"memory-trial","100","297357","0.0-18.0-1.28","5738","approach_avoid_sv1","""event"",""trial"",""time""
""fullscreenenter"",""1"",""18237""
","
","
","""event"",""trial"",""time""
""fullscreenenter"",""1"",""18237""
","
","","","","","","1482.699999988079","images/banana2.png","","","memory_trial","2","maybe_old",""
"html-keyboard-response","101","297863","0.0-18.0-0.29","5738","approach_avoid_sv1","""event"",""trial"",""time""
""fullscreenenter"",""1"",""18237""
","
","
","""event"",""trial"",""time""
""fullscreenenter"",""1"",""18237""
","
","","","","","","null","<div style=""font-size:60px;"">+</div>","null","","fixation","","",""
"memory-trial","102","300049","0.0-18.0-1.29","5738","approach_avoid_sv1","""event"",""trial"",""time""
""fullscreenenter"",""1"",""18237""
","
","
","""event"",""trial"",""time""
""fullscreenenter"",""1"",""18237""
","
","","","","","","1183.6000000238419","images/orange5.png","","","memory_trial","2","maybe_old",""
"html-keyboard-response","103","300552","0.0-18.0-0.30","5738","approach_avoid_sv1","""event"",""trial"",""time""
""fullscreenenter"",""1"",""18237""
","
","
","""event"",""trial"",""time""
""fullscreenenter"",""1"",""18237""
","
","","","","","","null","<div style=""font-size:60px;"">+</div>","null","","fixation","","",""
"memory-trial","104","303063","0.0-18.0-1.30","5738","approach_avoid_sv1","""event"",""trial"",""time""
""fullscreenenter"",""1"",""18237""
","
","
","""event"",""trial"",""time""
""fullscreenenter"",""1"",""18237""
","
","","","","","","1504.699999988079","images/cow4.png","","","memory_trial","3","maybe_new",""
"html-keyboard-response","105","303564","0.0-18.0-0.31","5738","approach_avoid_sv1","""event"",""trial"",""time""
""fullscreenenter"",""1"",""18237""
","
","
","""event"",""trial"",""time""
""fullscreenenter"",""1"",""18237""
","
","","","","","","null","<div style=""font-size:60px;"">+</div>","null","","fixation","","",""
"memory-trial","106","305902","0.0-18.0-1.31","5738","approach_avoid_sv1","""event"",""trial"",""time""
""fullscreenenter"",""1"",""18237""
","
","
","""event"",""trial"",""time""
""fullscreenenter"",""1"",""18237""
","
","","","","","","1333.1000000238419","images/tree1.png","","","memory_trial","3","maybe_new",""
"html-keyboard-response","107","306404","0.0-18.0-0.32","5738","approach_avoid_sv1","""event"",""trial"",""time""
""fullscreenenter"",""1"",""18237""
","
","
","""event"",""trial"",""time""
""fullscreenenter"",""1"",""18237""
","
","","","","","","null","<div style=""font-size:60px;"">+</div>","null","","fixation","","",""
"memory-trial","108","308657","0.0-18.0-1.32","5738","approach_avoid_sv1","""event"",""trial"",""time""
""fullscreenenter"",""1"",""18237""
","
","
","""event"",""trial"",""time""
""fullscreenenter"",""1"",""18237""
","
","","","","","","1244.800000011921","images/chair2.png","","","memory_trial","2","maybe_old",""
"html-keyboard-response","109","309164","0.0-18.0-0.33","5738","approach_avoid_sv1","""event"",""trial"",""time""
""fullscreenenter"",""1"",""18237""
","
","
","""event"",""trial"",""time""
""fullscreenenter"",""1"",""18237""
","
","","","","","","null","<div style=""font-size:60px;"">+</div>","null","","fixation","","",""
"memory-trial","110","311158","0.0-18.0-1.33","5738","approach_avoid_sv1","""event"",""trial"",""time""
""fullscreenenter"",""1"",""18237""
","
","
","""event"",""trial"",""time""
""fullscreenenter"",""1"",""18237""
","
","","","","","","987.7999999821186","images/train2.png","","","memory_trial","3","maybe_new",""
"html-keyboard-response","111","311660","0.0-18.0-0.34","5738","approach_avoid_sv1","""event"",""trial"",""time""
""fullscreenenter"",""1"",""18237""
","
","
","""event"",""trial"",""time""
""fullscreenenter"",""1"",""18237""
","
","","","","","","null","<div style=""font-size:60px;"">+</div>","null","","fixation","","",""
"memory-trial","112","314487","0.0-18.0-1.34","5738","approach_avoid_sv1","""event"",""trial"",""time""
""fullscreenenter"",""1"",""18237""
","
","
","""event"",""trial"",""time""
""fullscreenenter"",""1"",""18237""
","
","","","","","","1819.2000000178814","images/bed6.png","","","memory_trial","4","definitely_new",""
"html-keyboard-response","113","314993","0.0-18.0-0.35","5738","approach_avoid_sv1","""event"",""trial"",""time""
""fullscreenenter"",""1"",""18237""
","
","
","""event"",""trial"",""time""
""fullscreenenter"",""1"",""18237""
","
","","","","","","null","<div style=""font-size:60px;"">+</div>","null","","fixation","","",""
"memory-trial","114","317419","0.0-18.0-1.35","5738","approach_avoid_sv1","""event"",""trial"",""time""
""fullscreenenter"",""1"",""18237""
","
","
","""event"",""trial"",""time""
""fullscreenenter"",""1"",""18237""
","
","","","","","","1419.0999999940395","images/bed8.png","","","memory_trial","3","maybe_new",""
"html-keyboard-response","115","317924","0.0-18.0-0.36","5738","approach_avoid_sv1","""event"",""trial"",""time""
""fullscreenenter"",""1"",""18237""
","
","
","""event"",""trial"",""time""
""fullscreenenter"",""1"",""18237""
","
","","","","","","null","<div style=""font-size:60px;"">+</div>","null","","fixation","","",""
"memory-trial","116","320124","0.0-18.0-1.36","5738","approach_avoid_sv1","""event"",""trial"",""time""
""fullscreenenter"",""1"",""18237""
","
","
","""event"",""trial"",""time""
""fullscreenenter"",""1"",""18237""
","
","","","","","","1192.800000011921","images/sheep3.png","","","memory_trial","3","maybe_new",""
"html-keyboard-response","117","320630","0.0-18.0-0.37","5738","approach_avoid_sv1","""event"",""trial"",""time""
""fullscreenenter"",""1"",""18237""
","
","
","""event"",""trial"",""time""
""fullscreenenter"",""1"",""18237""
","
","","","","","","null","<div style=""font-size:60px;"">+</div>","null","","fixation","","",""
"memory-trial","118","322747","0.0-18.0-1.37","5738","approach_avoid_sv1","""event"",""trial"",""time""
""fullscreenenter"",""1"",""18237""
","
","
","""event"",""trial"",""time""
""fullscreenenter"",""1"",""18237""
","
","","","","","","1109.7999999821186","images/boat5.png","","","memory_trial","4","definitely_new",""
"html-keyboard-response","119","323249","0.0-18.0-0.38","5738","approach_avoid_sv1","""event"",""trial"",""time""
""fullscreenenter"",""1"",""18237""
","
","
","""event"",""trial"",""time""
""fullscreenenter"",""1"",""18237""
","
","","","","","","null","<div style=""font-size:60px;"">+</div>","null","","fixation","","",""
"memory-trial","120","324948","0.0-18.0-1.38","5738","approach_avoid_sv1","""event"",""trial"",""time""
""fullscreenenter"",""1"",""18237""
","
","
","""event"",""trial"",""time""
""fullscreenenter"",""1"",""18237""
","
","","","","","","692.0999999940395","images/dog5.png","","","memory_trial","4","definitely_new",""
"html-keyboard-response","121","325452","0.0-18.0-0.39","5738","approach_avoid_sv1","""event"",""trial"",""time""
""fullscreenenter"",""1"",""18237""
","
","
","""event"",""trial"",""time""
""fullscreenenter"",""1"",""18237""
","
","","","","","","null","<div style=""font-size:60px;"">+</div>","null","","fixation","","",""
"memory-trial","122","327094","0.0-18.0-1.39","5738","approach_avoid_sv1","""event"",""trial"",""time""
""fullscreenenter"",""1"",""18237""
","
","
","""event"",""trial"",""time""
""fullscreenenter"",""1"",""18237""
","
","","","","","","638.1999999880791","images/apple2.png","","","memory_trial","4","definitely_new",""
"html-keyboard-response","123","327597","0.0-18.0-0.40","5738","approach_avoid_sv1","""event"",""trial"",""time""
""fullscreenenter"",""1"",""18237""
","
","
","""event"",""trial"",""time""
""fullscreenenter"",""1"",""18237""
","
","","","","","","null","<div style=""font-size:60px;"">+</div>","null","","fixation","","",""
"memory-trial","124","329584","0.0-18.0-1.40","5738","approach_avoid_sv1","""event"",""trial"",""time""
""fullscreenenter"",""1"",""18237""
","
","
","""event"",""trial"",""time""
""fullscreenenter"",""1"",""18237""
","
","","","","","","982.5","images/banana4.png","","","memory_trial","4","definitely_new",""
"html-keyboard-response","125","330086","0.0-18.0-0.41","5738","approach_avoid_sv1","""event"",""trial"",""time""
""fullscreenenter"",""1"",""18237""
","
","
","""event"",""trial"",""time""
""fullscreenenter"",""1"",""18237""
","
","","","","","","null","<div style=""font-size:60px;"">+</div>","null","","fixation","","",""
"memory-trial","126","331635","0.0-18.0-1.41","5738","approach_avoid_sv1","""event"",""trial"",""time""
""fullscreenenter"",""1"",""18237""
","
","
","""event"",""trial"",""time""
""fullscreenenter"",""1"",""18237""
","
","","","","","","542.5999999940395","images/train8.png","","","memory_trial","4","definitely_new",""
"html-button-response","127","394973","0.0-18.0-2.41-0.41","5738","approach_avoid_sv1","""event"",""trial"",""time""
""fullscreenenter"",""1"",""18237""
","
","
","""event"",""trial"",""time""
""fullscreenenter"",""1"",""18237""
","
","","","","","","63337.79999998212","<p> Take a break! </p><p> Click the button to continue. </p>","0","","break","","",""
"html-keyboard-response","128","395476","0.0-18.0-0.42","5738","approach_avoid_sv1","""event"",""trial"",""time""
""fullscreenenter"",""1"",""18237""
","
","
","""event"",""trial"",""time""
""fullscreenenter"",""1"",""18237""
","
","","","","","","null","<div style=""font-size:60px;"">+</div>","null","","fixation","","",""
"memory-trial","129","398734","0.0-18.0-1.42","5738","approach_avoid_sv1","""event"",""trial"",""time""
""fullscreenenter"",""1"",""18237""
","
","
","""event"",""trial"",""time""
""fullscreenenter"",""1"",""18237""
","
","","","","","","2251.300000011921","images/tree5.png","","","memory_trial","4","definitely_new",""
"html-keyboard-response","130","399238","0.0-18.0-0.43","5738","approach_avoid_sv1","""event"",""trial"",""time""
""fullscreenenter"",""1"",""18237""
","
","
","""event"",""trial"",""time""
""fullscreenenter"",""1"",""18237""
","
","","","","","","null","<div style=""font-size:60px;"">+</div>","null","","fixation","","",""
"memory-trial","131","401065","0.0-18.0-1.43","5738","approach_avoid_sv1","""event"",""trial"",""time""
""fullscreenenter"",""1"",""18237""
","
","
","""event"",""trial"",""time""
""fullscreenenter"",""1"",""18237""
","
","","","","","","823.6000000238419","images/truck1.png","","","memory_trial","4","definitely_new",""
"html-keyboard-response","132","401567","0.0-18.0-0.44","5738","approach_avoid_sv1","""event"",""trial"",""time""
""fullscreenenter"",""1"",""18237""
","
","
","""event"",""trial"",""time""
""fullscreenenter"",""1"",""18237""
","
","","","","","","null","<div style=""font-size:60px;"">+</div>","null","","fixation","","",""
"memory-trial","133","404351","0.0-18.0-1.44","5738","approach_avoid_sv1","""event"",""trial"",""time""
""fullscreenenter"",""1"",""18237""
","
","
","""event"",""trial"",""time""
""fullscreenenter"",""1"",""18237""
","
","","","","","","1778.5","images/plane3.png","","","memory_trial","2","maybe_old",""
"html-keyboard-response","134","404856","0.0-18.0-0.45","5738","approach_avoid_sv1","""event"",""trial"",""time""
""fullscreenenter"",""1"",""18237""
","
","
","""event"",""trial"",""time""
""fullscreenenter"",""1"",""18237""
","
","","","","","","null","<div style=""font-size:60px;"">+</div>","null","","fixation","","",""
"memory-trial","135","406793","0.0-18.0-1.45","5738","approach_avoid_sv1","""event"",""trial"",""time""
""fullscreenenter"",""1"",""18237""
","
","
","""event"",""trial"",""time""
""fullscreenenter"",""1"",""18237""
","
","","","","","","930.0999999940395","images/apple1.png","","","memory_trial","4","definitely_new",""
"html-keyboard-response","136","407299","0.0-18.0-0.46","5738","approach_avoid_sv1","""event"",""trial"",""time""
""fullscreenenter"",""1"",""18237""
","
","
","""event"",""trial"",""time""
""fullscreenenter"",""1"",""18237""
","
","","","","","","null","<div style=""font-size:60px;"">+</div>","null","","fixation","","",""
"memory-trial","137","409390","0.0-18.0-1.46","5738","approach_avoid_sv1","""event"",""trial"",""time""
""fullscreenenter"",""1"",""18237""
","
","
","""event"",""trial"",""time""
""fullscreenenter"",""1"",""18237""
","
","","","","","","1088.4000000059605","images/banana1.png","","","memory_trial","1","definitely_old",""
"html-keyboard-response","138","409897","0.0-18.0-0.47","5738","approach_avoid_sv1","""event"",""trial"",""time""
""fullscreenenter"",""1"",""18237""
","
","
","""event"",""trial"",""time""
""fullscreenenter"",""1"",""18237""
","
","","","","","","null","<div style=""font-size:60px;"">+</div>","null","","fixation","","",""
"memory-trial","139","412168","0.0-18.0-1.47","5738","approach_avoid_sv1","""event"",""trial"",""time""
""fullscreenenter"",""1"",""18237""
","
","
","""event"",""trial"",""time""
""fullscreenenter"",""1"",""18237""
","
","","","","","","1264.699999988079","images/plane6.png","","","memory_trial","2","maybe_old",""
"html-keyboard-response","140","412675","0.0-18.0-0.48","5738","approach_avoid_sv1","""event"",""trial"",""time""
""fullscreenenter"",""1"",""18237""
","
","
","""event"",""trial"",""time""
""fullscreenenter"",""1"",""18237""
","
","","","","","","null","<div style=""font-size:60px;"">+</div>","null","","fixation","","",""
"memory-trial","141","415134","0.0-18.0-1.48","5738","approach_avoid_sv1","""event"",""trial"",""time""
""fullscreenenter"",""1"",""18237""
","
","
","""event"",""trial"",""time""
""fullscreenenter"",""1"",""18237""
","
","","","","","","1456.300000011921","images/table5.png","","","memory_trial","3","maybe_new",""
"html-keyboard-response","142","415640","0.0-18.0-0.49","5738","approach_avoid_sv1","""event"",""trial"",""time""
""fullscreenenter"",""1"",""18237""
","
","
","""event"",""trial"",""time""
""fullscreenenter"",""1"",""18237""
","
","","","","","","null","<div style=""font-size:60px;"">+</div>","null","","fixation","","",""
"memory-trial","143","417998","0.0-18.0-1.49","5738","approach_avoid_sv1","""event"",""trial"",""time""
""fullscreenenter"",""1"",""18237""
","
","
","""event"",""trial"",""time""
""fullscreenenter"",""1"",""18237""
","
","","","","","","1353.699999988079","images/banana8.png","","","memory_trial","3","maybe_new",""
"html-keyboard-response","144","418500","0.0-18.0-0.50","5738","approach_avoid_sv1","""event"",""trial"",""time""
""fullscreenenter"",""1"",""18237""
","
","
","""event"",""trial"",""time""
""fullscreenenter"",""1"",""18237""
","
","","","","","","null","<div style=""font-size:60px;"">+</div>","null","","fixation","","",""
"memory-trial","145","420441","0.0-18.0-1.50","5738","approach_avoid_sv1","""event"",""trial"",""time""
""fullscreenenter"",""1"",""18237""
","
","
","""event"",""trial"",""time""
""fullscreenenter"",""1"",""18237""
","
","","","","","","935.3999999761581","images/table2.png","","","memory_trial","4","definitely_new",""
"html-keyboard-response","146","420947","0.0-18.0-0.51","5738","approach_avoid_sv1","""event"",""trial"",""time""
""fullscreenenter"",""1"",""18237""
","
","
","""event"",""trial"",""time""
""fullscreenenter"",""1"",""18237""
","
","","","","","","null","<div style=""font-size:60px;"">+</div>","null","","fixation","","",""
"memory-trial","147","423327","0.0-18.0-1.51","5738","approach_avoid_sv1","""event"",""trial"",""time""
""fullscreenenter"",""1"",""18237""
","
","
","""event"",""trial"",""time""
""fullscreenenter"",""1"",""18237""
","
","","","","","","1372.8999999761581","images/sheep6.png","","","memory_trial","3","maybe_new",""
"html-keyboard-response","148","423832","0.0-18.0-0.52","5738","approach_avoid_sv1","""event"",""trial"",""time""
""fullscreenenter"",""1"",""18237""
","
","
","""event"",""trial"",""time""
""fullscreenenter"",""1"",""18237""
","
","","","","","","null","<div style=""font-size:60px;"">+</div>","null","","fixation","","",""
"memory-trial","149","426296","0.0-18.0-1.52","5738","approach_avoid_sv1","""event"",""trial"",""time""
""fullscreenenter"",""1"",""18237""
","
","
","""event"",""trial"",""time""
""fullscreenenter"",""1"",""18237""
","
","","","","","","1457.699999988079","images/sofa6.png","","","memory_trial","2","maybe_old",""
"html-keyboard-response","150","426803","0.0-18.0-0.53","5738","approach_avoid_sv1","""event"",""trial"",""time""
""fullscreenenter"",""1"",""18237""
","
","
","""event"",""trial"",""time""
""fullscreenenter"",""1"",""18237""
","
","","","","","","null","<div style=""font-size:60px;"">+</div>","null","","fixation","","",""
"memory-trial","151","428676","0.0-18.0-1.53","5738","approach_avoid_sv1","""event"",""trial"",""time""
""fullscreenenter"",""1"",""18237""
","
","
","""event"",""trial"",""time""
""fullscreenenter"",""1"",""18237""
","
","","","","","","866.8999999761581","images/boat7.png","","","memory_trial","4","definitely_new",""
"html-keyboard-response","152","429181","0.0-18.0-0.54","5738","approach_avoid_sv1","""event"",""trial"",""time""
""fullscreenenter"",""1"",""18237""
","
","
","""event"",""trial"",""time""
""fullscreenenter"",""1"",""18237""
","
","","","","","","null","<div style=""font-size:60px;"">+</div>","null","","fixation","","",""
"memory-trial","153","430808","0.0-18.0-1.54","5738","approach_avoid_sv1","""event"",""trial"",""time""
""fullscreenenter"",""1"",""18237""
","
","
","""event"",""trial"",""time""
""fullscreenenter"",""1"",""18237""
","
","","","","","","622.5999999940395","images/bush6.png","","","memory_trial","4","definitely_new",""
"html-keyboard-response","154","431315","0.0-18.0-0.55","5738","approach_avoid_sv1","""event"",""trial"",""time""
""fullscreenenter"",""1"",""18237""
","
","
","""event"",""trial"",""time""
""fullscreenenter"",""1"",""18237""
","
","","","","","","null","<div style=""font-size:60px;"">+</div>","null","","fixation","","",""
"memory-trial","155","433465","0.0-18.0-1.55","5738","approach_avoid_sv1","""event"",""trial"",""time""
""fullscreenenter"",""1"",""18237""
","
","
","""event"",""trial"",""time""
""fullscreenenter"",""1"",""18237""
","
","","","","","","1143.5","images/sheep2.png","","","memory_trial","3","maybe_new",""
"html-keyboard-response","156","433971","0.0-18.0-0.56","5738","approach_avoid_sv1","""event"",""trial"",""time""
""fullscreenenter"",""1"",""18237""
","
","
","""event"",""trial"",""time""
""fullscreenenter"",""1"",""18237""
","
","","","","","","null","<div style=""font-size:60px;"">+</div>","null","","fixation","","",""
"memory-trial","157","435811","0.0-18.0-1.56","5738","approach_avoid_sv1","""event"",""trial"",""time""
""fullscreenenter"",""1"",""18237""
","
","
","""event"",""trial"",""time""
""fullscreenenter"",""1"",""18237""
","
","","","","","","833.1000000238419","images/plane1.png","","","memory_trial","4","definitely_new",""
"html-keyboard-response","158","436312","0.0-18.0-0.57","5738","approach_avoid_sv1","""event"",""trial"",""time""
""fullscreenenter"",""1"",""18237""
","
","
","""event"",""trial"",""time""
""fullscreenenter"",""1"",""18237""
","
","","","","","","null","<div style=""font-size:60px;"">+</div>","null","","fixation","","",""
"memory-trial","159","438472","0.0-18.0-1.57","5738","approach_avoid_sv1","""event"",""trial"",""time""
""fullscreenenter"",""1"",""18237""
","
","
","""event"",""trial"",""time""
""fullscreenenter"",""1"",""18237""
","
","","","","","","1153.0999999940395","images/cow8.png","","","memory_trial","2","maybe_old",""
"html-keyboard-response","160","438974","0.0-18.0-0.58","5738","approach_avoid_sv1","""event"",""trial"",""time""
""fullscreenenter"",""1"",""18237""
","
","
","""event"",""trial"",""time""
""fullscreenenter"",""1"",""18237""
","
","","","","","","null","<div style=""font-size:60px;"">+</div>","null","","fixation","","",""
"memory-trial","161","440632","0.0-18.0-1.58","5738","approach_avoid_sv1","""event"",""trial"",""time""
""fullscreenenter"",""1"",""18237""
","
","
","""event"",""trial"",""time""
""fullscreenenter"",""1"",""18237""
","
","","","","","","651.9000000059605","images/boat2.png","","","memory_trial","4","definitely_new",""
"html-keyboard-response","162","441134","0.0-18.0-0.59","5738","approach_avoid_sv1","""event"",""trial"",""time""
""fullscreenenter"",""1"",""18237""
","
","
","""event"",""trial"",""time""
""fullscreenenter"",""1"",""18237""
","
","","","","","","null","<div style=""font-size:60px;"">+</div>","null","","fixation","","",""
"memory-trial","163","443064","0.0-18.0-1.59","5738","approach_avoid_sv1","""event"",""trial"",""time""
""fullscreenenter"",""1"",""18237""
","
","
","""event"",""trial"",""time""
""fullscreenenter"",""1"",""18237""
","
","","","","","","924.9000000059605","images/sofa1.png","","","memory_trial","4","definitely_new",""
"html-keyboard-response","164","443565","0.0-18.0-0.60","5738","approach_avoid_sv1","""event"",""trial"",""time""
""fullscreenenter"",""1"",""18237""
","
","
","""event"",""trial"",""time""
""fullscreenenter"",""1"",""18237""
","
","","","","","","null","<div style=""font-size:60px;"">+</div>","null","","fixation","","",""
"memory-trial","165","445673","0.0-18.0-1.60","5738","approach_avoid_sv1","""event"",""trial"",""time""
""fullscreenenter"",""1"",""18237""
","
","
","""event"",""trial"",""time""
""fullscreenenter"",""1"",""18237""
","
","","","","","","1100.4000000059605","images/rodent5.png","","","memory_trial","1","definitely_old",""
"html-keyboard-response","166","446178","0.0-18.0-0.61","5738","approach_avoid_sv1","""event"",""trial"",""time""
""fullscreenenter"",""1"",""18237""
","
","
","""event"",""trial"",""time""
""fullscreenenter"",""1"",""18237""
","
","","","","","","null","<div style=""font-size:60px;"">+</div>","null","","fixation","","",""
"memory-trial","167","447988","0.0-18.0-1.61","5738","approach_avoid_sv1","""event"",""trial"",""time""
""fullscreenenter"",""1"",""18237""
","
","
","""event"",""trial"",""time""
""fullscreenenter"",""1"",""18237""
","
","","","","","","804.2999999821186","images/bush4.png","","","memory_trial","4","definitely_new",""
"html-keyboard-response","168","448493","0.0-18.0-0.62","5738","approach_avoid_sv1","""event"",""trial"",""time""
""fullscreenenter"",""1"",""18237""
","
","
","""event"",""trial"",""time""
""fullscreenenter"",""1"",""18237""
","
","","","","","","null","<div style=""font-size:60px;"">+</div>","null","","fixation","","",""
"memory-trial","169","450685","0.0-18.0-1.62","5738","approach_avoid_sv1","""event"",""trial"",""time""
""fullscreenenter"",""1"",""18237""
","
","
","""event"",""trial"",""time""
""fullscreenenter"",""1"",""18237""
","
","","","","","","1185.5","images/orange4.png","","","memory_trial","3","maybe_new",""
"html-keyboard-response","170","451188","0.0-18.0-0.63","5738","approach_avoid_sv1","""event"",""trial"",""time""
""fullscreenenter"",""1"",""18237""
","
","
","""event"",""trial"",""time""
""fullscreenenter"",""1"",""18237""
","
","","","","","","null","<div style=""font-size:60px;"">+</div>","null","","fixation","","",""
"memory-trial","171","453315","0.0-18.0-1.63","5738","approach_avoid_sv1","""event"",""trial"",""time""
""fullscreenenter"",""1"",""18237""
","
","
","""event"",""trial"",""time""
""fullscreenenter"",""1"",""18237""
","
","","","","","","1119.2000000178814","images/bed4.png","","","memory_trial","3","maybe_new",""
"html-keyboard-response","172","453821","0.0-18.0-0.64","5738","approach_avoid_sv1","""event"",""trial"",""time""
""fullscreenenter"",""1"",""18237""
","
","
","""event"",""trial"",""time""
""fullscreenenter"",""1"",""18237""
","
","","","","","","null","<div style=""font-size:60px;"">+</div>","null","","fixation","","",""
"memory-trial","173","455655","0.0-18.0-1.64","5738","approach_avoid_sv1","""event"",""trial"",""time""
""fullscreenenter"",""1"",""18237""
","
","
","""event"",""trial"",""time""
""fullscreenenter"",""1"",""18237""
","
","","","","","","829.7000000178814","images/rabbit7.png","","","memory_trial","2","maybe_old",""
"html-keyboard-response","174","456157","0.0-18.0-0.65","5738","approach_avoid_sv1","""event"",""trial"",""time""
""fullscreenenter"",""1"",""18237""
","
","
","""event"",""trial"",""time""
""fullscreenenter"",""1"",""18237""
","
","","","","","","null","<div style=""font-size:60px;"">+</div>","null","","fixation","","",""
"memory-trial","175","458376","0.0-18.0-1.65","5738","approach_avoid_sv1","""event"",""trial"",""time""
""fullscreenenter"",""1"",""18237""
","
","
","""event"",""trial"",""time""
""fullscreenenter"",""1"",""18237""
","
","","","","","","1213.2999999821186","images/banana3.png","","","memory_trial","2","maybe_old",""
"html-keyboard-response","176","458882","0.0-18.0-0.66","5738","approach_avoid_sv1","""event"",""trial"",""time""
""fullscreenenter"",""1"",""18237""
","
","
","""event"",""trial"",""time""
""fullscreenenter"",""1"",""18237""
","
","","","","","","null","<div style=""font-size:60px;"">+</div>","null","","fixation","","",""
"memory-trial","177","461117","0.0-18.0-1.66","5738","approach_avoid_sv1","""event"",""trial"",""time""
""fullscreenenter"",""1"",""18237""
","
","
","""event"",""trial"",""time""
""fullscreenenter"",""1"",""18237""
","
","","","","","","1228.800000011921","images/cow3.png","","","memory_trial","4","definitely_new",""
"html-keyboard-response","178","461618","0.0-18.0-0.67","5738","approach_avoid_sv1","""event"",""trial"",""time""
""fullscreenenter"",""1"",""18237""
","
","
","""event"",""trial"",""time""
""fullscreenenter"",""1"",""18237""
","
","","","","","","null","<div style=""font-size:60px;"">+</div>","null","","fixation","","",""
"memory-trial","179","464080","0.0-18.0-1.67","5738","approach_avoid_sv1","""event"",""trial"",""time""
""fullscreenenter"",""1"",""18237""
","
","
","""event"",""trial"",""time""
""fullscreenenter"",""1"",""18237""
","
","","","","","","1455.4000000059605","images/straw8.png","","","memory_trial","4","definitely_new",""
"html-keyboard-response","180","464583","0.0-18.0-0.68","5738","approach_avoid_sv1","""event"",""trial"",""time""
""fullscreenenter"",""1"",""18237""
","
","
","""event"",""trial"",""time""
""fullscreenenter"",""1"",""18237""
","
","","","","","","null","<div style=""font-size:60px;"">+</div>","null","","fixation","","",""
"memory-trial","181","466851","0.0-18.0-1.68","5738","approach_avoid_sv1","""event"",""trial"",""time""
""fullscreenenter"",""1"",""18237""
","
","
","""event"",""trial"",""time""
""fullscreenenter"",""1"",""18237""
","
","","","","","","1260.4000000059605","images/truck4.png","","","memory_trial","2","maybe_old",""
"html-keyboard-response","182","467357","0.0-18.0-0.69","5738","approach_avoid_sv1","""event"",""trial"",""time""
""fullscreenenter"",""1"",""18237""
","
","
","""event"",""trial"",""time""
""fullscreenenter"",""1"",""18237""
","
","","","","","","null","<div style=""font-size:60px;"">+</div>","null","","fixation","","",""
"memory-trial","183","469710","0.0-18.0-1.69","5738","approach_avoid_sv1","""event"",""trial"",""time""
""fullscreenenter"",""1"",""18237""
","
","
","""event"",""trial"",""time""
""fullscreenenter"",""1"",""18237""
","
","","","","","","1346.0999999940395","images/rodent8.png","","","memory_trial","3","maybe_new",""
"html-keyboard-response","184","470215","0.0-18.0-0.70","5738","approach_avoid_sv1","""event"",""trial"",""time""
""fullscreenenter"",""1"",""18237""
","
","
","""event"",""trial"",""time""
""fullscreenenter"",""1"",""18237""
","
","","","","","","null","<div style=""font-size:60px;"">+</div>","null","","fixation","","",""
"memory-trial","185","472690","0.0-18.0-1.70","5738","approach_avoid_sv1","""event"",""trial"",""time""
""fullscreenenter"",""1"",""18237""
","
","
","""event"",""trial"",""time""
""fullscreenenter"",""1"",""18237""
","
","","","","","","1471.1000000238419","images/flower7.png","","","memory_trial","2","maybe_old",""
"html-keyboard-response","186","473196","0.0-18.0-0.71","5738","approach_avoid_sv1","""event"",""trial"",""time""
""fullscreenenter"",""1"",""18237""
","
","
","""event"",""trial"",""time""
""fullscreenenter"",""1"",""18237""
","
","","","","","","null","<div style=""font-size:60px;"">+</div>","null","","fixation","","",""
"memory-trial","187","475279","0.0-18.0-1.71","5738","approach_avoid_sv1","""event"",""trial"",""time""
""fullscreenenter"",""1"",""18237""
","
","
","""event"",""trial"",""time""
""fullscreenenter"",""1"",""18237""
","
","","","","","","1076","images/dog3.png","","","memory_trial","1","definitely_old",""
"html-keyboard-response","188","475783","0.0-18.0-0.72","5738","approach_avoid_sv1","""event"",""trial"",""time""
""fullscreenenter"",""1"",""18237""
","
","
","""event"",""trial"",""time""
""fullscreenenter"",""1"",""18237""
","
","","","","","","null","<div style=""font-size:60px;"">+</div>","null","","fixation","","",""
"memory-trial","189","477810","0.0-18.0-1.72","5738","approach_avoid_sv1","""event"",""trial"",""time""
""fullscreenenter"",""1"",""18237""
","
","
","""event"",""trial"",""time""
""fullscreenenter"",""1"",""18237""
","
","","","","","","1022.2999999821186","images/cat1.png","","","memory_trial","4","definitely_new",""
"html-keyboard-response","190","478311","0.0-18.0-0.73","5738","approach_avoid_sv1","""event"",""trial"",""time""
""fullscreenenter"",""1"",""18237""
","
","
","""event"",""trial"",""time""
""fullscreenenter"",""1"",""18237""
","
","","","","","","null","<div style=""font-size:60px;"">+</div>","null","","fixation","","",""
"memory-trial","191","480225","0.0-18.0-1.73","5738","approach_avoid_sv1","""event"",""trial"",""time""
""fullscreenenter"",""1"",""18237""
","
","
","""event"",""trial"",""time""
""fullscreenenter"",""1"",""18237""
","
","","","","","","908.1999999880791","images/chair8.png","","","memory_trial","4","definitely_new",""
"html-keyboard-response","192","480730","0.0-18.0-0.74","5738","approach_avoid_sv1","""event"",""trial"",""time""
""fullscreenenter"",""1"",""18237""
","
","
","""event"",""trial"",""time""
""fullscreenenter"",""1"",""18237""
","
","","","","","","null","<div style=""font-size:60px;"">+</div>","null","","fixation","","",""
"memory-trial","193","483100","0.0-18.0-1.74","5738","approach_avoid_sv1","""event"",""trial"",""time""
""fullscreenenter"",""1"",""18237""
","
","
","""event"",""trial"",""time""
""fullscreenenter"",""1"",""18237""
","
","","","","","","1362.0999999940395","images/goat5.png","","","memory_trial","2","maybe_old",""
"html-keyboard-response","194","483602","0.0-18.0-0.75","5738","approach_avoid_sv1","""event"",""trial"",""time""
""fullscreenenter"",""1"",""18237""
","
","
","""event"",""trial"",""time""
""fullscreenenter"",""1"",""18237""
","
","","","","","","null","<div style=""font-size:60px;"">+</div>","null","","fixation","","",""
"memory-trial","195","485607","0.0-18.0-1.75","5738","approach_avoid_sv1","""event"",""trial"",""time""
""fullscreenenter"",""1"",""18237""
","
","
","""event"",""trial"",""time""
""fullscreenenter"",""1"",""18237""
","
","","","","","","999.5","images/bed5.png","","","memory_trial","1","definitely_old",""
"html-keyboard-response","196","486109","0.0-18.0-0.76","5738","approach_avoid_sv1","""event"",""trial"",""time""
""fullscreenenter"",""1"",""18237""
","
","
","""event"",""trial"",""time""
""fullscreenenter"",""1"",""18237""
","
","","","","","","null","<div style=""font-size:60px;"">+</div>","null","","fixation","","",""
"memory-trial","197","488381","0.0-18.0-1.76","5738","approach_avoid_sv1","""event"",""trial"",""time""
""fullscreenenter"",""1"",""18237""
","
","
","""event"",""trial"",""time""
""fullscreenenter"",""1"",""18237""
","
","","","","","","1265.2999999821186","images/goat8.png","","","memory_trial","3","maybe_new",""
"html-keyboard-response","198","488886","0.0-18.0-0.77","5738","approach_avoid_sv1","""event"",""trial"",""time""
""fullscreenenter"",""1"",""18237""
","
","
","""event"",""trial"",""time""
""fullscreenenter"",""1"",""18237""
","
","","","","","","null","<div style=""font-size:60px;"">+</div>","null","","fixation","","",""
"memory-trial","199","491463","0.0-18.0-1.77","5738","approach_avoid_sv1","""event"",""trial"",""time""
""fullscreenenter"",""1"",""18237""
","
","
","""event"",""trial"",""time""
""fullscreenenter"",""1"",""18237""
","
","","","","","","1569.4000000059605","images/chair5.png","","","memory_trial","4","definitely_new",""
"html-keyboard-response","200","491969","0.0-18.0-0.78","5738","approach_avoid_sv1","""event"",""trial"",""time""
""fullscreenenter"",""1"",""18237""
","
","
","""event"",""trial"",""time""
""fullscreenenter"",""1"",""18237""
","
","","","","","","null","<div style=""font-size:60px;"">+</div>","null","","fixation","","",""
"memory-trial","201","494391","0.0-18.0-1.78","5738","approach_avoid_sv1","""event"",""trial"",""time""
""fullscreenenter"",""1"",""18237""
","
","
","""event"",""trial"",""time""
""fullscreenenter"",""1"",""18237""
","
","","","","","","1415.1000000238419","images/train7.png","","","memory_trial","1","definitely_old",""
"html-keyboard-response","202","494897","0.0-18.0-0.79","5738","approach_avoid_sv1","""event"",""trial"",""time""
""fullscreenenter"",""1"",""18237""
","
","
","""event"",""trial"",""time""
""fullscreenenter"",""1"",""18237""
","
","","","","","","null","<div style=""font-size:60px;"">+</div>","null","","fixation","","",""
"memory-trial","203","497225","0.0-18.0-1.79","5738","approach_avoid_sv1","""event"",""trial"",""time""
""fullscreenenter"",""1"",""18237""
","
","
","""event"",""trial"",""time""
""fullscreenenter"",""1"",""18237""
","
","","","","","","1322.4000000059605","images/table4.png","","","memory_trial","3","maybe_new",""
"html-keyboard-response","204","497730","0.0-18.0-0.80","5738","approach_avoid_sv1","""event"",""trial"",""time""
""fullscreenenter"",""1"",""18237""
","
","
","""event"",""trial"",""time""
""fullscreenenter"",""1"",""18237""
","
","","","","","","null","<div style=""font-size:60px;"">+</div>","null","","fixation","","",""
"memory-trial","205","499654","0.0-18.0-1.80","5738","approach_avoid_sv1","""event"",""trial"",""time""
""fullscreenenter"",""1"",""18237""
","
","
","""event"",""trial"",""time""
""fullscreenenter"",""1"",""18237""
","
","","","","","","917.5","images/apple6.png","","","memory_trial","4","definitely_new",""
"html-keyboard-response","206","500157","0.0-18.0-0.81","5738","approach_avoid_sv1","""event"",""trial"",""time""
""fullscreenenter"",""1"",""18237""
","
","
","""event"",""trial"",""time""
""fullscreenenter"",""1"",""18237""
","
","","","","","","null","<div style=""font-size:60px;"">+</div>","null","","fixation","","",""
"memory-trial","207","502455","0.0-18.0-1.81","5738","approach_avoid_sv1","""event"",""trial"",""time""
""fullscreenenter"",""1"",""18237""
","
","
","""event"",""trial"",""time""
""fullscreenenter"",""1"",""18237""
","
","","","","","","1294.300000011921","images/truck8.png","","","memory_trial","2","maybe_old",""
"html-keyboard-response","208","502960","0.0-18.0-0.82","5738","approach_avoid_sv1","""event"",""trial"",""time""
""fullscreenenter"",""1"",""18237""
","
","
","""event"",""trial"",""time""
""fullscreenenter"",""1"",""18237""
","
","","","","","","null","<div style=""font-size:60px;"">+</div>","null","","fixation","","",""
"memory-trial","209","505116","0.0-18.0-1.82","5738","approach_avoid_sv1","""event"",""trial"",""time""
""fullscreenenter"",""1"",""18237""
","
","
","""event"",""trial"",""time""
""fullscreenenter"",""1"",""18237""
","
","","","","","","1148.9000000059605","images/cat7.png","","","memory_trial","2","maybe_old",""
"html-keyboard-response","210","505622","0.0-18.0-0.83","5738","approach_avoid_sv1","""event"",""trial"",""time""
""fullscreenenter"",""1"",""18237""
","
","
","""event"",""trial"",""time""
""fullscreenenter"",""1"",""18237""
","
","","","","","","null","<div style=""font-size:60px;"">+</div>","null","","fixation","","",""
"memory-trial","211","507638","0.0-18.0-1.83","5738","approach_avoid_sv1","""event"",""trial"",""time""
""fullscreenenter"",""1"",""18237""
","
","
","""event"",""trial"",""time""
""fullscreenenter"",""1"",""18237""
","
","","","","","","1013.5999999940395","images/rodent7.png","","","memory_trial","3","maybe_new",""
"html-keyboard-response","212","508142","0.0-18.0-0.84","5738","approach_avoid_sv1","""event"",""trial"",""time""
""fullscreenenter"",""1"",""18237""
","
","
","""event"",""trial"",""time""
""fullscreenenter"",""1"",""18237""
","
","","","","","","null","<div style=""font-size:60px;"">+</div>","null","","fixation","","",""
"memory-trial","213","510267","0.0-18.0-1.84","5738","approach_avoid_sv1","""event"",""trial"",""time""
""fullscreenenter"",""1"",""18237""
","
","
","""event"",""trial"",""time""
""fullscreenenter"",""1"",""18237""
","
","","","","","","1117.5","images/straw3.png","","","memory_trial","3","maybe_new",""
"html-keyboard-response","214","510769","0.0-18.0-0.85","5738","approach_avoid_sv1","""event"",""trial"",""time""
""fullscreenenter"",""1"",""18237""
","
","
","""event"",""trial"",""time""
""fullscreenenter"",""1"",""18237""
","
","","","","","","null","<div style=""font-size:60px;"">+</div>","null","","fixation","","",""
"memory-trial","215","512630","0.0-18.0-1.85","5738","approach_avoid_sv1","""event"",""trial"",""time""
""fullscreenenter"",""1"",""18237""
","
","
","""event"",""trial"",""time""
""fullscreenenter"",""1"",""18237""
","
","","","","","","853.7999999821186","images/truck6.png","","","memory_trial","4","definitely_new",""
"html-keyboard-response","216","513132","0.0-18.0-0.86","5738","approach_avoid_sv1","""event"",""trial"",""time""
""fullscreenenter"",""1"",""18237""
","
","
","""event"",""trial"",""time""
""fullscreenenter"",""1"",""18237""
","
","","","","","","null","<div style=""font-size:60px;"">+</div>","null","","fixation","","",""
"memory-trial","217","514776","0.0-18.0-1.86","5738","approach_avoid_sv1","""event"",""trial"",""time""
""fullscreenenter"",""1"",""18237""
","
","
","""event"",""trial"",""time""
""fullscreenenter"",""1"",""18237""
","
","","","","","","636.6999999880791","images/apple7.png","","","memory_trial","4","definitely_new",""
"html-keyboard-response","218","515282","0.0-18.0-0.87","5738","approach_avoid_sv1","""event"",""trial"",""time""
""fullscreenenter"",""1"",""18237""
","
","
","""event"",""trial"",""time""
""fullscreenenter"",""1"",""18237""
","
","","","","","","null","<div style=""font-size:60px;"">+</div>","null","","fixation","","",""
"memory-trial","219","518049","0.0-18.0-1.87","5738","approach_avoid_sv1","""event"",""trial"",""time""
""fullscreenenter"",""1"",""18237""
","
","
","""event"",""trial"",""time""
""fullscreenenter"",""1"",""18237""
","
","","","","","","1763.7000000178814","images/horse6.png","","","memory_trial","4","definitely_new",""
"html-keyboard-response","220","518554","0.0-18.0-0.88","5738","approach_avoid_sv1","""event"",""trial"",""time""
""fullscreenenter"",""1"",""18237""
","
","
","""event"",""trial"",""time""
""fullscreenenter"",""1"",""18237""
","
","","","","","","null","<div style=""font-size:60px;"">+</div>","null","","fixation","","",""
"memory-trial","221","521205","0.0-18.0-1.88","5738","approach_avoid_sv1","""event"",""trial"",""time""
""fullscreenenter"",""1"",""18237""
","
","
","""event"",""trial"",""time""
""fullscreenenter"",""1"",""18237""
","
","","","","","","1645.9000000059605","images/sofa4.png","","","memory_trial","2","maybe_old",""
"html-keyboard-response","222","521708","0.0-18.0-0.89","5738","approach_avoid_sv1","""event"",""trial"",""time""
""fullscreenenter"",""1"",""18237""
","
","
","""event"",""trial"",""time""
""fullscreenenter"",""1"",""18237""
","
","","","","","","null","<div style=""font-size:60px;"">+</div>","null","","fixation","","",""
"memory-trial","223","523552","0.0-18.0-1.89","5738","approach_avoid_sv1","""event"",""trial"",""time""
""fullscreenenter"",""1"",""18237""
","
","
","""event"",""trial"",""time""
""fullscreenenter"",""1"",""18237""
","
","","","","","","837.5","images/tree8.png","","","memory_trial","4","definitely_new",""
"html-keyboard-response","224","524054","0.0-18.0-0.90","5738","approach_avoid_sv1","""event"",""trial"",""time""
""fullscreenenter"",""1"",""18237""
","
","
","""event"",""trial"",""time""
""fullscreenenter"",""1"",""18237""
","
","","","","","","null","<div style=""font-size:60px;"">+</div>","null","","fixation","","",""
"memory-trial","225","525653","0.0-18.0-1.90","5738","approach_avoid_sv1","""event"",""trial"",""time""
""fullscreenenter"",""1"",""18237""
","
","
","""event"",""trial"",""time""
""fullscreenenter"",""1"",""18237""
","
","","","","","","593","images/boat8.png","","","memory_trial","4","definitely_new",""
"html-keyboard-response","226","526155","0.0-18.0-0.91","5738","approach_avoid_sv1","""event"",""trial"",""time""
""fullscreenenter"",""1"",""18237""
","
","
","""event"",""trial"",""time""
""fullscreenenter"",""1"",""18237""
","
","","","","","","null","<div style=""font-size:60px;"">+</div>","null","","fixation","","",""
"memory-trial","227","527708","0.0-18.0-1.91","5738","approach_avoid_sv1","""event"",""trial"",""time""
""fullscreenenter"",""1"",""18237""
","
","
","""event"",""trial"",""time""
""fullscreenenter"",""1"",""18237""
","
","","","","","","549.3000000119209","images/table6.png","","","memory_trial","4","definitely_new",""
"html-button-response","228","583624","0.0-18.0-2.91-0.91","5738","approach_avoid_sv1","""event"",""trial"",""time""
""fullscreenenter"",""1"",""18237""
","
","
","""event"",""trial"",""time""
""fullscreenenter"",""1"",""18237""
","
","","","","","","55916.5","<p> Take a break! </p><p> Click the button to continue. </p>","0","","break","","",""
"html-keyboard-response","229","584128","0.0-18.0-0.92","5738","approach_avoid_sv1","""event"",""trial"",""time""
""fullscreenenter"",""1"",""18237""
","
","
","""event"",""trial"",""time""
""fullscreenenter"",""1"",""18237""
","
","","","","","","null","<div style=""font-size:60px;"">+</div>","null","","fixation","","",""
"memory-trial","230","586981","0.0-18.0-1.92","5738","approach_avoid_sv1","""event"",""trial"",""time""
""fullscreenenter"",""1"",""18237""
","
","
","""event"",""trial"",""time""
""fullscreenenter"",""1"",""18237""
","
","","","","","","1846.699999988079","images/train3.png","","","memory_trial","3","maybe_new",""
"html-keyboard-response","231","587486","0.0-18.0-0.93","5738","approach_avoid_sv1","""event"",""trial"",""time""
""fullscreenenter"",""1"",""18237""
","
","
","""event"",""trial"",""time""
""fullscreenenter"",""1"",""18237""
","
","","","","","","null","<div style=""font-size:60px;"">+</div>","null","","fixation","","",""
"memory-trial","232","590323","0.0-18.0-1.93","5738","approach_avoid_sv1","""event"",""trial"",""time""
""fullscreenenter"",""1"",""18237""
","
","
","""event"",""trial"",""time""
""fullscreenenter"",""1"",""18237""
","
","","","","","","1834.300000011921","images/cat3.png","","","memory_trial","2","maybe_old",""
"html-keyboard-response","233","590825","0.0-18.0-0.94","5738","approach_avoid_sv1","""event"",""trial"",""time""
""fullscreenenter"",""1"",""18237""
","
","
","""event"",""trial"",""time""
""fullscreenenter"",""1"",""18237""
","
","","","","","","null","<div style=""font-size:60px;"">+</div>","null","","fixation","","",""
"memory-trial","234","593662","0.0-18.0-1.94","5738","approach_avoid_sv1","""event"",""trial"",""time""
""fullscreenenter"",""1"",""18237""
","
","
","""event"",""trial"",""time""
""fullscreenenter"",""1"",""18237""
","
","","","","","","1831.800000011921","images/flower6.png","","","memory_trial","3","maybe_new",""
"html-keyboard-response","235","594164","0.0-18.0-0.95","5738","approach_avoid_sv1","""event"",""trial"",""time""
""fullscreenenter"",""1"",""18237""
","
","
","""event"",""trial"",""time""
""fullscreenenter"",""1"",""18237""
","
","","","","","","null","<div style=""font-size:60px;"">+</div>","null","","fixation","","",""
"memory-trial","236","596355","0.0-18.0-1.95","5738","approach_avoid_sv1","""event"",""trial"",""time""
""fullscreenenter"",""1"",""18237""
","
","
","""event"",""trial"",""time""
""fullscreenenter"",""1"",""18237""
","
","","","","","","1184.1000000238419","images/orange7.png","","","memory_trial","3","maybe_new",""
"html-keyboard-response","237","596857","0.0-18.0-0.96","5738","approach_avoid_sv1","""event"",""trial"",""time""
""fullscreenenter"",""1"",""18237""
","
","
","""event"",""trial"",""time""
""fullscreenenter"",""1"",""18237""
","
","","","","","","null","<div style=""font-size:60px;"">+</div>","null","","fixation","","",""
"memory-trial","238","598985","0.0-18.0-1.96","5738","approach_avoid_sv1","""event"",""trial"",""time""
""fullscreenenter"",""1"",""18237""
","
","
","""event"",""trial"",""time""
""fullscreenenter"",""1"",""18237""
","
","","","","","","1122.5","images/bed7.png","","","memory_trial","3","maybe_new",""
"html-keyboard-response","239","599486","0.0-18.0-0.97","5738","approach_avoid_sv1","""event"",""trial"",""time""
""fullscreenenter"",""1"",""18237""
","
","
","""event"",""trial"",""time""
""fullscreenenter"",""1"",""18237""
","
","","","","","","null","<div style=""font-size:60px;"">+</div>","null","","fixation","","",""
"memory-trial","240","601767","0.0-18.0-1.97","5738","approach_avoid_sv1","""event"",""trial"",""time""
""fullscreenenter"",""1"",""18237""
","
","
","""event"",""trial"",""time""
""fullscreenenter"",""1"",""18237""
","
","","","","","","1275","images/cactus1.png","","","memory_trial","2","maybe_old",""
"html-keyboard-response","241","602272","0.0-18.0-0.98","5738","approach_avoid_sv1","""event"",""trial"",""time""
""fullscreenenter"",""1"",""18237""
","
","
","""event"",""trial"",""time""
""fullscreenenter"",""1"",""18237""
","
","","","","","","null","<div style=""font-size:60px;"">+</div>","null","","fixation","","",""
"memory-trial","242","604574","0.0-18.0-1.98","5738","approach_avoid_sv1","""event"",""trial"",""time""
""fullscreenenter"",""1"",""18237""
","
","
","""event"",""trial"",""time""
""fullscreenenter"",""1"",""18237""
","
","","","","","","1294.0999999940395","images/bed2.png","","","memory_trial","2","maybe_old",""
"html-keyboard-response","243","605079","0.0-18.0-0.99","5738","approach_avoid_sv1","""event"",""trial"",""time""
""fullscreenenter"",""1"",""18237""
","
","
","""event"",""trial"",""time""
""fullscreenenter"",""1"",""18237""
","
","","","","","","null","<div style=""font-size:60px;"">+</div>","null","","fixation","","",""
"memory-trial","244","607608","0.0-18.0-1.99","5738","approach_avoid_sv1","""event"",""trial"",""time""
""fullscreenenter"",""1"",""18237""
","
","
","""event"",""trial"",""time""
""fullscreenenter"",""1"",""18237""
","
","","","","","","1522.699999988079","images/boat3.png","","","memory_trial","4","definitely_new",""
"html-keyboard-response","245","608111","0.0-18.0-0.100","5738","approach_avoid_sv1","""event"",""trial"",""time""
""fullscreenenter"",""1"",""18237""
","
","
","""event"",""trial"",""time""
""fullscreenenter"",""1"",""18237""
","
","","","","","","null","<div style=""font-size:60px;"">+</div>","null","","fixation","","",""
"memory-trial","246","609876","0.0-18.0-1.100","5738","approach_avoid_sv1","""event"",""trial"",""time""
""fullscreenenter"",""1"",""18237""
","
","
","""event"",""trial"",""time""
""fullscreenenter"",""1"",""18237""
","
","","","","","","761.5","images/chair7.png","","","memory_trial","4","definitely_new",""
"html-keyboard-response","247","610381","0.0-18.0-0.101","5738","approach_avoid_sv1","""event"",""trial"",""time""
""fullscreenenter"",""1"",""18237""
","
","
","""event"",""trial"",""time""
""fullscreenenter"",""1"",""18237""
","
","","","","","","null","<div style=""font-size:60px;"">+</div>","null","","fixation","","",""
"memory-trial","248","612052","0.0-18.0-1.101","5738","approach_avoid_sv1","""event"",""trial"",""time""
""fullscreenenter"",""1"",""18237""
","
","
","""event"",""trial"",""time""
""fullscreenenter"",""1"",""18237""
","
","","","","","","664.9000000059605","images/horse4.png","","","memory_trial","4","definitely_new",""
"html-keyboard-response","249","612557","0.0-18.0-0.102","5738","approach_avoid_sv1","""event"",""trial"",""time""
""fullscreenenter"",""1"",""18237""
","
","
","""event"",""trial"",""time""
""fullscreenenter"",""1"",""18237""
","
","","","","","","null","<div style=""font-size:60px;"">+</div>","null","","fixation","","",""
"memory-trial","250","614686","0.0-18.0-1.102","5738","approach_avoid_sv1","""event"",""trial"",""time""
""fullscreenenter"",""1"",""18237""
","
","
","""event"",""trial"",""time""
""fullscreenenter"",""1"",""18237""
","
","","","","","","1122.8999999761581","images/rodent3.png","","","memory_trial","2","maybe_old",""
"html-keyboard-response","251","615192","0.0-18.0-0.103","5738","approach_avoid_sv1","""event"",""trial"",""time""
""fullscreenenter"",""1"",""18237""
","
","
","""event"",""trial"",""time""
""fullscreenenter"",""1"",""18237""
","
","","","","","","null","<div style=""font-size:60px;"">+</div>","null","","fixation","","",""
"memory-trial","252","617183","0.0-18.0-1.103","5738","approach_avoid_sv1","""event"",""trial"",""time""
""fullscreenenter"",""1"",""18237""
","
","
","""event"",""trial"",""time""
""fullscreenenter"",""1"",""18237""
","
","","","","","","987.0999999940395","images/cat8.png","","","memory_trial","3","maybe_new",""
"html-keyboard-response","253","617688","0.0-18.0-0.104","5738","approach_avoid_sv1","""event"",""trial"",""time""
""fullscreenenter"",""1"",""18237""
","
","
","""event"",""trial"",""time""
""fullscreenenter"",""1"",""18237""
","
","","","","","","null","<div style=""font-size:60px;"">+</div>","null","","fixation","","",""
"memory-trial","254","619444","0.0-18.0-1.104","5738","approach_avoid_sv1","""event"",""trial"",""time""
""fullscreenenter"",""1"",""18237""
","
","
","""event"",""trial"",""time""
""fullscreenenter"",""1"",""18237""
","
","","","","","","749.7999999821186","images/plane4.png","","","memory_trial","4","definitely_new",""
"html-keyboard-response","255","619950","0.0-18.0-0.105","5738","approach_avoid_sv1","""event"",""trial"",""time""
""fullscreenenter"",""1"",""18237""
","
","
","""event"",""trial"",""time""
""fullscreenenter"",""1"",""18237""
","
","","","","","","null","<div style=""font-size:60px;"">+</div>","null","","fixation","","",""
"memory-trial","256","622056","0.0-18.0-1.105","5738","approach_avoid_sv1","""event"",""trial"",""time""
""fullscreenenter"",""1"",""18237""
","
","
","""event"",""trial"",""time""
""fullscreenenter"",""1"",""18237""
","
","","","","","","1099.9000000059605","images/plane8.png","","","memory_trial","2","maybe_old",""
"html-keyboard-response","257","622558","0.0-18.0-0.106","5738","approach_avoid_sv1","""event"",""trial"",""time""
""fullscreenenter"",""1"",""18237""
","
","
","""event"",""trial"",""time""
""fullscreenenter"",""1"",""18237""
","
","","","","","","null","<div style=""font-size:60px;"">+</div>","null","","fixation","","",""
"memory-trial","258","624952","0.0-18.0-1.106","5738","approach_avoid_sv1","""event"",""trial"",""time""
""fullscreenenter"",""1"",""18237""
","
","
","""event"",""trial"",""time""
""fullscreenenter"",""1"",""18237""
","
","","","","","","1389.0999999940395","images/plane2.png","","","memory_trial","2","maybe_old",""
"html-keyboard-response","259","625455","0.0-18.0-0.107","5738","approach_avoid_sv1","""event"",""trial"",""time""
""fullscreenenter"",""1"",""18237""
","
","
","""event"",""trial"",""time""
""fullscreenenter"",""1"",""18237""
","
","","","","","","null","<div style=""font-size:60px;"">+</div>","null","","fixation","","",""
"memory-trial","260","627917","0.0-18.0-1.107","5738","approach_avoid_sv1","""event"",""trial"",""time""
""fullscreenenter"",""1"",""18237""
","
","
","""event"",""trial"",""time""
""fullscreenenter"",""1"",""18237""
","
","","","","","","1455.4000000059605","images/boat1.png","","","memory_trial","4","definitely_new",""
"html-keyboard-response","261","628419","0.0-18.0-0.108","5738","approach_avoid_sv1","""event"",""trial"",""time""
""fullscreenenter"",""1"",""18237""
","
","
","""event"",""trial"",""time""
""fullscreenenter"",""1"",""18237""
","
","","","","","","null","<div style=""font-size:60px;"">+</div>","null","","fixation","","",""
"memory-trial","262","631170","0.0-18.0-1.108","5738","approach_avoid_sv1","""event"",""trial"",""time""
""fullscreenenter"",""1"",""18237""
","
","
","""event"",""trial"",""time""
""fullscreenenter"",""1"",""18237""
","
","","","","","","1743.4000000059605","images/goat7.png","","","memory_trial","4","definitely_new",""
"html-keyboard-response","263","631673","0.0-18.0-0.109","5738","approach_avoid_sv1","""event"",""trial"",""time""
""fullscreenenter"",""1"",""18237""
","
","
","""event"",""trial"",""time""
""fullscreenenter"",""1"",""18237""
","
","","","","","","null","<div style=""font-size:60px;"">+</div>","null","","fixation","","",""
"memory-trial","264","633181","0.0-18.0-1.109","5738","approach_avoid_sv1","""event"",""trial"",""time""
""fullscreenenter"",""1"",""18237""
","
","
","""event"",""trial"",""time""
""fullscreenenter"",""1"",""18237""
","
","","","","","","501.09999999403954","images/train5.png","","","memory_trial","4","definitely_new",""
"html-keyboard-response","265","633683","0.0-18.0-0.110","5738","approach_avoid_sv1","""event"",""trial"",""time""
""fullscreenenter"",""1"",""18237""
","
","
","""event"",""trial"",""time""
""fullscreenenter"",""1"",""18237""
","
","","","","","","null","<div style=""font-size:60px;"">+</div>","null","","fixation","","",""
"memory-trial","266","635384","0.0-18.0-1.110","5738","approach_avoid_sv1","""event"",""trial"",""time""
""fullscreenenter"",""1"",""18237""
","
","
","""event"",""trial"",""time""
""fullscreenenter"",""1"",""18237""
","
","","","","","","697.7999999821186","images/straw7.png","","","memory_trial","4","definitely_new",""
"html-keyboard-response","267","635889","0.0-18.0-0.111","5738","approach_avoid_sv1","""event"",""trial"",""time""
""fullscreenenter"",""1"",""18237""
","
","
","""event"",""trial"",""time""
""fullscreenenter"",""1"",""18237""
","
","","","","","","null","<div style=""font-size:60px;"">+</div>","null","","fixation","","",""
"memory-trial","268","637370","0.0-18.0-1.111","5738","approach_avoid_sv1","""event"",""trial"",""time""
""fullscreenenter"",""1"",""18237""
","
","
","""event"",""trial"",""time""
""fullscreenenter"",""1"",""18237""
","
","","","","","","476.09999999403954","images/bush2.png","","","memory_trial","4","definitely_new",""
"html-keyboard-response","269","637875","0.0-18.0-0.112","5738","approach_avoid_sv1","""event"",""trial"",""time""
""fullscreenenter"",""1"",""18237""
","
","
","""event"",""trial"",""time""
""fullscreenenter"",""1"",""18237""
","
","","","","","","null","<div style=""font-size:60px;"">+</div>","null","","fixation","","",""
"memory-trial","270","639726","0.0-18.0-1.112","5738","approach_avoid_sv1","""event"",""trial"",""time""
""fullscreenenter"",""1"",""18237""
","
","
","""event"",""trial"",""time""
""fullscreenenter"",""1"",""18237""
","
","","","","","","846.2999999821186","images/cow6.png","","","memory_trial","4","definitely_new",""
"html-keyboard-response","271","640232","0.0-18.0-0.113","5738","approach_avoid_sv1","""event"",""trial"",""time""
""fullscreenenter"",""1"",""18237""
","
","
","""event"",""trial"",""time""
""fullscreenenter"",""1"",""18237""
","
","","","","","","null","<div style=""font-size:60px;"">+</div>","null","","fixation","","",""
"memory-trial","272","642205","0.0-18.0-1.113","5738","approach_avoid_sv1","""event"",""trial"",""time""
""fullscreenenter"",""1"",""18237""
","
","
","""event"",""trial"",""time""
""fullscreenenter"",""1"",""18237""
","
","","","","","","967.2000000178814","images/banana5.png","","","memory_trial","2","maybe_old",""
"html-keyboard-response","273","642706","0.0-18.0-0.114","5738","approach_avoid_sv1","""event"",""trial"",""time""
""fullscreenenter"",""1"",""18237""
","
","
","""event"",""trial"",""time""
""fullscreenenter"",""1"",""18237""
","
","","","","","","null","<div style=""font-size:60px;"">+</div>","null","","fixation","","",""
"memory-trial","274","645154","0.0-18.0-1.114","5738","approach_avoid_sv1","""event"",""trial"",""time""
""fullscreenenter"",""1"",""18237""
","
","
","""event"",""trial"",""time""
""fullscreenenter"",""1"",""18237""
","
","","","","","","1441.9000000059605","images/flower4.png","","","memory_trial","4","definitely_new",""
"html-keyboard-response","275","645660","0.0-18.0-0.115","5738","approach_avoid_sv1","""event"",""trial"",""time""
""fullscreenenter"",""1"",""18237""
","
","
","""event"",""trial"",""time""
""fullscreenenter"",""1"",""18237""
","
","","","","","","null","<div style=""font-size:60px;"">+</div>","null","","fixation","","",""
"memory-trial","276","647549","0.0-18.0-1.115","5738","approach_avoid_sv1","""event"",""trial"",""time""
""fullscreenenter"",""1"",""18237""
","
","
","""event"",""trial"",""time""
""fullscreenenter"",""1"",""18237""
","
","","","","","","883.4000000059605","images/apple3.png","","","memory_trial","4","definitely_new",""
"html-keyboard-response","277","648055","0.0-18.0-0.116","5738","approach_avoid_sv1","""event"",""trial"",""time""
""fullscreenenter"",""1"",""18237""
","
","
","""event"",""trial"",""time""
""fullscreenenter"",""1"",""18237""
","
","","","","","","null","<div style=""font-size:60px;"">+</div>","null","","fixation","","",""
"memory-trial","278","650189","0.0-18.0-1.116","5738","approach_avoid_sv1","""event"",""trial"",""time""
""fullscreenenter"",""1"",""18237""
","
","
","""event"",""trial"",""time""
""fullscreenenter"",""1"",""18237""
","
","","","","","","1128.699999988079","images/flower3.png","","","memory_trial","4","definitely_new",""
"html-keyboard-response","279","650695","0.0-18.0-0.117","5738","approach_avoid_sv1","""event"",""trial"",""time""
""fullscreenenter"",""1"",""18237""
","
","
","""event"",""trial"",""time""
""fullscreenenter"",""1"",""18237""
","
","","","","","","null","<div style=""font-size:60px;"">+</div>","null","","fixation","","",""
"memory-trial","280","652961","0.0-18.0-1.117","5738","approach_avoid_sv1","""event"",""trial"",""time""
""fullscreenenter"",""1"",""18237""
","
","
","""event"",""trial"",""time""
""fullscreenenter"",""1"",""18237""
","
","","","","","","1259.9000000059605","images/plane7.png","","","memory_trial","2","maybe_old",""
"html-keyboard-response","281","653465","0.0-18.0-0.118","5738","approach_avoid_sv1","""event"",""trial"",""time""
""fullscreenenter"",""1"",""18237""
","
","
","""event"",""trial"",""time""
""fullscreenenter"",""1"",""18237""
","
","","","","","","null","<div style=""font-size:60px;"">+</div>","null","","fixation","","",""
"memory-trial","282","655790","0.0-18.0-1.118","5738","approach_avoid_sv1","""event"",""trial"",""time""
""fullscreenenter"",""1"",""18237""
","
","
","""event"",""trial"",""time""
""fullscreenenter"",""1"",""18237""
","
","","","","","","1319","images/banana7.png","","","memory_trial","3","maybe_new",""
"html-keyboard-response","283","656295","0.0-18.0-0.119","5738","approach_avoid_sv1","""event"",""trial"",""time""
""fullscreenenter"",""1"",""18237""
","
","
","""event"",""trial"",""time""
""fullscreenenter"",""1"",""18237""
","
","","","","","","null","<div style=""font-size:60px;"">+</div>","null","","fixation","","",""
"memory-trial","284","658414","0.0-18.0-1.119","5738","approach_avoid_sv1","""event"",""trial"",""time""
""fullscreenenter"",""1"",""18237""
","
","
","""event"",""trial"",""time""
""fullscreenenter"",""1"",""18237""
","
","","","","","","1113.199999988079","images/table7.png","","","memory_trial","3","maybe_new",""
"html-keyboard-response","285","658919","0.0-18.0-0.120","5738","approach_avoid_sv1","""event"",""trial"",""time""
""fullscreenenter"",""1"",""18237""
","
","
","""event"",""trial"",""time""
""fullscreenenter"",""1"",""18237""
","
","","","","","","null","<div style=""font-size:60px;"">+</div>","null","","fixation","","",""
"memory-trial","286","661201","0.0-18.0-1.120","5738","approach_avoid_sv1","""event"",""trial"",""time""
""fullscreenenter"",""1"",""18237""
","
","
","""event"",""trial"",""time""
""fullscreenenter"",""1"",""18237""
","
","","","","","","1278.8999999761581","images/cactus5.png","","","memory_trial","2","maybe_old",""
"html-keyboard-response","287","661703","0.0-18.0-0.121","5738","approach_avoid_sv1","""event"",""trial"",""time""
""fullscreenenter"",""1"",""18237""
","
","
","""event"",""trial"",""time""
""fullscreenenter"",""1"",""18237""
","
","","","","","","null","<div style=""font-size:60px;"">+</div>","null","","fixation","","",""
"memory-trial","288","663943","0.0-18.0-1.121","5738","approach_avoid_sv1","""event"",""trial"",""time""
""fullscreenenter"",""1"",""18237""
","
","
","""event"",""trial"",""time""
""fullscreenenter"",""1"",""18237""
","
","","","","","","1235.9000000059605","images/chair6.png","","","memory_trial","2","maybe_old",""
"html-keyboard-response","289","664449","0.0-18.0-0.122","5738","approach_avoid_sv1","""event"",""trial"",""time""
""fullscreenenter"",""1"",""18237""
","
","
","""event"",""trial"",""time""
""fullscreenenter"",""1"",""18237""
","
","","","","","","null","<div style=""font-size:60px;"">+</div>","null","","fixation","","",""
"memory-trial","290","666544","0.0-18.0-1.122","5738","approach_avoid_sv1","""event"",""trial"",""time""
""fullscreenenter"",""1"",""18237""
","
","
","""event"",""trial"",""time""
""fullscreenenter"",""1"",""18237""
","
","","","","","","1087.4000000059605","images/train6.png","","","memory_trial","1","definitely_old",""
"html-keyboard-response","291","667047","0.0-18.0-0.123","5738","approach_avoid_sv1","""event"",""trial"",""time""
""fullscreenenter"",""1"",""18237""
","
","
","""event"",""trial"",""time""
""fullscreenenter"",""1"",""18237""
","
","","","","","","null","<div style=""font-size:60px;"">+</div>","null","","fixation","","",""
"memory-trial","292","669084","0.0-18.0-1.123","5738","approach_avoid_sv1","""event"",""trial"",""time""
""fullscreenenter"",""1"",""18237""
","
","
","""event"",""trial"",""time""
""fullscreenenter"",""1"",""18237""
","
","","","","","","1033.5","images/goat2.png","","","memory_trial","3","maybe_new",""
"html-keyboard-response","293","669589","0.0-18.0-0.124","5738","approach_avoid_sv1","""event"",""trial"",""time""
""fullscreenenter"",""1"",""18237""
","
","
","""event"",""trial"",""time""
""fullscreenenter"",""1"",""18237""
","
","","","","","","null","<div style=""font-size:60px;"">+</div>","null","","fixation","","",""
"memory-trial","294","671463","0.0-18.0-1.124","5738","approach_avoid_sv1","""event"",""trial"",""time""
""fullscreenenter"",""1"",""18237""
","
","
","""event"",""trial"",""time""
""fullscreenenter"",""1"",""18237""
","
","","","","","","868.4000000059605","images/cactus6.png","","","memory_trial","3","maybe_new",""
"html-keyboard-response","295","671969","0.0-18.0-0.125","5738","approach_avoid_sv1","""event"",""trial"",""time""
""fullscreenenter"",""1"",""18237""
","
","
","""event"",""trial"",""time""
""fullscreenenter"",""1"",""18237""
","
","","","","","","null","<div style=""font-size:60px;"">+</div>","null","","fixation","","",""
