"trial_type","trial_index","time_elapsed","internal_node_id","subject_id","task_version","interactions","blur_events","focus_events","fullscreenenter_events","fullscreenexit_events","success","timeout","failed_images","failed_audio","failed_video","rt","stimulus","response","button_pressed","task_part","key_press","answer","correct"
"pavlovia","0","18","0.0-0.0","7591","approach_avoid_sv1","""event"",""trial"",""time""
""fullscreenenter"",""1"",""2717""
","
","
","""event"",""trial"",""time""
""fullscreenenter"",""1"",""2717""
","
","","","","","","","","","","","","",""
"fullscreen","1","3661","0.0-1.0","7591","approach_avoid_sv1","""event"",""trial"",""time""
""fullscreenenter"",""1"",""2717""
","
","
","""event"",""trial"",""time""
""fullscreenenter"",""1"",""2717""
","
","true","","","","","","","","","","","",""
"preload","2","10561","0.0-2.0","7591","approach_avoid_sv1","""event"",""trial"",""time""
""fullscreenenter"",""1"",""2717""
","
","
","""event"",""trial"",""time""
""fullscreenenter"",""1"",""2717""
","
","true","false","[]","[]","[]","","","","","","","",""
"preload","3","14465","0.0-3.0","7591","approach_avoid_sv1","""event"",""trial"",""time""
""fullscreenenter"",""1"",""2717""
","
","
","""event"",""trial"",""time""
""fullscreenenter"",""1"",""2717""
","
","true","false","[]","[]","[]","","","","","","","",""
"preload","4","15124","0.0-4.0","7591","approach_avoid_sv1","""event"",""trial"",""time""
""fullscreenenter"",""1"",""2717""
","
","
","""event"",""trial"",""time""
""fullscreenenter"",""1"",""2717""
","
","true","false","[]","[]","[]","","","","","","","",""
"audio-keyboard-response","5","17486","0.0-5.0","7591","approach_avoid_sv1","""event"",""trial"",""time""
""fullscreenenter"",""1"",""2717""
","
","
","""event"",""trial"",""time""
""fullscreenenter"",""1"",""2717""
","
","","","","","","2359.9999999999995","audio/beep_loop.wav"," ","","","","",""
"audio-button-response","6","21260","0.0-6.0","7591","approach_avoid_sv1","""event"",""trial"",""time""
""fullscreenenter"",""1"",""2717""
","
","
","""event"",""trial"",""time""
""fullscreenenter"",""1"",""2717""
","
","","","","","","3771","audio/turtle.wav","3","","","","",""
"audio-button-response","7","23889","0.0-7.0","7591","approach_avoid_sv1","""event"",""trial"",""time""
""fullscreenenter"",""1"",""2717""
","
","
","""event"",""trial"",""time""
""fullscreenenter"",""1"",""2717""
","
","","","","","","1621","audio/shark.wav","2","","","","",""
"preload","8","33405","0.0-8.0","7591","approach_avoid_sv1","""event"",""trial"",""time""
""fullscreenenter"",""1"",""2717""
","
","
","""event"",""trial"",""time""
""fullscreenenter"",""1"",""2717""
","
","true","false","[]","[]","[]","","","","","","","",""
"learning-instructions","9","41202","0.0-9.0-0.0","7591","approach_avoid_sv1","""event"",""trial"",""time""
""fullscreenenter"",""1"",""2717""
","
","
","""event"",""trial"",""time""
""fullscreenenter"",""1"",""2717""
","
","","","","","","3317.800000000745","<p> Welcome back! </p><p> Last week, you had to make choices about lots of different items.  </p>","","0","instructions","","",""
"learning-instructions","10","47621","0.0-9.0-0.1","7591","approach_avoid_sv1","""event"",""trial"",""time""
""fullscreenenter"",""1"",""2717""
","
","
","""event"",""trial"",""time""
""fullscreenenter"",""1"",""2717""
","
","","","","","","2306.699999999255","<p> Today, we are going to ask you to try to remember all the items. </p>","","0","instructions","","",""
"learning-instructions","11","65568","0.0-9.0-0.2","7591","approach_avoid_sv1","""event"",""trial"",""time""
""fullscreenenter"",""1"",""2717""
","
","
","""event"",""trial"",""time""
""fullscreenenter"",""1"",""2717""
","
","","","","","","7805.199999999255","<p> On every trial, you will see an image. </p><p> The image may be an OLD image you saw during the games last week or it may be a NEW image that was not presented. </p>","","0","instructions","","",""
"learning-instructions","12","74926","0.0-9.0-0.3","7591","approach_avoid_sv1","""event"",""trial"",""time""
""fullscreenenter"",""1"",""2717""
","
","
","""event"",""trial"",""time""
""fullscreenenter"",""1"",""2717""
","
","","","","","","841.1999999992549","<p> You need to select whether the image is:  </p><p>  'Definitely old', 'Maybe old', 'Maybe new', or 'Definitely new.'  </p><div class=""mem-choice-instructions-grid""><div class=""choice-option"" id=""choice-option-1"" ><img src=""images/definitely_old_1.png"" id=""choice-option-img-1"" class=""choice-option-img"" stage=""1""></div><div class=""choice-option"" id=""choice-option-2"" ><img src=""images/maybe_old_1.png"" id=""choice-option-img-2"" class=""choice-option-img"" stage=""1""></div><div class=""choice-option"" id=""choice-option-3"" ><img src=""images/maybe_new_1.png"" id=""choice-option-img-3"" class=""choice-option-img"" stage=""1""></div><div class=""choice-option"" id=""choice-option-4"" > <img src=""images/definitely_new_1.png"" id=""choice-option-img-4"" class=""choice-option-img"" stage=""1""></div></div>","","0","instructions","","",""
"learning-instructions","13","82145","0.0-9.0-0.4","7591","approach_avoid_sv1","""event"",""trial"",""time""
""fullscreenenter"",""1"",""2717""
","
","
","""event"",""trial"",""time""
""fullscreenenter"",""1"",""2717""
","
","","","","","","691.8000000007451","<p> You should use the 1, 2, 3, and 4 keys to make your responses.  </p><div class=""mem-choice-instructions-grid""><div class=""choice-option"" id=""choice-option-1"" ><img src=""images/definitely_old.png"" id=""choice-option-img-1"" class=""choice-option-img"" stage=""1""></div><div class=""choice-option"" id=""choice-option-2"" ><img src=""images/maybe_old.png"" id=""choice-option-img-2"" class=""choice-option-img"" stage=""1""></div><div class=""choice-option"" id=""choice-option-3"" ><img src=""images/maybe_new.png"" id=""choice-option-img-3"" class=""choice-option-img"" stage=""1""></div><div class=""choice-option"" id=""choice-option-4"" > <img src=""images/definitely_new.png"" id=""choice-option-img-4"" class=""choice-option-img"" stage=""1""></div></div>","","0","instructions","","",""
"learning-instructions","14","88917","0.0-9.0-0.5","7591","approach_avoid_sv1","""event"",""trial"",""time""
""fullscreenenter"",""1"",""2717""
","
","
","""event"",""trial"",""time""
""fullscreenenter"",""1"",""2717""
","
","","","","","","444.6000000014901","<p> You will have 10 seconds to make each response.  </p><p>  Make sure to respond before time runs out! </p>","","0","instructions","","",""
"learning-instructions","15","96671","0.0-9.0-0.6","7591","approach_avoid_sv1","""event"",""trial"",""time""
""fullscreenenter"",""1"",""2717""
","
","
","""event"",""trial"",""time""
""fullscreenenter"",""1"",""2717""
","
","","","","","","678.8000000007451","<p> Today, you will see each image ONCE only.  </p><p>  That means none of the images will repeat. </p>","","0","instructions","","",""
"learning-instructions","16","110747","0.0-9.0-0.7","7591","approach_avoid_sv1","""event"",""trial"",""time""
""fullscreenenter"",""1"",""2717""
","
","
","""event"",""trial"",""time""
""fullscreenenter"",""1"",""2717""
","
","","","","","","1395.0999999977648","<p> Before you play the real game, it is time to practice. </p><p>  Just like in the real game, some of the images in the practice will be ones you have seen before. </p><p>  Others will be entirely new. </p>","","0","instructions","","",""
"html-button-response","17","115981","0.0-10.0","7591","approach_avoid_sv1","""event"",""trial"",""time""
""fullscreenenter"",""1"",""2717""
","
","
","""event"",""trial"",""time""
""fullscreenenter"",""1"",""2717""
","
","","","","","","5117.20000000298","<p> Ready to practice? </p><p> Remember, use the 1, 2, 3, and 4 keys to make your responses. </p>","0","","instructions","","",""
"html-keyboard-response","18","116590","0.0-11.0-0.0","7591","approach_avoid_sv1","""event"",""trial"",""time""
""fullscreenenter"",""1"",""2717""
","
","
","""event"",""trial"",""time""
""fullscreenenter"",""1"",""2717""
","
","","","","","","null","<div style=""font-size:60px;"">+</div>","null","","fixation","","",""
"memory-trial","19","118201","0.0-11.0-1.0","7591","approach_avoid_sv1","""event"",""trial"",""time""
""fullscreenenter"",""1"",""2717""
","
","
","""event"",""trial"",""time""
""fullscreenenter"",""1"",""2717""
","
","","","","","","588.6999999992549","images/ball5.png","","","practice","2","maybe_old",""
"html-keyboard-response","20","118711","0.0-11.0-0.1","7591","approach_avoid_sv1","""event"",""trial"",""time""
""fullscreenenter"",""1"",""2717""
","
","
","""event"",""trial"",""time""
""fullscreenenter"",""1"",""2717""
","
","","","","","","null","<div style=""font-size:60px;"">+</div>","null","","fixation","","",""
"memory-trial","21","121255","0.0-11.0-1.1","7591","approach_avoid_sv1","""event"",""trial"",""time""
""fullscreenenter"",""1"",""2717""
","
","
","""event"",""trial"",""time""
""fullscreenenter"",""1"",""2717""
","
","","","","","","1524.8999999985099","images/ball3.png","","","practice","4","definitely_new",""
"html-keyboard-response","22","121763","0.0-11.0-0.2","7591","approach_avoid_sv1","""event"",""trial"",""time""
""fullscreenenter"",""1"",""2717""
","
","
","""event"",""trial"",""time""
""fullscreenenter"",""1"",""2717""
","
","","","","","","null","<div style=""font-size:60px;"">+</div>","null","","fixation","","",""
"memory-trial","23","123418","0.0-11.0-1.2","7591","approach_avoid_sv1","""event"",""trial"",""time""
""fullscreenenter"",""1"",""2717""
","
","
","""event"",""trial"",""time""
""fullscreenenter"",""1"",""2717""
","
","","","","","","644","images/racket5.png","","","practice","4","definitely_new",""
"html-keyboard-response","24","123931","0.0-11.0-0.3","7591","approach_avoid_sv1","""event"",""trial"",""time""
""fullscreenenter"",""1"",""2717""
","
","
","""event"",""trial"",""time""
""fullscreenenter"",""1"",""2717""
","
","","","","","","null","<div style=""font-size:60px;"">+</div>","null","","fixation","","",""
"memory-trial","25","125506","0.0-11.0-1.3","7591","approach_avoid_sv1","""event"",""trial"",""time""
""fullscreenenter"",""1"",""2717""
","
","
","""event"",""trial"",""time""
""fullscreenenter"",""1"",""2717""
","
","","","","","","564.3999999985099","images/ball2.png","","","practice","4","definitely_new",""
"html-keyboard-response","26","126022","0.0-11.0-0.4","7591","approach_avoid_sv1","""event"",""trial"",""time""
""fullscreenenter"",""1"",""2717""
","
","
","""event"",""trial"",""time""
""fullscreenenter"",""1"",""2717""
","
","","","","","","null","<div style=""font-size:60px;"">+</div>","null","","fixation","","",""
"memory-trial","27","127545","0.0-11.0-1.4","7591","approach_avoid_sv1","""event"",""trial"",""time""
""fullscreenenter"",""1"",""2717""
","
","
","""event"",""trial"",""time""
""fullscreenenter"",""1"",""2717""
","
","","","","","","516.1999999992549","images/racket2.png","","","practice","4","definitely_new",""
"html-keyboard-response","28","128051","0.0-11.0-0.5","7591","approach_avoid_sv1","""event"",""trial"",""time""
""fullscreenenter"",""1"",""2717""
","
","
","""event"",""trial"",""time""
""fullscreenenter"",""1"",""2717""
","
","","","","","","null","<div style=""font-size:60px;"">+</div>","null","","fixation","","",""
"memory-trial","29","129519","0.0-11.0-1.5","7591","approach_avoid_sv1","""event"",""trial"",""time""
""fullscreenenter"",""1"",""2717""
","
","
","""event"",""trial"",""time""
""fullscreenenter"",""1"",""2717""
","
","","","","","","459","images/ball1.png","","","practice","4","definitely_new",""
"html-keyboard-response","30","130024","0.0-11.0-0.6","7591","approach_avoid_sv1","""event"",""trial"",""time""
""fullscreenenter"",""1"",""2717""
","
","
","""event"",""trial"",""time""
""fullscreenenter"",""1"",""2717""
","
","","","","","","null","<div style=""font-size:60px;"">+</div>","null","","fixation","","",""
"memory-trial","31","131856","0.0-11.0-1.6","7591","approach_avoid_sv1","""event"",""trial"",""time""
""fullscreenenter"",""1"",""2717""
","
","
","""event"",""trial"",""time""
""fullscreenenter"",""1"",""2717""
","
","","","","","","826.8000000007451","images/racket1.png","","","practice","4","definitely_new",""
"html-keyboard-response","32","132371","0.0-11.0-0.7","7591","approach_avoid_sv1","""event"",""trial"",""time""
""fullscreenenter"",""1"",""2717""
","
","
","""event"",""trial"",""time""
""fullscreenenter"",""1"",""2717""
","
","","","","","","null","<div style=""font-size:60px;"">+</div>","null","","fixation","","",""
"memory-trial","33","133874","0.0-11.0-1.7","7591","approach_avoid_sv1","""event"",""trial"",""time""
""fullscreenenter"",""1"",""2717""
","
","
","""event"",""trial"",""time""
""fullscreenenter"",""1"",""2717""
","
","","","","","","496.6000000014901","images/racket3.png","","","practice","4","definitely_new",""
"learning-instructions","34","143028","0.0-12.0-0.0","7591","approach_avoid_sv1","""event"",""trial"",""time""
""fullscreenenter"",""1"",""2717""
","
","
","""event"",""trial"",""time""
""fullscreenenter"",""1"",""2717""
","
","","","","","","1844.8999999985099","<p> Great! You have completed the practice. </p><p> Before you start, we're going to ask you a few questions about how the game works.  </p>","","0","instructions","","",""
"preload","35","151871","0.0-13.0","7591","approach_avoid_sv1","""event"",""trial"",""time""
""fullscreenenter"",""1"",""2717""
","
","
","""event"",""trial"",""time""
""fullscreenenter"",""1"",""2717""
","
","true","false","[]","[]","[]","","","","","","","",""
"comp-q","36","159528","0.0-14.0-0.0","7591","approach_avoid_sv1","""event"",""trial"",""time""
""fullscreenenter"",""1"",""2717""
","
","
","""event"",""trial"",""time""
""fullscreenenter"",""1"",""2717""
","
","","","","","","1825.9000000022352","<p> <b> True or False? </b> </p><p> In this game, you will only see each image once. </p>","","0","comp_question","","","true"
"comp-q","37","167835","0.0-14.0-1.0","7591","approach_avoid_sv1","""event"",""trial"",""time""
""fullscreenenter"",""1"",""2717""
","
","
","""event"",""trial"",""time""
""fullscreenenter"",""1"",""2717""
","
","","","","","","1951.5","<p> <b> That's right! </b> You will see many different images <i> one time each </i> in this game. </p>","","0","comp_answer","","",""
"comp-q","38","173980","0.0-15.0-0.0","7591","approach_avoid_sv1","""event"",""trial"",""time""
""fullscreenenter"",""1"",""2717""
","
","
","""event"",""trial"",""time""
""fullscreenenter"",""1"",""2717""
","
","","","","","","1127.699999999255","<p> <b> True or False? </b> </p><p> You should use the mouse and click to make your response. </p>","","1","comp_question","","","true"
"comp-q","39","181903","0.0-15.0-1.0","7591","approach_avoid_sv1","""event"",""trial"",""time""
""fullscreenenter"",""1"",""2717""
","
","
","""event"",""trial"",""time""
""fullscreenenter"",""1"",""2717""
","
","","","","","","1410.5","<p><b> That's right! </b> You should use the '1', '2', '3', and '4' keys to make your response. </p>","","0","comp_answer","","",""
"comp-q","40","188662","0.0-16.0-0.0","7591","approach_avoid_sv1","""event"",""trial"",""time""
""fullscreenenter"",""1"",""2717""
","
","
","""event"",""trial"",""time""
""fullscreenenter"",""1"",""2717""
","
","","","","","","1090.1000000014901","<p> <b> True or False? </b> </p><p> You will have as much time as you want to make each choice. </p>","","1","comp_question","","","true"
"comp-q","41","194920","0.0-16.0-1.0","7591","approach_avoid_sv1","""event"",""trial"",""time""
""fullscreenenter"",""1"",""2717""
","
","
","""event"",""trial"",""time""
""fullscreenenter"",""1"",""2717""
","
","","","","","","1546.5","<p> <b> That's right! </b> You will only have 10 seconds to make each choice. </p>","","0","comp_answer","","",""
"learning-instructions","42","204944","0.0-17.0","7591","approach_avoid_sv1","""event"",""trial"",""time""
""fullscreenenter"",""1"",""2717""
","
","
","""event"",""trial"",""time""
""fullscreenenter"",""1"",""2717""
","
","","","","","","1351.699999999255","<p> Great! You are now ready to begin the game. </p><p> Remember, use the 1, 2, 3, and 4 keys to make your responses. </p>","","0","instructions","","",""
"html-keyboard-response","43","205570","0.0-18.0-0.0","7591","approach_avoid_sv1","""event"",""trial"",""time""
""fullscreenenter"",""1"",""2717""
","
","
","""event"",""trial"",""time""
""fullscreenenter"",""1"",""2717""
","
","","","","","","null","<div style=""font-size:60px;"">+</div>","null","","fixation","","",""
"memory-trial","44","208957","0.0-18.0-1.0","7591","approach_avoid_sv1","""event"",""trial"",""time""
""fullscreenenter"",""1"",""2717""
","
","
","""event"",""trial"",""time""
""fullscreenenter"",""1"",""2717""
","
","","","","","","2377.699999999255","images/flower2.png","","","memory_trial","2","maybe_old",""
"html-keyboard-response","45","209469","0.0-18.0-0.1","7591","approach_avoid_sv1","""event"",""trial"",""time""
""fullscreenenter"",""1"",""2717""
","
","
","""event"",""trial"",""time""
""fullscreenenter"",""1"",""2717""
","
","","","","","","null","<div style=""font-size:60px;"">+</div>","null","","fixation","","",""
"memory-trial","46","212099","0.0-18.0-1.1","7591","approach_avoid_sv1","""event"",""trial"",""time""
""fullscreenenter"",""1"",""2717""
","
","
","""event"",""trial"",""time""
""fullscreenenter"",""1"",""2717""
","
","","","","","","1625.199999999255","images/plane6.png","","","memory_trial","4","definitely_new",""
"html-keyboard-response","47","212605","0.0-18.0-0.2","7591","approach_avoid_sv1","""event"",""trial"",""time""
""fullscreenenter"",""1"",""2717""
","
","
","""event"",""trial"",""time""
""fullscreenenter"",""1"",""2717""
","
","","","","","","null","<div style=""font-size:60px;"">+</div>","null","","fixation","","",""
"memory-trial","48","214542","0.0-18.0-1.2","7591","approach_avoid_sv1","""event"",""trial"",""time""
""fullscreenenter"",""1"",""2717""
","
","
","""event"",""trial"",""time""
""fullscreenenter"",""1"",""2717""
","
","","","","","","920.5","images/cow6.png","","","memory_trial","4","definitely_new",""
"html-keyboard-response","49","215043","0.0-18.0-0.3","7591","approach_avoid_sv1","""event"",""trial"",""time""
""fullscreenenter"",""1"",""2717""
","
","
","""event"",""trial"",""time""
""fullscreenenter"",""1"",""2717""
","
","","","","","","null","<div style=""font-size:60px;"">+</div>","null","","fixation","","",""
"memory-trial","50","217102","0.0-18.0-1.3","7591","approach_avoid_sv1","""event"",""trial"",""time""
""fullscreenenter"",""1"",""2717""
","
","
","""event"",""trial"",""time""
""fullscreenenter"",""1"",""2717""
","
","","","","","","1043.5","images/bed1.png","","","memory_trial","3","maybe_new",""
"html-keyboard-response","51","217612","0.0-18.0-0.4","7591","approach_avoid_sv1","""event"",""trial"",""time""
""fullscreenenter"",""1"",""2717""
","
","
","""event"",""trial"",""time""
""fullscreenenter"",""1"",""2717""
","
","","","","","","null","<div style=""font-size:60px;"">+</div>","null","","fixation","","",""
"memory-trial","52","219740","0.0-18.0-1.4","7591","approach_avoid_sv1","""event"",""trial"",""time""
""fullscreenenter"",""1"",""2717""
","
","
","""event"",""trial"",""time""
""fullscreenenter"",""1"",""2717""
","
","","","","","","1120.1000000014901","images/dog5.png","","","memory_trial","3","maybe_new",""
"html-keyboard-response","53","220244","0.0-18.0-0.5","7591","approach_avoid_sv1","""event"",""trial"",""time""
""fullscreenenter"",""1"",""2717""
","
","
","""event"",""trial"",""time""
""fullscreenenter"",""1"",""2717""
","
","","","","","","null","<div style=""font-size:60px;"">+</div>","null","","fixation","","",""
"memory-trial","54","222170","0.0-18.0-1.5","7591","approach_avoid_sv1","""event"",""trial"",""time""
""fullscreenenter"",""1"",""2717""
","
","
","""event"",""trial"",""time""
""fullscreenenter"",""1"",""2717""
","
","","","","","","919.1999999992549","images/banana2.png","","","memory_trial","3","maybe_new",""
"html-keyboard-response","55","222672","0.0-18.0-0.6","7591","approach_avoid_sv1","""event"",""trial"",""time""
""fullscreenenter"",""1"",""2717""
","
","
","""event"",""trial"",""time""
""fullscreenenter"",""1"",""2717""
","
","","","","","","null","<div style=""font-size:60px;"">+</div>","null","","fixation","","",""
"memory-trial","56","224395","0.0-18.0-1.6","7591","approach_avoid_sv1","""event"",""trial"",""time""
""fullscreenenter"",""1"",""2717""
","
","
","""event"",""trial"",""time""
""fullscreenenter"",""1"",""2717""
","
","","","","","","710.8000000007451","images/sofa3.png","","","memory_trial","2","maybe_old",""
"html-keyboard-response","57","224911","0.0-18.0-0.7","7591","approach_avoid_sv1","""event"",""trial"",""time""
""fullscreenenter"",""1"",""2717""
","
","
","""event"",""trial"",""time""
""fullscreenenter"",""1"",""2717""
","
","","","","","","null","<div style=""font-size:60px;"">+</div>","null","","fixation","","",""
"memory-trial","58","226777","0.0-18.0-1.7","7591","approach_avoid_sv1","""event"",""trial"",""time""
""fullscreenenter"",""1"",""2717""
","
","
","""event"",""trial"",""time""
""fullscreenenter"",""1"",""2717""
","
","","","","","","848","images/dog2.png","","","memory_trial","3","maybe_new",""
"html-keyboard-response","59","227287","0.0-18.0-0.8","7591","approach_avoid_sv1","""event"",""trial"",""time""
""fullscreenenter"",""1"",""2717""
","
","
","""event"",""trial"",""time""
""fullscreenenter"",""1"",""2717""
","
","","","","","","null","<div style=""font-size:60px;"">+</div>","null","","fixation","","",""
"memory-trial","60","229249","0.0-18.0-1.8","7591","approach_avoid_sv1","""event"",""trial"",""time""
""fullscreenenter"",""1"",""2717""
","
","
","""event"",""trial"",""time""
""fullscreenenter"",""1"",""2717""
","
","","","","","","947.8000000007451","images/rodent5.png","","","memory_trial","3","maybe_new",""
"html-keyboard-response","61","229758","0.0-18.0-0.9","7591","approach_avoid_sv1","""event"",""trial"",""time""
""fullscreenenter"",""1"",""2717""
","
","
","""event"",""trial"",""time""
""fullscreenenter"",""1"",""2717""
","
","","","","","","null","<div style=""font-size:60px;"">+</div>","null","","fixation","","",""
"memory-trial","62","232282","0.0-18.0-1.9","7591","approach_avoid_sv1","""event"",""trial"",""time""
""fullscreenenter"",""1"",""2717""
","
","
","""event"",""trial"",""time""
""fullscreenenter"",""1"",""2717""
","
","","","","","","1505","images/train1.png","","","memory_trial","1","definitely_old",""
"html-keyboard-response","63","232794","0.0-18.0-0.10","7591","approach_avoid_sv1","""event"",""trial"",""time""
""fullscreenenter"",""1"",""2717""
","
","
","""event"",""trial"",""time""
""fullscreenenter"",""1"",""2717""
","
","","","","","","null","<div style=""font-size:60px;"">+</div>","null","","fixation","","",""
"memory-trial","64","235503","0.0-18.0-1.10","7591","approach_avoid_sv1","""event"",""trial"",""time""
""fullscreenenter"",""1"",""2717""
","
","
","""event"",""trial"",""time""
""fullscreenenter"",""1"",""2717""
","
","","","","","","1698.199999999255","images/sheep7.png","","","memory_trial","2","maybe_old",""
"html-keyboard-response","65","236012","0.0-18.0-0.11","7591","approach_avoid_sv1","""event"",""trial"",""time""
""fullscreenenter"",""1"",""2717""
","
","
","""event"",""trial"",""time""
""fullscreenenter"",""1"",""2717""
","
","","","","","","null","<div style=""font-size:60px;"">+</div>","null","","fixation","","",""
"memory-trial","66","238468","0.0-18.0-1.11","7591","approach_avoid_sv1","""event"",""trial"",""time""
""fullscreenenter"",""1"",""2717""
","
","
","""event"",""trial"",""time""
""fullscreenenter"",""1"",""2717""
","
","","","","","","1450","images/flower5.png","","","memory_trial","2","maybe_old",""
"html-keyboard-response","67","238985","0.0-18.0-0.12","7591","approach_avoid_sv1","""event"",""trial"",""time""
""fullscreenenter"",""1"",""2717""
","
","
","""event"",""trial"",""time""
""fullscreenenter"",""1"",""2717""
","
","","","","","","null","<div style=""font-size:60px;"">+</div>","null","","fixation","","",""
"memory-trial","68","240928","0.0-18.0-1.12","7591","approach_avoid_sv1","""event"",""trial"",""time""
""fullscreenenter"",""1"",""2717""
","
","
","""event"",""trial"",""time""
""fullscreenenter"",""1"",""2717""
","
","","","","","","928.1000000014901","images/goat7.png","","","memory_trial","2","maybe_old",""
"html-keyboard-response","69","241430","0.0-18.0-0.13","7591","approach_avoid_sv1","""event"",""trial"",""time""
""fullscreenenter"",""1"",""2717""
","
","
","""event"",""trial"",""time""
""fullscreenenter"",""1"",""2717""
","
","","","","","","null","<div style=""font-size:60px;"">+</div>","null","","fixation","","",""
"memory-trial","70","244740","0.0-18.0-1.13","7591","approach_avoid_sv1","""event"",""trial"",""time""
""fullscreenenter"",""1"",""2717""
","
","
","""event"",""trial"",""time""
""fullscreenenter"",""1"",""2717""
","
","","","","","","2305.89999999851","images/tree7.png","","","memory_trial","4","definitely_new",""
"html-keyboard-response","71","245248","0.0-18.0-0.14","7591","approach_avoid_sv1","""event"",""trial"",""time""
""fullscreenenter"",""1"",""2717""
","
","
","""event"",""trial"",""time""
""fullscreenenter"",""1"",""2717""
","
","","","","","","null","<div style=""font-size:60px;"">+</div>","null","","fixation","","",""
"memory-trial","72","247737","0.0-18.0-1.14","7591","approach_avoid_sv1","""event"",""trial"",""time""
""fullscreenenter"",""1"",""2717""
","
","
","""event"",""trial"",""time""
""fullscreenenter"",""1"",""2717""
","
","","","","","","1476","images/train7.png","","","memory_trial","4","definitely_new",""
"html-keyboard-response","73","248246","0.0-18.0-0.15","7591","approach_avoid_sv1","""event"",""trial"",""time""
""fullscreenenter"",""1"",""2717""
","
","
","""event"",""trial"",""time""
""fullscreenenter"",""1"",""2717""
","
","","","","","","null","<div style=""font-size:60px;"">+</div>","null","","fixation","","",""
"memory-trial","74","250523","0.0-18.0-1.15","7591","approach_avoid_sv1","""event"",""trial"",""time""
""fullscreenenter"",""1"",""2717""
","
","
","""event"",""trial"",""time""
""fullscreenenter"",""1"",""2717""
","
","","","","","","1268.0999999977648","images/bush2.png","","","memory_trial","2","maybe_old",""
"html-keyboard-response","75","251032","0.0-18.0-0.16","7591","approach_avoid_sv1","""event"",""trial"",""time""
""fullscreenenter"",""1"",""2717""
","
","
","""event"",""trial"",""time""
""fullscreenenter"",""1"",""2717""
","
","","","","","","null","<div style=""font-size:60px;"">+</div>","null","","fixation","","",""
"memory-trial","76","253552","0.0-18.0-1.16","7591","approach_avoid_sv1","""event"",""trial"",""time""
""fullscreenenter"",""1"",""2717""
","
","
","""event"",""trial"",""time""
""fullscreenenter"",""1"",""2717""
","
","","","","","","1514","images/horse7.png","","","memory_trial","4","definitely_new",""
"html-keyboard-response","77","254062","0.0-18.0-0.17","7591","approach_avoid_sv1","""event"",""trial"",""time""
""fullscreenenter"",""1"",""2717""
","
","
","""event"",""trial"",""time""
""fullscreenenter"",""1"",""2717""
","
","","","","","","null","<div style=""font-size:60px;"">+</div>","null","","fixation","","",""
"memory-trial","78","255953","0.0-18.0-1.17","7591","approach_avoid_sv1","""event"",""trial"",""time""
""fullscreenenter"",""1"",""2717""
","
","
","""event"",""trial"",""time""
""fullscreenenter"",""1"",""2717""
","
","","","","","","878.7000000029802","images/banana5.png","","","memory_trial","3","maybe_new",""
"html-keyboard-response","79","256462","0.0-18.0-0.18","7591","approach_avoid_sv1","""event"",""trial"",""time""
""fullscreenenter"",""1"",""2717""
","
","
","""event"",""trial"",""time""
""fullscreenenter"",""1"",""2717""
","
","","","","","","null","<div style=""font-size:60px;"">+</div>","null","","fixation","","",""
"memory-trial","80","258737","0.0-18.0-1.18","7591","approach_avoid_sv1","""event"",""trial"",""time""
""fullscreenenter"",""1"",""2717""
","
","
","""event"",""trial"",""time""
""fullscreenenter"",""1"",""2717""
","
","","","","","","1266.9000000022352","images/sofa4.png","","","memory_trial","4","definitely_new",""
"html-keyboard-response","81","259245","0.0-18.0-0.19","7591","approach_avoid_sv1","""event"",""trial"",""time""
""fullscreenenter"",""1"",""2717""
","
","
","""event"",""trial"",""time""
""fullscreenenter"",""1"",""2717""
","
","","","","","","null","<div style=""font-size:60px;"">+</div>","null","","fixation","","",""
"memory-trial","82","260914","0.0-18.0-1.19","7591","approach_avoid_sv1","""event"",""trial"",""time""
""fullscreenenter"",""1"",""2717""
","
","
","""event"",""trial"",""time""
""fullscreenenter"",""1"",""2717""
","
","","","","","","662.9000000022352","images/sofa6.png","","","memory_trial","4","definitely_new",""
"html-keyboard-response","83","261416","0.0-18.0-0.20","7591","approach_avoid_sv1","""event"",""trial"",""time""
""fullscreenenter"",""1"",""2717""
","
","
","""event"",""trial"",""time""
""fullscreenenter"",""1"",""2717""
","
","","","","","","null","<div style=""font-size:60px;"">+</div>","null","","fixation","","",""
"memory-trial","84","263266","0.0-18.0-1.20","7591","approach_avoid_sv1","""event"",""trial"",""time""
""fullscreenenter"",""1"",""2717""
","
","
","""event"",""trial"",""time""
""fullscreenenter"",""1"",""2717""
","
","","","","","","843.5","images/orange6.png","","","memory_trial","4","definitely_new",""
"html-keyboard-response","85","263768","0.0-18.0-0.21","7591","approach_avoid_sv1","""event"",""trial"",""time""
""fullscreenenter"",""1"",""2717""
","
","
","""event"",""trial"",""time""
""fullscreenenter"",""1"",""2717""
","
","","","","","","null","<div style=""font-size:60px;"">+</div>","null","","fixation","","",""
"memory-trial","86","266129","0.0-18.0-1.21","7591","approach_avoid_sv1","""event"",""trial"",""time""
""fullscreenenter"",""1"",""2717""
","
","
","""event"",""trial"",""time""
""fullscreenenter"",""1"",""2717""
","
","","","","","","1339.4000000022352","images/goat2.png","","","memory_trial","3","maybe_new",""
"html-keyboard-response","87","266634","0.0-18.0-0.22","7591","approach_avoid_sv1","""event"",""trial"",""time""
""fullscreenenter"",""1"",""2717""
","
","
","""event"",""trial"",""time""
""fullscreenenter"",""1"",""2717""
","
","","","","","","null","<div style=""font-size:60px;"">+</div>","null","","fixation","","",""
"memory-trial","88","268647","0.0-18.0-1.22","7591","approach_avoid_sv1","""event"",""trial"",""time""
""fullscreenenter"",""1"",""2717""
","
","
","""event"",""trial"",""time""
""fullscreenenter"",""1"",""2717""
","
","","","","","","1002","images/cactus3.png","","","memory_trial","4","definitely_new",""
"html-keyboard-response","89","269160","0.0-18.0-0.23","7591","approach_avoid_sv1","""event"",""trial"",""time""
""fullscreenenter"",""1"",""2717""
","
","
","""event"",""trial"",""time""
""fullscreenenter"",""1"",""2717""
","
","","","","","","null","<div style=""font-size:60px;"">+</div>","null","","fixation","","",""
"memory-trial","90","271400","0.0-18.0-1.23","7591","approach_avoid_sv1","""event"",""trial"",""time""
""fullscreenenter"",""1"",""2717""
","
","
","""event"",""trial"",""time""
""fullscreenenter"",""1"",""2717""
","
","","","","","","1233.199999999255","images/rodent2.png","","","memory_trial","3","maybe_new",""
"html-keyboard-response","91","271916","0.0-18.0-0.24","7591","approach_avoid_sv1","""event"",""trial"",""time""
""fullscreenenter"",""1"",""2717""
","
","
","""event"",""trial"",""time""
""fullscreenenter"",""1"",""2717""
","
","","","","","","null","<div style=""font-size:60px;"">+</div>","null","","fixation","","",""
"memory-trial","92","274228","0.0-18.0-1.24","7591","approach_avoid_sv1","""event"",""trial"",""time""
""fullscreenenter"",""1"",""2717""
","
","
","""event"",""trial"",""time""
""fullscreenenter"",""1"",""2717""
","
","","","","","","1293","images/train4.png","","","memory_trial","3","maybe_new",""
"html-keyboard-response","93","274732","0.0-18.0-0.25","7591","approach_avoid_sv1","""event"",""trial"",""time""
""fullscreenenter"",""1"",""2717""
","
","
","""event"",""trial"",""time""
""fullscreenenter"",""1"",""2717""
","
","","","","","","null","<div style=""font-size:60px;"">+</div>","null","","fixation","","",""
"memory-trial","94","276589","0.0-18.0-1.25","7591","approach_avoid_sv1","""event"",""trial"",""time""
""fullscreenenter"",""1"",""2717""
","
","
","""event"",""trial"",""time""
""fullscreenenter"",""1"",""2717""
","
","","","","","","836.3000000007451","images/apple1.png","","","memory_trial","3","maybe_new",""
"html-keyboard-response","95","277099","0.0-18.0-0.26","7591","approach_avoid_sv1","""event"",""trial"",""time""
""fullscreenenter"",""1"",""2717""
","
","
","""event"",""trial"",""time""
""fullscreenenter"",""1"",""2717""
","
","","","","","","null","<div style=""font-size:60px;"">+</div>","null","","fixation","","",""
"memory-trial","96","279129","0.0-18.0-1.26","7591","approach_avoid_sv1","""event"",""trial"",""time""
""fullscreenenter"",""1"",""2717""
","
","
","""event"",""trial"",""time""
""fullscreenenter"",""1"",""2717""
","
","","","","","","1021.5","images/banana3.png","","","memory_trial","4","definitely_new",""
"html-keyboard-response","97","279639","0.0-18.0-0.27","7591","approach_avoid_sv1","""event"",""trial"",""time""
""fullscreenenter"",""1"",""2717""
","
","
","""event"",""trial"",""time""
""fullscreenenter"",""1"",""2717""
","
","","","","","","null","<div style=""font-size:60px;"">+</div>","null","","fixation","","",""
"memory-trial","98","281211","0.0-18.0-1.27","7591","approach_avoid_sv1","""event"",""trial"",""time""
""fullscreenenter"",""1"",""2717""
","
","
","""event"",""trial"",""time""
""fullscreenenter"",""1"",""2717""
","
","","","","","","564.1999999992549","images/cat5.png","","","memory_trial","4","definitely_new",""
"html-keyboard-response","99","281715","0.0-18.0-0.28","7591","approach_avoid_sv1","""event"",""trial"",""time""
""fullscreenenter"",""1"",""2717""
","
","
","""event"",""trial"",""time""
""fullscreenenter"",""1"",""2717""
","
","","","","","","null","<div style=""font-size:60px;"">+</div>","null","","fixation","","",""
"memory-trial","100","283564","0.0-18.0-1.28","7591","approach_avoid_sv1","""event"",""trial"",""time""
""fullscreenenter"",""1"",""2717""
","
","
","""event"",""trial"",""time""
""fullscreenenter"",""1"",""2717""
","
","","","","","","845.8000000007451","images/horse5.png","","","memory_trial","4","definitely_new",""
"html-keyboard-response","101","284069","0.0-18.0-0.29","7591","approach_avoid_sv1","""event"",""trial"",""time""
""fullscreenenter"",""1"",""2717""
","
","
","""event"",""trial"",""time""
""fullscreenenter"",""1"",""2717""
","
","","","","","","null","<div style=""font-size:60px;"">+</div>","null","","fixation","","",""
"memory-trial","102","285902","0.0-18.0-1.29","7591","approach_avoid_sv1","""event"",""trial"",""time""
""fullscreenenter"",""1"",""2717""
","
","
","""event"",""trial"",""time""
""fullscreenenter"",""1"",""2717""
","
","","","","","","826","images/chair7.png","","","memory_trial","4","definitely_new",""
"html-keyboard-response","103","286411","0.0-18.0-0.30","7591","approach_avoid_sv1","""event"",""trial"",""time""
""fullscreenenter"",""1"",""2717""
","
","
","""event"",""trial"",""time""
""fullscreenenter"",""1"",""2717""
","
","","","","","","null","<div style=""font-size:60px;"">+</div>","null","","fixation","","",""
"memory-trial","104","287846","0.0-18.0-1.30","7591","approach_avoid_sv1","""event"",""trial"",""time""
""fullscreenenter"",""1"",""2717""
","
","
","""event"",""trial"",""time""
""fullscreenenter"",""1"",""2717""
","
","","","","","","428.80000000074506","images/cactus7.png","","","memory_trial","4","definitely_new",""
"html-keyboard-response","105","288353","0.0-18.0-0.31","7591","approach_avoid_sv1","""event"",""trial"",""time""
""fullscreenenter"",""1"",""2717""
","
","
","""event"",""trial"",""time""
""fullscreenenter"",""1"",""2717""
","
","","","","","","null","<div style=""font-size:60px;"">+</div>","null","","fixation","","",""
"memory-trial","106","290039","0.0-18.0-1.31","7591","approach_avoid_sv1","""event"",""trial"",""time""
""fullscreenenter"",""1"",""2717""
","
","
","""event"",""trial"",""time""
""fullscreenenter"",""1"",""2717""
","
","","","","","","667.2000000029802","images/boat3.png","","","memory_trial","4","definitely_new",""
"html-keyboard-response","107","290547","0.0-18.0-0.32","7591","approach_avoid_sv1","""event"",""trial"",""time""
""fullscreenenter"",""1"",""2717""
","
","
","""event"",""trial"",""time""
""fullscreenenter"",""1"",""2717""
","
","","","","","","null","<div style=""font-size:60px;"">+</div>","null","","fixation","","",""
"memory-trial","108","292211","0.0-18.0-1.32","7591","approach_avoid_sv1","""event"",""trial"",""time""
""fullscreenenter"",""1"",""2717""
","
","
","""event"",""trial"",""time""
""fullscreenenter"",""1"",""2717""
","
","","","","","","660.4000000022352","images/sofa1.png","","","memory_trial","4","definitely_new",""
"html-keyboard-response","109","292720","0.0-18.0-0.33","7591","approach_avoid_sv1","""event"",""trial"",""time""
""fullscreenenter"",""1"",""2717""
","
","
","""event"",""trial"",""time""
""fullscreenenter"",""1"",""2717""
","
","","","","","","null","<div style=""font-size:60px;"">+</div>","null","","fixation","","",""
"memory-trial","110","294331","0.0-18.0-1.33","7591","approach_avoid_sv1","""event"",""trial"",""time""
""fullscreenenter"",""1"",""2717""
","
","
","""event"",""trial"",""time""
""fullscreenenter"",""1"",""2717""
","
","","","","","","604.2999999970198","images/boat5.png","","","memory_trial","4","definitely_new",""
"html-keyboard-response","111","294841","0.0-18.0-0.34","7591","approach_avoid_sv1","""event"",""trial"",""time""
""fullscreenenter"",""1"",""2717""
","
","
","""event"",""trial"",""time""
""fullscreenenter"",""1"",""2717""
","
","","","","","","null","<div style=""font-size:60px;"">+</div>","null","","fixation","","",""
"memory-trial","112","296342","0.0-18.0-1.34","7591","approach_avoid_sv1","""event"",""trial"",""time""
""fullscreenenter"",""1"",""2717""
","
","
","""event"",""trial"",""time""
""fullscreenenter"",""1"",""2717""
","
","","","","","","494.3999999985099","images/apple2.png","","","memory_trial","4","definitely_new",""
"html-keyboard-response","113","296850","0.0-18.0-0.35","7591","approach_avoid_sv1","""event"",""trial"",""time""
""fullscreenenter"",""1"",""2717""
","
","
","""event"",""trial"",""time""
""fullscreenenter"",""1"",""2717""
","
","","","","","","null","<div style=""font-size:60px;"">+</div>","null","","fixation","","",""
"memory-trial","114","298550","0.0-18.0-1.35","7591","approach_avoid_sv1","""event"",""trial"",""time""
""fullscreenenter"",""1"",""2717""
","
","
","""event"",""trial"",""time""
""fullscreenenter"",""1"",""2717""
","
","","","","","","680.3000000007451","images/dog6.png","","","memory_trial","4","definitely_new",""
"html-keyboard-response","115","299058","0.0-18.0-0.36","7591","approach_avoid_sv1","""event"",""trial"",""time""
""fullscreenenter"",""1"",""2717""
","
","
","""event"",""trial"",""time""
""fullscreenenter"",""1"",""2717""
","
","","","","","","null","<div style=""font-size:60px;"">+</div>","null","","fixation","","",""
"memory-trial","116","300765","0.0-18.0-1.36","7591","approach_avoid_sv1","""event"",""trial"",""time""
""fullscreenenter"",""1"",""2717""
","
","
","""event"",""trial"",""time""
""fullscreenenter"",""1"",""2717""
","
","","","","","","697","images/chair5.png","","","memory_trial","4","definitely_new",""
"html-keyboard-response","117","301276","0.0-18.0-0.37","7591","approach_avoid_sv1","""event"",""trial"",""time""
""fullscreenenter"",""1"",""2717""
","
","
","""event"",""trial"",""time""
""fullscreenenter"",""1"",""2717""
","
","","","","","","null","<div style=""font-size:60px;"">+</div>","null","","fixation","","",""
"memory-trial","118","302837","0.0-18.0-1.37","7591","approach_avoid_sv1","""event"",""trial"",""time""
""fullscreenenter"",""1"",""2717""
","
","
","""event"",""trial"",""time""
""fullscreenenter"",""1"",""2717""
","
","","","","","","549","images/rodent7.png","","","memory_trial","4","definitely_new",""
"html-keyboard-response","119","303342","0.0-18.0-0.38","7591","approach_avoid_sv1","""event"",""trial"",""time""
""fullscreenenter"",""1"",""2717""
","
","
","""event"",""trial"",""time""
""fullscreenenter"",""1"",""2717""
","
","","","","","","null","<div style=""font-size:60px;"">+</div>","null","","fixation","","",""
"memory-trial","120","305062","0.0-18.0-1.38","7591","approach_avoid_sv1","""event"",""trial"",""time""
""fullscreenenter"",""1"",""2717""
","
","
","""event"",""trial"",""time""
""fullscreenenter"",""1"",""2717""
","
","","","","","","713.7000000029802","images/horse1.png","","","memory_trial","4","definitely_new",""
"html-keyboard-response","121","305572","0.0-18.0-0.39","7591","approach_avoid_sv1","""event"",""trial"",""time""
""fullscreenenter"",""1"",""2717""
","
","
","""event"",""trial"",""time""
""fullscreenenter"",""1"",""2717""
","
","","","","","","null","<div style=""font-size:60px;"">+</div>","null","","fixation","","",""
"memory-trial","122","307192","0.0-18.0-1.39","7591","approach_avoid_sv1","""event"",""trial"",""time""
""fullscreenenter"",""1"",""2717""
","
","
","""event"",""trial"",""time""
""fullscreenenter"",""1"",""2717""
","
","","","","","","602.1000000014901","images/cow5.png","","","memory_trial","4","definitely_new",""
"html-keyboard-response","123","307695","0.0-18.0-0.40","7591","approach_avoid_sv1","""event"",""trial"",""time""
""fullscreenenter"",""1"",""2717""
","
","
","""event"",""trial"",""time""
""fullscreenenter"",""1"",""2717""
","
","","","","","","null","<div style=""font-size:60px;"">+</div>","null","","fixation","","",""
"memory-trial","124","309588","0.0-18.0-1.40","7591","approach_avoid_sv1","""event"",""trial"",""time""
""fullscreenenter"",""1"",""2717""
","
","
","""event"",""trial"",""time""
""fullscreenenter"",""1"",""2717""
","
","","","","","","887.4000000022352","images/dog4.png","","","memory_trial","4","definitely_new",""
"html-keyboard-response","125","310092","0.0-18.0-0.41","7591","approach_avoid_sv1","""event"",""trial"",""time""
""fullscreenenter"",""1"",""2717""
","
","
","""event"",""trial"",""time""
""fullscreenenter"",""1"",""2717""
","
","","","","","","null","<div style=""font-size:60px;"">+</div>","null","","fixation","","",""
"memory-trial","126","311550","0.0-18.0-1.41","7591","approach_avoid_sv1","""event"",""trial"",""time""
""fullscreenenter"",""1"",""2717""
","
","
","""event"",""trial"",""time""
""fullscreenenter"",""1"",""2717""
","
","","","","","","443.8999999985099","images/rabbit3.png","","","memory_trial","4","definitely_new",""
"html-button-response","127","314037","0.0-18.0-2.41-0.41","7591","approach_avoid_sv1","""event"",""trial"",""time""
""fullscreenenter"",""1"",""2717""
","
","
","""event"",""trial"",""time""
""fullscreenenter"",""1"",""2717""
","
","","","","","","2484.699999999255","<p> Take a break! </p><p> Click the button to continue. </p>","0","","break","","",""
"html-keyboard-response","128","314542","0.0-18.0-0.42","7591","approach_avoid_sv1","""event"",""trial"",""time""
""fullscreenenter"",""1"",""2717""
","
","
","""event"",""trial"",""time""
""fullscreenenter"",""1"",""2717""
","
","","","","","","null","<div style=""font-size:60px;"">+</div>","null","","fixation","","",""
"memory-trial","129","317493","0.0-18.0-1.42","7591","approach_avoid_sv1","""event"",""trial"",""time""
""fullscreenenter"",""1"",""2717""
","
","
","""event"",""trial"",""time""
""fullscreenenter"",""1"",""2717""
","
","","","","","","1942.8999999985099","images/sheep3.png","","","memory_trial","2","maybe_old",""
"html-keyboard-response","130","318001","0.0-18.0-0.43","7591","approach_avoid_sv1","""event"",""trial"",""time""
""fullscreenenter"",""1"",""2717""
","
","
","""event"",""trial"",""time""
""fullscreenenter"",""1"",""2717""
","
","","","","","","null","<div style=""font-size:60px;"">+</div>","null","","fixation","","",""
"memory-trial","131","320444","0.0-18.0-1.43","7591","approach_avoid_sv1","""event"",""trial"",""time""
""fullscreenenter"",""1"",""2717""
","
","
","""event"",""trial"",""time""
""fullscreenenter"",""1"",""2717""
","
","","","","","","1424.199999999255","images/flower3.png","","","memory_trial","3","maybe_new",""
"html-keyboard-response","132","320949","0.0-18.0-0.44","7591","approach_avoid_sv1","""event"",""trial"",""time""
""fullscreenenter"",""1"",""2717""
","
","
","""event"",""trial"",""time""
""fullscreenenter"",""1"",""2717""
","
","","","","","","null","<div style=""font-size:60px;"">+</div>","null","","fixation","","",""
"memory-trial","133","322677","0.0-18.0-1.44","7591","approach_avoid_sv1","""event"",""trial"",""time""
""fullscreenenter"",""1"",""2717""
","
","
","""event"",""trial"",""time""
""fullscreenenter"",""1"",""2717""
","
","","","","","","720.6999999992549","images/banana8.png","","","memory_trial","3","maybe_new",""
"html-keyboard-response","134","323183","0.0-18.0-0.45","7591","approach_avoid_sv1","""event"",""trial"",""time""
""fullscreenenter"",""1"",""2717""
","
","
","""event"",""trial"",""time""
""fullscreenenter"",""1"",""2717""
","
","","","","","","null","<div style=""font-size:60px;"">+</div>","null","","fixation","","",""
"memory-trial","135","324895","0.0-18.0-1.45","7591","approach_avoid_sv1","""event"",""trial"",""time""
""fullscreenenter"",""1"",""2717""
","
","
","""event"",""trial"",""time""
""fullscreenenter"",""1"",""2717""
","
","","","","","","706.9000000022352","images/rodent1.png","","","memory_trial","4","definitely_new",""
"html-keyboard-response","136","325405","0.0-18.0-0.46","7591","approach_avoid_sv1","""event"",""trial"",""time""
""fullscreenenter"",""1"",""2717""
","
","
","""event"",""trial"",""time""
""fullscreenenter"",""1"",""2717""
","
","","","","","","null","<div style=""font-size:60px;"">+</div>","null","","fixation","","",""
"memory-trial","137","327437","0.0-18.0-1.46","7591","approach_avoid_sv1","""event"",""trial"",""time""
""fullscreenenter"",""1"",""2717""
","
","
","""event"",""trial"",""time""
""fullscreenenter"",""1"",""2717""
","
","","","","","","1025","images/flower7.png","","","memory_trial","4","definitely_new",""
"html-keyboard-response","138","327940","0.0-18.0-0.47","7591","approach_avoid_sv1","""event"",""trial"",""time""
""fullscreenenter"",""1"",""2717""
","
","
","""event"",""trial"",""time""
""fullscreenenter"",""1"",""2717""
","
","","","","","","null","<div style=""font-size:60px;"">+</div>","null","","fixation","","",""
"memory-trial","139","329698","0.0-18.0-1.47","7591","approach_avoid_sv1","""event"",""trial"",""time""
""fullscreenenter"",""1"",""2717""
","
","
","""event"",""trial"",""time""
""fullscreenenter"",""1"",""2717""
","
","","","","","","751.1999999992549","images/chair3.png","","","memory_trial","3","maybe_new",""
"html-keyboard-response","140","330207","0.0-18.0-0.48","7591","approach_avoid_sv1","""event"",""trial"",""time""
""fullscreenenter"",""1"",""2717""
","
","
","""event"",""trial"",""time""
""fullscreenenter"",""1"",""2717""
","
","","","","","","null","<div style=""font-size:60px;"">+</div>","null","","fixation","","",""
"memory-trial","141","331674","0.0-18.0-1.48","7591","approach_avoid_sv1","""event"",""trial"",""time""
""fullscreenenter"",""1"",""2717""
","
","
","""event"",""trial"",""time""
""fullscreenenter"",""1"",""2717""
","
","","","","","","460.5","images/chair8.png","","","memory_trial","3","maybe_new",""
"html-keyboard-response","142","332184","0.0-18.0-0.49","7591","approach_avoid_sv1","""event"",""trial"",""time""
""fullscreenenter"",""1"",""2717""
","
","
","""event"",""trial"",""time""
""fullscreenenter"",""1"",""2717""
","
","","","","","","null","<div style=""font-size:60px;"">+</div>","null","","fixation","","",""
"memory-trial","143","333498","0.0-18.0-1.49","7591","approach_avoid_sv1","""event"",""trial"",""time""
""fullscreenenter"",""1"",""2717""
","
","
","""event"",""trial"",""time""
""fullscreenenter"",""1"",""2717""
","
","","","","","","302.30000000074506","images/flower6.png","","","memory_trial","3","maybe_new",""
"html-keyboard-response","144","334003","0.0-18.0-0.50","7591","approach_avoid_sv1","""event"",""trial"",""time""
""fullscreenenter"",""1"",""2717""
","
","
","""event"",""trial"",""time""
""fullscreenenter"",""1"",""2717""
","
","","","","","","null","<div style=""font-size:60px;"">+</div>","null","","fixation","","",""
"memory-trial","145","335211","0.0-18.0-1.50","7591","approach_avoid_sv1","""event"",""trial"",""time""
""fullscreenenter"",""1"",""2717""
","
","
","""event"",""trial"",""time""
""fullscreenenter"",""1"",""2717""
","
","","","","","","198.60000000149012","images/apple5.png","","","memory_trial","3","maybe_new",""
"html-keyboard-response","146","335712","0.0-18.0-0.51","7591","approach_avoid_sv1","""event"",""trial"",""time""
""fullscreenenter"",""1"",""2717""
","
","
","""event"",""trial"",""time""
""fullscreenenter"",""1"",""2717""
","
","","","","","","null","<div style=""font-size:60px;"">+</div>","null","","fixation","","",""
"memory-trial","147","337068","0.0-18.0-1.51","7591","approach_avoid_sv1","""event"",""trial"",""time""
""fullscreenenter"",""1"",""2717""
","
","
","""event"",""trial"",""time""
""fullscreenenter"",""1"",""2717""
","
","","","","","","345.19999999925494","images/bed5.png","","","memory_trial","3","maybe_new",""
"html-keyboard-response","148","337581","0.0-18.0-0.52","7591","approach_avoid_sv1","""event"",""trial"",""time""
""fullscreenenter"",""1"",""2717""
","
","
","""event"",""trial"",""time""
""fullscreenenter"",""1"",""2717""
","
","","","","","","null","<div style=""font-size:60px;"">+</div>","null","","fixation","","",""
"memory-trial","149","339004","0.0-18.0-1.52","7591","approach_avoid_sv1","""event"",""trial"",""time""
""fullscreenenter"",""1"",""2717""
","
","
","""event"",""trial"",""time""
""fullscreenenter"",""1"",""2717""
","
","","","","","","408","images/bush5.png","","","memory_trial","3","maybe_new",""
"html-keyboard-response","150","339511","0.0-18.0-0.53","7591","approach_avoid_sv1","""event"",""trial"",""time""
""fullscreenenter"",""1"",""2717""
","
","
","""event"",""trial"",""time""
""fullscreenenter"",""1"",""2717""
","
","","","","","","null","<div style=""font-size:60px;"">+</div>","null","","fixation","","",""
"memory-trial","151","341435","0.0-18.0-1.53","7591","approach_avoid_sv1","""event"",""trial"",""time""
""fullscreenenter"",""1"",""2717""
","
","
","""event"",""trial"",""time""
""fullscreenenter"",""1"",""2717""
","
","","","","","","905.6999999992549","images/sofa5.png","","","memory_trial","3","maybe_new",""
"html-keyboard-response","152","341950","0.0-18.0-0.54","7591","approach_avoid_sv1","""event"",""trial"",""time""
""fullscreenenter"",""1"",""2717""
","
","
","""event"",""trial"",""time""
""fullscreenenter"",""1"",""2717""
","
","","","","","","null","<div style=""font-size:60px;"">+</div>","null","","fixation","","",""
"memory-trial","153","343605","0.0-18.0-1.54","7591","approach_avoid_sv1","""event"",""trial"",""time""
""fullscreenenter"",""1"",""2717""
","
","
","""event"",""trial"",""time""
""fullscreenenter"",""1"",""2717""
","
","","","","","","644.4000000022352","images/straw2.png","","","memory_trial","4","definitely_new",""
"html-keyboard-response","154","344118","0.0-18.0-0.55","7591","approach_avoid_sv1","""event"",""trial"",""time""
""fullscreenenter"",""1"",""2717""
","
","
","""event"",""trial"",""time""
""fullscreenenter"",""1"",""2717""
","
","","","","","","null","<div style=""font-size:60px;"">+</div>","null","","fixation","","",""
"memory-trial","155","345746","0.0-18.0-1.55","7591","approach_avoid_sv1","""event"",""trial"",""time""
""fullscreenenter"",""1"",""2717""
","
","
","""event"",""trial"",""time""
""fullscreenenter"",""1"",""2717""
","
","","","","","","616.1000000014901","images/boat6.png","","","memory_trial","4","definitely_new",""
"html-keyboard-response","156","346258","0.0-18.0-0.56","7591","approach_avoid_sv1","""event"",""trial"",""time""
""fullscreenenter"",""1"",""2717""
","
","
","""event"",""trial"",""time""
""fullscreenenter"",""1"",""2717""
","
","","","","","","null","<div style=""font-size:60px;"">+</div>","null","","fixation","","",""
"memory-trial","157","347672","0.0-18.0-1.56","7591","approach_avoid_sv1","""event"",""trial"",""time""
""fullscreenenter"",""1"",""2717""
","
","
","""event"",""trial"",""time""
""fullscreenenter"",""1"",""2717""
","
","","","","","","401.8999999985099","images/horse8.png","","","memory_trial","4","definitely_new",""
"html-keyboard-response","158","348183","0.0-18.0-0.57","7591","approach_avoid_sv1","""event"",""trial"",""time""
""fullscreenenter"",""1"",""2717""
","
","
","""event"",""trial"",""time""
""fullscreenenter"",""1"",""2717""
","
","","","","","","null","<div style=""font-size:60px;"">+</div>","null","","fixation","","",""
"memory-trial","159","349473","0.0-18.0-1.57","7591","approach_avoid_sv1","""event"",""trial"",""time""
""fullscreenenter"",""1"",""2717""
","
","
","""event"",""trial"",""time""
""fullscreenenter"",""1"",""2717""
","
","","","","","","278.30000000074506","images/orange8.png","","","memory_trial","3","maybe_new",""
"html-keyboard-response","160","349982","0.0-18.0-0.58","7591","approach_avoid_sv1","""event"",""trial"",""time""
""fullscreenenter"",""1"",""2717""
","
","
","""event"",""trial"",""time""
""fullscreenenter"",""1"",""2717""
","
","","","","","","null","<div style=""font-size:60px;"">+</div>","null","","fixation","","",""
"memory-trial","161","351293","0.0-18.0-1.58","7591","approach_avoid_sv1","""event"",""trial"",""time""
""fullscreenenter"",""1"",""2717""
","
","
","""event"",""trial"",""time""
""fullscreenenter"",""1"",""2717""
","
","","","","","","294.0999999977648","images/boat7.png","","","memory_trial","4","definitely_new",""
"html-keyboard-response","162","351801","0.0-18.0-0.59","7591","approach_avoid_sv1","""event"",""trial"",""time""
""fullscreenenter"",""1"",""2717""
","
","
","""event"",""trial"",""time""
""fullscreenenter"",""1"",""2717""
","
","","","","","","null","<div style=""font-size:60px;"">+</div>","null","","fixation","","",""
"memory-trial","163","353400","0.0-18.0-1.59","7591","approach_avoid_sv1","""event"",""trial"",""time""
""fullscreenenter"",""1"",""2717""
","
","
","""event"",""trial"",""time""
""fullscreenenter"",""1"",""2717""
","
","","","","","","580.0999999977648","images/orange2.png","","","memory_trial","4","definitely_new",""
"html-keyboard-response","164","353914","0.0-18.0-0.60","7591","approach_avoid_sv1","""event"",""trial"",""time""
""fullscreenenter"",""1"",""2717""
","
","
","""event"",""trial"",""time""
""fullscreenenter"",""1"",""2717""
","
","","","","","","null","<div style=""font-size:60px;"">+</div>","null","","fixation","","",""
"memory-trial","165","355249","0.0-18.0-1.60","7591","approach_avoid_sv1","""event"",""trial"",""time""
""fullscreenenter"",""1"",""2717""
","
","
","""event"",""trial"",""time""
""fullscreenenter"",""1"",""2717""
","
","","","","","","328.69999999925494","images/apple7.png","","","memory_trial","4","definitely_new",""
"html-keyboard-response","166","355759","0.0-18.0-0.61","7591","approach_avoid_sv1","""event"",""trial"",""time""
""fullscreenenter"",""1"",""2717""
","
","
","""event"",""trial"",""time""
""fullscreenenter"",""1"",""2717""
","
","","","","","","null","<div style=""font-size:60px;"">+</div>","null","","fixation","","",""
"memory-trial","167","357269","0.0-18.0-1.61","7591","approach_avoid_sv1","""event"",""trial"",""time""
""fullscreenenter"",""1"",""2717""
","
","
","""event"",""trial"",""time""
""fullscreenenter"",""1"",""2717""
","
","","","","","","490.9000000022352","images/rabbit2.png","","","memory_trial","4","definitely_new",""
"html-keyboard-response","168","357776","0.0-18.0-0.62","7591","approach_avoid_sv1","""event"",""trial"",""time""
""fullscreenenter"",""1"",""2717""
","
","
","""event"",""trial"",""time""
""fullscreenenter"",""1"",""2717""
","
","","","","","","null","<div style=""font-size:60px;"">+</div>","null","","fixation","","",""
"memory-trial","169","359395","0.0-18.0-1.62","7591","approach_avoid_sv1","""event"",""trial"",""time""
""fullscreenenter"",""1"",""2717""
","
","
","""event"",""trial"",""time""
""fullscreenenter"",""1"",""2717""
","
","","","","","","613.3999999985099","images/bush8.png","","","memory_trial","4","definitely_new",""
"html-keyboard-response","170","359903","0.0-18.0-0.63","7591","approach_avoid_sv1","""event"",""trial"",""time""
""fullscreenenter"",""1"",""2717""
","
","
","""event"",""trial"",""time""
""fullscreenenter"",""1"",""2717""
","
","","","","","","null","<div style=""font-size:60px;"">+</div>","null","","fixation","","",""
"memory-trial","171","361199","0.0-18.0-1.63","7591","approach_avoid_sv1","""event"",""trial"",""time""
""fullscreenenter"",""1"",""2717""
","
","
","""event"",""trial"",""time""
""fullscreenenter"",""1"",""2717""
","
","","","","","","291.4000000022352","images/banana7.png","","","memory_trial","3","maybe_new",""
"html-keyboard-response","172","361702","0.0-18.0-0.64","7591","approach_avoid_sv1","""event"",""trial"",""time""
""fullscreenenter"",""1"",""2717""
","
","
","""event"",""trial"",""time""
""fullscreenenter"",""1"",""2717""
","
","","","","","","null","<div style=""font-size:60px;"">+</div>","null","","fixation","","",""
"memory-trial","173","363174","0.0-18.0-1.64","7591","approach_avoid_sv1","""event"",""trial"",""time""
""fullscreenenter"",""1"",""2717""
","
","
","""event"",""trial"",""time""
""fullscreenenter"",""1"",""2717""
","
","","","","","","459.69999999925494","images/straw7.png","","","memory_trial","3","maybe_new",""
"html-keyboard-response","174","363677","0.0-18.0-0.65","7591","approach_avoid_sv1","""event"",""trial"",""time""
""fullscreenenter"",""1"",""2717""
","
","
","""event"",""trial"",""time""
""fullscreenenter"",""1"",""2717""
","
","","","","","","null","<div style=""font-size:60px;"">+</div>","null","","fixation","","",""
"memory-trial","175","365156","0.0-18.0-1.65","7591","approach_avoid_sv1","""event"",""trial"",""time""
""fullscreenenter"",""1"",""2717""
","
","
","""event"",""trial"",""time""
""fullscreenenter"",""1"",""2717""
","
","","","","","","463.3999999985099","images/bed3.png","","","memory_trial","4","definitely_new",""
"html-keyboard-response","176","365667","0.0-18.0-0.66","7591","approach_avoid_sv1","""event"",""trial"",""time""
""fullscreenenter"",""1"",""2717""
","
","
","""event"",""trial"",""time""
""fullscreenenter"",""1"",""2717""
","
","","","","","","null","<div style=""font-size:60px;"">+</div>","null","","fixation","","",""
"memory-trial","177","367125","0.0-18.0-1.66","7591","approach_avoid_sv1","""event"",""trial"",""time""
""fullscreenenter"",""1"",""2717""
","
","
","""event"",""trial"",""time""
""fullscreenenter"",""1"",""2717""
","
","","","","","","442.8999999985099","images/horse2.png","","","memory_trial","4","definitely_new",""
"html-keyboard-response","178","367635","0.0-18.0-0.67","7591","approach_avoid_sv1","""event"",""trial"",""time""
""fullscreenenter"",""1"",""2717""
","
","
","""event"",""trial"",""time""
""fullscreenenter"",""1"",""2717""
","
","","","","","","null","<div style=""font-size:60px;"">+</div>","null","","fixation","","",""
"memory-trial","179","369067","0.0-18.0-1.67","7591","approach_avoid_sv1","""event"",""trial"",""time""
""fullscreenenter"",""1"",""2717""
","
","
","""event"",""trial"",""time""
""fullscreenenter"",""1"",""2717""
","
","","","","","","427","images/chair4.png","","","memory_trial","3","maybe_new",""
"html-keyboard-response","180","369571","0.0-18.0-0.68","7591","approach_avoid_sv1","""event"",""trial"",""time""
""fullscreenenter"",""1"",""2717""
","
","
","""event"",""trial"",""time""
""fullscreenenter"",""1"",""2717""
","
","","","","","","null","<div style=""font-size:60px;"">+</div>","null","","fixation","","",""
"memory-trial","181","372311","0.0-18.0-1.68","7591","approach_avoid_sv1","""event"",""trial"",""time""
""fullscreenenter"",""1"",""2717""
","
","
","""event"",""trial"",""time""
""fullscreenenter"",""1"",""2717""
","
","","","","","","1719.5","images/truck7.png","","","memory_trial","1","definitely_old",""
"html-keyboard-response","182","372815","0.0-18.0-0.69","7591","approach_avoid_sv1","""event"",""trial"",""time""
""fullscreenenter"",""1"",""2717""
","
","
","""event"",""trial"",""time""
""fullscreenenter"",""1"",""2717""
","
","","","","","","null","<div style=""font-size:60px;"">+</div>","null","","fixation","","",""
"memory-trial","183","374415","0.0-18.0-1.69","7591","approach_avoid_sv1","""event"",""trial"",""time""
""fullscreenenter"",""1"",""2717""
","
","
","""event"",""trial"",""time""
""fullscreenenter"",""1"",""2717""
","
","","","","","","592.8000000007451","images/cactus6.png","","","memory_trial","2","maybe_old",""
"html-keyboard-response","184","374925","0.0-18.0-0.70","7591","approach_avoid_sv1","""event"",""trial"",""time""
""fullscreenenter"",""1"",""2717""
","
","
","""event"",""trial"",""time""
""fullscreenenter"",""1"",""2717""
","
","","","","","","null","<div style=""font-size:60px;"">+</div>","null","","fixation","","",""
"memory-trial","185","376474","0.0-18.0-1.70","7591","approach_avoid_sv1","""event"",""trial"",""time""
""fullscreenenter"",""1"",""2717""
","
","
","""event"",""trial"",""time""
""fullscreenenter"",""1"",""2717""
","
","","","","","","537.5","images/table5.png","","","memory_trial","3","maybe_new",""
"html-keyboard-response","186","376990","0.0-18.0-0.71","7591","approach_avoid_sv1","""event"",""trial"",""time""
""fullscreenenter"",""1"",""2717""
","
","
","""event"",""trial"",""time""
""fullscreenenter"",""1"",""2717""
","
","","","","","","null","<div style=""font-size:60px;"">+</div>","null","","fixation","","",""
"memory-trial","187","379147","0.0-18.0-1.71","7591","approach_avoid_sv1","""event"",""trial"",""time""
""fullscreenenter"",""1"",""2717""
","
","
","""event"",""trial"",""time""
""fullscreenenter"",""1"",""2717""
","
","","","","","","1139.0999999977648","images/sheep8.png","","","memory_trial","3","maybe_new",""
"html-keyboard-response","188","379658","0.0-18.0-0.72","7591","approach_avoid_sv1","""event"",""trial"",""time""
""fullscreenenter"",""1"",""2717""
","
","
","""event"",""trial"",""time""
""fullscreenenter"",""1"",""2717""
","
","","","","","","null","<div style=""font-size:60px;"">+</div>","null","","fixation","","",""
"memory-trial","189","381379","0.0-18.0-1.72","7591","approach_avoid_sv1","""event"",""trial"",""time""
""fullscreenenter"",""1"",""2717""
","
","
","""event"",""trial"",""time""
""fullscreenenter"",""1"",""2717""
","
","","","","","","710.6999999992549","images/straw5.png","","","memory_trial","3","maybe_new",""
"html-keyboard-response","190","381893","0.0-18.0-0.73","7591","approach_avoid_sv1","""event"",""trial"",""time""
""fullscreenenter"",""1"",""2717""
","
","
","""event"",""trial"",""time""
""fullscreenenter"",""1"",""2717""
","
","","","","","","null","<div style=""font-size:60px;"">+</div>","null","","fixation","","",""
"memory-trial","191","385205","0.0-18.0-1.73","7591","approach_avoid_sv1","""event"",""trial"",""time""
""fullscreenenter"",""1"",""2717""
","
","
","""event"",""trial"",""time""
""fullscreenenter"",""1"",""2717""
","
","","","","","","2296.5","images/straw3.png","","","memory_trial","4","definitely_new",""
"html-keyboard-response","192","385711","0.0-18.0-0.74","7591","approach_avoid_sv1","""event"",""trial"",""time""
""fullscreenenter"",""1"",""2717""
","
","
","""event"",""trial"",""time""
""fullscreenenter"",""1"",""2717""
","
","","","","","","null","<div style=""font-size:60px;"">+</div>","null","","fixation","","",""
"memory-trial","193","387120","0.0-18.0-1.74","7591","approach_avoid_sv1","""event"",""trial"",""time""
""fullscreenenter"",""1"",""2717""
","
","
","""event"",""trial"",""time""
""fullscreenenter"",""1"",""2717""
","
","","","","","","391.1000000014901","images/banana1.png","","","memory_trial","3","maybe_new",""
"html-keyboard-response","194","387622","0.0-18.0-0.75","7591","approach_avoid_sv1","""event"",""trial"",""time""
""fullscreenenter"",""1"",""2717""
","
","
","""event"",""trial"",""time""
""fullscreenenter"",""1"",""2717""
","
","","","","","","null","<div style=""font-size:60px;"">+</div>","null","","fixation","","",""
"memory-trial","195","389220","0.0-18.0-1.75","7591","approach_avoid_sv1","""event"",""trial"",""time""
""fullscreenenter"",""1"",""2717""
","
","
","""event"",""trial"",""time""
""fullscreenenter"",""1"",""2717""
","
","","","","","","592.8999999985099","images/plane7.png","","","memory_trial","2","maybe_old",""
"html-keyboard-response","196","389727","0.0-18.0-0.76","7591","approach_avoid_sv1","""event"",""trial"",""time""
""fullscreenenter"",""1"",""2717""
","
","
","""event"",""trial"",""time""
""fullscreenenter"",""1"",""2717""
","
","","","","","","null","<div style=""font-size:60px;"">+</div>","null","","fixation","","",""
"memory-trial","197","391199","0.0-18.0-1.76","7591","approach_avoid_sv1","""event"",""trial"",""time""
""fullscreenenter"",""1"",""2717""
","
","
","""event"",""trial"",""time""
""fullscreenenter"",""1"",""2717""
","
","","","","","","463.1000000014901","images/dog8.png","","","memory_trial","3","maybe_new",""
"html-keyboard-response","198","391709","0.0-18.0-0.77","7591","approach_avoid_sv1","""event"",""trial"",""time""
""fullscreenenter"",""1"",""2717""
","
","
","""event"",""trial"",""time""
""fullscreenenter"",""1"",""2717""
","
","","","","","","null","<div style=""font-size:60px;"">+</div>","null","","fixation","","",""
"memory-trial","199","393258","0.0-18.0-1.77","7591","approach_avoid_sv1","""event"",""trial"",""time""
""fullscreenenter"",""1"",""2717""
","
","
","""event"",""trial"",""time""
""fullscreenenter"",""1"",""2717""
","
","","","","","","540.3999999985099","images/horse4.png","","","memory_trial","4","definitely_new",""
"html-keyboard-response","200","393760","0.0-18.0-0.78","7591","approach_avoid_sv1","""event"",""trial"",""time""
""fullscreenenter"",""1"",""2717""
","
","
","""event"",""trial"",""time""
""fullscreenenter"",""1"",""2717""
","
","","","","","","null","<div style=""font-size:60px;"">+</div>","null","","fixation","","",""
"memory-trial","201","395294","0.0-18.0-1.78","7591","approach_avoid_sv1","""event"",""trial"",""time""
""fullscreenenter"",""1"",""2717""
","
","
","""event"",""trial"",""time""
""fullscreenenter"",""1"",""2717""
","
","","","","","","518.1999999992549","images/dog7.png","","","memory_trial","4","definitely_new",""
"html-keyboard-response","202","395799","0.0-18.0-0.79","7591","approach_avoid_sv1","""event"",""trial"",""time""
""fullscreenenter"",""1"",""2717""
","
","
","""event"",""trial"",""time""
""fullscreenenter"",""1"",""2717""
","
","","","","","","null","<div style=""font-size:60px;"">+</div>","null","","fixation","","",""
"memory-trial","203","397394","0.0-18.0-1.79","7591","approach_avoid_sv1","""event"",""trial"",""time""
""fullscreenenter"",""1"",""2717""
","
","
","""event"",""trial"",""time""
""fullscreenenter"",""1"",""2717""
","
","","","","","","588.5","images/horse6.png","","","memory_trial","4","definitely_new",""
"html-keyboard-response","204","397896","0.0-18.0-0.80","7591","approach_avoid_sv1","""event"",""trial"",""time""
""fullscreenenter"",""1"",""2717""
","
","
","""event"",""trial"",""time""
""fullscreenenter"",""1"",""2717""
","
","","","","","","null","<div style=""font-size:60px;"">+</div>","null","","fixation","","",""
"memory-trial","205","399312","0.0-18.0-1.80","7591","approach_avoid_sv1","""event"",""trial"",""time""
""fullscreenenter"",""1"",""2717""
","
","
","""event"",""trial"",""time""
""fullscreenenter"",""1"",""2717""
","
","","","","","","400.30000000074506","images/goat8.png","","","memory_trial","3","maybe_new",""
"html-keyboard-response","206","399814","0.0-18.0-0.81","7591","approach_avoid_sv1","""event"",""trial"",""time""
""fullscreenenter"",""1"",""2717""
","
","
","""event"",""trial"",""time""
""fullscreenenter"",""1"",""2717""
","
","","","","","","null","<div style=""font-size:60px;"">+</div>","null","","fixation","","",""
"memory-trial","207","402340","0.0-18.0-1.81","7591","approach_avoid_sv1","""event"",""trial"",""time""
""fullscreenenter"",""1"",""2717""
","
","
","""event"",""trial"",""time""
""fullscreenenter"",""1"",""2717""
","
","","","","","","1515.1000000014901","images/orange5.png","","","memory_trial","3","maybe_new",""
"html-keyboard-response","208","402855","0.0-18.0-0.82","7591","approach_avoid_sv1","""event"",""trial"",""time""
""fullscreenenter"",""1"",""2717""
","
","
","""event"",""trial"",""time""
""fullscreenenter"",""1"",""2717""
","
","","","","","","null","<div style=""font-size:60px;"">+</div>","null","","fixation","","",""
"memory-trial","209","404463","0.0-18.0-1.82","7591","approach_avoid_sv1","""event"",""trial"",""time""
""fullscreenenter"",""1"",""2717""
","
","
","""event"",""trial"",""time""
""fullscreenenter"",""1"",""2717""
","
","","","","","","597.5999999977648","images/table4.png","","","memory_trial","3","maybe_new",""
"html-keyboard-response","210","404978","0.0-18.0-0.83","7591","approach_avoid_sv1","""event"",""trial"",""time""
""fullscreenenter"",""1"",""2717""
","
","
","""event"",""trial"",""time""
""fullscreenenter"",""1"",""2717""
","
","","","","","","null","<div style=""font-size:60px;"">+</div>","null","","fixation","","",""
"memory-trial","211","406254","0.0-18.0-1.83","7591","approach_avoid_sv1","""event"",""trial"",""time""
""fullscreenenter"",""1"",""2717""
","
","
","""event"",""trial"",""time""
""fullscreenenter"",""1"",""2717""
","
","","","","","","268","images/sheep1.png","","","memory_trial","3","maybe_new",""
"html-keyboard-response","212","406759","0.0-18.0-0.84","7591","approach_avoid_sv1","""event"",""trial"",""time""
""fullscreenenter"",""1"",""2717""
","
","
","""event"",""trial"",""time""
""fullscreenenter"",""1"",""2717""
","
","","","","","","null","<div style=""font-size:60px;"">+</div>","null","","fixation","","",""
"memory-trial","213","408865","0.0-18.0-1.84","7591","approach_avoid_sv1","""event"",""trial"",""time""
""fullscreenenter"",""1"",""2717""
","
","
","""event"",""trial"",""time""
""fullscreenenter"",""1"",""2717""
","
","","","","","","1101.1000000014901","images/tree4.png","","","memory_trial","4","definitely_new",""
"html-keyboard-response","214","409375","0.0-18.0-0.85","7591","approach_avoid_sv1","""event"",""trial"",""time""
""fullscreenenter"",""1"",""2717""
","
","
","""event"",""trial"",""time""
""fullscreenenter"",""1"",""2717""
","
","","","","","","null","<div style=""font-size:60px;"">+</div>","null","","fixation","","",""
"memory-trial","215","411028","0.0-18.0-1.85","7591","approach_avoid_sv1","""event"",""trial"",""time""
""fullscreenenter"",""1"",""2717""
","
","
","""event"",""trial"",""time""
""fullscreenenter"",""1"",""2717""
","
","","","","","","635.2999999970198","images/boat1.png","","","memory_trial","4","definitely_new",""
"html-keyboard-response","216","411530","0.0-18.0-0.86","7591","approach_avoid_sv1","""event"",""trial"",""time""
""fullscreenenter"",""1"",""2717""
","
","
","""event"",""trial"",""time""
""fullscreenenter"",""1"",""2717""
","
","","","","","","null","<div style=""font-size:60px;"">+</div>","null","","fixation","","",""
"memory-trial","217","413125","0.0-18.0-1.86","7591","approach_avoid_sv1","""event"",""trial"",""time""
""fullscreenenter"",""1"",""2717""
","
","
","""event"",""trial"",""time""
""fullscreenenter"",""1"",""2717""
","
","","","","","","579.9000000022352","images/rabbit1.png","","","memory_trial","4","definitely_new",""
"html-keyboard-response","218","413630","0.0-18.0-0.87","7591","approach_avoid_sv1","""event"",""trial"",""time""
""fullscreenenter"",""1"",""2717""
","
","
","""event"",""trial"",""time""
""fullscreenenter"",""1"",""2717""
","
","","","","","","null","<div style=""font-size:60px;"">+</div>","null","","fixation","","",""
"memory-trial","219","415425","0.0-18.0-1.87","7591","approach_avoid_sv1","""event"",""trial"",""time""
""fullscreenenter"",""1"",""2717""
","
","
","""event"",""trial"",""time""
""fullscreenenter"",""1"",""2717""
","
","","","","","","788.8999999985099","images/tree5.png","","","memory_trial","3","maybe_new",""
"html-keyboard-response","220","415937","0.0-18.0-0.88","7591","approach_avoid_sv1","""event"",""trial"",""time""
""fullscreenenter"",""1"",""2717""
","
","
","""event"",""trial"",""time""
""fullscreenenter"",""1"",""2717""
","
","","","","","","null","<div style=""font-size:60px;"">+</div>","null","","fixation","","",""
"memory-trial","221","417896","0.0-18.0-1.88","7591","approach_avoid_sv1","""event"",""trial"",""time""
""fullscreenenter"",""1"",""2717""
","
","
","""event"",""trial"",""time""
""fullscreenenter"",""1"",""2717""
","
","","","","","","947.5","images/sheep6.png","","","memory_trial","2","maybe_old",""
"html-keyboard-response","222","418402","0.0-18.0-0.89","7591","approach_avoid_sv1","""event"",""trial"",""time""
""fullscreenenter"",""1"",""2717""
","
","
","""event"",""trial"",""time""
""fullscreenenter"",""1"",""2717""
","
","","","","","","null","<div style=""font-size:60px;"">+</div>","null","","fixation","","",""
"memory-trial","223","420412","0.0-18.0-1.89","7591","approach_avoid_sv1","""event"",""trial"",""time""
""fullscreenenter"",""1"",""2717""
","
","
","""event"",""trial"",""time""
""fullscreenenter"",""1"",""2717""
","
","","","","","","1004.5999999977648","images/rabbit7.png","","","memory_trial","3","maybe_new",""
"html-keyboard-response","224","420924","0.0-18.0-0.90","7591","approach_avoid_sv1","""event"",""trial"",""time""
""fullscreenenter"",""1"",""2717""
","
","
","""event"",""trial"",""time""
""fullscreenenter"",""1"",""2717""
","
","","","","","","null","<div style=""font-size:60px;"">+</div>","null","","fixation","","",""
"memory-trial","225","422757","0.0-18.0-1.90","7591","approach_avoid_sv1","""event"",""trial"",""time""
""fullscreenenter"",""1"",""2717""
","
","
","""event"",""trial"",""time""
""fullscreenenter"",""1"",""2717""
","
","","","","","","823","images/bush6.png","","","memory_trial","4","definitely_new",""
"html-keyboard-response","226","423266","0.0-18.0-0.91","7591","approach_avoid_sv1","""event"",""trial"",""time""
""fullscreenenter"",""1"",""2717""
","
","
","""event"",""trial"",""time""
""fullscreenenter"",""1"",""2717""
","
","","","","","","null","<div style=""font-size:60px;"">+</div>","null","","fixation","","",""
"memory-trial","227","425196","0.0-18.0-1.91","7591","approach_avoid_sv1","""event"",""trial"",""time""
""fullscreenenter"",""1"",""2717""
","
","
","""event"",""trial"",""time""
""fullscreenenter"",""1"",""2717""
","
","","","","","","923.6000000014901","images/cat1.png","","","memory_trial","4","definitely_new",""
"html-button-response","228","427562","0.0-18.0-2.91-0.91","7591","approach_avoid_sv1","""event"",""trial"",""time""
""fullscreenenter"",""1"",""2717""
","
","
","""event"",""trial"",""time""
""fullscreenenter"",""1"",""2717""
","
","","","","","","2363.599999997765","<p> Take a break! </p><p> Click the button to continue. </p>","0","","break","","",""
"html-keyboard-response","229","428071","0.0-18.0-0.92","7591","approach_avoid_sv1","""event"",""trial"",""time""
""fullscreenenter"",""1"",""2717""
","
","
","""event"",""trial"",""time""
""fullscreenenter"",""1"",""2717""
","
","","","","","","null","<div style=""font-size:60px;"">+</div>","null","","fixation","","",""
"memory-trial","230","431904","0.0-18.0-1.92","7591","approach_avoid_sv1","""event"",""trial"",""time""
""fullscreenenter"",""1"",""2717""
","
","
","""event"",""trial"",""time""
""fullscreenenter"",""1"",""2717""
","
","","","","","","2820.10000000149","images/bed2.png","","","memory_trial","4","definitely_new",""
"html-keyboard-response","231","432413","0.0-18.0-0.93","7591","approach_avoid_sv1","""event"",""trial"",""time""
""fullscreenenter"",""1"",""2717""
","
","
","""event"",""trial"",""time""
""fullscreenenter"",""1"",""2717""
","
","","","","","","null","<div style=""font-size:60px;"">+</div>","null","","fixation","","",""
"memory-trial","232","433859","0.0-18.0-1.93","7591","approach_avoid_sv1","""event"",""trial"",""time""
""fullscreenenter"",""1"",""2717""
","
","
","""event"",""trial"",""time""
""fullscreenenter"",""1"",""2717""
","
","","","","","","436.5","images/horse3.png","","","memory_trial","4","definitely_new",""
"html-keyboard-response","233","434361","0.0-18.0-0.94","7591","approach_avoid_sv1","""event"",""trial"",""time""
""fullscreenenter"",""1"",""2717""
","
","
","""event"",""trial"",""time""
""fullscreenenter"",""1"",""2717""
","
","","","","","","null","<div style=""font-size:60px;"">+</div>","null","","fixation","","",""
"memory-trial","234","435854","0.0-18.0-1.94","7591","approach_avoid_sv1","""event"",""trial"",""time""
""fullscreenenter"",""1"",""2717""
","
","
","""event"",""trial"",""time""
""fullscreenenter"",""1"",""2717""
","
","","","","","","484.80000000074506","images/flower1.png","","","memory_trial","4","definitely_new",""
"html-keyboard-response","235","436359","0.0-18.0-0.95","7591","approach_avoid_sv1","""event"",""trial"",""time""
""fullscreenenter"",""1"",""2717""
","
","
","""event"",""trial"",""time""
""fullscreenenter"",""1"",""2717""
","
","","","","","","null","<div style=""font-size:60px;"">+</div>","null","","fixation","","",""
"memory-trial","236","437779","0.0-18.0-1.95","7591","approach_avoid_sv1","""event"",""trial"",""time""
""fullscreenenter"",""1"",""2717""
","
","
","""event"",""trial"",""time""
""fullscreenenter"",""1"",""2717""
","
","","","","","","414.69999999925494","images/tree8.png","","","memory_trial","4","definitely_new",""
"html-keyboard-response","237","438282","0.0-18.0-0.96","7591","approach_avoid_sv1","""event"",""trial"",""time""
""fullscreenenter"",""1"",""2717""
","
","
","""event"",""trial"",""time""
""fullscreenenter"",""1"",""2717""
","
","","","","","","null","<div style=""font-size:60px;"">+</div>","null","","fixation","","",""
"memory-trial","238","440278","0.0-18.0-1.96","7591","approach_avoid_sv1","""event"",""trial"",""time""
""fullscreenenter"",""1"",""2717""
","
","
","""event"",""trial"",""time""
""fullscreenenter"",""1"",""2717""
","
","","","","","","991.8000000007451","images/cactus1.png","","","memory_trial","3","maybe_new",""
"html-keyboard-response","239","440785","0.0-18.0-0.97","7591","approach_avoid_sv1","""event"",""trial"",""time""
""fullscreenenter"",""1"",""2717""
","
","
","""event"",""trial"",""time""
""fullscreenenter"",""1"",""2717""
","
","","","","","","null","<div style=""font-size:60px;"">+</div>","null","","fixation","","",""
"memory-trial","240","442587","0.0-18.0-1.97","7591","approach_avoid_sv1","""event"",""trial"",""time""
""fullscreenenter"",""1"",""2717""
","
","
","""event"",""trial"",""time""
""fullscreenenter"",""1"",""2717""
","
","","","","","","796.8999999985099","images/plane2.png","","","memory_trial","3","maybe_new",""
"html-keyboard-response","241","443091","0.0-18.0-0.98","7591","approach_avoid_sv1","""event"",""trial"",""time""
""fullscreenenter"",""1"",""2717""
","
","
","""event"",""trial"",""time""
""fullscreenenter"",""1"",""2717""
","
","","","","","","null","<div style=""font-size:60px;"">+</div>","null","","fixation","","",""
"memory-trial","242","445020","0.0-18.0-1.98","7591","approach_avoid_sv1","""event"",""trial"",""time""
""fullscreenenter"",""1"",""2717""
","
","
","""event"",""trial"",""time""
""fullscreenenter"",""1"",""2717""
","
","","","","","","916.7999999970198","images/rabbit5.png","","","memory_trial","2","maybe_old",""
"html-keyboard-response","243","445528","0.0-18.0-0.99","7591","approach_avoid_sv1","""event"",""trial"",""time""
""fullscreenenter"",""1"",""2717""
","
","
","""event"",""trial"",""time""
""fullscreenenter"",""1"",""2717""
","
","","","","","","null","<div style=""font-size:60px;"">+</div>","null","","fixation","","",""
"memory-trial","244","447001","0.0-18.0-1.99","7591","approach_avoid_sv1","""event"",""trial"",""time""
""fullscreenenter"",""1"",""2717""
","
","
","""event"",""trial"",""time""
""fullscreenenter"",""1"",""2717""
","
","","","","","","467.29999999701977","images/plane3.png","","","memory_trial","3","maybe_new",""
"html-keyboard-response","245","447516","0.0-18.0-0.100","7591","approach_avoid_sv1","""event"",""trial"",""time""
""fullscreenenter"",""1"",""2717""
","
","
","""event"",""trial"",""time""
""fullscreenenter"",""1"",""2717""
","
","","","","","","null","<div style=""font-size:60px;"">+</div>","null","","fixation","","",""
"memory-trial","246","450260","0.0-18.0-1.100","7591","approach_avoid_sv1","""event"",""trial"",""time""
""fullscreenenter"",""1"",""2717""
","
","
","""event"",""trial"",""time""
""fullscreenenter"",""1"",""2717""
","
","","","","","","1732.2999999970198","images/train8.png","","","memory_trial","1","definitely_old",""
"html-keyboard-response","247","450763","0.0-18.0-0.101","7591","approach_avoid_sv1","""event"",""trial"",""time""
""fullscreenenter"",""1"",""2717""
","
","
","""event"",""trial"",""time""
""fullscreenenter"",""1"",""2717""
","
","","","","","","null","<div style=""font-size:60px;"">+</div>","null","","fixation","","",""
"memory-trial","248","452502","0.0-18.0-1.101","7591","approach_avoid_sv1","""event"",""trial"",""time""
""fullscreenenter"",""1"",""2717""
","
","
","""event"",""trial"",""time""
""fullscreenenter"",""1"",""2717""
","
","","","","","","731.5999999977648","images/sheep2.png","","","memory_trial","1","definitely_old",""
"html-keyboard-response","249","453011","0.0-18.0-0.102","7591","approach_avoid_sv1","""event"",""trial"",""time""
""fullscreenenter"",""1"",""2717""
","
","
","""event"",""trial"",""time""
""fullscreenenter"",""1"",""2717""
","
","","","","","","null","<div style=""font-size:60px;"">+</div>","null","","fixation","","",""
"memory-trial","250","454691","0.0-18.0-1.102","7591","approach_avoid_sv1","""event"",""trial"",""time""
""fullscreenenter"",""1"",""2717""
","
","
","""event"",""trial"",""time""
""fullscreenenter"",""1"",""2717""
","
","","","","","","665.7000000029802","images/truck5.png","","","memory_trial","1","definitely_old",""
"html-keyboard-response","251","455197","0.0-18.0-0.103","7591","approach_avoid_sv1","""event"",""trial"",""time""
""fullscreenenter"",""1"",""2717""
","
","
","""event"",""trial"",""time""
""fullscreenenter"",""1"",""2717""
","
","","","","","","null","<div style=""font-size:60px;"">+</div>","null","","fixation","","",""
"memory-trial","252","456812","0.0-18.0-1.103","7591","approach_avoid_sv1","""event"",""trial"",""time""
""fullscreenenter"",""1"",""2717""
","
","
","""event"",""trial"",""time""
""fullscreenenter"",""1"",""2717""
","
","","","","","","605","images/rodent4.png","","","memory_trial","1","definitely_old",""
"html-keyboard-response","253","457318","0.0-18.0-0.104","7591","approach_avoid_sv1","""event"",""trial"",""time""
""fullscreenenter"",""1"",""2717""
","
","
","""event"",""trial"",""time""
""fullscreenenter"",""1"",""2717""
","
","","","","","","null","<div style=""font-size:60px;"">+</div>","null","","fixation","","",""
"memory-trial","254","458598","0.0-18.0-1.104","7591","approach_avoid_sv1","""event"",""trial"",""time""
""fullscreenenter"",""1"",""2717""
","
","
","""event"",""trial"",""time""
""fullscreenenter"",""1"",""2717""
","
","","","","","","269","images/goat4.png","","","memory_trial","3","maybe_new",""
"html-keyboard-response","255","459106","0.0-18.0-0.105","7591","approach_avoid_sv1","""event"",""trial"",""time""
""fullscreenenter"",""1"",""2717""
","
","
","""event"",""trial"",""time""
""fullscreenenter"",""1"",""2717""
","
","","","","","","null","<div style=""font-size:60px;"">+</div>","null","","fixation","","",""
"memory-trial","256","462193","0.0-18.0-1.105","7591","approach_avoid_sv1","""event"",""trial"",""time""
""fullscreenenter"",""1"",""2717""
","
","
","""event"",""trial"",""time""
""fullscreenenter"",""1"",""2717""
","
","","","","","","2080.900000002235","images/apple6.png","","","memory_trial","4","definitely_new",""
"html-keyboard-response","257","462695","0.0-18.0-0.106","7591","approach_avoid_sv1","""event"",""trial"",""time""
""fullscreenenter"",""1"",""2717""
","
","
","""event"",""trial"",""time""
""fullscreenenter"",""1"",""2717""
","
","","","","","","null","<div style=""font-size:60px;"">+</div>","null","","fixation","","",""
"memory-trial","258","464030","0.0-18.0-1.106","7591","approach_avoid_sv1","""event"",""trial"",""time""
""fullscreenenter"",""1"",""2717""
","
","
","""event"",""trial"",""time""
""fullscreenenter"",""1"",""2717""
","
","","","","","","326","images/cow8.png","","","memory_trial","4","definitely_new",""
"html-keyboard-response","259","464541","0.0-18.0-0.107","7591","approach_avoid_sv1","""event"",""trial"",""time""
""fullscreenenter"",""1"",""2717""
","
","
","""event"",""trial"",""time""
""fullscreenenter"",""1"",""2717""
","
","","","","","","null","<div style=""font-size:60px;"">+</div>","null","","fixation","","",""
"memory-trial","260","467150","0.0-18.0-1.107","7591","approach_avoid_sv1","""event"",""trial"",""time""
""fullscreenenter"",""1"",""2717""
","
","
","""event"",""trial"",""time""
""fullscreenenter"",""1"",""2717""
","
","","","","","","1602.0999999977648","images/straw8.png","","","memory_trial","3","maybe_new",""
"html-keyboard-response","261","467666","0.0-18.0-0.108","7591","approach_avoid_sv1","""event"",""trial"",""time""
""fullscreenenter"",""1"",""2717""
","
","
","""event"",""trial"",""time""
""fullscreenenter"",""1"",""2717""
","
","","","","","","null","<div style=""font-size:60px;"">+</div>","null","","fixation","","",""
"memory-trial","262","469292","0.0-18.0-1.108","7591","approach_avoid_sv1","""event"",""trial"",""time""
""fullscreenenter"",""1"",""2717""
","
","
","""event"",""trial"",""time""
""fullscreenenter"",""1"",""2717""
","
","","","","","","618.3000000007451","images/cow3.png","","","memory_trial","2","maybe_old",""
"html-keyboard-response","263","469798","0.0-18.0-0.109","7591","approach_avoid_sv1","""event"",""trial"",""time""
""fullscreenenter"",""1"",""2717""
","
","
","""event"",""trial"",""time""
""fullscreenenter"",""1"",""2717""
","
","","","","","","null","<div style=""font-size:60px;"">+</div>","null","","fixation","","",""
"memory-trial","264","471971","0.0-18.0-1.109","7591","approach_avoid_sv1","""event"",""trial"",""time""
""fullscreenenter"",""1"",""2717""
","
","
","""event"",""trial"",""time""
""fullscreenenter"",""1"",""2717""
","
","","","","","","1162.300000000745","images/sofa8.png","","","memory_trial","3","maybe_new",""
"html-keyboard-response","265","472481","0.0-18.0-0.110","7591","approach_avoid_sv1","""event"",""trial"",""time""
""fullscreenenter"",""1"",""2717""
","
","
","""event"",""trial"",""time""
""fullscreenenter"",""1"",""2717""
","
","","","","","","null","<div style=""font-size:60px;"">+</div>","null","","fixation","","",""
"memory-trial","266","474293","0.0-18.0-1.110","7591","approach_avoid_sv1","""event"",""trial"",""time""
""fullscreenenter"",""1"",""2717""
","
","
","""event"",""trial"",""time""
""fullscreenenter"",""1"",""2717""
","
","","","","","","799.7999999970198","images/cow7.png","","","memory_trial","3","maybe_new",""
"html-keyboard-response","267","474802","0.0-18.0-0.111","7591","approach_avoid_sv1","""event"",""trial"",""time""
""fullscreenenter"",""1"",""2717""
","
","
","""event"",""trial"",""time""
""fullscreenenter"",""1"",""2717""
","
","","","","","","null","<div style=""font-size:60px;"">+</div>","null","","fixation","","",""
"memory-trial","268","476070","0.0-18.0-1.111","7591","approach_avoid_sv1","""event"",""trial"",""time""
""fullscreenenter"",""1"",""2717""
","
","
","""event"",""trial"",""time""
""fullscreenenter"",""1"",""2717""
","
","","","","","","260.30000000074506","images/cat2.png","","","memory_trial","4","definitely_new",""
"html-keyboard-response","269","476573","0.0-18.0-0.112","7591","approach_avoid_sv1","""event"",""trial"",""time""
""fullscreenenter"",""1"",""2717""
","
","
","""event"",""trial"",""time""
""fullscreenenter"",""1"",""2717""
","
","","","","","","null","<div style=""font-size:60px;"">+</div>","null","","fixation","","",""
"memory-trial","270","478636","0.0-18.0-1.112","7591","approach_avoid_sv1","""event"",""trial"",""time""
""fullscreenenter"",""1"",""2717""
","
","
","""event"",""trial"",""time""
""fullscreenenter"",""1"",""2717""
","
","","","","","","1050.6000000014901","images/cactus4.png","","","memory_trial","3","maybe_new",""
"html-keyboard-response","271","479140","0.0-18.0-0.113","7591","approach_avoid_sv1","""event"",""trial"",""time""
""fullscreenenter"",""1"",""2717""
","
","
","""event"",""trial"",""time""
""fullscreenenter"",""1"",""2717""
","
","","","","","","null","<div style=""font-size:60px;"">+</div>","null","","fixation","","",""
"memory-trial","272","481239","0.0-18.0-1.113","7591","approach_avoid_sv1","""event"",""trial"",""time""
""fullscreenenter"",""1"",""2717""
","
","
","""event"",""trial"",""time""
""fullscreenenter"",""1"",""2717""
","
","","","","","","1093","images/orange7.png","","","memory_trial","4","definitely_new",""
"html-keyboard-response","273","481747","0.0-18.0-0.114","7591","approach_avoid_sv1","""event"",""trial"",""time""
""fullscreenenter"",""1"",""2717""
","
","
","""event"",""trial"",""time""
""fullscreenenter"",""1"",""2717""
","
","","","","","","null","<div style=""font-size:60px;"">+</div>","null","","fixation","","",""
"memory-trial","274","483527","0.0-18.0-1.114","7591","approach_avoid_sv1","""event"",""trial"",""time""
""fullscreenenter"",""1"",""2717""
","
","
","""event"",""trial"",""time""
""fullscreenenter"",""1"",""2717""
","
","","","","","","771.4000000022352","images/chair2.png","","","memory_trial","4","definitely_new",""
"html-keyboard-response","275","484042","0.0-18.0-0.115","7591","approach_avoid_sv1","""event"",""trial"",""time""
""fullscreenenter"",""1"",""2717""
","
","
","""event"",""trial"",""time""
""fullscreenenter"",""1"",""2717""
","
","","","","","","null","<div style=""font-size:60px;"">+</div>","null","","fixation","","",""
"memory-trial","276","485962","0.0-18.0-1.115","7591","approach_avoid_sv1","""event"",""trial"",""time""
""fullscreenenter"",""1"",""2717""
","
","
","""event"",""trial"",""time""
""fullscreenenter"",""1"",""2717""
","
","","","","","","907.1999999992549","images/tree3.png","","","memory_trial","3","maybe_new",""
"html-keyboard-response","277","486474","0.0-18.0-0.116","7591","approach_avoid_sv1","""event"",""trial"",""time""
""fullscreenenter"",""1"",""2717""
","
","
","""event"",""trial"",""time""
""fullscreenenter"",""1"",""2717""
","
","","","","","","null","<div style=""font-size:60px;"">+</div>","null","","fixation","","",""
"memory-trial","278","488663","0.0-18.0-1.116","7591","approach_avoid_sv1","""event"",""trial"",""time""
""fullscreenenter"",""1"",""2717""
","
","
","""event"",""trial"",""time""
""fullscreenenter"",""1"",""2717""
","
","","","","","","1176.3999999985099","images/bush1.png","","","memory_trial","2","maybe_old",""
"html-keyboard-response","279","489169","0.0-18.0-0.117","7591","approach_avoid_sv1","""event"",""trial"",""time""
""fullscreenenter"",""1"",""2717""
","
","
","""event"",""trial"",""time""
""fullscreenenter"",""1"",""2717""
","
","","","","","","null","<div style=""font-size:60px;"">+</div>","null","","fixation","","",""
"memory-trial","280","491240","0.0-18.0-1.117","7591","approach_avoid_sv1","""event"",""trial"",""time""
""fullscreenenter"",""1"",""2717""
","
","
","""event"",""trial"",""time""
""fullscreenenter"",""1"",""2717""
","
","","","","","","1064.8999999985099","images/goat3.png","","","memory_trial","2","maybe_old",""
"html-keyboard-response","281","491749","0.0-18.0-0.118","7591","approach_avoid_sv1","""event"",""trial"",""time""
""fullscreenenter"",""1"",""2717""
","
","
","""event"",""trial"",""time""
""fullscreenenter"",""1"",""2717""
","
","","","","","","null","<div style=""font-size:60px;"">+</div>","null","","fixation","","",""
"memory-trial","282","493291","0.0-18.0-1.118","7591","approach_avoid_sv1","""event"",""trial"",""time""
""fullscreenenter"",""1"",""2717""
","
","
","""event"",""trial"",""time""
""fullscreenenter"",""1"",""2717""
","
","","","","","","537.8999999985099","images/bed4.png","","","memory_trial","2","maybe_old",""
"html-keyboard-response","283","493798","0.0-18.0-0.119","7591","approach_avoid_sv1","""event"",""trial"",""time""
""fullscreenenter"",""1"",""2717""
","
","
","""event"",""trial"",""time""
""fullscreenenter"",""1"",""2717""
","
","","","","","","null","<div style=""font-size:60px;"">+</div>","null","","fixation","","",""
"memory-trial","284","495497","0.0-18.0-1.119","7591","approach_avoid_sv1","""event"",""trial"",""time""
""fullscreenenter"",""1"",""2717""
","
","
","""event"",""trial"",""time""
""fullscreenenter"",""1"",""2717""
","
","","","","","","689.5","images/bed6.png","","","memory_trial","3","maybe_new",""
"html-keyboard-response","285","496002","0.0-18.0-0.120","7591","approach_avoid_sv1","""event"",""trial"",""time""
""fullscreenenter"",""1"",""2717""
","
","
","""event"",""trial"",""time""
""fullscreenenter"",""1"",""2717""
","
","","","","","","null","<div style=""font-size:60px;"">+</div>","null","","fixation","","",""
"memory-trial","286","497616","0.0-18.0-1.120","7591","approach_avoid_sv1","""event"",""trial"",""time""
""fullscreenenter"",""1"",""2717""
","
","
","""event"",""trial"",""time""
""fullscreenenter"",""1"",""2717""
","
","","","","","","608.3000000007451","images/apple4.png","","","memory_trial","4","definitely_new",""
"html-keyboard-response","287","498124","0.0-18.0-0.121","7591","approach_avoid_sv1","""event"",""trial"",""time""
""fullscreenenter"",""1"",""2717""
","
","
","""event"",""trial"",""time""
""fullscreenenter"",""1"",""2717""
","
","","","","","","null","<div style=""font-size:60px;"">+</div>","null","","fixation","","",""
"memory-trial","288","499947","0.0-18.0-1.121","7591","approach_avoid_sv1","""event"",""trial"",""time""
""fullscreenenter"",""1"",""2717""
","
","
","""event"",""trial"",""time""
""fullscreenenter"",""1"",""2717""
","
","","","","","","813.4000000022352","images/bed8.png","","","memory_trial","4","definitely_new",""
"html-keyboard-response","289","500449","0.0-18.0-0.122","7591","approach_avoid_sv1","""event"",""trial"",""time""
""fullscreenenter"",""1"",""2717""
","
","
","""event"",""trial"",""time""
""fullscreenenter"",""1"",""2717""
","
","","","","","","null","<div style=""font-size:60px;"">+</div>","null","","fixation","","",""
"memory-trial","290","501559","0.0-18.0-1.122","7591","approach_avoid_sv1","""event"",""trial"",""time""
""fullscreenenter"",""1"",""2717""
","
","
","""event"",""trial"",""time""
""fullscreenenter"",""1"",""2717""
","
","","","","","","98.39999999850988","images/truck3.png","","","memory_trial","4","definitely_new",""
"html-keyboard-response","291","502070","0.0-18.0-0.123","7591","approach_avoid_sv1","""event"",""trial"",""time""
""fullscreenenter"",""1"",""2717""
","
","
","""event"",""trial"",""time""
""fullscreenenter"",""1"",""2717""
","
","","","","","","null","<div style=""font-size:60px;"">+</div>","null","","fixation","","",""
"memory-trial","292","503489","0.0-18.0-1.123","7591","approach_avoid_sv1","""event"",""trial"",""time""
""fullscreenenter"",""1"",""2717""
","
","
","""event"",""trial"",""time""
""fullscreenenter"",""1"",""2717""
","
","","","","","","410.80000000074506","images/cat8.png","","","memory_trial","3","maybe_new",""
"html-keyboard-response","293","504000","0.0-18.0-0.124","7591","approach_avoid_sv1","""event"",""trial"",""time""
""fullscreenenter"",""1"",""2717""
","
","
","""event"",""trial"",""time""
""fullscreenenter"",""1"",""2717""
","
","","","","","","null","<div style=""font-size:60px;"">+</div>","null","","fixation","","",""
"memory-trial","294","505566","0.0-18.0-1.124","7591","approach_avoid_sv1","""event"",""trial"",""time""
""fullscreenenter"",""1"",""2717""
","
","
","""event"",""trial"",""time""
""fullscreenenter"",""1"",""2717""
","
","","","","","","555.0999999977648","images/train2.png","","","memory_trial","3","maybe_new",""
"html-keyboard-response","295","506069","0.0-18.0-0.125","7591","approach_avoid_sv1","""event"",""trial"",""time""
""fullscreenenter"",""1"",""2717""
","
","
","""event"",""trial"",""time""
""fullscreenenter"",""1"",""2717""
","
","","","","","","null","<div style=""font-size:60px;"">+</div>","null","","fixation","","",""
"memory-trial","296","508573","0.0-18.0-1.125","7591","approach_avoid_sv1","""event"",""trial"",""time""
""fullscreenenter"",""1"",""2717""
","
","
","""event"",""trial"",""time""
""fullscreenenter"",""1"",""2717""
","
","","","","","","1501.300000000745","images/boat2.png","","","memory_trial","3","maybe_new",""
"html-keyboard-response","297","509076","0.0-18.0-0.126","7591","approach_avoid_sv1","""event"",""trial"",""time""
""fullscreenenter"",""1"",""2717""
","
","
","""event"",""trial"",""time""
""fullscreenenter"",""1"",""2717""
","
","","","","","","null","<div style=""font-size:60px;"">+</div>","null","","fixation","","",""
