"trial_type","trial_index","time_elapsed","internal_node_id","subject_id","task_version","interactions","blur_events","focus_events","fullscreenenter_events","fullscreenexit_events","success","timeout","failed_images","failed_audio","failed_video","rt","stimulus","response","button_pressed","task_part","key_press","answer","correct"
"pavlovia","0","3","0.0-0.0","6191","approach_avoid_sv1","""event"",""trial"",""time""
""fullscreenenter"",""1"",""6628""
","
","
","""event"",""trial"",""time""
""fullscreenenter"",""1"",""6628""
","
","","","","","","","","","","","","",""
"fullscreen","1","7624","0.0-1.0","6191","approach_avoid_sv1","""event"",""trial"",""time""
""fullscreenenter"",""1"",""6628""
","
","
","""event"",""trial"",""time""
""fullscreenenter"",""1"",""6628""
","
","true","","","","","","","","","","","",""
"preload","2","9533","0.0-2.0","6191","approach_avoid_sv1","""event"",""trial"",""time""
""fullscreenenter"",""1"",""6628""
","
","
","""event"",""trial"",""time""
""fullscreenenter"",""1"",""6628""
","
","true","false","[]","[]","[]","","","","","","","",""
"preload","3","11601","0.0-3.0","6191","approach_avoid_sv1","""event"",""trial"",""time""
""fullscreenenter"",""1"",""6628""
","
","
","""event"",""trial"",""time""
""fullscreenenter"",""1"",""6628""
","
","true","false","[]","[]","[]","","","","","","","",""
"preload","4","11821","0.0-4.0","6191","approach_avoid_sv1","""event"",""trial"",""time""
""fullscreenenter"",""1"",""6628""
","
","
","""event"",""trial"",""time""
""fullscreenenter"",""1"",""6628""
","
","true","false","[]","[]","[]","","","","","","","",""
"audio-keyboard-response","5","16654","0.0-5.0","6191","approach_avoid_sv1","""event"",""trial"",""time""
""fullscreenenter"",""1"",""6628""
","
","
","""event"",""trial"",""time""
""fullscreenenter"",""1"",""6628""
","
","","","","","","4832","audio/beep_loop.wav"," ","","","","",""
"audio-button-response","6","18336","0.0-6.0","6191","approach_avoid_sv1","""event"",""trial"",""time""
""fullscreenenter"",""1"",""6628""
","
","
","""event"",""trial"",""time""
""fullscreenenter"",""1"",""6628""
","
","","","","","","1680","audio/turtle.wav","3","","","","",""
"audio-button-response","7","20834","0.0-7.0","6191","approach_avoid_sv1","""event"",""trial"",""time""
""fullscreenenter"",""1"",""6628""
","
","
","""event"",""trial"",""time""
""fullscreenenter"",""1"",""6628""
","
","","","","","","1493","audio/shark.wav","2","","","","",""
"preload","8","26286","0.0-8.0","6191","approach_avoid_sv1","""event"",""trial"",""time""
""fullscreenenter"",""1"",""6628""
","
","
","""event"",""trial"",""time""
""fullscreenenter"",""1"",""6628""
","
","true","false","[]","[]","[]","","","","","","","",""
"learning-instructions","9","32802","0.0-9.0-0.0","6191","approach_avoid_sv1","""event"",""trial"",""time""
""fullscreenenter"",""1"",""6628""
","
","
","""event"",""trial"",""time""
""fullscreenenter"",""1"",""6628""
","
","","","","","","2039.0999999046326","<p> Welcome back! </p><p> Last week, you had to make choices about lots of different items.  </p>","","0","instructions","","",""
"learning-instructions","10","37517","0.0-9.0-0.1","6191","approach_avoid_sv1","""event"",""trial"",""time""
""fullscreenenter"",""1"",""6628""
","
","
","""event"",""trial"",""time""
""fullscreenenter"",""1"",""6628""
","
","","","","","","605.1999998092651","<p> Today, we are going to ask you to try to remember all the items. </p>","","0","instructions","","",""
"learning-instructions","11","48150","0.0-9.0-0.2","6191","approach_avoid_sv1","""event"",""trial"",""time""
""fullscreenenter"",""1"",""6628""
","
","
","""event"",""trial"",""time""
""fullscreenenter"",""1"",""6628""
","
","","","","","","502.2999997138977","<p> On every trial, you will see an image. </p><p> The image may be an OLD image you saw during the games last week or it may be a NEW image that was not presented. </p>","","0","instructions","","",""
"learning-instructions","12","57052","0.0-9.0-0.3","6191","approach_avoid_sv1","""event"",""trial"",""time""
""fullscreenenter"",""1"",""6628""
","
","
","""event"",""trial"",""time""
""fullscreenenter"",""1"",""6628""
","
","","","","","","406.1000003814697","<p> You need to select whether the image is:  </p><p>  'Definitely old', 'Maybe old', 'Maybe new', or 'Definitely new.'  </p><div class=""mem-choice-instructions-grid""><div class=""choice-option"" id=""choice-option-1"" ><img src=""images/definitely_old_1.png"" id=""choice-option-img-1"" class=""choice-option-img"" stage=""1""></div><div class=""choice-option"" id=""choice-option-2"" ><img src=""images/maybe_old_1.png"" id=""choice-option-img-2"" class=""choice-option-img"" stage=""1""></div><div class=""choice-option"" id=""choice-option-3"" ><img src=""images/maybe_new_1.png"" id=""choice-option-img-3"" class=""choice-option-img"" stage=""1""></div><div class=""choice-option"" id=""choice-option-4"" > <img src=""images/definitely_new_1.png"" id=""choice-option-img-4"" class=""choice-option-img"" stage=""1""></div></div>","","0","instructions","","",""
"learning-instructions","13","68517","0.0-9.0-0.4","6191","approach_avoid_sv1","""event"",""trial"",""time""
""fullscreenenter"",""1"",""6628""
","
","
","""event"",""trial"",""time""
""fullscreenenter"",""1"",""6628""
","
","","","","","","4948.099999904633","<p> You should use the 1, 2, 3, and 4 keys to make your responses.  </p><div class=""mem-choice-instructions-grid""><div class=""choice-option"" id=""choice-option-1"" ><img src=""images/definitely_old.png"" id=""choice-option-img-1"" class=""choice-option-img"" stage=""1""></div><div class=""choice-option"" id=""choice-option-2"" ><img src=""images/maybe_old.png"" id=""choice-option-img-2"" class=""choice-option-img"" stage=""1""></div><div class=""choice-option"" id=""choice-option-3"" ><img src=""images/maybe_new.png"" id=""choice-option-img-3"" class=""choice-option-img"" stage=""1""></div><div class=""choice-option"" id=""choice-option-4"" > <img src=""images/definitely_new.png"" id=""choice-option-img-4"" class=""choice-option-img"" stage=""1""></div></div>","","0","instructions","","",""
"learning-instructions","14","76134","0.0-9.0-0.5","6191","approach_avoid_sv1","""event"",""trial"",""time""
""fullscreenenter"",""1"",""6628""
","
","
","""event"",""trial"",""time""
""fullscreenenter"",""1"",""6628""
","
","","","","","","1292.0999999046326","<p> You will have 10 seconds to make each response.  </p><p>  Make sure to respond before time runs out! </p>","","0","instructions","","",""
"learning-instructions","15","83450","0.0-9.0-0.6","6191","approach_avoid_sv1","""event"",""trial"",""time""
""fullscreenenter"",""1"",""6628""
","
","
","""event"",""trial"",""time""
""fullscreenenter"",""1"",""6628""
","
","","","","","","240.40000009536743","<p> Today, you will see each image ONCE only.  </p><p>  That means none of the images will repeat. </p>","","0","instructions","","",""
"learning-instructions","16","99403","0.0-9.0-0.7","6191","approach_avoid_sv1","""event"",""trial"",""time""
""fullscreenenter"",""1"",""6628""
","
","
","""event"",""trial"",""time""
""fullscreenenter"",""1"",""6628""
","
","","","","","","3285.3999996185303","<p> Before you play the real game, it is time to practice. </p><p>  Just like in the real game, some of the images in the practice will be ones you have seen before. </p><p>  Others will be entirely new. </p>","","0","instructions","","",""
"html-button-response","17","104953","0.0-10.0","6191","approach_avoid_sv1","""event"",""trial"",""time""
""fullscreenenter"",""1"",""6628""
","
","
","""event"",""trial"",""time""
""fullscreenenter"",""1"",""6628""
","
","","","","","","5443.299999713898","<p> Ready to practice? </p><p> Remember, use the 1, 2, 3, and 4 keys to make your responses. </p>","0","","instructions","","",""
"html-keyboard-response","18","105562","0.0-11.0-0.0","6191","approach_avoid_sv1","""event"",""trial"",""time""
""fullscreenenter"",""1"",""6628""
","
","
","""event"",""trial"",""time""
""fullscreenenter"",""1"",""6628""
","
","","","","","","null","<div style=""font-size:60px;"">+</div>","null","","fixation","","",""
"memory-trial","19","108547","0.0-11.0-1.0","6191","approach_avoid_sv1","""event"",""trial"",""time""
""fullscreenenter"",""1"",""6628""
","
","
","""event"",""trial"",""time""
""fullscreenenter"",""1"",""6628""
","
","","","","","","1974.3000001907349","images/ball3.png","","","practice","2","maybe_old",""
"html-keyboard-response","20","109054","0.0-11.0-0.1","6191","approach_avoid_sv1","""event"",""trial"",""time""
""fullscreenenter"",""1"",""6628""
","
","
","""event"",""trial"",""time""
""fullscreenenter"",""1"",""6628""
","
","","","","","","null","<div style=""font-size:60px;"">+</div>","null","","fixation","","",""
"memory-trial","21","111798","0.0-11.0-1.1","6191","approach_avoid_sv1","""event"",""trial"",""time""
""fullscreenenter"",""1"",""6628""
","
","
","""event"",""trial"",""time""
""fullscreenenter"",""1"",""6628""
","
","","","","","","1736.2000002861023","images/racket2.png","","","practice","1","definitely_old",""
"html-keyboard-response","22","112301","0.0-11.0-0.2","6191","approach_avoid_sv1","""event"",""trial"",""time""
""fullscreenenter"",""1"",""6628""
","
","
","""event"",""trial"",""time""
""fullscreenenter"",""1"",""6628""
","
","","","","","","null","<div style=""font-size:60px;"">+</div>","null","","fixation","","",""
"memory-trial","23","115754","0.0-11.0-1.2","6191","approach_avoid_sv1","""event"",""trial"",""time""
""fullscreenenter"",""1"",""6628""
","
","
","""event"",""trial"",""time""
""fullscreenenter"",""1"",""6628""
","
","","","","","","2447.5","images/racket5.png","","","practice","3","maybe_new",""
"html-keyboard-response","24","116259","0.0-11.0-0.3","6191","approach_avoid_sv1","""event"",""trial"",""time""
""fullscreenenter"",""1"",""6628""
","
","
","""event"",""trial"",""time""
""fullscreenenter"",""1"",""6628""
","
","","","","","","null","<div style=""font-size:60px;"">+</div>","null","","fixation","","",""
"memory-trial","25","118358","0.0-11.0-1.3","6191","approach_avoid_sv1","""event"",""trial"",""time""
""fullscreenenter"",""1"",""6628""
","
","
","""event"",""trial"",""time""
""fullscreenenter"",""1"",""6628""
","
","","","","","","1091.8000001907349","images/racket1.png","","","practice","3","maybe_new",""
"html-keyboard-response","26","118860","0.0-11.0-0.4","6191","approach_avoid_sv1","""event"",""trial"",""time""
""fullscreenenter"",""1"",""6628""
","
","
","""event"",""trial"",""time""
""fullscreenenter"",""1"",""6628""
","
","","","","","","null","<div style=""font-size:60px;"">+</div>","null","","fixation","","",""
"memory-trial","27","121029","0.0-11.0-1.4","6191","approach_avoid_sv1","""event"",""trial"",""time""
""fullscreenenter"",""1"",""6628""
","
","
","""event"",""trial"",""time""
""fullscreenenter"",""1"",""6628""
","
","","","","","","1166.0999999046326","images/racket3.png","","","practice","1","definitely_old",""
"html-keyboard-response","28","121536","0.0-11.0-0.5","6191","approach_avoid_sv1","""event"",""trial"",""time""
""fullscreenenter"",""1"",""6628""
","
","
","""event"",""trial"",""time""
""fullscreenenter"",""1"",""6628""
","
","","","","","","null","<div style=""font-size:60px;"">+</div>","null","","fixation","","",""
"memory-trial","29","124038","0.0-11.0-1.5","6191","approach_avoid_sv1","""event"",""trial"",""time""
""fullscreenenter"",""1"",""6628""
","
","
","""event"",""trial"",""time""
""fullscreenenter"",""1"",""6628""
","
","","","","","","1498.5999999046326","images/ball2.png","","","practice","2","maybe_old",""
"html-keyboard-response","30","124543","0.0-11.0-0.6","6191","approach_avoid_sv1","""event"",""trial"",""time""
""fullscreenenter"",""1"",""6628""
","
","
","""event"",""trial"",""time""
""fullscreenenter"",""1"",""6628""
","
","","","","","","null","<div style=""font-size:60px;"">+</div>","null","","fixation","","",""
"memory-trial","31","127884","0.0-11.0-1.6","6191","approach_avoid_sv1","""event"",""trial"",""time""
""fullscreenenter"",""1"",""6628""
","
","
","""event"",""trial"",""time""
""fullscreenenter"",""1"",""6628""
","
","","","","","","2332.300000190735","images/ball1.png","","","practice","3","maybe_new",""
"html-keyboard-response","32","128390","0.0-11.0-0.7","6191","approach_avoid_sv1","""event"",""trial"",""time""
""fullscreenenter"",""1"",""6628""
","
","
","""event"",""trial"",""time""
""fullscreenenter"",""1"",""6628""
","
","","","","","","null","<div style=""font-size:60px;"">+</div>","null","","fixation","","",""
"memory-trial","33","131360","0.0-11.0-1.7","6191","approach_avoid_sv1","""event"",""trial"",""time""
""fullscreenenter"",""1"",""6628""
","
","
","""event"",""trial"",""time""
""fullscreenenter"",""1"",""6628""
","
","","","","","","1962.6999998092651","images/ball5.png","","","practice","3","maybe_new",""
"learning-instructions","34","140485","0.0-12.0-0.0","6191","approach_avoid_sv1","""event"",""trial"",""time""
""fullscreenenter"",""1"",""6628""
","
","
","""event"",""trial"",""time""
""fullscreenenter"",""1"",""6628""
","
","","","","","","1784","<p> Great! You have completed the practice. </p><p> Before you start, we're going to ask you a few questions about how the game works.  </p>","","0","instructions","","",""
"preload","35","142515","0.0-13.0","6191","approach_avoid_sv1","""event"",""trial"",""time""
""fullscreenenter"",""1"",""6628""
","
","
","""event"",""trial"",""time""
""fullscreenenter"",""1"",""6628""
","
","true","false","[]","[]","[]","","","","","","","",""
"comp-q","36","149385","0.0-14.0-0.0","6191","approach_avoid_sv1","""event"",""trial"",""time""
""fullscreenenter"",""1"",""6628""
""blur"",""37"",""152287""
""focus"",""37"",""166288""
","""event"",""trial"",""time""
""blur"",""37"",""152287""
","""event"",""trial"",""time""
""focus"",""37"",""166288""
","""event"",""trial"",""time""
""fullscreenenter"",""1"",""6628""
","
","","","","","","1041.1999998092651","<p> <b> True or False? </b> </p><p> In this game, you will only see each image once. </p>","","0","comp_question","","","true"
"comp-q","37","168436","0.0-14.0-1.0","6191","approach_avoid_sv1","""event"",""trial"",""time""
""fullscreenenter"",""1"",""6628""
""blur"",""37"",""152287""
""focus"",""37"",""166288""
","""event"",""trial"",""time""
""blur"",""37"",""152287""
","""event"",""trial"",""time""
""focus"",""37"",""166288""
","""event"",""trial"",""time""
""fullscreenenter"",""1"",""6628""
","
","","","","","","12709.89999961853","<p> <b> That's right! </b> You will see many different images <i> one time each </i> in this game. </p>","","0","comp_answer","","",""
"comp-q","38","174201","0.0-15.0-0.0","6191","approach_avoid_sv1","""event"",""trial"",""time""
""fullscreenenter"",""1"",""6628""
""blur"",""37"",""152287""
""focus"",""37"",""166288""
","""event"",""trial"",""time""
""blur"",""37"",""152287""
","""event"",""trial"",""time""
""focus"",""37"",""166288""
","""event"",""trial"",""time""
""fullscreenenter"",""1"",""6628""
","
","","","","","","760.3000001907349","<p> <b> True or False? </b> </p><p> You should use the mouse and click to make your response. </p>","","1","comp_question","","","true"
"comp-q","39","186839","0.0-15.0-1.0","6191","approach_avoid_sv1","""event"",""trial"",""time""
""fullscreenenter"",""1"",""6628""
""blur"",""37"",""152287""
""focus"",""37"",""166288""
","""event"",""trial"",""time""
""blur"",""37"",""152287""
","""event"",""trial"",""time""
""focus"",""37"",""166288""
","""event"",""trial"",""time""
""fullscreenenter"",""1"",""6628""
","
","","","","","","6133","<p><b> That's right! </b> You should use the '1', '2', '3', and '4' keys to make your response. </p>","","0","comp_answer","","",""
"comp-q","40","193583","0.0-16.0-0.0","6191","approach_avoid_sv1","""event"",""trial"",""time""
""fullscreenenter"",""1"",""6628""
""blur"",""37"",""152287""
""focus"",""37"",""166288""
","""event"",""trial"",""time""
""blur"",""37"",""152287""
","""event"",""trial"",""time""
""focus"",""37"",""166288""
","""event"",""trial"",""time""
""fullscreenenter"",""1"",""6628""
","
","","","","","","1064","<p> <b> True or False? </b> </p><p> You will have as much time as you want to make each choice. </p>","","1","comp_question","","","true"
"comp-q","41","199868","0.0-16.0-1.0","6191","approach_avoid_sv1","""event"",""trial"",""time""
""fullscreenenter"",""1"",""6628""
""blur"",""37"",""152287""
""focus"",""37"",""166288""
","""event"",""trial"",""time""
""blur"",""37"",""152287""
","""event"",""trial"",""time""
""focus"",""37"",""166288""
","""event"",""trial"",""time""
""fullscreenenter"",""1"",""6628""
","
","","","","","","1588.5","<p> <b> That's right! </b> You will only have 10 seconds to make each choice. </p>","","0","comp_answer","","",""
"learning-instructions","42","212019","0.0-17.0","6191","approach_avoid_sv1","""event"",""trial"",""time""
""fullscreenenter"",""1"",""6628""
""blur"",""37"",""152287""
""focus"",""37"",""166288""
","""event"",""trial"",""time""
""blur"",""37"",""152287""
","""event"",""trial"",""time""
""focus"",""37"",""166288""
","""event"",""trial"",""time""
""fullscreenenter"",""1"",""6628""
","
","","","","","","3477.699999809265","<p> Great! You are now ready to begin the game. </p><p> Remember, use the 1, 2, 3, and 4 keys to make your responses. </p>","","0","instructions","","",""
"html-keyboard-response","43","212623","0.0-18.0-0.0","6191","approach_avoid_sv1","""event"",""trial"",""time""
""fullscreenenter"",""1"",""6628""
""blur"",""37"",""152287""
""focus"",""37"",""166288""
","""event"",""trial"",""time""
""blur"",""37"",""152287""
","""event"",""trial"",""time""
""focus"",""37"",""166288""
","""event"",""trial"",""time""
""fullscreenenter"",""1"",""6628""
","
","","","","","","null","<div style=""font-size:60px;"">+</div>","null","","fixation","","",""
"memory-trial","44","215766","0.0-18.0-1.0","6191","approach_avoid_sv1","""event"",""trial"",""time""
""fullscreenenter"",""1"",""6628""
""blur"",""37"",""152287""
""focus"",""37"",""166288""
","""event"",""trial"",""time""
""blur"",""37"",""152287""
","""event"",""trial"",""time""
""focus"",""37"",""166288""
","""event"",""trial"",""time""
""fullscreenenter"",""1"",""6628""
","
","","","","","","2137.199999809265","images/table5.png","","","memory_trial","1","definitely_old",""
"html-keyboard-response","45","216273","0.0-18.0-0.1","6191","approach_avoid_sv1","""event"",""trial"",""time""
""fullscreenenter"",""1"",""6628""
""blur"",""37"",""152287""
""focus"",""37"",""166288""
","""event"",""trial"",""time""
""blur"",""37"",""152287""
","""event"",""trial"",""time""
""focus"",""37"",""166288""
","""event"",""trial"",""time""
""fullscreenenter"",""1"",""6628""
","
","","","","","","null","<div style=""font-size:60px;"">+</div>","null","","fixation","","",""
"memory-trial","46","219885","0.0-18.0-1.1","6191","approach_avoid_sv1","""event"",""trial"",""time""
""fullscreenenter"",""1"",""6628""
""blur"",""37"",""152287""
""focus"",""37"",""166288""
","""event"",""trial"",""time""
""blur"",""37"",""152287""
","""event"",""trial"",""time""
""focus"",""37"",""166288""
","""event"",""trial"",""time""
""fullscreenenter"",""1"",""6628""
","
","","","","","","2607","images/apple1.png","","","memory_trial","2","maybe_old",""
"html-keyboard-response","47","220389","0.0-18.0-0.2","6191","approach_avoid_sv1","""event"",""trial"",""time""
""fullscreenenter"",""1"",""6628""
""blur"",""37"",""152287""
""focus"",""37"",""166288""
","""event"",""trial"",""time""
""blur"",""37"",""152287""
","""event"",""trial"",""time""
""focus"",""37"",""166288""
","""event"",""trial"",""time""
""fullscreenenter"",""1"",""6628""
","
","","","","","","null","<div style=""font-size:60px;"">+</div>","null","","fixation","","",""
"memory-trial","48","222392","0.0-18.0-1.2","6191","approach_avoid_sv1","""event"",""trial"",""time""
""fullscreenenter"",""1"",""6628""
""blur"",""37"",""152287""
""focus"",""37"",""166288""
","""event"",""trial"",""time""
""blur"",""37"",""152287""
","""event"",""trial"",""time""
""focus"",""37"",""166288""
","""event"",""trial"",""time""
""fullscreenenter"",""1"",""6628""
","
","","","","","","994","images/sheep3.png","","","memory_trial","2","maybe_old",""
"html-keyboard-response","49","222896","0.0-18.0-0.3","6191","approach_avoid_sv1","""event"",""trial"",""time""
""fullscreenenter"",""1"",""6628""
""blur"",""37"",""152287""
""focus"",""37"",""166288""
","""event"",""trial"",""time""
""blur"",""37"",""152287""
","""event"",""trial"",""time""
""focus"",""37"",""166288""
","""event"",""trial"",""time""
""fullscreenenter"",""1"",""6628""
","
","","","","","","null","<div style=""font-size:60px;"">+</div>","null","","fixation","","",""
"memory-trial","50","226560","0.0-18.0-1.3","6191","approach_avoid_sv1","""event"",""trial"",""time""
""fullscreenenter"",""1"",""6628""
""blur"",""37"",""152287""
""focus"",""37"",""166288""
","""event"",""trial"",""time""
""blur"",""37"",""152287""
","""event"",""trial"",""time""
""focus"",""37"",""166288""
","""event"",""trial"",""time""
""fullscreenenter"",""1"",""6628""
","
","","","","","","2655.800000190735","images/train6.png","","","memory_trial","1","definitely_old",""
"html-keyboard-response","51","227067","0.0-18.0-0.4","6191","approach_avoid_sv1","""event"",""trial"",""time""
""fullscreenenter"",""1"",""6628""
""blur"",""37"",""152287""
""focus"",""37"",""166288""
","""event"",""trial"",""time""
""blur"",""37"",""152287""
","""event"",""trial"",""time""
""focus"",""37"",""166288""
","""event"",""trial"",""time""
""fullscreenenter"",""1"",""6628""
","
","","","","","","null","<div style=""font-size:60px;"">+</div>","null","","fixation","","",""
"memory-trial","52","230721","0.0-18.0-1.4","6191","approach_avoid_sv1","""event"",""trial"",""time""
""fullscreenenter"",""1"",""6628""
""blur"",""37"",""152287""
""focus"",""37"",""166288""
","""event"",""trial"",""time""
""blur"",""37"",""152287""
","""event"",""trial"",""time""
""focus"",""37"",""166288""
","""event"",""trial"",""time""
""fullscreenenter"",""1"",""6628""
","
","","","","","","2646.5","images/truck7.png","","","memory_trial","2","maybe_old",""
"html-keyboard-response","53","231224","0.0-18.0-0.5","6191","approach_avoid_sv1","""event"",""trial"",""time""
""fullscreenenter"",""1"",""6628""
""blur"",""37"",""152287""
""focus"",""37"",""166288""
","""event"",""trial"",""time""
""blur"",""37"",""152287""
","""event"",""trial"",""time""
""focus"",""37"",""166288""
","""event"",""trial"",""time""
""fullscreenenter"",""1"",""6628""
","
","","","","","","null","<div style=""font-size:60px;"">+</div>","null","","fixation","","",""
"memory-trial","54","233300","0.0-18.0-1.5","6191","approach_avoid_sv1","""event"",""trial"",""time""
""fullscreenenter"",""1"",""6628""
""blur"",""37"",""152287""
""focus"",""37"",""166288""
","""event"",""trial"",""time""
""blur"",""37"",""152287""
","""event"",""trial"",""time""
""focus"",""37"",""166288""
","""event"",""trial"",""time""
""fullscreenenter"",""1"",""6628""
","
","","","","","","1068.3000001907349","images/sheep8.png","","","memory_trial","3","maybe_new",""
"html-keyboard-response","55","233807","0.0-18.0-0.6","6191","approach_avoid_sv1","""event"",""trial"",""time""
""fullscreenenter"",""1"",""6628""
""blur"",""37"",""152287""
""focus"",""37"",""166288""
","""event"",""trial"",""time""
""blur"",""37"",""152287""
","""event"",""trial"",""time""
""focus"",""37"",""166288""
","""event"",""trial"",""time""
""fullscreenenter"",""1"",""6628""
","
","","","","","","null","<div style=""font-size:60px;"">+</div>","null","","fixation","","",""
"memory-trial","56","237537","0.0-18.0-1.6","6191","approach_avoid_sv1","""event"",""trial"",""time""
""fullscreenenter"",""1"",""6628""
""blur"",""37"",""152287""
""focus"",""37"",""166288""
","""event"",""trial"",""time""
""blur"",""37"",""152287""
","""event"",""trial"",""time""
""focus"",""37"",""166288""
","""event"",""trial"",""time""
""fullscreenenter"",""1"",""6628""
","
","","","","","","2725.4000000953674","images/sheep7.png","","","memory_trial","3","maybe_new",""
"html-keyboard-response","57","238043","0.0-18.0-0.7","6191","approach_avoid_sv1","""event"",""trial"",""time""
""fullscreenenter"",""1"",""6628""
""blur"",""37"",""152287""
""focus"",""37"",""166288""
","""event"",""trial"",""time""
""blur"",""37"",""152287""
","""event"",""trial"",""time""
""focus"",""37"",""166288""
","""event"",""trial"",""time""
""fullscreenenter"",""1"",""6628""
","
","","","","","","null","<div style=""font-size:60px;"">+</div>","null","","fixation","","",""
"memory-trial","58","240246","0.0-18.0-1.7","6191","approach_avoid_sv1","""event"",""trial"",""time""
""fullscreenenter"",""1"",""6628""
""blur"",""37"",""152287""
""focus"",""37"",""166288""
","""event"",""trial"",""time""
""blur"",""37"",""152287""
","""event"",""trial"",""time""
""focus"",""37"",""166288""
","""event"",""trial"",""time""
""fullscreenenter"",""1"",""6628""
","
","","","","","","1200.2999997138977","images/chair7.png","","","memory_trial","3","maybe_new",""
"html-keyboard-response","59","240748","0.0-18.0-0.8","6191","approach_avoid_sv1","""event"",""trial"",""time""
""fullscreenenter"",""1"",""6628""
""blur"",""37"",""152287""
""focus"",""37"",""166288""
","""event"",""trial"",""time""
""blur"",""37"",""152287""
","""event"",""trial"",""time""
""focus"",""37"",""166288""
","""event"",""trial"",""time""
""fullscreenenter"",""1"",""6628""
","
","","","","","","null","<div style=""font-size:60px;"">+</div>","null","","fixation","","",""
"memory-trial","60","243339","0.0-18.0-1.8","6191","approach_avoid_sv1","""event"",""trial"",""time""
""fullscreenenter"",""1"",""6628""
""blur"",""37"",""152287""
""focus"",""37"",""166288""
","""event"",""trial"",""time""
""blur"",""37"",""152287""
","""event"",""trial"",""time""
""focus"",""37"",""166288""
","""event"",""trial"",""time""
""fullscreenenter"",""1"",""6628""
","
","","","","","","1585.4000000953674","images/train8.png","","","memory_trial","3","maybe_new",""
"html-keyboard-response","61","243841","0.0-18.0-0.9","6191","approach_avoid_sv1","""event"",""trial"",""time""
""fullscreenenter"",""1"",""6628""
""blur"",""37"",""152287""
""focus"",""37"",""166288""
","""event"",""trial"",""time""
""blur"",""37"",""152287""
","""event"",""trial"",""time""
""focus"",""37"",""166288""
","""event"",""trial"",""time""
""fullscreenenter"",""1"",""6628""
","
","","","","","","null","<div style=""font-size:60px;"">+</div>","null","","fixation","","",""
"memory-trial","62","246161","0.0-18.0-1.9","6191","approach_avoid_sv1","""event"",""trial"",""time""
""fullscreenenter"",""1"",""6628""
""blur"",""37"",""152287""
""focus"",""37"",""166288""
","""event"",""trial"",""time""
""blur"",""37"",""152287""
","""event"",""trial"",""time""
""focus"",""37"",""166288""
","""event"",""trial"",""time""
""fullscreenenter"",""1"",""6628""
","
","","","","","","1313.5","images/cat6.png","","","memory_trial","3","maybe_new",""
"html-keyboard-response","63","246662","0.0-18.0-0.10","6191","approach_avoid_sv1","""event"",""trial"",""time""
""fullscreenenter"",""1"",""6628""
""blur"",""37"",""152287""
""focus"",""37"",""166288""
","""event"",""trial"",""time""
""blur"",""37"",""152287""
","""event"",""trial"",""time""
""focus"",""37"",""166288""
","""event"",""trial"",""time""
""fullscreenenter"",""1"",""6628""
","
","","","","","","null","<div style=""font-size:60px;"">+</div>","null","","fixation","","",""
"memory-trial","64","248460","0.0-18.0-1.10","6191","approach_avoid_sv1","""event"",""trial"",""time""
""fullscreenenter"",""1"",""6628""
""blur"",""37"",""152287""
""focus"",""37"",""166288""
","""event"",""trial"",""time""
""blur"",""37"",""152287""
","""event"",""trial"",""time""
""focus"",""37"",""166288""
","""event"",""trial"",""time""
""fullscreenenter"",""1"",""6628""
","
","","","","","","790.7999997138977","images/banana1.png","","","memory_trial","3","maybe_new",""
"html-keyboard-response","65","248961","0.0-18.0-0.11","6191","approach_avoid_sv1","""event"",""trial"",""time""
""fullscreenenter"",""1"",""6628""
""blur"",""37"",""152287""
""focus"",""37"",""166288""
","""event"",""trial"",""time""
""blur"",""37"",""152287""
","""event"",""trial"",""time""
""focus"",""37"",""166288""
","""event"",""trial"",""time""
""fullscreenenter"",""1"",""6628""
","
","","","","","","null","<div style=""font-size:60px;"">+</div>","null","","fixation","","",""
"memory-trial","66","252444","0.0-18.0-1.11","6191","approach_avoid_sv1","""event"",""trial"",""time""
""fullscreenenter"",""1"",""6628""
""blur"",""37"",""152287""
""focus"",""37"",""166288""
","""event"",""trial"",""time""
""blur"",""37"",""152287""
","""event"",""trial"",""time""
""focus"",""37"",""166288""
","""event"",""trial"",""time""
""fullscreenenter"",""1"",""6628""
","
","","","","","","2478.4000000953674","images/dog1.png","","","memory_trial","3","maybe_new",""
"html-keyboard-response","67","252950","0.0-18.0-0.12","6191","approach_avoid_sv1","""event"",""trial"",""time""
""fullscreenenter"",""1"",""6628""
""blur"",""37"",""152287""
""focus"",""37"",""166288""
","""event"",""trial"",""time""
""blur"",""37"",""152287""
","""event"",""trial"",""time""
""focus"",""37"",""166288""
","""event"",""trial"",""time""
""fullscreenenter"",""1"",""6628""
","
","","","","","","null","<div style=""font-size:60px;"">+</div>","null","","fixation","","",""
"memory-trial","68","256113","0.0-18.0-1.12","6191","approach_avoid_sv1","""event"",""trial"",""time""
""fullscreenenter"",""1"",""6628""
""blur"",""37"",""152287""
""focus"",""37"",""166288""
","""event"",""trial"",""time""
""blur"",""37"",""152287""
","""event"",""trial"",""time""
""focus"",""37"",""166288""
","""event"",""trial"",""time""
""fullscreenenter"",""1"",""6628""
","
","","","","","","2155.5999999046326","images/cow6.png","","","memory_trial","4","definitely_new",""
"html-keyboard-response","69","256614","0.0-18.0-0.13","6191","approach_avoid_sv1","""event"",""trial"",""time""
""fullscreenenter"",""1"",""6628""
""blur"",""37"",""152287""
""focus"",""37"",""166288""
","""event"",""trial"",""time""
""blur"",""37"",""152287""
","""event"",""trial"",""time""
""focus"",""37"",""166288""
","""event"",""trial"",""time""
""fullscreenenter"",""1"",""6628""
","
","","","","","","null","<div style=""font-size:60px;"">+</div>","null","","fixation","","",""
"memory-trial","70","259692","0.0-18.0-1.13","6191","approach_avoid_sv1","""event"",""trial"",""time""
""fullscreenenter"",""1"",""6628""
""blur"",""37"",""152287""
""focus"",""37"",""166288""
","""event"",""trial"",""time""
""blur"",""37"",""152287""
","""event"",""trial"",""time""
""focus"",""37"",""166288""
","""event"",""trial"",""time""
""fullscreenenter"",""1"",""6628""
","
","","","","","","2073.699999809265","images/apple6.png","","","memory_trial","3","maybe_new",""
"html-keyboard-response","71","260193","0.0-18.0-0.14","6191","approach_avoid_sv1","""event"",""trial"",""time""
""fullscreenenter"",""1"",""6628""
""blur"",""37"",""152287""
""focus"",""37"",""166288""
","""event"",""trial"",""time""
""blur"",""37"",""152287""
","""event"",""trial"",""time""
""focus"",""37"",""166288""
","""event"",""trial"",""time""
""fullscreenenter"",""1"",""6628""
","
","","","","","","null","<div style=""font-size:60px;"">+</div>","null","","fixation","","",""
"memory-trial","72","262571","0.0-18.0-1.14","6191","approach_avoid_sv1","""event"",""trial"",""time""
""fullscreenenter"",""1"",""6628""
""blur"",""37"",""152287""
""focus"",""37"",""166288""
","""event"",""trial"",""time""
""blur"",""37"",""152287""
","""event"",""trial"",""time""
""focus"",""37"",""166288""
","""event"",""trial"",""time""
""fullscreenenter"",""1"",""6628""
","
","","","","","","1372.6999998092651","images/sofa5.png","","","memory_trial","3","maybe_new",""
"html-keyboard-response","73","263073","0.0-18.0-0.15","6191","approach_avoid_sv1","""event"",""trial"",""time""
""fullscreenenter"",""1"",""6628""
""blur"",""37"",""152287""
""focus"",""37"",""166288""
","""event"",""trial"",""time""
""blur"",""37"",""152287""
","""event"",""trial"",""time""
""focus"",""37"",""166288""
","""event"",""trial"",""time""
""fullscreenenter"",""1"",""6628""
","
","","","","","","null","<div style=""font-size:60px;"">+</div>","null","","fixation","","",""
"memory-trial","74","264963","0.0-18.0-1.15","6191","approach_avoid_sv1","""event"",""trial"",""time""
""fullscreenenter"",""1"",""6628""
""blur"",""37"",""152287""
""focus"",""37"",""166288""
","""event"",""trial"",""time""
""blur"",""37"",""152287""
","""event"",""trial"",""time""
""focus"",""37"",""166288""
","""event"",""trial"",""time""
""fullscreenenter"",""1"",""6628""
","
","","","","","","882.9000000953674","images/bush7.png","","","memory_trial","3","maybe_new",""
"html-keyboard-response","75","265467","0.0-18.0-0.16","6191","approach_avoid_sv1","""event"",""trial"",""time""
""fullscreenenter"",""1"",""6628""
""blur"",""37"",""152287""
""focus"",""37"",""166288""
","""event"",""trial"",""time""
""blur"",""37"",""152287""
","""event"",""trial"",""time""
""focus"",""37"",""166288""
","""event"",""trial"",""time""
""fullscreenenter"",""1"",""6628""
","
","","","","","","null","<div style=""font-size:60px;"">+</div>","null","","fixation","","",""
"memory-trial","76","268467","0.0-18.0-1.16","6191","approach_avoid_sv1","""event"",""trial"",""time""
""fullscreenenter"",""1"",""6628""
""blur"",""37"",""152287""
""focus"",""37"",""166288""
","""event"",""trial"",""time""
""blur"",""37"",""152287""
","""event"",""trial"",""time""
""focus"",""37"",""166288""
","""event"",""trial"",""time""
""fullscreenenter"",""1"",""6628""
","
","","","","","","1994.2999997138977","images/apple5.png","","","memory_trial","2","maybe_old",""
"html-keyboard-response","77","268971","0.0-18.0-0.17","6191","approach_avoid_sv1","""event"",""trial"",""time""
""fullscreenenter"",""1"",""6628""
""blur"",""37"",""152287""
""focus"",""37"",""166288""
","""event"",""trial"",""time""
""blur"",""37"",""152287""
","""event"",""trial"",""time""
""focus"",""37"",""166288""
","""event"",""trial"",""time""
""fullscreenenter"",""1"",""6628""
","
","","","","","","null","<div style=""font-size:60px;"">+</div>","null","","fixation","","",""
"memory-trial","78","271195","0.0-18.0-1.17","6191","approach_avoid_sv1","""event"",""trial"",""time""
""fullscreenenter"",""1"",""6628""
""blur"",""37"",""152287""
""focus"",""37"",""166288""
","""event"",""trial"",""time""
""blur"",""37"",""152287""
","""event"",""trial"",""time""
""focus"",""37"",""166288""
","""event"",""trial"",""time""
""fullscreenenter"",""1"",""6628""
","
","","","","","","1216.5","images/bed3.png","","","memory_trial","4","definitely_new",""
"html-keyboard-response","79","271697","0.0-18.0-0.18","6191","approach_avoid_sv1","""event"",""trial"",""time""
""fullscreenenter"",""1"",""6628""
""blur"",""37"",""152287""
""focus"",""37"",""166288""
","""event"",""trial"",""time""
""blur"",""37"",""152287""
","""event"",""trial"",""time""
""focus"",""37"",""166288""
","""event"",""trial"",""time""
""fullscreenenter"",""1"",""6628""
","
","","","","","","null","<div style=""font-size:60px;"">+</div>","null","","fixation","","",""
"memory-trial","80","274107","0.0-18.0-1.18","6191","approach_avoid_sv1","""event"",""trial"",""time""
""fullscreenenter"",""1"",""6628""
""blur"",""37"",""152287""
""focus"",""37"",""166288""
","""event"",""trial"",""time""
""blur"",""37"",""152287""
","""event"",""trial"",""time""
""focus"",""37"",""166288""
","""event"",""trial"",""time""
""fullscreenenter"",""1"",""6628""
","
","","","","","","1404.7000002861023","images/banana4.png","","","memory_trial","4","definitely_new",""
"html-keyboard-response","81","274610","0.0-18.0-0.19","6191","approach_avoid_sv1","""event"",""trial"",""time""
""fullscreenenter"",""1"",""6628""
""blur"",""37"",""152287""
""focus"",""37"",""166288""
","""event"",""trial"",""time""
""blur"",""37"",""152287""
","""event"",""trial"",""time""
""focus"",""37"",""166288""
","""event"",""trial"",""time""
""fullscreenenter"",""1"",""6628""
","
","","","","","","null","<div style=""font-size:60px;"">+</div>","null","","fixation","","",""
"memory-trial","82","277547","0.0-18.0-1.19","6191","approach_avoid_sv1","""event"",""trial"",""time""
""fullscreenenter"",""1"",""6628""
""blur"",""37"",""152287""
""focus"",""37"",""166288""
","""event"",""trial"",""time""
""blur"",""37"",""152287""
","""event"",""trial"",""time""
""focus"",""37"",""166288""
","""event"",""trial"",""time""
""fullscreenenter"",""1"",""6628""
","
","","","","","","1933.1999998092651","images/flower3.png","","","memory_trial","1","definitely_old",""
"html-keyboard-response","83","278054","0.0-18.0-0.20","6191","approach_avoid_sv1","""event"",""trial"",""time""
""fullscreenenter"",""1"",""6628""
""blur"",""37"",""152287""
""focus"",""37"",""166288""
","""event"",""trial"",""time""
""blur"",""37"",""152287""
","""event"",""trial"",""time""
""focus"",""37"",""166288""
","""event"",""trial"",""time""
""fullscreenenter"",""1"",""6628""
","
","","","","","","null","<div style=""font-size:60px;"">+</div>","null","","fixation","","",""
"memory-trial","84","280603","0.0-18.0-1.20","6191","approach_avoid_sv1","""event"",""trial"",""time""
""fullscreenenter"",""1"",""6628""
""blur"",""37"",""152287""
""focus"",""37"",""166288""
","""event"",""trial"",""time""
""blur"",""37"",""152287""
","""event"",""trial"",""time""
""focus"",""37"",""166288""
","""event"",""trial"",""time""
""fullscreenenter"",""1"",""6628""
","
","","","","","","1545.8999996185303","images/flower8.png","","","memory_trial","2","maybe_old",""
"html-keyboard-response","85","281109","0.0-18.0-0.21","6191","approach_avoid_sv1","""event"",""trial"",""time""
""fullscreenenter"",""1"",""6628""
""blur"",""37"",""152287""
""focus"",""37"",""166288""
","""event"",""trial"",""time""
""blur"",""37"",""152287""
","""event"",""trial"",""time""
""focus"",""37"",""166288""
","""event"",""trial"",""time""
""fullscreenenter"",""1"",""6628""
","
","","","","","","null","<div style=""font-size:60px;"">+</div>","null","","fixation","","",""
"memory-trial","86","283073","0.0-18.0-1.21","6191","approach_avoid_sv1","""event"",""trial"",""time""
""fullscreenenter"",""1"",""6628""
""blur"",""37"",""152287""
""focus"",""37"",""166288""
","""event"",""trial"",""time""
""blur"",""37"",""152287""
","""event"",""trial"",""time""
""focus"",""37"",""166288""
","""event"",""trial"",""time""
""fullscreenenter"",""1"",""6628""
","
","","","","","","958.6999998092651","images/goat4.png","","","memory_trial","4","definitely_new",""
"html-keyboard-response","87","283574","0.0-18.0-0.22","6191","approach_avoid_sv1","""event"",""trial"",""time""
""fullscreenenter"",""1"",""6628""
""blur"",""37"",""152287""
""focus"",""37"",""166288""
","""event"",""trial"",""time""
""blur"",""37"",""152287""
","""event"",""trial"",""time""
""focus"",""37"",""166288""
","""event"",""trial"",""time""
""fullscreenenter"",""1"",""6628""
","
","","","","","","null","<div style=""font-size:60px;"">+</div>","null","","fixation","","",""
"memory-trial","88","285830","0.0-18.0-1.22","6191","approach_avoid_sv1","""event"",""trial"",""time""
""fullscreenenter"",""1"",""6628""
""blur"",""37"",""152287""
""focus"",""37"",""166288""
","""event"",""trial"",""time""
""blur"",""37"",""152287""
","""event"",""trial"",""time""
""focus"",""37"",""166288""
","""event"",""trial"",""time""
""fullscreenenter"",""1"",""6628""
","
","","","","","","1252.5999999046326","images/sofa3.png","","","memory_trial","3","maybe_new",""
"html-keyboard-response","89","286331","0.0-18.0-0.23","6191","approach_avoid_sv1","""event"",""trial"",""time""
""fullscreenenter"",""1"",""6628""
""blur"",""37"",""152287""
""focus"",""37"",""166288""
","""event"",""trial"",""time""
""blur"",""37"",""152287""
","""event"",""trial"",""time""
""focus"",""37"",""166288""
","""event"",""trial"",""time""
""fullscreenenter"",""1"",""6628""
","
","","","","","","null","<div style=""font-size:60px;"">+</div>","null","","fixation","","",""
"memory-trial","90","288914","0.0-18.0-1.23","6191","approach_avoid_sv1","""event"",""trial"",""time""
""fullscreenenter"",""1"",""6628""
""blur"",""37"",""152287""
""focus"",""37"",""166288""
","""event"",""trial"",""time""
""blur"",""37"",""152287""
","""event"",""trial"",""time""
""focus"",""37"",""166288""
","""event"",""trial"",""time""
""fullscreenenter"",""1"",""6628""
","
","","","","","","1579.0999999046326","images/sofa7.png","","","memory_trial","2","maybe_old",""
"html-keyboard-response","91","289419","0.0-18.0-0.24","6191","approach_avoid_sv1","""event"",""trial"",""time""
""fullscreenenter"",""1"",""6628""
""blur"",""37"",""152287""
""focus"",""37"",""166288""
","""event"",""trial"",""time""
""blur"",""37"",""152287""
","""event"",""trial"",""time""
""focus"",""37"",""166288""
","""event"",""trial"",""time""
""fullscreenenter"",""1"",""6628""
","
","","","","","","null","<div style=""font-size:60px;"">+</div>","null","","fixation","","",""
"memory-trial","92","291664","0.0-18.0-1.24","6191","approach_avoid_sv1","""event"",""trial"",""time""
""fullscreenenter"",""1"",""6628""
""blur"",""37"",""152287""
""focus"",""37"",""166288""
","""event"",""trial"",""time""
""blur"",""37"",""152287""
","""event"",""trial"",""time""
""focus"",""37"",""166288""
","""event"",""trial"",""time""
""fullscreenenter"",""1"",""6628""
","
","","","","","","1240.7000002861023","images/sheep6.png","","","memory_trial","4","definitely_new",""
"html-keyboard-response","93","292166","0.0-18.0-0.25","6191","approach_avoid_sv1","""event"",""trial"",""time""
""fullscreenenter"",""1"",""6628""
""blur"",""37"",""152287""
""focus"",""37"",""166288""
","""event"",""trial"",""time""
""blur"",""37"",""152287""
","""event"",""trial"",""time""
""focus"",""37"",""166288""
","""event"",""trial"",""time""
""fullscreenenter"",""1"",""6628""
","
","","","","","","null","<div style=""font-size:60px;"">+</div>","null","","fixation","","",""
"memory-trial","94","294672","0.0-18.0-1.25","6191","approach_avoid_sv1","""event"",""trial"",""time""
""fullscreenenter"",""1"",""6628""
""blur"",""37"",""152287""
""focus"",""37"",""166288""
","""event"",""trial"",""time""
""blur"",""37"",""152287""
","""event"",""trial"",""time""
""focus"",""37"",""166288""
","""event"",""trial"",""time""
""fullscreenenter"",""1"",""6628""
","
","","","","","","1499.2000002861023","images/tree2.png","","","memory_trial","1","definitely_old",""
"html-keyboard-response","95","295175","0.0-18.0-0.26","6191","approach_avoid_sv1","""event"",""trial"",""time""
""fullscreenenter"",""1"",""6628""
""blur"",""37"",""152287""
""focus"",""37"",""166288""
","""event"",""trial"",""time""
""blur"",""37"",""152287""
","""event"",""trial"",""time""
""focus"",""37"",""166288""
","""event"",""trial"",""time""
""fullscreenenter"",""1"",""6628""
","
","","","","","","null","<div style=""font-size:60px;"">+</div>","null","","fixation","","",""
"memory-trial","96","298091","0.0-18.0-1.26","6191","approach_avoid_sv1","""event"",""trial"",""time""
""fullscreenenter"",""1"",""6628""
""blur"",""37"",""152287""
""focus"",""37"",""166288""
","""event"",""trial"",""time""
""blur"",""37"",""152287""
","""event"",""trial"",""time""
""focus"",""37"",""166288""
","""event"",""trial"",""time""
""fullscreenenter"",""1"",""6628""
","
","","","","","","1910","images/train3.png","","","memory_trial","2","maybe_old",""
"html-keyboard-response","97","298597","0.0-18.0-0.27","6191","approach_avoid_sv1","""event"",""trial"",""time""
""fullscreenenter"",""1"",""6628""
""blur"",""37"",""152287""
""focus"",""37"",""166288""
","""event"",""trial"",""time""
""blur"",""37"",""152287""
","""event"",""trial"",""time""
""focus"",""37"",""166288""
","""event"",""trial"",""time""
""fullscreenenter"",""1"",""6628""
","
","","","","","","null","<div style=""font-size:60px;"">+</div>","null","","fixation","","",""
"memory-trial","98","301200","0.0-18.0-1.27","6191","approach_avoid_sv1","""event"",""trial"",""time""
""fullscreenenter"",""1"",""6628""
""blur"",""37"",""152287""
""focus"",""37"",""166288""
","""event"",""trial"",""time""
""blur"",""37"",""152287""
","""event"",""trial"",""time""
""focus"",""37"",""166288""
","""event"",""trial"",""time""
""fullscreenenter"",""1"",""6628""
","
","","","","","","1596.3000001907349","images/chair4.png","","","memory_trial","1","definitely_old",""
"html-keyboard-response","99","301707","0.0-18.0-0.28","6191","approach_avoid_sv1","""event"",""trial"",""time""
""fullscreenenter"",""1"",""6628""
""blur"",""37"",""152287""
""focus"",""37"",""166288""
","""event"",""trial"",""time""
""blur"",""37"",""152287""
","""event"",""trial"",""time""
""focus"",""37"",""166288""
","""event"",""trial"",""time""
""fullscreenenter"",""1"",""6628""
","
","","","","","","null","<div style=""font-size:60px;"">+</div>","null","","fixation","","",""
"memory-trial","100","304908","0.0-18.0-1.28","6191","approach_avoid_sv1","""event"",""trial"",""time""
""fullscreenenter"",""1"",""6628""
""blur"",""37"",""152287""
""focus"",""37"",""166288""
","""event"",""trial"",""time""
""blur"",""37"",""152287""
","""event"",""trial"",""time""
""focus"",""37"",""166288""
","""event"",""trial"",""time""
""fullscreenenter"",""1"",""6628""
","
","","","","","","2198.199999809265","images/cactus8.png","","","memory_trial","4","definitely_new",""
"html-keyboard-response","101","305413","0.0-18.0-0.29","6191","approach_avoid_sv1","""event"",""trial"",""time""
""fullscreenenter"",""1"",""6628""
""blur"",""37"",""152287""
""focus"",""37"",""166288""
","""event"",""trial"",""time""
""blur"",""37"",""152287""
","""event"",""trial"",""time""
""focus"",""37"",""166288""
","""event"",""trial"",""time""
""fullscreenenter"",""1"",""6628""
","
","","","","","","null","<div style=""font-size:60px;"">+</div>","null","","fixation","","",""
"memory-trial","102","307296","0.0-18.0-1.29","6191","approach_avoid_sv1","""event"",""trial"",""time""
""fullscreenenter"",""1"",""6628""
""blur"",""37"",""152287""
""focus"",""37"",""166288""
","""event"",""trial"",""time""
""blur"",""37"",""152287""
","""event"",""trial"",""time""
""focus"",""37"",""166288""
","""event"",""trial"",""time""
""fullscreenenter"",""1"",""6628""
","
","","","","","","879","images/cactus7.png","","","memory_trial","3","maybe_new",""
"html-keyboard-response","103","307798","0.0-18.0-0.30","6191","approach_avoid_sv1","""event"",""trial"",""time""
""fullscreenenter"",""1"",""6628""
""blur"",""37"",""152287""
""focus"",""37"",""166288""
","""event"",""trial"",""time""
""blur"",""37"",""152287""
","""event"",""trial"",""time""
""focus"",""37"",""166288""
","""event"",""trial"",""time""
""fullscreenenter"",""1"",""6628""
","
","","","","","","null","<div style=""font-size:60px;"">+</div>","null","","fixation","","",""
"memory-trial","104","310011","0.0-18.0-1.30","6191","approach_avoid_sv1","""event"",""trial"",""time""
""fullscreenenter"",""1"",""6628""
""blur"",""37"",""152287""
""focus"",""37"",""166288""
","""event"",""trial"",""time""
""blur"",""37"",""152287""
","""event"",""trial"",""time""
""focus"",""37"",""166288""
","""event"",""trial"",""time""
""fullscreenenter"",""1"",""6628""
","
","","","","","","1207.8999996185303","images/rabbit1.png","","","memory_trial","4","definitely_new",""
"html-keyboard-response","105","310513","0.0-18.0-0.31","6191","approach_avoid_sv1","""event"",""trial"",""time""
""fullscreenenter"",""1"",""6628""
""blur"",""37"",""152287""
""focus"",""37"",""166288""
","""event"",""trial"",""time""
""blur"",""37"",""152287""
","""event"",""trial"",""time""
""focus"",""37"",""166288""
","""event"",""trial"",""time""
""fullscreenenter"",""1"",""6628""
","
","","","","","","null","<div style=""font-size:60px;"">+</div>","null","","fixation","","",""
"memory-trial","106","312715","0.0-18.0-1.31","6191","approach_avoid_sv1","""event"",""trial"",""time""
""fullscreenenter"",""1"",""6628""
""blur"",""37"",""152287""
""focus"",""37"",""166288""
","""event"",""trial"",""time""
""blur"",""37"",""152287""
","""event"",""trial"",""time""
""focus"",""37"",""166288""
","""event"",""trial"",""time""
""fullscreenenter"",""1"",""6628""
","
","","","","","","1198.7000002861023","images/train7.png","","","memory_trial","3","maybe_new",""
"html-keyboard-response","107","313221","0.0-18.0-0.32","6191","approach_avoid_sv1","""event"",""trial"",""time""
""fullscreenenter"",""1"",""6628""
""blur"",""37"",""152287""
""focus"",""37"",""166288""
","""event"",""trial"",""time""
""blur"",""37"",""152287""
","""event"",""trial"",""time""
""focus"",""37"",""166288""
","""event"",""trial"",""time""
""fullscreenenter"",""1"",""6628""
","
","","","","","","null","<div style=""font-size:60px;"">+</div>","null","","fixation","","",""
"memory-trial","108","316629","0.0-18.0-1.32","6191","approach_avoid_sv1","""event"",""trial"",""time""
""fullscreenenter"",""1"",""6628""
""blur"",""37"",""152287""
""focus"",""37"",""166288""
","""event"",""trial"",""time""
""blur"",""37"",""152287""
","""event"",""trial"",""time""
""focus"",""37"",""166288""
","""event"",""trial"",""time""
""fullscreenenter"",""1"",""6628""
","
","","","","","","2400.5","images/flower7.png","","","memory_trial","4","definitely_new",""
"html-keyboard-response","109","317136","0.0-18.0-0.33","6191","approach_avoid_sv1","""event"",""trial"",""time""
""fullscreenenter"",""1"",""6628""
""blur"",""37"",""152287""
""focus"",""37"",""166288""
","""event"",""trial"",""time""
""blur"",""37"",""152287""
","""event"",""trial"",""time""
""focus"",""37"",""166288""
","""event"",""trial"",""time""
""fullscreenenter"",""1"",""6628""
","
","","","","","","null","<div style=""font-size:60px;"">+</div>","null","","fixation","","",""
"memory-trial","110","319616","0.0-18.0-1.33","6191","approach_avoid_sv1","""event"",""trial"",""time""
""fullscreenenter"",""1"",""6628""
""blur"",""37"",""152287""
""focus"",""37"",""166288""
","""event"",""trial"",""time""
""blur"",""37"",""152287""
","""event"",""trial"",""time""
""focus"",""37"",""166288""
","""event"",""trial"",""time""
""fullscreenenter"",""1"",""6628""
","
","","","","","","1475.4000000953674","images/flower2.png","","","memory_trial","3","maybe_new",""
"html-keyboard-response","111","320117","0.0-18.0-0.34","6191","approach_avoid_sv1","""event"",""trial"",""time""
""fullscreenenter"",""1"",""6628""
""blur"",""37"",""152287""
""focus"",""37"",""166288""
","""event"",""trial"",""time""
""blur"",""37"",""152287""
","""event"",""trial"",""time""
""focus"",""37"",""166288""
","""event"",""trial"",""time""
""fullscreenenter"",""1"",""6628""
","
","","","","","","null","<div style=""font-size:60px;"">+</div>","null","","fixation","","",""
"memory-trial","112","322432","0.0-18.0-1.34","6191","approach_avoid_sv1","""event"",""trial"",""time""
""fullscreenenter"",""1"",""6628""
""blur"",""37"",""152287""
""focus"",""37"",""166288""
","""event"",""trial"",""time""
""blur"",""37"",""152287""
","""event"",""trial"",""time""
""focus"",""37"",""166288""
","""event"",""trial"",""time""
""fullscreenenter"",""1"",""6628""
","
","","","","","","1311.8000001907349","images/straw3.png","","","memory_trial","3","maybe_new",""
"html-keyboard-response","113","322933","0.0-18.0-0.35","6191","approach_avoid_sv1","""event"",""trial"",""time""
""fullscreenenter"",""1"",""6628""
""blur"",""37"",""152287""
""focus"",""37"",""166288""
","""event"",""trial"",""time""
""blur"",""37"",""152287""
","""event"",""trial"",""time""
""focus"",""37"",""166288""
","""event"",""trial"",""time""
""fullscreenenter"",""1"",""6628""
","
","","","","","","null","<div style=""font-size:60px;"">+</div>","null","","fixation","","",""
"memory-trial","114","325963","0.0-18.0-1.35","6191","approach_avoid_sv1","""event"",""trial"",""time""
""fullscreenenter"",""1"",""6628""
""blur"",""37"",""152287""
""focus"",""37"",""166288""
","""event"",""trial"",""time""
""blur"",""37"",""152287""
","""event"",""trial"",""time""
""focus"",""37"",""166288""
","""event"",""trial"",""time""
""fullscreenenter"",""1"",""6628""
","
","","","","","","2023.3000001907349","images/horse5.png","","","memory_trial","3","maybe_new",""
"html-keyboard-response","115","326469","0.0-18.0-0.36","6191","approach_avoid_sv1","""event"",""trial"",""time""
""fullscreenenter"",""1"",""6628""
""blur"",""37"",""152287""
""focus"",""37"",""166288""
","""event"",""trial"",""time""
""blur"",""37"",""152287""
","""event"",""trial"",""time""
""focus"",""37"",""166288""
","""event"",""trial"",""time""
""fullscreenenter"",""1"",""6628""
","
","","","","","","null","<div style=""font-size:60px;"">+</div>","null","","fixation","","",""
"memory-trial","116","328928","0.0-18.0-1.36","6191","approach_avoid_sv1","""event"",""trial"",""time""
""fullscreenenter"",""1"",""6628""
""blur"",""37"",""152287""
""focus"",""37"",""166288""
","""event"",""trial"",""time""
""blur"",""37"",""152287""
","""event"",""trial"",""time""
""focus"",""37"",""166288""
","""event"",""trial"",""time""
""fullscreenenter"",""1"",""6628""
","
","","","","","","1454.9000000953674","images/tree1.png","","","memory_trial","2","maybe_old",""
"html-keyboard-response","117","329429","0.0-18.0-0.37","6191","approach_avoid_sv1","""event"",""trial"",""time""
""fullscreenenter"",""1"",""6628""
""blur"",""37"",""152287""
""focus"",""37"",""166288""
","""event"",""trial"",""time""
""blur"",""37"",""152287""
","""event"",""trial"",""time""
""focus"",""37"",""166288""
","""event"",""trial"",""time""
""fullscreenenter"",""1"",""6628""
","
","","","","","","null","<div style=""font-size:60px;"">+</div>","null","","fixation","","",""
"memory-trial","118","332005","0.0-18.0-1.37","6191","approach_avoid_sv1","""event"",""trial"",""time""
""fullscreenenter"",""1"",""6628""
""blur"",""37"",""152287""
""focus"",""37"",""166288""
","""event"",""trial"",""time""
""blur"",""37"",""152287""
","""event"",""trial"",""time""
""focus"",""37"",""166288""
","""event"",""trial"",""time""
""fullscreenenter"",""1"",""6628""
","
","","","","","","1569.2000002861023","images/banana8.png","","","memory_trial","4","definitely_new",""
"html-keyboard-response","119","332511","0.0-18.0-0.38","6191","approach_avoid_sv1","""event"",""trial"",""time""
""fullscreenenter"",""1"",""6628""
""blur"",""37"",""152287""
""focus"",""37"",""166288""
","""event"",""trial"",""time""
""blur"",""37"",""152287""
","""event"",""trial"",""time""
""focus"",""37"",""166288""
","""event"",""trial"",""time""
""fullscreenenter"",""1"",""6628""
","
","","","","","","null","<div style=""font-size:60px;"">+</div>","null","","fixation","","",""
"memory-trial","120","335568","0.0-18.0-1.38","6191","approach_avoid_sv1","""event"",""trial"",""time""
""fullscreenenter"",""1"",""6628""
""blur"",""37"",""152287""
""focus"",""37"",""166288""
","""event"",""trial"",""time""
""blur"",""37"",""152287""
","""event"",""trial"",""time""
""focus"",""37"",""166288""
","""event"",""trial"",""time""
""fullscreenenter"",""1"",""6628""
","
","","","","","","2049.199999809265","images/truck4.png","","","memory_trial","2","maybe_old",""
"html-keyboard-response","121","336069","0.0-18.0-0.39","6191","approach_avoid_sv1","""event"",""trial"",""time""
""fullscreenenter"",""1"",""6628""
""blur"",""37"",""152287""
""focus"",""37"",""166288""
","""event"",""trial"",""time""
""blur"",""37"",""152287""
","""event"",""trial"",""time""
""focus"",""37"",""166288""
","""event"",""trial"",""time""
""fullscreenenter"",""1"",""6628""
","
","","","","","","null","<div style=""font-size:60px;"">+</div>","null","","fixation","","",""
"memory-trial","122","339062","0.0-18.0-1.39","6191","approach_avoid_sv1","""event"",""trial"",""time""
""fullscreenenter"",""1"",""6628""
""blur"",""37"",""152287""
""focus"",""37"",""166288""
","""event"",""trial"",""time""
""blur"",""37"",""152287""
","""event"",""trial"",""time""
""focus"",""37"",""166288""
","""event"",""trial"",""time""
""fullscreenenter"",""1"",""6628""
","
","","","","","","1988.7999997138977","images/plane1.png","","","memory_trial","4","definitely_new",""
"html-keyboard-response","123","339567","0.0-18.0-0.40","6191","approach_avoid_sv1","""event"",""trial"",""time""
""fullscreenenter"",""1"",""6628""
""blur"",""37"",""152287""
""focus"",""37"",""166288""
","""event"",""trial"",""time""
""blur"",""37"",""152287""
","""event"",""trial"",""time""
""focus"",""37"",""166288""
","""event"",""trial"",""time""
""fullscreenenter"",""1"",""6628""
","
","","","","","","null","<div style=""font-size:60px;"">+</div>","null","","fixation","","",""
"memory-trial","124","342293","0.0-18.0-1.40","6191","approach_avoid_sv1","""event"",""trial"",""time""
""fullscreenenter"",""1"",""6628""
""blur"",""37"",""152287""
""focus"",""37"",""166288""
","""event"",""trial"",""time""
""blur"",""37"",""152287""
","""event"",""trial"",""time""
""focus"",""37"",""166288""
","""event"",""trial"",""time""
""fullscreenenter"",""1"",""6628""
","
","","","","","","1718.5","images/rodent1.png","","","memory_trial","1","definitely_old",""
"html-keyboard-response","125","342798","0.0-18.0-0.41","6191","approach_avoid_sv1","""event"",""trial"",""time""
""fullscreenenter"",""1"",""6628""
""blur"",""37"",""152287""
""focus"",""37"",""166288""
","""event"",""trial"",""time""
""blur"",""37"",""152287""
","""event"",""trial"",""time""
""focus"",""37"",""166288""
","""event"",""trial"",""time""
""fullscreenenter"",""1"",""6628""
","
","","","","","","null","<div style=""font-size:60px;"">+</div>","null","","fixation","","",""
"memory-trial","126","345557","0.0-18.0-1.41","6191","approach_avoid_sv1","""event"",""trial"",""time""
""fullscreenenter"",""1"",""6628""
""blur"",""37"",""152287""
""focus"",""37"",""166288""
","""event"",""trial"",""time""
""blur"",""37"",""152287""
","""event"",""trial"",""time""
""focus"",""37"",""166288""
","""event"",""trial"",""time""
""fullscreenenter"",""1"",""6628""
","
","","","","","","1753.6999998092651","images/horse8.png","","","memory_trial","3","maybe_new",""
"html-button-response","127","456835","0.0-18.0-2.41-0.41","6191","approach_avoid_sv1","""event"",""trial"",""time""
""fullscreenenter"",""1"",""6628""
""blur"",""37"",""152287""
""focus"",""37"",""166288""
","""event"",""trial"",""time""
""blur"",""37"",""152287""
","""event"",""trial"",""time""
""focus"",""37"",""166288""
","""event"",""trial"",""time""
""fullscreenenter"",""1"",""6628""
","
","","","","","","111278.80000019073","<p> Take a break! </p><p> Click the button to continue. </p>","0","","break","","",""
"html-keyboard-response","128","457337","0.0-18.0-0.42","6191","approach_avoid_sv1","""event"",""trial"",""time""
""fullscreenenter"",""1"",""6628""
""blur"",""37"",""152287""
""focus"",""37"",""166288""
","""event"",""trial"",""time""
""blur"",""37"",""152287""
","""event"",""trial"",""time""
""focus"",""37"",""166288""
","""event"",""trial"",""time""
""fullscreenenter"",""1"",""6628""
","
","","","","","","null","<div style=""font-size:60px;"">+</div>","null","","fixation","","",""
"memory-trial","129","460776","0.0-18.0-1.42","6191","approach_avoid_sv1","""event"",""trial"",""time""
""fullscreenenter"",""1"",""6628""
""blur"",""37"",""152287""
""focus"",""37"",""166288""
","""event"",""trial"",""time""
""blur"",""37"",""152287""
","""event"",""trial"",""time""
""focus"",""37"",""166288""
","""event"",""trial"",""time""
""fullscreenenter"",""1"",""6628""
","
","","","","","","2432.0999999046326","images/rabbit6.png","","","memory_trial","2","maybe_old",""
"html-keyboard-response","130","461283","0.0-18.0-0.43","6191","approach_avoid_sv1","""event"",""trial"",""time""
""fullscreenenter"",""1"",""6628""
""blur"",""37"",""152287""
""focus"",""37"",""166288""
","""event"",""trial"",""time""
""blur"",""37"",""152287""
","""event"",""trial"",""time""
""focus"",""37"",""166288""
","""event"",""trial"",""time""
""fullscreenenter"",""1"",""6628""
","
","","","","","","null","<div style=""font-size:60px;"">+</div>","null","","fixation","","",""
"memory-trial","131","465011","0.0-18.0-1.43","6191","approach_avoid_sv1","""event"",""trial"",""time""
""fullscreenenter"",""1"",""6628""
""blur"",""37"",""152287""
""focus"",""37"",""166288""
","""event"",""trial"",""time""
""blur"",""37"",""152287""
","""event"",""trial"",""time""
""focus"",""37"",""166288""
","""event"",""trial"",""time""
""fullscreenenter"",""1"",""6628""
","
","","","","","","2722.7999997138977","images/horse2.png","","","memory_trial","1","definitely_old",""
"html-keyboard-response","132","465517","0.0-18.0-0.44","6191","approach_avoid_sv1","""event"",""trial"",""time""
""fullscreenenter"",""1"",""6628""
""blur"",""37"",""152287""
""focus"",""37"",""166288""
","""event"",""trial"",""time""
""blur"",""37"",""152287""
","""event"",""trial"",""time""
""focus"",""37"",""166288""
","""event"",""trial"",""time""
""fullscreenenter"",""1"",""6628""
","
","","","","","","null","<div style=""font-size:60px;"">+</div>","null","","fixation","","",""
"memory-trial","133","467848","0.0-18.0-1.44","6191","approach_avoid_sv1","""event"",""trial"",""time""
""fullscreenenter"",""1"",""6628""
""blur"",""37"",""152287""
""focus"",""37"",""166288""
","""event"",""trial"",""time""
""blur"",""37"",""152287""
","""event"",""trial"",""time""
""focus"",""37"",""166288""
","""event"",""trial"",""time""
""fullscreenenter"",""1"",""6628""
","
","","","","","","1324.1999998092651","images/rodent3.png","","","memory_trial","1","definitely_old",""
"html-keyboard-response","134","468355","0.0-18.0-0.45","6191","approach_avoid_sv1","""event"",""trial"",""time""
""fullscreenenter"",""1"",""6628""
""blur"",""37"",""152287""
""focus"",""37"",""166288""
","""event"",""trial"",""time""
""blur"",""37"",""152287""
","""event"",""trial"",""time""
""focus"",""37"",""166288""
","""event"",""trial"",""time""
""fullscreenenter"",""1"",""6628""
","
","","","","","","null","<div style=""font-size:60px;"">+</div>","null","","fixation","","",""
"memory-trial","135","471277","0.0-18.0-1.45","6191","approach_avoid_sv1","""event"",""trial"",""time""
""fullscreenenter"",""1"",""6628""
""blur"",""37"",""152287""
""focus"",""37"",""166288""
","""event"",""trial"",""time""
""blur"",""37"",""152287""
","""event"",""trial"",""time""
""focus"",""37"",""166288""
","""event"",""trial"",""time""
""fullscreenenter"",""1"",""6628""
","
","","","","","","1918.4000000953674","images/horse7.png","","","memory_trial","2","maybe_old",""
"html-keyboard-response","136","471779","0.0-18.0-0.46","6191","approach_avoid_sv1","""event"",""trial"",""time""
""fullscreenenter"",""1"",""6628""
""blur"",""37"",""152287""
""focus"",""37"",""166288""
","""event"",""trial"",""time""
""blur"",""37"",""152287""
","""event"",""trial"",""time""
""focus"",""37"",""166288""
","""event"",""trial"",""time""
""fullscreenenter"",""1"",""6628""
","
","","","","","","null","<div style=""font-size:60px;"">+</div>","null","","fixation","","",""
"memory-trial","137","474158","0.0-18.0-1.46","6191","approach_avoid_sv1","""event"",""trial"",""time""
""fullscreenenter"",""1"",""6628""
""blur"",""37"",""152287""
""focus"",""37"",""166288""
","""event"",""trial"",""time""
""blur"",""37"",""152287""
","""event"",""trial"",""time""
""focus"",""37"",""166288""
","""event"",""trial"",""time""
""fullscreenenter"",""1"",""6628""
","
","","","","","","1372.2000002861023","images/bed1.png","","","memory_trial","3","maybe_new",""
"html-keyboard-response","138","474664","0.0-18.0-0.47","6191","approach_avoid_sv1","""event"",""trial"",""time""
""fullscreenenter"",""1"",""6628""
""blur"",""37"",""152287""
""focus"",""37"",""166288""
","""event"",""trial"",""time""
""blur"",""37"",""152287""
","""event"",""trial"",""time""
""focus"",""37"",""166288""
","""event"",""trial"",""time""
""fullscreenenter"",""1"",""6628""
","
","","","","","","null","<div style=""font-size:60px;"">+</div>","null","","fixation","","",""
"memory-trial","139","476925","0.0-18.0-1.47","6191","approach_avoid_sv1","""event"",""trial"",""time""
""fullscreenenter"",""1"",""6628""
""blur"",""37"",""152287""
""focus"",""37"",""166288""
","""event"",""trial"",""time""
""blur"",""37"",""152287""
","""event"",""trial"",""time""
""focus"",""37"",""166288""
","""event"",""trial"",""time""
""fullscreenenter"",""1"",""6628""
","
","","","","","","1256.9000000953674","images/flower4.png","","","memory_trial","3","maybe_new",""
"html-keyboard-response","140","477427","0.0-18.0-0.48","6191","approach_avoid_sv1","""event"",""trial"",""time""
""fullscreenenter"",""1"",""6628""
""blur"",""37"",""152287""
""focus"",""37"",""166288""
","""event"",""trial"",""time""
""blur"",""37"",""152287""
","""event"",""trial"",""time""
""focus"",""37"",""166288""
","""event"",""trial"",""time""
""fullscreenenter"",""1"",""6628""
","
","","","","","","null","<div style=""font-size:60px;"">+</div>","null","","fixation","","",""
"memory-trial","141","480076","0.0-18.0-1.48","6191","approach_avoid_sv1","""event"",""trial"",""time""
""fullscreenenter"",""1"",""6628""
""blur"",""37"",""152287""
""focus"",""37"",""166288""
","""event"",""trial"",""time""
""blur"",""37"",""152287""
","""event"",""trial"",""time""
""focus"",""37"",""166288""
","""event"",""trial"",""time""
""fullscreenenter"",""1"",""6628""
","
","","","","","","1641.5999999046326","images/cat3.png","","","memory_trial","2","maybe_old",""
"html-keyboard-response","142","480579","0.0-18.0-0.49","6191","approach_avoid_sv1","""event"",""trial"",""time""
""fullscreenenter"",""1"",""6628""
""blur"",""37"",""152287""
""focus"",""37"",""166288""
","""event"",""trial"",""time""
""blur"",""37"",""152287""
","""event"",""trial"",""time""
""focus"",""37"",""166288""
","""event"",""trial"",""time""
""fullscreenenter"",""1"",""6628""
","
","","","","","","null","<div style=""font-size:60px;"">+</div>","null","","fixation","","",""
"memory-trial","143","483059","0.0-18.0-1.49","6191","approach_avoid_sv1","""event"",""trial"",""time""
""fullscreenenter"",""1"",""6628""
""blur"",""37"",""152287""
""focus"",""37"",""166288""
","""event"",""trial"",""time""
""blur"",""37"",""152287""
","""event"",""trial"",""time""
""focus"",""37"",""166288""
","""event"",""trial"",""time""
""fullscreenenter"",""1"",""6628""
","
","","","","","","1473.0999999046326","images/table3.png","","","memory_trial","3","maybe_new",""
"html-keyboard-response","144","483565","0.0-18.0-0.50","6191","approach_avoid_sv1","""event"",""trial"",""time""
""fullscreenenter"",""1"",""6628""
""blur"",""37"",""152287""
""focus"",""37"",""166288""
","""event"",""trial"",""time""
""blur"",""37"",""152287""
","""event"",""trial"",""time""
""focus"",""37"",""166288""
","""event"",""trial"",""time""
""fullscreenenter"",""1"",""6628""
","
","","","","","","null","<div style=""font-size:60px;"">+</div>","null","","fixation","","",""
"memory-trial","145","486237","0.0-18.0-1.50","6191","approach_avoid_sv1","""event"",""trial"",""time""
""fullscreenenter"",""1"",""6628""
""blur"",""37"",""152287""
""focus"",""37"",""166288""
","""event"",""trial"",""time""
""blur"",""37"",""152287""
","""event"",""trial"",""time""
""focus"",""37"",""166288""
","""event"",""trial"",""time""
""fullscreenenter"",""1"",""6628""
","
","","","","","","1664.7000002861023","images/orange4.png","","","memory_trial","3","maybe_new",""
"html-keyboard-response","146","486744","0.0-18.0-0.51","6191","approach_avoid_sv1","""event"",""trial"",""time""
""fullscreenenter"",""1"",""6628""
""blur"",""37"",""152287""
""focus"",""37"",""166288""
","""event"",""trial"",""time""
""blur"",""37"",""152287""
","""event"",""trial"",""time""
""focus"",""37"",""166288""
","""event"",""trial"",""time""
""fullscreenenter"",""1"",""6628""
","
","","","","","","null","<div style=""font-size:60px;"">+</div>","null","","fixation","","",""
"memory-trial","147","489394","0.0-18.0-1.51","6191","approach_avoid_sv1","""event"",""trial"",""time""
""fullscreenenter"",""1"",""6628""
""blur"",""37"",""152287""
""focus"",""37"",""166288""
","""event"",""trial"",""time""
""blur"",""37"",""152287""
","""event"",""trial"",""time""
""focus"",""37"",""166288""
","""event"",""trial"",""time""
""fullscreenenter"",""1"",""6628""
","
","","","","","","1645.0999999046326","images/chair6.png","","","memory_trial","1","definitely_old",""
"html-keyboard-response","148","489896","0.0-18.0-0.52","6191","approach_avoid_sv1","""event"",""trial"",""time""
""fullscreenenter"",""1"",""6628""
""blur"",""37"",""152287""
""focus"",""37"",""166288""
","""event"",""trial"",""time""
""blur"",""37"",""152287""
","""event"",""trial"",""time""
""focus"",""37"",""166288""
","""event"",""trial"",""time""
""fullscreenenter"",""1"",""6628""
","
","","","","","","null","<div style=""font-size:60px;"">+</div>","null","","fixation","","",""
"memory-trial","149","492099","0.0-18.0-1.52","6191","approach_avoid_sv1","""event"",""trial"",""time""
""fullscreenenter"",""1"",""6628""
""blur"",""37"",""152287""
""focus"",""37"",""166288""
","""event"",""trial"",""time""
""blur"",""37"",""152287""
","""event"",""trial"",""time""
""focus"",""37"",""166288""
","""event"",""trial"",""time""
""fullscreenenter"",""1"",""6628""
","
","","","","","","1198.8000001907349","images/straw1.png","","","memory_trial","3","maybe_new",""
"html-keyboard-response","150","492605","0.0-18.0-0.53","6191","approach_avoid_sv1","""event"",""trial"",""time""
""fullscreenenter"",""1"",""6628""
""blur"",""37"",""152287""
""focus"",""37"",""166288""
","""event"",""trial"",""time""
""blur"",""37"",""152287""
","""event"",""trial"",""time""
""focus"",""37"",""166288""
","""event"",""trial"",""time""
""fullscreenenter"",""1"",""6628""
","
","","","","","","null","<div style=""font-size:60px;"">+</div>","null","","fixation","","",""
"memory-trial","151","495325","0.0-18.0-1.53","6191","approach_avoid_sv1","""event"",""trial"",""time""
""fullscreenenter"",""1"",""6628""
""blur"",""37"",""152287""
""focus"",""37"",""166288""
","""event"",""trial"",""time""
""blur"",""37"",""152287""
","""event"",""trial"",""time""
""focus"",""37"",""166288""
","""event"",""trial"",""time""
""fullscreenenter"",""1"",""6628""
","
","","","","","","1717.1999998092651","images/cat5.png","","","memory_trial","1","definitely_old",""
"html-keyboard-response","152","495832","0.0-18.0-0.54","6191","approach_avoid_sv1","""event"",""trial"",""time""
""fullscreenenter"",""1"",""6628""
""blur"",""37"",""152287""
""focus"",""37"",""166288""
","""event"",""trial"",""time""
""blur"",""37"",""152287""
","""event"",""trial"",""time""
""focus"",""37"",""166288""
","""event"",""trial"",""time""
""fullscreenenter"",""1"",""6628""
","
","","","","","","null","<div style=""font-size:60px;"">+</div>","null","","fixation","","",""
"memory-trial","153","498050","0.0-18.0-1.54","6191","approach_avoid_sv1","""event"",""trial"",""time""
""fullscreenenter"",""1"",""6628""
""blur"",""37"",""152287""
""focus"",""37"",""166288""
","""event"",""trial"",""time""
""blur"",""37"",""152287""
","""event"",""trial"",""time""
""focus"",""37"",""166288""
","""event"",""trial"",""time""
""fullscreenenter"",""1"",""6628""
","
","","","","","","1214.5999999046326","images/orange8.png","","","memory_trial","3","maybe_new",""
"html-keyboard-response","154","498557","0.0-18.0-0.55","6191","approach_avoid_sv1","""event"",""trial"",""time""
""fullscreenenter"",""1"",""6628""
""blur"",""37"",""152287""
""focus"",""37"",""166288""
","""event"",""trial"",""time""
""blur"",""37"",""152287""
","""event"",""trial"",""time""
""focus"",""37"",""166288""
","""event"",""trial"",""time""
""fullscreenenter"",""1"",""6628""
","
","","","","","","null","<div style=""font-size:60px;"">+</div>","null","","fixation","","",""
"memory-trial","155","500989","0.0-18.0-1.55","6191","approach_avoid_sv1","""event"",""trial"",""time""
""fullscreenenter"",""1"",""6628""
""blur"",""37"",""152287""
""focus"",""37"",""166288""
","""event"",""trial"",""time""
""blur"",""37"",""152287""
","""event"",""trial"",""time""
""focus"",""37"",""166288""
","""event"",""trial"",""time""
""fullscreenenter"",""1"",""6628""
","
","","","","","","1428.0999999046326","images/horse3.png","","","memory_trial","2","maybe_old",""
"html-keyboard-response","156","501490","0.0-18.0-0.56","6191","approach_avoid_sv1","""event"",""trial"",""time""
""fullscreenenter"",""1"",""6628""
""blur"",""37"",""152287""
""focus"",""37"",""166288""
","""event"",""trial"",""time""
""blur"",""37"",""152287""
","""event"",""trial"",""time""
""focus"",""37"",""166288""
","""event"",""trial"",""time""
""fullscreenenter"",""1"",""6628""
","
","","","","","","null","<div style=""font-size:60px;"">+</div>","null","","fixation","","",""
"memory-trial","157","504301","0.0-18.0-1.56","6191","approach_avoid_sv1","""event"",""trial"",""time""
""fullscreenenter"",""1"",""6628""
""blur"",""37"",""152287""
""focus"",""37"",""166288""
","""event"",""trial"",""time""
""blur"",""37"",""152287""
","""event"",""trial"",""time""
""focus"",""37"",""166288""
","""event"",""trial"",""time""
""fullscreenenter"",""1"",""6628""
","
","","","","","","1804.3000001907349","images/rabbit3.png","","","memory_trial","1","definitely_old",""
"html-keyboard-response","158","504808","0.0-18.0-0.57","6191","approach_avoid_sv1","""event"",""trial"",""time""
""fullscreenenter"",""1"",""6628""
""blur"",""37"",""152287""
""focus"",""37"",""166288""
","""event"",""trial"",""time""
""blur"",""37"",""152287""
","""event"",""trial"",""time""
""focus"",""37"",""166288""
","""event"",""trial"",""time""
""fullscreenenter"",""1"",""6628""
","
","","","","","","null","<div style=""font-size:60px;"">+</div>","null","","fixation","","",""
"memory-trial","159","507176","0.0-18.0-1.57","6191","approach_avoid_sv1","""event"",""trial"",""time""
""fullscreenenter"",""1"",""6628""
""blur"",""37"",""152287""
""focus"",""37"",""166288""
","""event"",""trial"",""time""
""blur"",""37"",""152287""
","""event"",""trial"",""time""
""focus"",""37"",""166288""
","""event"",""trial"",""time""
""fullscreenenter"",""1"",""6628""
","
","","","","","","1364.0999999046326","images/apple8.png","","","memory_trial","4","definitely_new",""
"html-keyboard-response","160","507677","0.0-18.0-0.58","6191","approach_avoid_sv1","""event"",""trial"",""time""
""fullscreenenter"",""1"",""6628""
""blur"",""37"",""152287""
""focus"",""37"",""166288""
","""event"",""trial"",""time""
""blur"",""37"",""152287""
","""event"",""trial"",""time""
""focus"",""37"",""166288""
","""event"",""trial"",""time""
""fullscreenenter"",""1"",""6628""
","
","","","","","","null","<div style=""font-size:60px;"">+</div>","null","","fixation","","",""
"memory-trial","161","510264","0.0-18.0-1.58","6191","approach_avoid_sv1","""event"",""trial"",""time""
""fullscreenenter"",""1"",""6628""
""blur"",""37"",""152287""
""focus"",""37"",""166288""
","""event"",""trial"",""time""
""blur"",""37"",""152287""
","""event"",""trial"",""time""
""focus"",""37"",""166288""
","""event"",""trial"",""time""
""fullscreenenter"",""1"",""6628""
","
","","","","","","1581","images/train2.png","","","memory_trial","2","maybe_old",""
"html-keyboard-response","162","510765","0.0-18.0-0.59","6191","approach_avoid_sv1","""event"",""trial"",""time""
""fullscreenenter"",""1"",""6628""
""blur"",""37"",""152287""
""focus"",""37"",""166288""
","""event"",""trial"",""time""
""blur"",""37"",""152287""
","""event"",""trial"",""time""
""focus"",""37"",""166288""
","""event"",""trial"",""time""
""fullscreenenter"",""1"",""6628""
","
","","","","","","null","<div style=""font-size:60px;"">+</div>","null","","fixation","","",""
"memory-trial","163","513640","0.0-18.0-1.59","6191","approach_avoid_sv1","""event"",""trial"",""time""
""fullscreenenter"",""1"",""6628""
""blur"",""37"",""152287""
""focus"",""37"",""166288""
","""event"",""trial"",""time""
""blur"",""37"",""152287""
","""event"",""trial"",""time""
""focus"",""37"",""166288""
","""event"",""trial"",""time""
""fullscreenenter"",""1"",""6628""
","
","","","","","","1866.8000001907349","images/boat4.png","","","memory_trial","2","maybe_old",""
"html-keyboard-response","164","514142","0.0-18.0-0.60","6191","approach_avoid_sv1","""event"",""trial"",""time""
""fullscreenenter"",""1"",""6628""
""blur"",""37"",""152287""
""focus"",""37"",""166288""
","""event"",""trial"",""time""
""blur"",""37"",""152287""
","""event"",""trial"",""time""
""focus"",""37"",""166288""
","""event"",""trial"",""time""
""fullscreenenter"",""1"",""6628""
","
","","","","","","null","<div style=""font-size:60px;"">+</div>","null","","fixation","","",""
"memory-trial","165","516232","0.0-18.0-1.60","6191","approach_avoid_sv1","""event"",""trial"",""time""
""fullscreenenter"",""1"",""6628""
""blur"",""37"",""152287""
""focus"",""37"",""166288""
","""event"",""trial"",""time""
""blur"",""37"",""152287""
","""event"",""trial"",""time""
""focus"",""37"",""166288""
","""event"",""trial"",""time""
""fullscreenenter"",""1"",""6628""
","
","","","","","","1085","images/bush4.png","","","memory_trial","2","maybe_old",""
"html-keyboard-response","166","516738","0.0-18.0-0.61","6191","approach_avoid_sv1","""event"",""trial"",""time""
""fullscreenenter"",""1"",""6628""
""blur"",""37"",""152287""
""focus"",""37"",""166288""
","""event"",""trial"",""time""
""blur"",""37"",""152287""
","""event"",""trial"",""time""
""focus"",""37"",""166288""
","""event"",""trial"",""time""
""fullscreenenter"",""1"",""6628""
","
","","","","","","null","<div style=""font-size:60px;"">+</div>","null","","fixation","","",""
"memory-trial","167","518642","0.0-18.0-1.61","6191","approach_avoid_sv1","""event"",""trial"",""time""
""fullscreenenter"",""1"",""6628""
""blur"",""37"",""152287""
""focus"",""37"",""166288""
","""event"",""trial"",""time""
""blur"",""37"",""152287""
","""event"",""trial"",""time""
""focus"",""37"",""166288""
","""event"",""trial"",""time""
""fullscreenenter"",""1"",""6628""
","
","","","","","","899.2999997138977","images/bush3.png","","","memory_trial","2","maybe_old",""
"html-keyboard-response","168","519148","0.0-18.0-0.62","6191","approach_avoid_sv1","""event"",""trial"",""time""
""fullscreenenter"",""1"",""6628""
""blur"",""37"",""152287""
""focus"",""37"",""166288""
","""event"",""trial"",""time""
""blur"",""37"",""152287""
","""event"",""trial"",""time""
""focus"",""37"",""166288""
","""event"",""trial"",""time""
""fullscreenenter"",""1"",""6628""
","
","","","","","","null","<div style=""font-size:60px;"">+</div>","null","","fixation","","",""
"memory-trial","169","521170","0.0-18.0-1.62","6191","approach_avoid_sv1","""event"",""trial"",""time""
""fullscreenenter"",""1"",""6628""
""blur"",""37"",""152287""
""focus"",""37"",""166288""
","""event"",""trial"",""time""
""blur"",""37"",""152287""
","""event"",""trial"",""time""
""focus"",""37"",""166288""
","""event"",""trial"",""time""
""fullscreenenter"",""1"",""6628""
","
","","","","","","1016.6999998092651","images/dog2.png","","","memory_trial","2","maybe_old",""
"html-keyboard-response","170","521672","0.0-18.0-0.63","6191","approach_avoid_sv1","""event"",""trial"",""time""
""fullscreenenter"",""1"",""6628""
""blur"",""37"",""152287""
""focus"",""37"",""166288""
","""event"",""trial"",""time""
""blur"",""37"",""152287""
","""event"",""trial"",""time""
""focus"",""37"",""166288""
","""event"",""trial"",""time""
""fullscreenenter"",""1"",""6628""
","
","","","","","","null","<div style=""font-size:60px;"">+</div>","null","","fixation","","",""
"memory-trial","171","523465","0.0-18.0-1.63","6191","approach_avoid_sv1","""event"",""trial"",""time""
""fullscreenenter"",""1"",""6628""
""blur"",""37"",""152287""
""focus"",""37"",""166288""
","""event"",""trial"",""time""
""blur"",""37"",""152287""
","""event"",""trial"",""time""
""focus"",""37"",""166288""
","""event"",""trial"",""time""
""fullscreenenter"",""1"",""6628""
","
","","","","","","787.7000002861023","images/cactus1.png","","","memory_trial","2","maybe_old",""
"html-keyboard-response","172","523970","0.0-18.0-0.64","6191","approach_avoid_sv1","""event"",""trial"",""time""
""fullscreenenter"",""1"",""6628""
""blur"",""37"",""152287""
""focus"",""37"",""166288""
","""event"",""trial"",""time""
""blur"",""37"",""152287""
","""event"",""trial"",""time""
""focus"",""37"",""166288""
","""event"",""trial"",""time""
""fullscreenenter"",""1"",""6628""
","
","","","","","","null","<div style=""font-size:60px;"">+</div>","null","","fixation","","",""
"memory-trial","173","526578","0.0-18.0-1.64","6191","approach_avoid_sv1","""event"",""trial"",""time""
""fullscreenenter"",""1"",""6628""
""blur"",""37"",""152287""
""focus"",""37"",""166288""
","""event"",""trial"",""time""
""blur"",""37"",""152287""
","""event"",""trial"",""time""
""focus"",""37"",""166288""
","""event"",""trial"",""time""
""fullscreenenter"",""1"",""6628""
","
","","","","","","1604.8999996185303","images/banana6.png","","","memory_trial","2","maybe_old",""
"html-keyboard-response","174","527085","0.0-18.0-0.65","6191","approach_avoid_sv1","""event"",""trial"",""time""
""fullscreenenter"",""1"",""6628""
""blur"",""37"",""152287""
""focus"",""37"",""166288""
","""event"",""trial"",""time""
""blur"",""37"",""152287""
","""event"",""trial"",""time""
""focus"",""37"",""166288""
","""event"",""trial"",""time""
""fullscreenenter"",""1"",""6628""
","
","","","","","","null","<div style=""font-size:60px;"">+</div>","null","","fixation","","",""
"memory-trial","175","529197","0.0-18.0-1.65","6191","approach_avoid_sv1","""event"",""trial"",""time""
""fullscreenenter"",""1"",""6628""
""blur"",""37"",""152287""
""focus"",""37"",""166288""
","""event"",""trial"",""time""
""blur"",""37"",""152287""
","""event"",""trial"",""time""
""focus"",""37"",""166288""
","""event"",""trial"",""time""
""fullscreenenter"",""1"",""6628""
","
","","","","","","1109.0999999046326","images/truck2.png","","","memory_trial","4","definitely_new",""
"html-keyboard-response","176","529699","0.0-18.0-0.66","6191","approach_avoid_sv1","""event"",""trial"",""time""
""fullscreenenter"",""1"",""6628""
""blur"",""37"",""152287""
""focus"",""37"",""166288""
","""event"",""trial"",""time""
""blur"",""37"",""152287""
","""event"",""trial"",""time""
""focus"",""37"",""166288""
","""event"",""trial"",""time""
""fullscreenenter"",""1"",""6628""
","
","","","","","","null","<div style=""font-size:60px;"">+</div>","null","","fixation","","",""
"memory-trial","177","532072","0.0-18.0-1.66","6191","approach_avoid_sv1","""event"",""trial"",""time""
""fullscreenenter"",""1"",""6628""
""blur"",""37"",""152287""
""focus"",""37"",""166288""
","""event"",""trial"",""time""
""blur"",""37"",""152287""
","""event"",""trial"",""time""
""focus"",""37"",""166288""
","""event"",""trial"",""time""
""fullscreenenter"",""1"",""6628""
","
","","","","","","1368.5999999046326","images/goat8.png","","","memory_trial","2","maybe_old",""
"html-keyboard-response","178","532578","0.0-18.0-0.67","6191","approach_avoid_sv1","""event"",""trial"",""time""
""fullscreenenter"",""1"",""6628""
""blur"",""37"",""152287""
""focus"",""37"",""166288""
","""event"",""trial"",""time""
""blur"",""37"",""152287""
","""event"",""trial"",""time""
""focus"",""37"",""166288""
","""event"",""trial"",""time""
""fullscreenenter"",""1"",""6628""
","
","","","","","","null","<div style=""font-size:60px;"">+</div>","null","","fixation","","",""
"memory-trial","179","535623","0.0-18.0-1.67","6191","approach_avoid_sv1","""event"",""trial"",""time""
""fullscreenenter"",""1"",""6628""
""blur"",""37"",""152287""
""focus"",""37"",""166288""
","""event"",""trial"",""time""
""blur"",""37"",""152287""
","""event"",""trial"",""time""
""focus"",""37"",""166288""
","""event"",""trial"",""time""
""fullscreenenter"",""1"",""6628""
","
","","","","","","2040.4000000953674","images/apple2.png","","","memory_trial","3","maybe_new",""
"html-keyboard-response","180","536124","0.0-18.0-0.68","6191","approach_avoid_sv1","""event"",""trial"",""time""
""fullscreenenter"",""1"",""6628""
""blur"",""37"",""152287""
""focus"",""37"",""166288""
","""event"",""trial"",""time""
""blur"",""37"",""152287""
","""event"",""trial"",""time""
""focus"",""37"",""166288""
","""event"",""trial"",""time""
""fullscreenenter"",""1"",""6628""
","
","","","","","","null","<div style=""font-size:60px;"">+</div>","null","","fixation","","",""
"memory-trial","181","537949","0.0-18.0-1.68","6191","approach_avoid_sv1","""event"",""trial"",""time""
""fullscreenenter"",""1"",""6628""
""blur"",""37"",""152287""
""focus"",""37"",""166288""
","""event"",""trial"",""time""
""blur"",""37"",""152287""
","""event"",""trial"",""time""
""focus"",""37"",""166288""
","""event"",""trial"",""time""
""fullscreenenter"",""1"",""6628""
","
","","","","","","817.0999999046326","images/cow5.png","","","memory_trial","3","maybe_new",""
"html-keyboard-response","182","538452","0.0-18.0-0.69","6191","approach_avoid_sv1","""event"",""trial"",""time""
""fullscreenenter"",""1"",""6628""
""blur"",""37"",""152287""
""focus"",""37"",""166288""
","""event"",""trial"",""time""
""blur"",""37"",""152287""
","""event"",""trial"",""time""
""focus"",""37"",""166288""
","""event"",""trial"",""time""
""fullscreenenter"",""1"",""6628""
","
","","","","","","null","<div style=""font-size:60px;"">+</div>","null","","fixation","","",""
"memory-trial","183","540328","0.0-18.0-1.69","6191","approach_avoid_sv1","""event"",""trial"",""time""
""fullscreenenter"",""1"",""6628""
""blur"",""37"",""152287""
""focus"",""37"",""166288""
","""event"",""trial"",""time""
""blur"",""37"",""152287""
","""event"",""trial"",""time""
""focus"",""37"",""166288""
","""event"",""trial"",""time""
""fullscreenenter"",""1"",""6628""
","
","","","","","","868.5","images/dog8.png","","","memory_trial","2","maybe_old",""
"html-keyboard-response","184","540834","0.0-18.0-0.70","6191","approach_avoid_sv1","""event"",""trial"",""time""
""fullscreenenter"",""1"",""6628""
""blur"",""37"",""152287""
""focus"",""37"",""166288""
","""event"",""trial"",""time""
""blur"",""37"",""152287""
","""event"",""trial"",""time""
""focus"",""37"",""166288""
","""event"",""trial"",""time""
""fullscreenenter"",""1"",""6628""
","
","","","","","","null","<div style=""font-size:60px;"">+</div>","null","","fixation","","",""
"memory-trial","185","542951","0.0-18.0-1.70","6191","approach_avoid_sv1","""event"",""trial"",""time""
""fullscreenenter"",""1"",""6628""
""blur"",""37"",""152287""
""focus"",""37"",""166288""
","""event"",""trial"",""time""
""blur"",""37"",""152287""
","""event"",""trial"",""time""
""focus"",""37"",""166288""
","""event"",""trial"",""time""
""fullscreenenter"",""1"",""6628""
","
","","","","","","1113.9000000953674","images/banana5.png","","","memory_trial","3","maybe_new",""
"html-keyboard-response","186","543453","0.0-18.0-0.71","6191","approach_avoid_sv1","""event"",""trial"",""time""
""fullscreenenter"",""1"",""6628""
""blur"",""37"",""152287""
""focus"",""37"",""166288""
","""event"",""trial"",""time""
""blur"",""37"",""152287""
","""event"",""trial"",""time""
""focus"",""37"",""166288""
","""event"",""trial"",""time""
""fullscreenenter"",""1"",""6628""
","
","","","","","","null","<div style=""font-size:60px;"">+</div>","null","","fixation","","",""
"memory-trial","187","545842","0.0-18.0-1.71","6191","approach_avoid_sv1","""event"",""trial"",""time""
""fullscreenenter"",""1"",""6628""
""blur"",""37"",""152287""
""focus"",""37"",""166288""
","""event"",""trial"",""time""
""blur"",""37"",""152287""
","""event"",""trial"",""time""
""focus"",""37"",""166288""
","""event"",""trial"",""time""
""fullscreenenter"",""1"",""6628""
","
","","","","","","1383.8000001907349","images/cat1.png","","","memory_trial","3","maybe_new",""
"html-keyboard-response","188","546348","0.0-18.0-0.72","6191","approach_avoid_sv1","""event"",""trial"",""time""
""fullscreenenter"",""1"",""6628""
""blur"",""37"",""152287""
""focus"",""37"",""166288""
","""event"",""trial"",""time""
""blur"",""37"",""152287""
","""event"",""trial"",""time""
""focus"",""37"",""166288""
","""event"",""trial"",""time""
""fullscreenenter"",""1"",""6628""
","
","","","","","","null","<div style=""font-size:60px;"">+</div>","null","","fixation","","",""
"memory-trial","189","549452","0.0-18.0-1.72","6191","approach_avoid_sv1","""event"",""trial"",""time""
""fullscreenenter"",""1"",""6628""
""blur"",""37"",""152287""
""focus"",""37"",""166288""
","""event"",""trial"",""time""
""blur"",""37"",""152287""
","""event"",""trial"",""time""
""focus"",""37"",""166288""
","""event"",""trial"",""time""
""fullscreenenter"",""1"",""6628""
","
","","","","","","2098.2000002861023","images/straw6.png","","","memory_trial","3","maybe_new",""
"html-keyboard-response","190","549959","0.0-18.0-0.73","6191","approach_avoid_sv1","""event"",""trial"",""time""
""fullscreenenter"",""1"",""6628""
""blur"",""37"",""152287""
""focus"",""37"",""166288""
","""event"",""trial"",""time""
""blur"",""37"",""152287""
","""event"",""trial"",""time""
""focus"",""37"",""166288""
","""event"",""trial"",""time""
""fullscreenenter"",""1"",""6628""
","
","","","","","","null","<div style=""font-size:60px;"">+</div>","null","","fixation","","",""
"memory-trial","191","552589","0.0-18.0-1.73","6191","approach_avoid_sv1","""event"",""trial"",""time""
""fullscreenenter"",""1"",""6628""
""blur"",""37"",""152287""
""focus"",""37"",""166288""
","""event"",""trial"",""time""
""blur"",""37"",""152287""
","""event"",""trial"",""time""
""focus"",""37"",""166288""
","""event"",""trial"",""time""
""fullscreenenter"",""1"",""6628""
","
","","","","","","1626","images/table2.png","","","memory_trial","3","maybe_new",""
"html-keyboard-response","192","553095","0.0-18.0-0.74","6191","approach_avoid_sv1","""event"",""trial"",""time""
""fullscreenenter"",""1"",""6628""
""blur"",""37"",""152287""
""focus"",""37"",""166288""
","""event"",""trial"",""time""
""blur"",""37"",""152287""
","""event"",""trial"",""time""
""focus"",""37"",""166288""
","""event"",""trial"",""time""
""fullscreenenter"",""1"",""6628""
","
","","","","","","null","<div style=""font-size:60px;"">+</div>","null","","fixation","","",""
"memory-trial","193","555522","0.0-18.0-1.74","6191","approach_avoid_sv1","""event"",""trial"",""time""
""fullscreenenter"",""1"",""6628""
""blur"",""37"",""152287""
""focus"",""37"",""166288""
","""event"",""trial"",""time""
""blur"",""37"",""152287""
","""event"",""trial"",""time""
""focus"",""37"",""166288""
","""event"",""trial"",""time""
""fullscreenenter"",""1"",""6628""
","
","","","","","","1420.5","images/tree5.png","","","memory_trial","3","maybe_new",""
"html-keyboard-response","194","556028","0.0-18.0-0.75","6191","approach_avoid_sv1","""event"",""trial"",""time""
""fullscreenenter"",""1"",""6628""
""blur"",""37"",""152287""
""focus"",""37"",""166288""
","""event"",""trial"",""time""
""blur"",""37"",""152287""
","""event"",""trial"",""time""
""focus"",""37"",""166288""
","""event"",""trial"",""time""
""fullscreenenter"",""1"",""6628""
","
","","","","","","null","<div style=""font-size:60px;"">+</div>","null","","fixation","","",""
"memory-trial","195","558855","0.0-18.0-1.75","6191","approach_avoid_sv1","""event"",""trial"",""time""
""fullscreenenter"",""1"",""6628""
""blur"",""37"",""152287""
""focus"",""37"",""166288""
","""event"",""trial"",""time""
""blur"",""37"",""152287""
","""event"",""trial"",""time""
""focus"",""37"",""166288""
","""event"",""trial"",""time""
""fullscreenenter"",""1"",""6628""
","
","","","","","","1819.6999998092651","images/cow8.png","","","memory_trial","3","maybe_new",""
"html-keyboard-response","196","559362","0.0-18.0-0.76","6191","approach_avoid_sv1","""event"",""trial"",""time""
""fullscreenenter"",""1"",""6628""
""blur"",""37"",""152287""
""focus"",""37"",""166288""
","""event"",""trial"",""time""
""blur"",""37"",""152287""
","""event"",""trial"",""time""
""focus"",""37"",""166288""
","""event"",""trial"",""time""
""fullscreenenter"",""1"",""6628""
","
","","","","","","null","<div style=""font-size:60px;"">+</div>","null","","fixation","","",""
"memory-trial","197","561298","0.0-18.0-1.76","6191","approach_avoid_sv1","""event"",""trial"",""time""
""fullscreenenter"",""1"",""6628""
""blur"",""37"",""152287""
""focus"",""37"",""166288""
","""event"",""trial"",""time""
""blur"",""37"",""152287""
","""event"",""trial"",""time""
""focus"",""37"",""166288""
","""event"",""trial"",""time""
""fullscreenenter"",""1"",""6628""
","
","","","","","","930.8000001907349","images/orange1.png","","","memory_trial","3","maybe_new",""
"html-keyboard-response","198","561804","0.0-18.0-0.77","6191","approach_avoid_sv1","""event"",""trial"",""time""
""fullscreenenter"",""1"",""6628""
""blur"",""37"",""152287""
""focus"",""37"",""166288""
","""event"",""trial"",""time""
""blur"",""37"",""152287""
","""event"",""trial"",""time""
""focus"",""37"",""166288""
","""event"",""trial"",""time""
""fullscreenenter"",""1"",""6628""
","
","","","","","","null","<div style=""font-size:60px;"">+</div>","null","","fixation","","",""
"memory-trial","199","564215","0.0-18.0-1.77","6191","approach_avoid_sv1","""event"",""trial"",""time""
""fullscreenenter"",""1"",""6628""
""blur"",""37"",""152287""
""focus"",""37"",""166288""
","""event"",""trial"",""time""
""blur"",""37"",""152287""
","""event"",""trial"",""time""
""focus"",""37"",""166288""
","""event"",""trial"",""time""
""fullscreenenter"",""1"",""6628""
","
","","","","","","1405.5999999046326","images/flower6.png","","","memory_trial","3","maybe_new",""
"html-keyboard-response","200","564721","0.0-18.0-0.78","6191","approach_avoid_sv1","""event"",""trial"",""time""
""fullscreenenter"",""1"",""6628""
""blur"",""37"",""152287""
""focus"",""37"",""166288""
","""event"",""trial"",""time""
""blur"",""37"",""152287""
","""event"",""trial"",""time""
""focus"",""37"",""166288""
","""event"",""trial"",""time""
""fullscreenenter"",""1"",""6628""
","
","","","","","","null","<div style=""font-size:60px;"">+</div>","null","","fixation","","",""
"memory-trial","201","567042","0.0-18.0-1.78","6191","approach_avoid_sv1","""event"",""trial"",""time""
""fullscreenenter"",""1"",""6628""
""blur"",""37"",""152287""
""focus"",""37"",""166288""
","""event"",""trial"",""time""
""blur"",""37"",""152287""
","""event"",""trial"",""time""
""focus"",""37"",""166288""
","""event"",""trial"",""time""
""fullscreenenter"",""1"",""6628""
","
","","","","","","1313.9000000953674","images/cactus5.png","","","memory_trial","3","maybe_new",""
"html-keyboard-response","202","567545","0.0-18.0-0.79","6191","approach_avoid_sv1","""event"",""trial"",""time""
""fullscreenenter"",""1"",""6628""
""blur"",""37"",""152287""
""focus"",""37"",""166288""
","""event"",""trial"",""time""
""blur"",""37"",""152287""
","""event"",""trial"",""time""
""focus"",""37"",""166288""
","""event"",""trial"",""time""
""fullscreenenter"",""1"",""6628""
","
","","","","","","null","<div style=""font-size:60px;"">+</div>","null","","fixation","","",""
"memory-trial","203","569900","0.0-18.0-1.79","6191","approach_avoid_sv1","""event"",""trial"",""time""
""fullscreenenter"",""1"",""6628""
""blur"",""37"",""152287""
""focus"",""37"",""166288""
","""event"",""trial"",""time""
""blur"",""37"",""152287""
","""event"",""trial"",""time""
""focus"",""37"",""166288""
","""event"",""trial"",""time""
""fullscreenenter"",""1"",""6628""
","
","","","","","","1352.2000002861023","images/sheep2.png","","","memory_trial","4","definitely_new",""
"html-keyboard-response","204","570401","0.0-18.0-0.80","6191","approach_avoid_sv1","""event"",""trial"",""time""
""fullscreenenter"",""1"",""6628""
""blur"",""37"",""152287""
""focus"",""37"",""166288""
","""event"",""trial"",""time""
""blur"",""37"",""152287""
","""event"",""trial"",""time""
""focus"",""37"",""166288""
","""event"",""trial"",""time""
""fullscreenenter"",""1"",""6628""
","
","","","","","","null","<div style=""font-size:60px;"">+</div>","null","","fixation","","",""
"memory-trial","205","572988","0.0-18.0-1.80","6191","approach_avoid_sv1","""event"",""trial"",""time""
""fullscreenenter"",""1"",""6628""
""blur"",""37"",""152287""
""focus"",""37"",""166288""
","""event"",""trial"",""time""
""blur"",""37"",""152287""
","""event"",""trial"",""time""
""focus"",""37"",""166288""
","""event"",""trial"",""time""
""fullscreenenter"",""1"",""6628""
","
","","","","","","1583.5999999046326","images/boat7.png","","","memory_trial","2","maybe_old",""
"html-keyboard-response","206","573490","0.0-18.0-0.81","6191","approach_avoid_sv1","""event"",""trial"",""time""
""fullscreenenter"",""1"",""6628""
""blur"",""37"",""152287""
""focus"",""37"",""166288""
","""event"",""trial"",""time""
""blur"",""37"",""152287""
","""event"",""trial"",""time""
""focus"",""37"",""166288""
","""event"",""trial"",""time""
""fullscreenenter"",""1"",""6628""
","
","","","","","","null","<div style=""font-size:60px;"">+</div>","null","","fixation","","",""
"memory-trial","207","577244","0.0-18.0-1.81","6191","approach_avoid_sv1","""event"",""trial"",""time""
""fullscreenenter"",""1"",""6628""
""blur"",""37"",""152287""
""focus"",""37"",""166288""
","""event"",""trial"",""time""
""blur"",""37"",""152287""
","""event"",""trial"",""time""
""focus"",""37"",""166288""
","""event"",""trial"",""time""
""fullscreenenter"",""1"",""6628""
","
","","","","","","2747.7000002861023","images/train4.png","","","memory_trial","2","maybe_old",""
"html-keyboard-response","208","577751","0.0-18.0-0.82","6191","approach_avoid_sv1","""event"",""trial"",""time""
""fullscreenenter"",""1"",""6628""
""blur"",""37"",""152287""
""focus"",""37"",""166288""
","""event"",""trial"",""time""
""blur"",""37"",""152287""
","""event"",""trial"",""time""
