"trial_type","trial_index","time_elapsed","internal_node_id","subject_id","task_version","interactions","blur_events","focus_events","fullscreenenter_events","fullscreenexit_events","success","timeout","failed_images","failed_audio","failed_video","rt","stimulus","response","button_pressed","task_part","key_press","answer","correct"
"pavlovia","0","3","0.0-0.0","8149","approach_avoid_sv1","""event"",""trial"",""time""
""fullscreenenter"",""1"",""1937""
","
","
","""event"",""trial"",""time""
""fullscreenenter"",""1"",""1937""
","
","","","","","","","","","","","","",""
"fullscreen","1","2919","0.0-1.0","8149","approach_avoid_sv1","""event"",""trial"",""time""
""fullscreenenter"",""1"",""1937""
","
","
","""event"",""trial"",""time""
""fullscreenenter"",""1"",""1937""
","
","true","","","","","","","","","","","",""
"preload","2","5433","0.0-2.0","8149","approach_avoid_sv1","""event"",""trial"",""time""
""fullscreenenter"",""1"",""1937""
","
","
","""event"",""trial"",""time""
""fullscreenenter"",""1"",""1937""
","
","true","false","[]","[]","[]","","","","","","","",""
"preload","3","7310","0.0-3.0","8149","approach_avoid_sv1","""event"",""trial"",""time""
""fullscreenenter"",""1"",""1937""
","
","
","""event"",""trial"",""time""
""fullscreenenter"",""1"",""1937""
","
","true","false","[]","[]","[]","","","","","","","",""
"preload","4","7578","0.0-4.0","8149","approach_avoid_sv1","""event"",""trial"",""time""
""fullscreenenter"",""1"",""1937""
","
","
","""event"",""trial"",""time""
""fullscreenenter"",""1"",""1937""
","
","true","false","[]","[]","[]","","","","","","","",""
"audio-keyboard-response","5","10945","0.0-5.0","8149","approach_avoid_sv1","""event"",""trial"",""time""
""fullscreenenter"",""1"",""1937""
","
","
","""event"",""trial"",""time""
""fullscreenenter"",""1"",""1937""
","
","","","","","","3280","audio/beep_loop.wav"," ","","","","",""
"audio-button-response","6","15598","0.0-6.0","8149","approach_avoid_sv1","""event"",""trial"",""time""
""fullscreenenter"",""1"",""1937""
","
","
","""event"",""trial"",""time""
""fullscreenenter"",""1"",""1937""
","
","","","","","","4651","audio/turtle.wav","0","","","","",""
"audio-button-response","7","18589","0.0-7.0","8149","approach_avoid_sv1","""event"",""trial"",""time""
""fullscreenenter"",""1"",""1937""
","
","
","""event"",""trial"",""time""
""fullscreenenter"",""1"",""1937""
","
","","","","","","1981","audio/shark.wav","2","","","","",""
"preload","8","23613","0.0-8.0","8149","approach_avoid_sv1","""event"",""trial"",""time""
""fullscreenenter"",""1"",""1937""
","
","
","""event"",""trial"",""time""
""fullscreenenter"",""1"",""1937""
","
","true","false","[]","[]","[]","","","","","","","",""
"learning-instructions","9","31837","0.0-9.0-0.0","8149","approach_avoid_sv1","""event"",""trial"",""time""
""fullscreenenter"",""1"",""1937""
","
","
","""event"",""trial"",""time""
""fullscreenenter"",""1"",""1937""
","
","","","","","","3751.199999988079","<p> Welcome back! </p><p> Last week, you had to make choices about lots of different items.  </p>","","0","instructions","","",""
"learning-instructions","10","38350","0.0-9.0-0.1","8149","approach_avoid_sv1","""event"",""trial"",""time""
""fullscreenenter"",""1"",""1937""
","
","
","""event"",""trial"",""time""
""fullscreenenter"",""1"",""1937""
","
","","","","","","2394.199999988079","<p> Today, we are going to ask you to try to remember all the items. </p>","","0","instructions","","",""
"learning-instructions","11","49713","0.0-9.0-0.2","8149","approach_avoid_sv1","""event"",""trial"",""time""
""fullscreenenter"",""1"",""1937""
","
","
","""event"",""trial"",""time""
""fullscreenenter"",""1"",""1937""
","
","","","","","","1226.199999988079","<p> On every trial, you will see an image. </p><p> The image may be an OLD image you saw during the games last week or it may be a NEW image that was not presented. </p>","","0","instructions","","",""
"learning-instructions","12","59724","0.0-9.0-0.3","8149","approach_avoid_sv1","""event"",""trial"",""time""
""fullscreenenter"",""1"",""1937""
","
","
","""event"",""trial"",""time""
""fullscreenenter"",""1"",""1937""
","
","","","","","","1506","<p> You need to select whether the image is:  </p><p>  'Definitely old', 'Maybe old', 'Maybe new', or 'Definitely new.'  </p><div class=""mem-choice-instructions-grid""><div class=""choice-option"" id=""choice-option-1"" ><img src=""images/definitely_old_1.png"" id=""choice-option-img-1"" class=""choice-option-img"" stage=""1""></div><div class=""choice-option"" id=""choice-option-2"" ><img src=""images/maybe_old_1.png"" id=""choice-option-img-2"" class=""choice-option-img"" stage=""1""></div><div class=""choice-option"" id=""choice-option-3"" ><img src=""images/maybe_new_1.png"" id=""choice-option-img-3"" class=""choice-option-img"" stage=""1""></div><div class=""choice-option"" id=""choice-option-4"" > <img src=""images/definitely_new_1.png"" id=""choice-option-img-4"" class=""choice-option-img"" stage=""1""></div></div>","","0","instructions","","",""
"learning-instructions","13","67033","0.0-9.0-0.4","8149","approach_avoid_sv1","""event"",""trial"",""time""
""fullscreenenter"",""1"",""1937""
","
","
","""event"",""trial"",""time""
""fullscreenenter"",""1"",""1937""
","
","","","","","","795.5","<p> You should use the 1, 2, 3, and 4 keys to make your responses.  </p><div class=""mem-choice-instructions-grid""><div class=""choice-option"" id=""choice-option-1"" ><img src=""images/definitely_old.png"" id=""choice-option-img-1"" class=""choice-option-img"" stage=""1""></div><div class=""choice-option"" id=""choice-option-2"" ><img src=""images/maybe_old.png"" id=""choice-option-img-2"" class=""choice-option-img"" stage=""1""></div><div class=""choice-option"" id=""choice-option-3"" ><img src=""images/maybe_new.png"" id=""choice-option-img-3"" class=""choice-option-img"" stage=""1""></div><div class=""choice-option"" id=""choice-option-4"" > <img src=""images/definitely_new.png"" id=""choice-option-img-4"" class=""choice-option-img"" stage=""1""></div></div>","","0","instructions","","",""
"learning-instructions","14","74891","0.0-9.0-0.5","8149","approach_avoid_sv1","""event"",""trial"",""time""
""fullscreenenter"",""1"",""1937""
","
","
","""event"",""trial"",""time""
""fullscreenenter"",""1"",""1937""
","
","","","","","","1515","<p> You will have 10 seconds to make each response.  </p><p>  Make sure to respond before time runs out! </p>","","0","instructions","","",""
"learning-instructions","15","83718","0.0-9.0-0.6","8149","approach_avoid_sv1","""event"",""trial"",""time""
""fullscreenenter"",""1"",""1937""
","
","
","""event"",""trial"",""time""
""fullscreenenter"",""1"",""1937""
","
","","","","","","1742.199999988079","<p> Today, you will see each image ONCE only.  </p><p>  That means none of the images will repeat. </p>","","0","instructions","","",""
"learning-instructions","16","97193","0.0-9.0-0.7","8149","approach_avoid_sv1","""event"",""trial"",""time""
""fullscreenenter"",""1"",""1937""
","
","
","""event"",""trial"",""time""
""fullscreenenter"",""1"",""1937""
","
","","","","","","797.2999999523163","<p> Before you play the real game, it is time to practice. </p><p>  Just like in the real game, some of the images in the practice will be ones you have seen before. </p><p>  Others will be entirely new. </p>","","0","instructions","","",""
"html-button-response","17","98902","0.0-10.0","8149","approach_avoid_sv1","""event"",""trial"",""time""
""fullscreenenter"",""1"",""1937""
","
","
","""event"",""trial"",""time""
""fullscreenenter"",""1"",""1937""
","
","","","","","","1605.7999999523163","<p> Ready to practice? </p><p> Remember, use the 1, 2, 3, and 4 keys to make your responses. </p>","0","","instructions","","",""
"html-keyboard-response","18","99527","0.0-11.0-0.0","8149","approach_avoid_sv1","""event"",""trial"",""time""
""fullscreenenter"",""1"",""1937""
","
","
","""event"",""trial"",""time""
""fullscreenenter"",""1"",""1937""
","
","","","","","","null","<div style=""font-size:60px;"">+</div>","null","","fixation","","",""
"memory-trial","19","104240","0.0-11.0-1.0","8149","approach_avoid_sv1","""event"",""trial"",""time""
""fullscreenenter"",""1"",""1937""
","
","
","""event"",""trial"",""time""
""fullscreenenter"",""1"",""1937""
","
","","","","","","3698.199999988079","images/racket1.png","","","practice","2","maybe_old",""
"html-keyboard-response","20","104746","0.0-11.0-0.1","8149","approach_avoid_sv1","""event"",""trial"",""time""
""fullscreenenter"",""1"",""1937""
","
","
","""event"",""trial"",""time""
""fullscreenenter"",""1"",""1937""
","
","","","","","","null","<div style=""font-size:60px;"">+</div>","null","","fixation","","",""
"memory-trial","21","108908","0.0-11.0-1.1","8149","approach_avoid_sv1","""event"",""trial"",""time""
""fullscreenenter"",""1"",""1937""
","
","
","""event"",""trial"",""time""
""fullscreenenter"",""1"",""1937""
","
","","","","","","3151.400000035763","images/racket5.png","","","practice","4","definitely_new",""
"html-keyboard-response","22","109412","0.0-11.0-0.2","8149","approach_avoid_sv1","""event"",""trial"",""time""
""fullscreenenter"",""1"",""1937""
","
","
","""event"",""trial"",""time""
""fullscreenenter"",""1"",""1937""
","
","","","","","","null","<div style=""font-size:60px;"">+</div>","null","","fixation","","",""
"memory-trial","23","113106","0.0-11.0-1.2","8149","approach_avoid_sv1","""event"",""trial"",""time""
""fullscreenenter"",""1"",""1937""
","
","
","""event"",""trial"",""time""
""fullscreenenter"",""1"",""1937""
","
","","","","","","2680.5","images/ball5.png","","","practice","1","definitely_old",""
"html-keyboard-response","24","113611","0.0-11.0-0.3","8149","approach_avoid_sv1","""event"",""trial"",""time""
""fullscreenenter"",""1"",""1937""
","
","
","""event"",""trial"",""time""
""fullscreenenter"",""1"",""1937""
","
","","","","","","null","<div style=""font-size:60px;"">+</div>","null","","fixation","","",""
"memory-trial","25","115973","0.0-11.0-1.3","8149","approach_avoid_sv1","""event"",""trial"",""time""
""fullscreenenter"",""1"",""1937""
","
","
","""event"",""trial"",""time""
""fullscreenenter"",""1"",""1937""
","
","","","","","","1346.5","images/ball2.png","","","practice","1","definitely_old",""
"html-keyboard-response","26","116476","0.0-11.0-0.4","8149","approach_avoid_sv1","""event"",""trial"",""time""
""fullscreenenter"",""1"",""1937""
","
","
","""event"",""trial"",""time""
""fullscreenenter"",""1"",""1937""
","
","","","","","","null","<div style=""font-size:60px;"">+</div>","null","","fixation","","",""
"memory-trial","27","118654","0.0-11.0-1.4","8149","approach_avoid_sv1","""event"",""trial"",""time""
""fullscreenenter"",""1"",""1937""
","
","
","""event"",""trial"",""time""
""fullscreenenter"",""1"",""1937""
","
","","","","","","1163.9000000357628","images/racket3.png","","","practice","1","definitely_old",""
"html-keyboard-response","28","119157","0.0-11.0-0.5","8149","approach_avoid_sv1","""event"",""trial"",""time""
""fullscreenenter"",""1"",""1937""
","
","
","""event"",""trial"",""time""
""fullscreenenter"",""1"",""1937""
","
","","","","","","null","<div style=""font-size:60px;"">+</div>","null","","fixation","","",""
"memory-trial","29","121705","0.0-11.0-1.5","8149","approach_avoid_sv1","""event"",""trial"",""time""
""fullscreenenter"",""1"",""1937""
","
","
","""event"",""trial"",""time""
""fullscreenenter"",""1"",""1937""
","
","","","","","","1536.699999988079","images/ball1.png","","","practice","2","maybe_old",""
"html-keyboard-response","30","122209","0.0-11.0-0.6","8149","approach_avoid_sv1","""event"",""trial"",""time""
""fullscreenenter"",""1"",""1937""
","
","
","""event"",""trial"",""time""
""fullscreenenter"",""1"",""1937""
","
","","","","","","null","<div style=""font-size:60px;"">+</div>","null","","fixation","","",""
"memory-trial","31","124753","0.0-11.0-1.6","8149","approach_avoid_sv1","""event"",""trial"",""time""
""fullscreenenter"",""1"",""1937""
","
","
","""event"",""trial"",""time""
""fullscreenenter"",""1"",""1937""
","
","","","","","","1528.2000000476837","images/racket2.png","","","practice","2","maybe_old",""
"html-keyboard-response","32","125260","0.0-11.0-0.7","8149","approach_avoid_sv1","""event"",""trial"",""time""
""fullscreenenter"",""1"",""1937""
","
","
","""event"",""trial"",""time""
""fullscreenenter"",""1"",""1937""
","
","","","","","","null","<div style=""font-size:60px;"">+</div>","null","","fixation","","",""
"memory-trial","33","127553","0.0-11.0-1.7","8149","approach_avoid_sv1","""event"",""trial"",""time""
""fullscreenenter"",""1"",""1937""
","
","
","""event"",""trial"",""time""
""fullscreenenter"",""1"",""1937""
","
","","","","","","1290.5","images/ball3.png","","","practice","4","definitely_new",""
"learning-instructions","34","136021","0.0-12.0-0.0","8149","approach_avoid_sv1","""event"",""trial"",""time""
""fullscreenenter"",""1"",""1937""
","
","
","""event"",""trial"",""time""
""fullscreenenter"",""1"",""1937""
","
","","","","","","1168.1000000238419","<p> Great! You have completed the practice. </p><p> Before you start, we're going to ask you a few questions about how the game works.  </p>","","0","instructions","","",""
"preload","35","138942","0.0-13.0","8149","approach_avoid_sv1","""event"",""trial"",""time""
""fullscreenenter"",""1"",""1937""
","
","
","""event"",""trial"",""time""
""fullscreenenter"",""1"",""1937""
","
","true","false","[]","[]","[]","","","","","","","",""
"comp-q","36","145653","0.0-14.0-0.0","8149","approach_avoid_sv1","""event"",""trial"",""time""
""fullscreenenter"",""1"",""1937""
","
","
","""event"",""trial"",""time""
""fullscreenenter"",""1"",""1937""
","
","","","","","","880.6000000238419","<p> <b> True or False? </b> </p><p> In this game, you will only see each image once. </p>","","0","comp_question","","","true"
"comp-q","37","154128","0.0-14.0-1.0","8149","approach_avoid_sv1","""event"",""trial"",""time""
""fullscreenenter"",""1"",""1937""
","
","
","""event"",""trial"",""time""
""fullscreenenter"",""1"",""1937""
","
","","","","","","2124.099999964237","<p> <b> That's right! </b> You will see many different images <i> one time each </i> in this game. </p>","","0","comp_answer","","",""
"comp-q","38","162727","0.0-15.0-0.0","8149","approach_avoid_sv1","""event"",""trial"",""time""
""fullscreenenter"",""1"",""1937""
","
","
","""event"",""trial"",""time""
""fullscreenenter"",""1"",""1937""
","
","","","","","","3585.899999976158","<p> <b> True or False? </b> </p><p> You should use the mouse and click to make your response. </p>","","1","comp_question","","","true"
"comp-q","39","170982","0.0-15.0-1.0","8149","approach_avoid_sv1","""event"",""trial"",""time""
""fullscreenenter"",""1"",""1937""
","
","
","""event"",""trial"",""time""
""fullscreenenter"",""1"",""1937""
","
","","","","","","1739.199999988079","<p><b> That's right! </b> You should use the '1', '2', '3', and '4' keys to make your response. </p>","","0","comp_answer","","",""
"comp-q","40","177227","0.0-16.0-0.0","8149","approach_avoid_sv1","""event"",""trial"",""time""
""fullscreenenter"",""1"",""1937""
","
","
","""event"",""trial"",""time""
""fullscreenenter"",""1"",""1937""
","
","","","","","","564.5","<p> <b> True or False? </b> </p><p> You will have as much time as you want to make each choice. </p>","","1","comp_question","","","true"
"comp-q","41","183249","0.0-16.0-1.0","8149","approach_avoid_sv1","""event"",""trial"",""time""
""fullscreenenter"",""1"",""1937""
","
","
","""event"",""trial"",""time""
""fullscreenenter"",""1"",""1937""
","
","","","","","","1316.199999988079","<p> <b> That's right! </b> You will only have 10 seconds to make each choice. </p>","","0","comp_answer","","",""
"learning-instructions","42","193582","0.0-17.0","8149","approach_avoid_sv1","""event"",""trial"",""time""
""fullscreenenter"",""1"",""1937""
","
","
","""event"",""trial"",""time""
""fullscreenenter"",""1"",""1937""
","
","","","","","","1659.5999999642372","<p> Great! You are now ready to begin the game. </p><p> Remember, use the 1, 2, 3, and 4 keys to make your responses. </p>","","0","instructions","","",""
"html-keyboard-response","43","194205","0.0-18.0-0.0","8149","approach_avoid_sv1","""event"",""trial"",""time""
""fullscreenenter"",""1"",""1937""
","
","
","""event"",""trial"",""time""
""fullscreenenter"",""1"",""1937""
","
","","","","","","null","<div style=""font-size:60px;"">+</div>","null","","fixation","","",""
"memory-trial","44","197820","0.0-18.0-1.0","8149","approach_avoid_sv1","""event"",""trial"",""time""
""fullscreenenter"",""1"",""1937""
","
","
","""event"",""trial"",""time""
""fullscreenenter"",""1"",""1937""
","
","","","","","","2610.199999988079","images/bed4.png","","","memory_trial","2","maybe_old",""
"html-keyboard-response","45","198324","0.0-18.0-0.1","8149","approach_avoid_sv1","""event"",""trial"",""time""
""fullscreenenter"",""1"",""1937""
","
","
","""event"",""trial"",""time""
""fullscreenenter"",""1"",""1937""
","
","","","","","","null","<div style=""font-size:60px;"">+</div>","null","","fixation","","",""
"memory-trial","46","200652","0.0-18.0-1.1","8149","approach_avoid_sv1","""event"",""trial"",""time""
""fullscreenenter"",""1"",""1937""
","
","
","""event"",""trial"",""time""
""fullscreenenter"",""1"",""1937""
","
","","","","","","1316.699999988079","images/plane6.png","","","memory_trial","4","definitely_new",""
"html-keyboard-response","47","201155","0.0-18.0-0.2","8149","approach_avoid_sv1","""event"",""trial"",""time""
""fullscreenenter"",""1"",""1937""
","
","
","""event"",""trial"",""time""
""fullscreenenter"",""1"",""1937""
","
","","","","","","null","<div style=""font-size:60px;"">+</div>","null","","fixation","","",""
"memory-trial","48","204569","0.0-18.0-1.2","8149","approach_avoid_sv1","""event"",""trial"",""time""
""fullscreenenter"",""1"",""1937""
","
","
","""event"",""trial"",""time""
""fullscreenenter"",""1"",""1937""
","
","","","","","","2402.199999988079","images/dog1.png","","","memory_trial","4","definitely_new",""
"html-keyboard-response","49","205074","0.0-18.0-0.3","8149","approach_avoid_sv1","""event"",""trial"",""time""
""fullscreenenter"",""1"",""1937""
","
","
","""event"",""trial"",""time""
""fullscreenenter"",""1"",""1937""
","
","","","","","","null","<div style=""font-size:60px;"">+</div>","null","","fixation","","",""
"memory-trial","50","207266","0.0-18.0-1.3","8149","approach_avoid_sv1","""event"",""trial"",""time""
""fullscreenenter"",""1"",""1937""
","
","
","""event"",""trial"",""time""
""fullscreenenter"",""1"",""1937""
","
","","","","","","1178","images/rodent1.png","","","memory_trial","4","definitely_new",""
"html-keyboard-response","51","207774","0.0-18.0-0.4","8149","approach_avoid_sv1","""event"",""trial"",""time""
""fullscreenenter"",""1"",""1937""
","
","
","""event"",""trial"",""time""
""fullscreenenter"",""1"",""1937""
","
","","","","","","null","<div style=""font-size:60px;"">+</div>","null","","fixation","","",""
"memory-trial","52","210318","0.0-18.0-1.4","8149","approach_avoid_sv1","""event"",""trial"",""time""
""fullscreenenter"",""1"",""1937""
","
","
","""event"",""trial"",""time""
""fullscreenenter"",""1"",""1937""
","
","","","","","","1528.1000000238419","images/plane5.png","","","memory_trial","4","definitely_new",""
"html-keyboard-response","53","210822","0.0-18.0-0.5","8149","approach_avoid_sv1","""event"",""trial"",""time""
""fullscreenenter"",""1"",""1937""
","
","
","""event"",""trial"",""time""
""fullscreenenter"",""1"",""1937""
","
","","","","","","null","<div style=""font-size:60px;"">+</div>","null","","fixation","","",""
"memory-trial","54","212652","0.0-18.0-1.5","8149","approach_avoid_sv1","""event"",""trial"",""time""
""fullscreenenter"",""1"",""1937""
","
","
","""event"",""trial"",""time""
""fullscreenenter"",""1"",""1937""
","
","","","","","","817.1000000238419","images/plane2.png","","","memory_trial","4","definitely_new",""
"html-keyboard-response","55","213155","0.0-18.0-0.6","8149","approach_avoid_sv1","""event"",""trial"",""time""
""fullscreenenter"",""1"",""1937""
","
","
","""event"",""trial"",""time""
""fullscreenenter"",""1"",""1937""
","
","","","","","","null","<div style=""font-size:60px;"">+</div>","null","","fixation","","",""
"memory-trial","56","216850","0.0-18.0-1.6","8149","approach_avoid_sv1","""event"",""trial"",""time""
""fullscreenenter"",""1"",""1937""
","
","
","""event"",""trial"",""time""
""fullscreenenter"",""1"",""1937""
","
","","","","","","2679.900000035763","images/dog2.png","","","memory_trial","2","maybe_old",""
"html-keyboard-response","57","217355","0.0-18.0-0.7","8149","approach_avoid_sv1","""event"",""trial"",""time""
""fullscreenenter"",""1"",""1937""
","
","
","""event"",""trial"",""time""
""fullscreenenter"",""1"",""1937""
","
","","","","","","null","<div style=""font-size:60px;"">+</div>","null","","fixation","","",""
"memory-trial","58","219930","0.0-18.0-1.7","8149","approach_avoid_sv1","""event"",""trial"",""time""
""fullscreenenter"",""1"",""1937""
","
","
","""event"",""trial"",""time""
""fullscreenenter"",""1"",""1937""
","
","","","","","","1569.5","images/table6.png","","","memory_trial","1","definitely_old",""
"html-keyboard-response","59","220436","0.0-18.0-0.8","8149","approach_avoid_sv1","""event"",""trial"",""time""
""fullscreenenter"",""1"",""1937""
","
","
","""event"",""trial"",""time""
""fullscreenenter"",""1"",""1937""
","
","","","","","","null","<div style=""font-size:60px;"">+</div>","null","","fixation","","",""
"memory-trial","60","222895","0.0-18.0-1.8","8149","approach_avoid_sv1","""event"",""trial"",""time""
""fullscreenenter"",""1"",""1937""
","
","
","""event"",""trial"",""time""
""fullscreenenter"",""1"",""1937""
","
","","","","","","1455.300000011921","images/straw7.png","","","memory_trial","3","maybe_new",""
"html-keyboard-response","61","223396","0.0-18.0-0.9","8149","approach_avoid_sv1","""event"",""trial"",""time""
""fullscreenenter"",""1"",""1937""
","
","
","""event"",""trial"",""time""
""fullscreenenter"",""1"",""1937""
","
","","","","","","null","<div style=""font-size:60px;"">+</div>","null","","fixation","","",""
"memory-trial","62","225600","0.0-18.0-1.9","8149","approach_avoid_sv1","""event"",""trial"",""time""
""fullscreenenter"",""1"",""1937""
","
","
","""event"",""trial"",""time""
""fullscreenenter"",""1"",""1937""
","
","","","","","","1201.9000000357628","images/cactus2.png","","","memory_trial","4","definitely_new",""
"html-keyboard-response","63","226114","0.0-18.0-0.10","8149","approach_avoid_sv1","""event"",""trial"",""time""
""fullscreenenter"",""1"",""1937""
","
","
","""event"",""trial"",""time""
""fullscreenenter"",""1"",""1937""
","
","","","","","","null","<div style=""font-size:60px;"">+</div>","null","","fixation","","",""
"memory-trial","64","229921","0.0-18.0-1.10","8149","approach_avoid_sv1","""event"",""trial"",""time""
""fullscreenenter"",""1"",""1937""
","
","
","""event"",""trial"",""time""
""fullscreenenter"",""1"",""1937""
","
","","","","","","2805","images/cat7.png","","","memory_trial","3","maybe_new",""
"html-keyboard-response","65","230423","0.0-18.0-0.11","8149","approach_avoid_sv1","""event"",""trial"",""time""
""fullscreenenter"",""1"",""1937""
","
","
","""event"",""trial"",""time""
""fullscreenenter"",""1"",""1937""
","
","","","","","","null","<div style=""font-size:60px;"">+</div>","null","","fixation","","",""
"memory-trial","66","233585","0.0-18.0-1.11","8149","approach_avoid_sv1","""event"",""trial"",""time""
""fullscreenenter"",""1"",""1937""
","
","
","""event"",""trial"",""time""
""fullscreenenter"",""1"",""1937""
","
","","","","","","2159.199999988079","images/chair6.png","","","memory_trial","4","definitely_new",""
"html-keyboard-response","67","234085","0.0-18.0-0.12","8149","approach_avoid_sv1","""event"",""trial"",""time""
""fullscreenenter"",""1"",""1937""
","
","
","""event"",""trial"",""time""
""fullscreenenter"",""1"",""1937""
","
","","","","","","null","<div style=""font-size:60px;"">+</div>","null","","fixation","","",""
"memory-trial","68","236438","0.0-18.0-1.12","8149","approach_avoid_sv1","""event"",""trial"",""time""
""fullscreenenter"",""1"",""1937""
","
","
","""event"",""trial"",""time""
""fullscreenenter"",""1"",""1937""
","
","","","","","","1350","images/train8.png","","","memory_trial","4","definitely_new",""
"html-keyboard-response","69","236939","0.0-18.0-0.13","8149","approach_avoid_sv1","""event"",""trial"",""time""
""fullscreenenter"",""1"",""1937""
","
","
","""event"",""trial"",""time""
""fullscreenenter"",""1"",""1937""
","
","","","","","","null","<div style=""font-size:60px;"">+</div>","null","","fixation","","",""
"memory-trial","70","239540","0.0-18.0-1.13","8149","approach_avoid_sv1","""event"",""trial"",""time""
""fullscreenenter"",""1"",""1937""
","
","
","""event"",""trial"",""time""
""fullscreenenter"",""1"",""1937""
","
","","","","","","1597.3999999761581","images/banana4.png","","","memory_trial","3","maybe_new",""
"html-keyboard-response","71","240041","0.0-18.0-0.14","8149","approach_avoid_sv1","""event"",""trial"",""time""
""fullscreenenter"",""1"",""1937""
","
","
","""event"",""trial"",""time""
""fullscreenenter"",""1"",""1937""
","
","","","","","","null","<div style=""font-size:60px;"">+</div>","null","","fixation","","",""
"memory-trial","72","242359","0.0-18.0-1.14","8149","approach_avoid_sv1","""event"",""trial"",""time""
""fullscreenenter"",""1"",""1937""
","
","
","""event"",""trial"",""time""
""fullscreenenter"",""1"",""1937""
","
","","","","","","1315.5999999642372","images/bush7.png","","","memory_trial","1","definitely_old",""
"html-keyboard-response","73","242860","0.0-18.0-0.15","8149","approach_avoid_sv1","""event"",""trial"",""time""
""fullscreenenter"",""1"",""1937""
","
","
","""event"",""trial"",""time""
""fullscreenenter"",""1"",""1937""
","
","","","","","","null","<div style=""font-size:60px;"">+</div>","null","","fixation","","",""
"memory-trial","74","244969","0.0-18.0-1.15","8149","approach_avoid_sv1","""event"",""trial"",""time""
""fullscreenenter"",""1"",""1937""
","
","
","""event"",""trial"",""time""
""fullscreenenter"",""1"",""1937""
","
","","","","","","1105.5","images/flower3.png","","","memory_trial","1","definitely_old",""
"html-keyboard-response","75","245470","0.0-18.0-0.16","8149","approach_avoid_sv1","""event"",""trial"",""time""
""fullscreenenter"",""1"",""1937""
","
","
","""event"",""trial"",""time""
""fullscreenenter"",""1"",""1937""
","
","","","","","","null","<div style=""font-size:60px;"">+</div>","null","","fixation","","",""
"memory-trial","76","247502","0.0-18.0-1.16","8149","approach_avoid_sv1","""event"",""trial"",""time""
""fullscreenenter"",""1"",""1937""
","
","
","""event"",""trial"",""time""
""fullscreenenter"",""1"",""1937""
","
","","","","","","1029.6000000238419","images/cat2.png","","","memory_trial","1","definitely_old",""
"html-keyboard-response","77","248003","0.0-18.0-0.17","8149","approach_avoid_sv1","""event"",""trial"",""time""
""fullscreenenter"",""1"",""1937""
","
","
","""event"",""trial"",""time""
""fullscreenenter"",""1"",""1937""
","
","","","","","","null","<div style=""font-size:60px;"">+</div>","null","","fixation","","",""
"memory-trial","78","251562","0.0-18.0-1.17","8149","approach_avoid_sv1","""event"",""trial"",""time""
""fullscreenenter"",""1"",""1937""
","
","
","""event"",""trial"",""time""
""fullscreenenter"",""1"",""1937""
","
","","","","","","2557.100000023842","images/rodent3.png","","","memory_trial","4","definitely_new",""
"html-keyboard-response","79","252064","0.0-18.0-0.18","8149","approach_avoid_sv1","""event"",""trial"",""time""
""fullscreenenter"",""1"",""1937""
","
","
","""event"",""trial"",""time""
""fullscreenenter"",""1"",""1937""
","
","","","","","","null","<div style=""font-size:60px;"">+</div>","null","","fixation","","",""
"memory-trial","80","254812","0.0-18.0-1.18","8149","approach_avoid_sv1","""event"",""trial"",""time""
""fullscreenenter"",""1"",""1937""
","
","
","""event"",""trial"",""time""
""fullscreenenter"",""1"",""1937""
","
","","","","","","1743.6000000238419","images/cat6.png","","","memory_trial","4","definitely_new",""
"html-keyboard-response","81","255313","0.0-18.0-0.19","8149","approach_avoid_sv1","""event"",""trial"",""time""
""fullscreenenter"",""1"",""1937""
","
","
","""event"",""trial"",""time""
""fullscreenenter"",""1"",""1937""
","
","","","","","","null","<div style=""font-size:60px;"">+</div>","null","","fixation","","",""
"memory-trial","82","257261","0.0-18.0-1.19","8149","approach_avoid_sv1","""event"",""trial"",""time""
""fullscreenenter"",""1"",""1937""
","
","
","""event"",""trial"",""time""
""fullscreenenter"",""1"",""1937""
","
","","","","","","945.5999999642372","images/cactus8.png","","","memory_trial","4","definitely_new",""
"html-keyboard-response","83","257762","0.0-18.0-0.20","8149","approach_avoid_sv1","""event"",""trial"",""time""
""fullscreenenter"",""1"",""1937""
","
","
","""event"",""trial"",""time""
""fullscreenenter"",""1"",""1937""
","
","","","","","","null","<div style=""font-size:60px;"">+</div>","null","","fixation","","",""
"memory-trial","84","259872","0.0-18.0-1.20","8149","approach_avoid_sv1","""event"",""trial"",""time""
""fullscreenenter"",""1"",""1937""
","
","
","""event"",""trial"",""time""
""fullscreenenter"",""1"",""1937""
","
","","","","","","1106.699999988079","images/cow5.png","","","memory_trial","1","definitely_old",""
"html-keyboard-response","85","260374","0.0-18.0-0.21","8149","approach_avoid_sv1","""event"",""trial"",""time""
""fullscreenenter"",""1"",""1937""
","
","
","""event"",""trial"",""time""
""fullscreenenter"",""1"",""1937""
","
","","","","","","null","<div style=""font-size:60px;"">+</div>","null","","fixation","","",""
"memory-trial","86","264556","0.0-18.0-1.21","8149","approach_avoid_sv1","""event"",""trial"",""time""
""fullscreenenter"",""1"",""1937""
","
","
","""event"",""trial"",""time""
""fullscreenenter"",""1"",""1937""
","
","","","","","","3178.899999976158","images/orange2.png","","","memory_trial","3","maybe_new",""
"html-keyboard-response","87","265057","0.0-18.0-0.22","8149","approach_avoid_sv1","""event"",""trial"",""time""
""fullscreenenter"",""1"",""1937""
","
","
","""event"",""trial"",""time""
""fullscreenenter"",""1"",""1937""
","
","","","","","","null","<div style=""font-size:60px;"">+</div>","null","","fixation","","",""
"memory-trial","88","269574","0.0-18.0-1.22","8149","approach_avoid_sv1","""event"",""trial"",""time""
""fullscreenenter"",""1"",""1937""
","
","
","""event"",""trial"",""time""
""fullscreenenter"",""1"",""1937""
","
","","","","","","3513.7000000476837","images/truck7.png","","","memory_trial","1","definitely_old",""
"html-keyboard-response","89","270075","0.0-18.0-0.23","8149","approach_avoid_sv1","""event"",""trial"",""time""
""fullscreenenter"",""1"",""1937""
","
","
","""event"",""trial"",""time""
""fullscreenenter"",""1"",""1937""
","
","","","","","","null","<div style=""font-size:60px;"">+</div>","null","","fixation","","",""
"memory-trial","90","272297","0.0-18.0-1.23","8149","approach_avoid_sv1","""event"",""trial"",""time""
""fullscreenenter"",""1"",""1937""
","
","
","""event"",""trial"",""time""
""fullscreenenter"",""1"",""1937""
","
","","","","","","1218.9000000357628","images/banana3.png","","","memory_trial","1","definitely_old",""
"html-keyboard-response","91","272799","0.0-18.0-0.24","8149","approach_avoid_sv1","""event"",""trial"",""time""
""fullscreenenter"",""1"",""1937""
","
","
","""event"",""trial"",""time""
""fullscreenenter"",""1"",""1937""
","
","","","","","","null","<div style=""font-size:60px;"">+</div>","null","","fixation","","",""
"memory-trial","92","275232","0.0-18.0-1.24","8149","approach_avoid_sv1","""event"",""trial"",""time""
""fullscreenenter"",""1"",""1937""
","
","
","""event"",""trial"",""time""
""fullscreenenter"",""1"",""1937""
","
","","","","","","1429.7999999523163","images/plane1.png","","","memory_trial","4","definitely_new",""
"html-keyboard-response","93","275733","0.0-18.0-0.25","8149","approach_avoid_sv1","""event"",""trial"",""time""
""fullscreenenter"",""1"",""1937""
","
","
","""event"",""trial"",""time""
""fullscreenenter"",""1"",""1937""
","
","","","","","","null","<div style=""font-size:60px;"">+</div>","null","","fixation","","",""
"memory-trial","94","280445","0.0-18.0-1.25","8149","approach_avoid_sv1","""event"",""trial"",""time""
""fullscreenenter"",""1"",""1937""
","
","
","""event"",""trial"",""time""
""fullscreenenter"",""1"",""1937""
","
","","","","","","3710.199999988079","images/train6.png","","","memory_trial","1","definitely_old",""
"html-keyboard-response","95","280946","0.0-18.0-0.26","8149","approach_avoid_sv1","""event"",""trial"",""time""
""fullscreenenter"",""1"",""1937""
","
","
","""event"",""trial"",""time""
""fullscreenenter"",""1"",""1937""
","
","","","","","","null","<div style=""font-size:60px;"">+</div>","null","","fixation","","",""
"memory-trial","96","283117","0.0-18.0-1.26","8149","approach_avoid_sv1","""event"",""trial"",""time""
""fullscreenenter"",""1"",""1937""
","
","
","""event"",""trial"",""time""
""fullscreenenter"",""1"",""1937""
","
","","","","","","1166.9000000357628","images/goat2.png","","","memory_trial","1","definitely_old",""
"html-keyboard-response","97","283618","0.0-18.0-0.27","8149","approach_avoid_sv1","""event"",""trial"",""time""
""fullscreenenter"",""1"",""1937""
","
","
","""event"",""trial"",""time""
""fullscreenenter"",""1"",""1937""
","
","","","","","","null","<div style=""font-size:60px;"">+</div>","null","","fixation","","",""
"memory-trial","98","286825","0.0-18.0-1.27","8149","approach_avoid_sv1","""event"",""trial"",""time""
""fullscreenenter"",""1"",""1937""
","
","
","""event"",""trial"",""time""
""fullscreenenter"",""1"",""1937""
","
","","","","","","2204.7000000476837","images/horse4.png","","","memory_trial","2","maybe_old",""
"html-keyboard-response","99","287327","0.0-18.0-0.28","8149","approach_avoid_sv1","""event"",""trial"",""time""
""fullscreenenter"",""1"",""1937""
","
","
","""event"",""trial"",""time""
""fullscreenenter"",""1"",""1937""
","
","","","","","","null","<div style=""font-size:60px;"">+</div>","null","","fixation","","",""
"memory-trial","100","289735","0.0-18.0-1.28","8149","approach_avoid_sv1","""event"",""trial"",""time""
""fullscreenenter"",""1"",""1937""
","
","
","""event"",""trial"",""time""
""fullscreenenter"",""1"",""1937""
","
","","","","","","1404.1000000238419","images/boat3.png","","","memory_trial","1","definitely_old",""
"html-keyboard-response","101","290236","0.0-18.0-0.29","8149","approach_avoid_sv1","""event"",""trial"",""time""
""fullscreenenter"",""1"",""1937""
","
","
","""event"",""trial"",""time""
""fullscreenenter"",""1"",""1937""
","
","","","","","","null","<div style=""font-size:60px;"">+</div>","null","","fixation","","",""
"memory-trial","102","293215","0.0-18.0-1.29","8149","approach_avoid_sv1","""event"",""trial"",""time""
""fullscreenenter"",""1"",""1937""
","
","
","""event"",""trial"",""time""
""fullscreenenter"",""1"",""1937""
","
","","","","","","1976.199999988079","images/plane8.png","","","memory_trial","2","maybe_old",""
"html-keyboard-response","103","293717","0.0-18.0-0.30","8149","approach_avoid_sv1","""event"",""trial"",""time""
""fullscreenenter"",""1"",""1937""
","
","
","""event"",""trial"",""time""
""fullscreenenter"",""1"",""1937""
","
","","","","","","null","<div style=""font-size:60px;"">+</div>","null","","fixation","","",""
"memory-trial","104","296444","0.0-18.0-1.30","8149","approach_avoid_sv1","""event"",""trial"",""time""
""fullscreenenter"",""1"",""1937""
","
","
","""event"",""trial"",""time""
""fullscreenenter"",""1"",""1937""
","
","","","","","","1723.8999999761581","images/straw1.png","","","memory_trial","2","maybe_old",""
"html-keyboard-response","105","296946","0.0-18.0-0.31","8149","approach_avoid_sv1","""event"",""trial"",""time""
""fullscreenenter"",""1"",""1937""
","
","
","""event"",""trial"",""time""
""fullscreenenter"",""1"",""1937""
","
","","","","","","null","<div style=""font-size:60px;"">+</div>","null","","fixation","","",""
"memory-trial","106","299022","0.0-18.0-1.31","8149","approach_avoid_sv1","""event"",""trial"",""time""
""fullscreenenter"",""1"",""1937""
","
","
","""event"",""trial"",""time""
""fullscreenenter"",""1"",""1937""
","
","","","","","","1072.5999999642372","images/sheep3.png","","","memory_trial","1","definitely_old",""
"html-keyboard-response","107","299524","0.0-18.0-0.32","8149","approach_avoid_sv1","""event"",""trial"",""time""
""fullscreenenter"",""1"",""1937""
","
","
","""event"",""trial"",""time""
""fullscreenenter"",""1"",""1937""
","
","","","","","","null","<div style=""font-size:60px;"">+</div>","null","","fixation","","",""
"memory-trial","108","301898","0.0-18.0-1.32","8149","approach_avoid_sv1","""event"",""trial"",""time""
""fullscreenenter"",""1"",""1937""
","
","
","""event"",""trial"",""time""
""fullscreenenter"",""1"",""1937""
","
","","","","","","1371.4000000357628","images/cactus5.png","","","memory_trial","4","definitely_new",""
"html-keyboard-response","109","302400","0.0-18.0-0.33","8149","approach_avoid_sv1","""event"",""trial"",""time""
""fullscreenenter"",""1"",""1937""
","
","
","""event"",""trial"",""time""
""fullscreenenter"",""1"",""1937""
","
","","","","","","null","<div style=""font-size:60px;"">+</div>","null","","fixation","","",""
"memory-trial","110","305575","0.0-18.0-1.33","8149","approach_avoid_sv1","""event"",""trial"",""time""
""fullscreenenter"",""1"",""1937""
","
","
","""event"",""trial"",""time""
""fullscreenenter"",""1"",""1937""
","
","","","","","","2171.399999976158","images/flower4.png","","","memory_trial","1","definitely_old",""
"html-keyboard-response","111","306076","0.0-18.0-0.34","8149","approach_avoid_sv1","""event"",""trial"",""time""
""fullscreenenter"",""1"",""1937""
","
","
","""event"",""trial"",""time""
""fullscreenenter"",""1"",""1937""
","
","","","","","","null","<div style=""font-size:60px;"">+</div>","null","","fixation","","",""
"memory-trial","112","309591","0.0-18.0-1.34","8149","approach_avoid_sv1","""event"",""trial"",""time""
""fullscreenenter"",""1"",""1937""
","
","
","""event"",""trial"",""time""
""fullscreenenter"",""1"",""1937""
","
","","","","","","2513.800000011921","images/sheep6.png","","","memory_trial","2","maybe_old",""
"html-keyboard-response","113","310093","0.0-18.0-0.35","8149","approach_avoid_sv1","""event"",""trial"",""time""
""fullscreenenter"",""1"",""1937""
","
","
","""event"",""trial"",""time""
""fullscreenenter"",""1"",""1937""
","
","","","","","","null","<div style=""font-size:60px;"">+</div>","null","","fixation","","",""
"memory-trial","114","311995","0.0-18.0-1.35","8149","approach_avoid_sv1","""event"",""trial"",""time""
""fullscreenenter"",""1"",""1937""
","
","
","""event"",""trial"",""time""
""fullscreenenter"",""1"",""1937""
","
","","","","","","899.0999999642372","images/cow1.png","","","memory_trial","1","definitely_old",""
"html-keyboard-response","115","312496","0.0-18.0-0.36","8149","approach_avoid_sv1","""event"",""trial"",""time""
""fullscreenenter"",""1"",""1937""
","
","
","""event"",""trial"",""time""
""fullscreenenter"",""1"",""1937""
","
","","","","","","null","<div style=""font-size:60px;"">+</div>","null","","fixation","","",""
"memory-trial","116","314983","0.0-18.0-1.36","8149","approach_avoid_sv1","""event"",""trial"",""time""
""fullscreenenter"",""1"",""1937""
","
","
","""event"",""trial"",""time""
""fullscreenenter"",""1"",""1937""
","
","","","","","","1483.4000000357628","images/rodent8.png","","","memory_trial","2","maybe_old",""
"html-keyboard-response","117","315484","0.0-18.0-0.37","8149","approach_avoid_sv1","""event"",""trial"",""time""
""fullscreenenter"",""1"",""1937""
","
","
","""event"",""trial"",""time""
""fullscreenenter"",""1"",""1937""
","
","","","","","","null","<div style=""font-size:60px;"">+</div>","null","","fixation","","",""
"memory-trial","118","317625","0.0-18.0-1.37","8149","approach_avoid_sv1","""event"",""trial"",""time""
""fullscreenenter"",""1"",""1937""
","
","
","""event"",""trial"",""time""
""fullscreenenter"",""1"",""1937""
","
","","","","","","1137.699999988079","images/horse7.png","","","memory_trial","4","definitely_new",""
"html-keyboard-response","119","318126","0.0-18.0-0.38","8149","approach_avoid_sv1","""event"",""trial"",""time""
""fullscreenenter"",""1"",""1937""
","
","
","""event"",""trial"",""time""
""fullscreenenter"",""1"",""1937""
","
","","","","","","null","<div style=""font-size:60px;"">+</div>","null","","fixation","","",""
"memory-trial","120","320858","0.0-18.0-1.38","8149","approach_avoid_sv1","""event"",""trial"",""time""
""fullscreenenter"",""1"",""1937""
","
","
","""event"",""trial"",""time""
""fullscreenenter"",""1"",""1937""
","
","","","","","","1730.9000000357628","images/flower7.png","","","memory_trial","4","definitely_new",""
"html-keyboard-response","121","321359","0.0-18.0-0.39","8149","approach_avoid_sv1","""event"",""trial"",""time""
""fullscreenenter"",""1"",""1937""
","
","
","""event"",""trial"",""time""
""fullscreenenter"",""1"",""1937""
","
","","","","","","null","<div style=""font-size:60px;"">+</div>","null","","fixation","","",""
"memory-trial","122","325565","0.0-18.0-1.39","8149","approach_avoid_sv1","""event"",""trial"",""time""
""fullscreenenter"",""1"",""1937""
","
","
","""event"",""trial"",""time""
""fullscreenenter"",""1"",""1937""
","
","","","","","","3203","images/rabbit6.png","","","memory_trial","3","maybe_new",""
"html-keyboard-response","123","326066","0.0-18.0-0.40","8149","approach_avoid_sv1","""event"",""trial"",""time""
""fullscreenenter"",""1"",""1937""
","
","
","""event"",""trial"",""time""
""fullscreenenter"",""1"",""1937""
","
","","","","","","null","<div style=""font-size:60px;"">+</div>","null","","fixation","","",""
"memory-trial","124","329386","0.0-18.0-1.40","8149","approach_avoid_sv1","""event"",""trial"",""time""
""fullscreenenter"",""1"",""1937""
","
","
","""event"",""trial"",""time""
""fullscreenenter"",""1"",""1937""
","
","","","","","","2317.400000035763","images/orange5.png","","","memory_trial","2","maybe_old",""
"html-keyboard-response","125","329887","0.0-18.0-0.41","8149","approach_avoid_sv1","""event"",""trial"",""time""
""fullscreenenter"",""1"",""1937""
","
","
","""event"",""trial"",""time""
""fullscreenenter"",""1"",""1937""
","
","","","","","","null","<div style=""font-size:60px;"">+</div>","null","","fixation","","",""
"memory-trial","126","331730","0.0-18.0-1.41","8149","approach_avoid_sv1","""event"",""trial"",""time""
""fullscreenenter"",""1"",""1937""
","
","
","""event"",""trial"",""time""
""fullscreenenter"",""1"",""1937""
","
","","","","","","839.8000000119209","images/truck1.png","","","memory_trial","1","definitely_old",""
"html-button-response","127","333499","0.0-18.0-2.41-0.41","8149","approach_avoid_sv1","""event"",""trial"",""time""
""fullscreenenter"",""1"",""1937""
","
","
","""event"",""trial"",""time""
""fullscreenenter"",""1"",""1937""
","
","","","","","","1768.4000000357628","<p> Take a break! </p><p> Click the button to continue. </p>","0","","break","","",""
"html-keyboard-response","128","334001","0.0-18.0-0.42","8149","approach_avoid_sv1","""event"",""trial"",""time""
""fullscreenenter"",""1"",""1937""
","
","
","""event"",""trial"",""time""
""fullscreenenter"",""1"",""1937""
","
","","","","","","null","<div style=""font-size:60px;"">+</div>","null","","fixation","","",""
"memory-trial","129","337185","0.0-18.0-1.42","8149","approach_avoid_sv1","""event"",""trial"",""time""
""fullscreenenter"",""1"",""1937""
","
","
","""event"",""trial"",""time""
""fullscreenenter"",""1"",""1937""
","
","","","","","","2180.099999964237","images/flower8.png","","","memory_trial","2","maybe_old",""
"html-keyboard-response","130","337686","0.0-18.0-0.43","8149","approach_avoid_sv1","""event"",""trial"",""time""
""fullscreenenter"",""1"",""1937""
","
","
","""event"",""trial"",""time""
""fullscreenenter"",""1"",""1937""
","
","","","","","","null","<div style=""font-size:60px;"">+</div>","null","","fixation","","",""
"memory-trial","131","342705","0.0-18.0-1.43","8149","approach_avoid_sv1","""event"",""trial"",""time""
""fullscreenenter"",""1"",""1937""
","
","
","""event"",""trial"",""time""
""fullscreenenter"",""1"",""1937""
","
","","","","","","4015.199999988079","images/banana2.png","","","memory_trial","2","maybe_old",""
"html-keyboard-response","132","343207","0.0-18.0-0.44","8149","approach_avoid_sv1","""event"",""trial"",""time""
""fullscreenenter"",""1"",""1937""
","
","
","""event"",""trial"",""time""
""fullscreenenter"",""1"",""1937""
","
","","","","","","null","<div style=""font-size:60px;"">+</div>","null","","fixation","","",""
"memory-trial","133","346266","0.0-18.0-1.44","8149","approach_avoid_sv1","""event"",""trial"",""time""
""fullscreenenter"",""1"",""1937""
","
","
","""event"",""trial"",""time""
""fullscreenenter"",""1"",""1937""
","
","","","","","","2056","images/horse8.png","","","memory_trial","3","maybe_new",""
"html-keyboard-response","134","346768","0.0-18.0-0.45","8149","approach_avoid_sv1","""event"",""trial"",""time""
""fullscreenenter"",""1"",""1937""
","
","
","""event"",""trial"",""time""
""fullscreenenter"",""1"",""1937""
","
","","","","","","null","<div style=""font-size:60px;"">+</div>","null","","fixation","","",""
"memory-trial","135","348539","0.0-18.0-1.45","8149","approach_avoid_sv1","""event"",""trial"",""time""
""fullscreenenter"",""1"",""1937""
","
","
","""event"",""trial"",""time""
""fullscreenenter"",""1"",""1937""
","
","","","","","","767.8999999761581","images/bed2.png","","","memory_trial","1","definitely_old",""
"html-keyboard-response","136","349040","0.0-18.0-0.46","8149","approach_avoid_sv1","""event"",""trial"",""time""
""fullscreenenter"",""1"",""1937""
","
","
","""event"",""trial"",""time""
""fullscreenenter"",""1"",""1937""
","
","","","","","","null","<div style=""font-size:60px;"">+</div>","null","","fixation","","",""
"memory-trial","137","352555","0.0-18.0-1.46","8149","approach_avoid_sv1","""event"",""trial"",""time""
""fullscreenenter"",""1"",""1937""
","
","
","""event"",""trial"",""time""
""fullscreenenter"",""1"",""1937""
","
","","","","","","2513.2000000476837","images/chair3.png","","","memory_trial","4","definitely_new",""
"html-keyboard-response","138","353056","0.0-18.0-0.47","8149","approach_avoid_sv1","""event"",""trial"",""time""
""fullscreenenter"",""1"",""1937""
","
","
","""event"",""trial"",""time""
""fullscreenenter"",""1"",""1937""
","
","","","","","","null","<div style=""font-size:60px;"">+</div>","null","","fixation","","",""
"memory-trial","139","354942","0.0-18.0-1.47","8149","approach_avoid_sv1","""event"",""trial"",""time""
""fullscreenenter"",""1"",""1937""
","
","
","""event"",""trial"",""time""
""fullscreenenter"",""1"",""1937""
","
","","","","","","883.1999999880791","images/truck3.png","","","memory_trial","4","definitely_new",""
"html-keyboard-response","140","355444","0.0-18.0-0.48","8149","approach_avoid_sv1","""event"",""trial"",""time""
""fullscreenenter"",""1"",""1937""
","
","
","""event"",""trial"",""time""
""fullscreenenter"",""1"",""1937""
","
","","","","","","null","<div style=""font-size:60px;"">+</div>","null","","fixation","","",""
"memory-trial","141","358208","0.0-18.0-1.48","8149","approach_avoid_sv1","""event"",""trial"",""time""
""fullscreenenter"",""1"",""1937""
","
","
","""event"",""trial"",""time""
""fullscreenenter"",""1"",""1937""
","
","","","","","","1762.300000011921","images/sheep4.png","","","memory_trial","1","definitely_old",""
"html-keyboard-response","142","358709","0.0-18.0-0.49","8149","approach_avoid_sv1","""event"",""trial"",""time""
""fullscreenenter"",""1"",""1937""
","
","
","""event"",""trial"",""time""
""fullscreenenter"",""1"",""1937""
","
","","","","","","null","<div style=""font-size:60px;"">+</div>","null","","fixation","","",""
"memory-trial","143","362585","0.0-18.0-1.49","8149","approach_avoid_sv1","""event"",""trial"",""time""
""fullscreenenter"",""1"",""1937""
","
","
","""event"",""trial"",""time""
""fullscreenenter"",""1"",""1937""
","
","","","","","","2873.5","images/apple2.png","","","memory_trial","3","maybe_new",""
"html-keyboard-response","144","363086","0.0-18.0-0.50","8149","approach_avoid_sv1","""event"",""trial"",""time""
""fullscreenenter"",""1"",""1937""
","
","
","""event"",""trial"",""time""
""fullscreenenter"",""1"",""1937""
","
","","","","","","null","<div style=""font-size:60px;"">+</div>","null","","fixation","","",""
"memory-trial","145","365844","0.0-18.0-1.50","8149","approach_avoid_sv1","""event"",""trial"",""time""
""fullscreenenter"",""1"",""1937""
","
","
","""event"",""trial"",""time""
""fullscreenenter"",""1"",""1937""
","
","","","","","","1754.4000000357628","images/chair2.png","","","memory_trial","1","definitely_old",""
"html-keyboard-response","146","366345","0.0-18.0-0.51","8149","approach_avoid_sv1","""event"",""trial"",""time""
""fullscreenenter"",""1"",""1937""
","
","
","""event"",""trial"",""time""
""fullscreenenter"",""1"",""1937""
","
","","","","","","null","<div style=""font-size:60px;"">+</div>","null","","fixation","","",""
"memory-trial","147","368781","0.0-18.0-1.51","8149","approach_avoid_sv1","""event"",""trial"",""time""
""fullscreenenter"",""1"",""1937""
","
","
","""event"",""trial"",""time""
""fullscreenenter"",""1"",""1937""
","
","","","","","","1433.4000000357628","images/apple6.png","","","memory_trial","1","definitely_old",""
"html-keyboard-response","148","369282","0.0-18.0-0.52","8149","approach_avoid_sv1","""event"",""trial"",""time""
""fullscreenenter"",""1"",""1937""
","
","
","""event"",""trial"",""time""
""fullscreenenter"",""1"",""1937""
","
","","","","","","null","<div style=""font-size:60px;"">+</div>","null","","fixation","","",""
"memory-trial","149","371248","0.0-18.0-1.52","8149","approach_avoid_sv1","""event"",""trial"",""time""
""fullscreenenter"",""1"",""1937""
","
","
","""event"",""trial"",""time""
""fullscreenenter"",""1"",""1937""
","
","","","","","","963.0999999642372","images/cat3.png","","","memory_trial","1","definitely_old",""
"html-keyboard-response","150","371756","0.0-18.0-0.53","8149","approach_avoid_sv1","""event"",""trial"",""time""
""fullscreenenter"",""1"",""1937""
","
","
","""event"",""trial"",""time""
""fullscreenenter"",""1"",""1937""
","
","","","","","","null","<div style=""font-size:60px;"">+</div>","null","","fixation","","",""
"memory-trial","151","375443","0.0-18.0-1.53","8149","approach_avoid_sv1","""event"",""trial"",""time""
""fullscreenenter"",""1"",""1937""
","
","
","""event"",""trial"",""time""
""fullscreenenter"",""1"",""1937""
","
","","","","","","2684.100000023842","images/bush4.png","","","memory_trial","4","definitely_new",""
"html-keyboard-response","152","375945","0.0-18.0-0.54","8149","approach_avoid_sv1","""event"",""trial"",""time""
""fullscreenenter"",""1"",""1937""
","
","
","""event"",""trial"",""time""
""fullscreenenter"",""1"",""1937""
","
","","","","","","null","<div style=""font-size:60px;"">+</div>","null","","fixation","","",""
"memory-trial","153","377976","0.0-18.0-1.54","8149","approach_avoid_sv1","""event"",""trial"",""time""
""fullscreenenter"",""1"",""1937""
","
","
","""event"",""trial"",""time""
""fullscreenenter"",""1"",""1937""
","
","","","","","","1027.7000000476837","images/truck2.png","","","memory_trial","1","definitely_old",""
"html-keyboard-response","154","378476","0.0-18.0-0.55","8149","approach_avoid_sv1","""event"",""trial"",""time""
""fullscreenenter"",""1"",""1937""
","
","
","""event"",""trial"",""time""
""fullscreenenter"",""1"",""1937""
","
","","","","","","null","<div style=""font-size:60px;"">+</div>","null","","fixation","","",""
"memory-trial","155","380149","0.0-18.0-1.55","8149","approach_avoid_sv1","""event"",""trial"",""time""
""fullscreenenter"",""1"",""1937""
","
","
","""event"",""trial"",""time""
""fullscreenenter"",""1"",""1937""
","
","","","","","","669.6000000238419","images/sofa4.png","","","memory_trial","1","definitely_old",""
"html-keyboard-response","156","380651","0.0-18.0-0.56","8149","approach_avoid_sv1","""event"",""trial"",""time""
""fullscreenenter"",""1"",""1937""
","
","
","""event"",""trial"",""time""
""fullscreenenter"",""1"",""1937""
","
","","","","","","null","<div style=""font-size:60px;"">+</div>","null","","fixation","","",""
"memory-trial","157","384731","0.0-18.0-1.56","8149","approach_avoid_sv1","""event"",""trial"",""time""
""fullscreenenter"",""1"",""1937""
","
","
","""event"",""trial"",""time""
""fullscreenenter"",""1"",""1937""
","
","","","","","","3078","images/cat8.png","","","memory_trial","2","maybe_old",""
"html-keyboard-response","158","385234","0.0-18.0-0.57","8149","approach_avoid_sv1","""event"",""trial"",""time""
""fullscreenenter"",""1"",""1937""
","
","
","""event"",""trial"",""time""
""fullscreenenter"",""1"",""1937""
","
","","","","","","null","<div style=""font-size:60px;"">+</div>","null","","fixation","","",""
"memory-trial","159","388949","0.0-18.0-1.57","8149","approach_avoid_sv1","""event"",""trial"",""time""
""fullscreenenter"",""1"",""1937""
","
","
","""event"",""trial"",""time""
""fullscreenenter"",""1"",""1937""
","
","","","","","","2710.900000035763","images/bed7.png","","","memory_trial","3","maybe_new",""
"html-keyboard-response","160","389449","0.0-18.0-0.58","8149","approach_avoid_sv1","""event"",""trial"",""time""
""fullscreenenter"",""1"",""1937""
","
","
","""event"",""trial"",""time""
""fullscreenenter"",""1"",""1937""
","
","","","","","","null","<div style=""font-size:60px;"">+</div>","null","","fixation","","",""
"memory-trial","161","392835","0.0-18.0-1.58","8149","approach_avoid_sv1","""event"",""trial"",""time""
""fullscreenenter"",""1"",""1937""
","
","
","""event"",""trial"",""time""
""fullscreenenter"",""1"",""1937""
","
","","","","","","2381.899999976158","images/sheep7.png","","","memory_trial","4","definitely_new",""
"html-keyboard-response","162","393336","0.0-18.0-0.59","8149","approach_avoid_sv1","""event"",""trial"",""time""
""fullscreenenter"",""1"",""1937""
","
","
","""event"",""trial"",""time""
""fullscreenenter"",""1"",""1937""
","
","","","","","","null","<div style=""font-size:60px;"">+</div>","null","","fixation","","",""
"memory-trial","163","395418","0.0-18.0-1.59","8149","approach_avoid_sv1","""event"",""trial"",""time""
""fullscreenenter"",""1"",""1937""
","
","
","""event"",""trial"",""time""
""fullscreenenter"",""1"",""1937""
","
","","","","","","1079.199999988079","images/table5.png","","","memory_trial","1","definitely_old",""
"html-keyboard-response","164","395919","0.0-18.0-0.60","8149","approach_avoid_sv1","""event"",""trial"",""time""
""fullscreenenter"",""1"",""1937""
","
","
","""event"",""trial"",""time""
""fullscreenenter"",""1"",""1937""
","
","","","","","","null","<div style=""font-size:60px;"">+</div>","null","","fixation","","",""
"memory-trial","165","398166","0.0-18.0-1.60","8149","approach_avoid_sv1","""event"",""trial"",""time""
""fullscreenenter"",""1"",""1937""
","
","
","""event"",""trial"",""time""
""fullscreenenter"",""1"",""1937""
","
","","","","","","1244","images/tree2.png","","","memory_trial","4","definitely_new",""
"html-keyboard-response","166","398667","0.0-18.0-0.61","8149","approach_avoid_sv1","""event"",""trial"",""time""
""fullscreenenter"",""1"",""1937""
","
","
","""event"",""trial"",""time""
""fullscreenenter"",""1"",""1937""
","
","","","","","","null","<div style=""font-size:60px;"">+</div>","null","","fixation","","",""
"memory-trial","167","400745","0.0-18.0-1.61","8149","approach_avoid_sv1","""event"",""trial"",""time""
""fullscreenenter"",""1"",""1937""
","
","
","""event"",""trial"",""time""
""fullscreenenter"",""1"",""1937""
","
","","","","","","1074.7000000476837","images/chair4.png","","","memory_trial","4","definitely_new",""
"html-keyboard-response","168","401247","0.0-18.0-0.62","8149","approach_avoid_sv1","""event"",""trial"",""time""
""fullscreenenter"",""1"",""1937""
","
","
","""event"",""trial"",""time""
""fullscreenenter"",""1"",""1937""
","
","","","","","","null","<div style=""font-size:60px;"">+</div>","null","","fixation","","",""
"memory-trial","169","402946","0.0-18.0-1.62","8149","approach_avoid_sv1","""event"",""trial"",""time""
""fullscreenenter"",""1"",""1937""
","
","
","""event"",""trial"",""time""
""fullscreenenter"",""1"",""1937""
","
","","","","","","695.6000000238419","images/cactus4.png","","","memory_trial","4","definitely_new",""
"html-keyboard-response","170","403448","0.0-18.0-0.63","8149","approach_avoid_sv1","""event"",""trial"",""time""
""fullscreenenter"",""1"",""1937""
","
","
","""event"",""trial"",""time""
""fullscreenenter"",""1"",""1937""
","
","","","","","","null","<div style=""font-size:60px;"">+</div>","null","","fixation","","",""
"memory-trial","171","405733","0.0-18.0-1.63","8149","approach_avoid_sv1","""event"",""trial"",""time""
""fullscreenenter"",""1"",""1937""
","
","
","""event"",""trial"",""time""
""fullscreenenter"",""1"",""1937""
","
","","","","","","1282.300000011921","images/dog5.png","","","memory_trial","1","definitely_old",""
"html-keyboard-response","172","406235","0.0-18.0-0.64","8149","approach_avoid_sv1","""event"",""trial"",""time""
""fullscreenenter"",""1"",""1937""
","
","
","""event"",""trial"",""time""
""fullscreenenter"",""1"",""1937""
","
","","","","","","null","<div style=""font-size:60px;"">+</div>","null","","fixation","","",""
"memory-trial","173","409754","0.0-18.0-1.64","8149","approach_avoid_sv1","""event"",""trial"",""time""
""fullscreenenter"",""1"",""1937""
","
","
","""event"",""trial"",""time""
""fullscreenenter"",""1"",""1937""
","
","","","","","","2516","images/chair1.png","","","memory_trial","2","maybe_old",""
"html-keyboard-response","174","410255","0.0-18.0-0.65","8149","approach_avoid_sv1","""event"",""trial"",""time""
""fullscreenenter"",""1"",""1937""
","
","
","""event"",""trial"",""time""
""fullscreenenter"",""1"",""1937""
","
","","","","","","null","<div style=""font-size:60px;"">+</div>","null","","fixation","","",""
"memory-trial","175","412599","0.0-18.0-1.65","8149","approach_avoid_sv1","""event"",""trial"",""time""
""fullscreenenter"",""1"",""1937""
","
","
","""event"",""trial"",""time""
""fullscreenenter"",""1"",""1937""
","
","","","","","","1340.4000000357628","images/cow4.png","","","memory_trial","2","maybe_old",""
"html-keyboard-response","176","413100","0.0-18.0-0.66","8149","approach_avoid_sv1","""event"",""trial"",""time""
""fullscreenenter"",""1"",""1937""
","
","
","""event"",""trial"",""time""
""fullscreenenter"",""1"",""1937""
","
","","","","","","null","<div style=""font-size:60px;"">+</div>","null","","fixation","","",""
"memory-trial","177","415872","0.0-18.0-1.66","8149","approach_avoid_sv1","""event"",""trial"",""time""
""fullscreenenter"",""1"",""1937""
","
","
","""event"",""trial"",""time""
""fullscreenenter"",""1"",""1937""
","
","","","","","","1768.699999988079","images/apple8.png","","","memory_trial","2","maybe_old",""
"html-keyboard-response","178","416375","0.0-18.0-0.67","8149","approach_avoid_sv1","""event"",""trial"",""time""
""fullscreenenter"",""1"",""1937""
","
","
","""event"",""trial"",""time""
""fullscreenenter"",""1"",""1937""
","
","","","","","","null","<div style=""font-size:60px;"">+</div>","null","","fixation","","",""
"memory-trial","179","419227","0.0-18.0-1.67","8149","approach_avoid_sv1","""event"",""trial"",""time""
""fullscreenenter"",""1"",""1937""
","
","
","""event"",""trial"",""time""
""fullscreenenter"",""1"",""1937""
","
","","","","","","1848.9000000357628","images/bush5.png","","","memory_trial","4","definitely_new",""
"html-keyboard-response","180","419728","0.0-18.0-0.68","8149","approach_avoid_sv1","""event"",""trial"",""time""
""fullscreenenter"",""1"",""1937""
","
","
","""event"",""trial"",""time""
""fullscreenenter"",""1"",""1937""
","
","","","","","","null","<div style=""font-size:60px;"">+</div>","null","","fixation","","",""
"memory-trial","181","422792","0.0-18.0-1.68","8149","approach_avoid_sv1","""event"",""trial"",""time""
""fullscreenenter"",""1"",""1937""
","
","
","""event"",""trial"",""time""
""fullscreenenter"",""1"",""1937""
","
","","","","","","2061.300000011921","images/sofa1.png","","","memory_trial","3","maybe_new",""
"html-keyboard-response","182","423294","0.0-18.0-0.69","8149","approach_avoid_sv1","""event"",""trial"",""time""
""fullscreenenter"",""1"",""1937""
","
","
","""event"",""trial"",""time""
""fullscreenenter"",""1"",""1937""
","
","","","","","","null","<div style=""font-size:60px;"">+</div>","null","","fixation","","",""
"memory-trial","183","426152","0.0-18.0-1.69","8149","approach_avoid_sv1","""event"",""trial"",""time""
""fullscreenenter"",""1"",""1937""
","
","
","""event"",""trial"",""time""
""fullscreenenter"",""1"",""1937""
","
","","","","","","1854.300000011921","images/tree6.png","","","memory_trial","1","definitely_old",""
"html-keyboard-response","184","426654","0.0-18.0-0.70","8149","approach_avoid_sv1","""event"",""trial"",""time""
""fullscreenenter"",""1"",""1937""
","
","
","""event"",""trial"",""time""
""fullscreenenter"",""1"",""1937""
","
","","","","","","null","<div style=""font-size:60px;"">+</div>","null","","fixation","","",""
"memory-trial","185","429266","0.0-18.0-1.70","8149","approach_avoid_sv1","""event"",""trial"",""time""
""fullscreenenter"",""1"",""1937""
","
","
","""event"",""trial"",""time""
""fullscreenenter"",""1"",""1937""
","
","","","","","","1608.2999999523163","images/boat1.png","","","memory_trial","2","maybe_old",""
"html-keyboard-response","186","429767","0.0-18.0-0.71","8149","approach_avoid_sv1","""event"",""trial"",""time""
""fullscreenenter"",""1"",""1937""
","
","
","""event"",""trial"",""time""
""fullscreenenter"",""1"",""1937""
","
","","","","","","null","<div style=""font-size:60px;"">+</div>","null","","fixation","","",""
"memory-trial","187","431870","0.0-18.0-1.71","8149","approach_avoid_sv1","""event"",""trial"",""time""
""fullscreenenter"",""1"",""1937""
","
","
","""event"",""trial"",""time""
""fullscreenenter"",""1"",""1937""
","
","","","","","","1100.699999988079","images/rabbit1.png","","","memory_trial","2","maybe_old",""
"html-keyboard-response","188","432372","0.0-18.0-0.72","8149","approach_avoid_sv1","""event"",""trial"",""time""
""fullscreenenter"",""1"",""1937""
","
","
","""event"",""trial"",""time""
""fullscreenenter"",""1"",""1937""
","
","","","","","","null","<div style=""font-size:60px;"">+</div>","null","","fixation","","",""
"memory-trial","189","434492","0.0-18.0-1.72","8149","approach_avoid_sv1","""event"",""trial"",""time""
""fullscreenenter"",""1"",""1937""
","
","
","""event"",""trial"",""time""
""fullscreenenter"",""1"",""1937""
","
","","","","","","1118.800000011921","images/sofa3.png","","","memory_trial","1","definitely_old",""
"html-keyboard-response","190","434994","0.0-18.0-0.73","8149","approach_avoid_sv1","""event"",""trial"",""time""
""fullscreenenter"",""1"",""1937""
","
","
","""event"",""trial"",""time""
""fullscreenenter"",""1"",""1937""
","
","","","","","","null","<div style=""font-size:60px;"">+</div>","null","","fixation","","",""
"memory-trial","191","436797","0.0-18.0-1.73","8149","approach_avoid_sv1","""event"",""trial"",""time""
""fullscreenenter"",""1"",""1937""
","
","
","""event"",""trial"",""time""
""fullscreenenter"",""1"",""1937""
","
","","","","","","800.6999999880791","images/goat5.png","","","memory_trial","1","definitely_old",""
"html-keyboard-response","192","437299","0.0-18.0-0.74","8149","approach_avoid_sv1","""event"",""trial"",""time""
""fullscreenenter"",""1"",""1937""
","
","
","""event"",""trial"",""time""
""fullscreenenter"",""1"",""1937""
","
","","","","","","null","<div style=""font-size:60px;"">+</div>","null","","fixation","","",""
"memory-trial","193","442090","0.0-18.0-1.74","8149","approach_avoid_sv1","""event"",""trial"",""time""
""fullscreenenter"",""1"",""1937""
","
","
","""event"",""trial"",""time""
""fullscreenenter"",""1"",""1937""
","
","","","","","","3788.600000023842","images/dog3.png","","","memory_trial","3","maybe_new",""
"html-keyboard-response","194","442591","0.0-18.0-0.75","8149","approach_avoid_sv1","""event"",""trial"",""time""
""fullscreenenter"",""1"",""1937""
","
","
","""event"",""trial"",""time""
""fullscreenenter"",""1"",""1937""
","
","","","","","","null","<div style=""font-size:60px;"">+</div>","null","","fixation","","",""
"memory-trial","195","444926","0.0-18.0-1.75","8149","approach_avoid_sv1","""event"",""trial"",""time""
""fullscreenenter"",""1"",""1937""
","
","
","""event"",""trial"",""time""
""fullscreenenter"",""1"",""1937""
","
","","","","","","1331.8999999761581","images/bed5.png","","","memory_trial","1","definitely_old",""
"html-keyboard-response","196","445428","0.0-18.0-0.76","8149","approach_avoid_sv1","""event"",""trial"",""time""
""fullscreenenter"",""1"",""1937""
","
","
","""event"",""trial"",""time""
""fullscreenenter"",""1"",""1937""
","
","","","","","","null","<div style=""font-size:60px;"">+</div>","null","","fixation","","",""
"memory-trial","197","447112","0.0-18.0-1.76","8149","approach_avoid_sv1","""event"",""trial"",""time""
""fullscreenenter"",""1"",""1937""
","
","
","""event"",""trial"",""time""
""fullscreenenter"",""1"",""1937""
","
","","","","","","682.0999999642372","images/tree1.png","","","memory_trial","1","definitely_old",""
"html-keyboard-response","198","447614","0.0-18.0-0.77","8149","approach_avoid_sv1","""event"",""trial"",""time""
""fullscreenenter"",""1"",""1937""
","
","
","""event"",""trial"",""time""
""fullscreenenter"",""1"",""1937""
","
","","","","","","null","<div style=""font-size:60px;"">+</div>","null","","fixation","","",""
"memory-trial","199","449981","0.0-18.0-1.77","8149","approach_avoid_sv1","""event"",""trial"",""time""
""fullscreenenter"",""1"",""1937""
","
","
","""event"",""trial"",""time""
""fullscreenenter"",""1"",""1937""
","
","","","","","","1364.5999999642372","images/goat1.png","","","memory_trial","4","definitely_new",""
"html-keyboard-response","200","450482","0.0-18.0-0.78","8149","approach_avoid_sv1","""event"",""trial"",""time""
""fullscreenenter"",""1"",""1937""
","
","
","""event"",""trial"",""time""
""fullscreenenter"",""1"",""1937""
","
","","","","","","null","<div style=""font-size:60px;"">+</div>","null","","fixation","","",""
"memory-trial","201","453979","0.0-18.0-1.78","8149","approach_avoid_sv1","""event"",""trial"",""time""
""fullscreenenter"",""1"",""1937""
","
","
","""event"",""trial"",""time""
""fullscreenenter"",""1"",""1937""
","
","","","","","","2494.099999964237","images/apple3.png","","","memory_trial","4","definitely_new",""
"html-keyboard-response","202","454480","0.0-18.0-0.79","8149","approach_avoid_sv1","""event"",""trial"",""time""
""fullscreenenter"",""1"",""1937""
","
","
","""event"",""trial"",""time""
""fullscreenenter"",""1"",""1937""
","
","","","","","","null","<div style=""font-size:60px;"">+</div>","null","","fixation","","",""
"memory-trial","203","457130","0.0-18.0-1.79","8149","approach_avoid_sv1","""event"",""trial"",""time""
""fullscreenenter"",""1"",""1937""
","
","
","""event"",""trial"",""time""
""fullscreenenter"",""1"",""1937""
","
","","","","","","1646.800000011921","images/bed3.png","","","memory_trial","4","definitely_new",""
"html-keyboard-response","204","457631","0.0-18.0-0.80","8149","approach_avoid_sv1","""event"",""trial"",""time""
""fullscreenenter"",""1"",""1937""
","
","
","""event"",""trial"",""time""
""fullscreenenter"",""1"",""1937""
","
","","","","","","null","<div style=""font-size:60px;"">+</div>","null","","fixation","","",""
"memory-trial","205","462330","0.0-18.0-1.80","8149","approach_avoid_sv1","""event"",""trial"",""time""
""fullscreenenter"",""1"",""1937""
","
","
","""event"",""trial"",""time""
""fullscreenenter"",""1"",""1937""
","
","","","","","","3696.2999999523163","images/table7.png","","","memory_trial","1","definitely_old",""
"html-keyboard-response","206","462831","0.0-18.0-0.81","8149","approach_avoid_sv1","""event"",""trial"",""time""
""fullscreenenter"",""1"",""1937""
","
","
","""event"",""trial"",""time""
""fullscreenenter"",""1"",""1937""
","
","","","","","","null","<div style=""font-size:60px;"">+</div>","null","","fixation","","",""
"memory-trial","207","465887","0.0-18.0-1.81","8149","approach_avoid_sv1","""event"",""trial"",""time""
""fullscreenenter"",""1"",""1937""
","
","
","""event"",""trial"",""time""
""fullscreenenter"",""1"",""1937""
","
","","","","","","2051.900000035763","images/boat8.png","","","memory_trial","2","maybe_old",""
"html-keyboard-response","208","466388","0.0-18.0-0.82","8149","approach_avoid_sv1","""event"",""trial"",""time""
""fullscreenenter"",""1"",""1937""
","
","
","""event"",""trial"",""time""
""fullscreenenter"",""1"",""1937""
","
","","","","","","null","<div style=""font-size:60px;"">+</div>","null","","fixation","","",""
"memory-trial","209","468959","0.0-18.0-1.82","8149","approach_avoid_sv1","""event"",""trial"",""time""
""fullscreenenter"",""1"",""1937""
","
","
","""event"",""trial"",""time""
""fullscreenenter"",""1"",""1937""
","
","","","","","","1563.6000000238419","images/banana7.png","","","memory_trial","4","definitely_new",""
"html-keyboard-response","210","469461","0.0-18.0-0.83","8149","approach_avoid_sv1","""event"",""trial"",""time""
""fullscreenenter"",""1"",""1937""
","
","
","""event"",""trial"",""time""
""fullscreenenter"",""1"",""1937""
","
","","","","","","null","<div style=""font-size:60px;"">+</div>","null","","fixation","","",""
"memory-trial","211","471508","0.0-18.0-1.83","8149","approach_avoid_sv1","""event"",""trial"",""time""
""fullscreenenter"",""1"",""1937""
","
","
","""event"",""trial"",""time""
""fullscreenenter"",""1"",""1937""
","
","","","","","","1034.1000000238419","images/flower1.png","","","memory_trial","1","definitely_old",""
"html-keyboard-response","212","472009","0.0-18.0-0.84","8149","approach_avoid_sv1","""event"",""trial"",""time""
""fullscreenenter"",""1"",""1937""
","
","
","""event"",""trial"",""time""
""fullscreenenter"",""1"",""1937""
","
","","","","","","null","<div style=""font-size:60px;"">+</div>","null","","fixation","","",""
"memory-trial","213","474395","0.0-18.0-1.84","8149","approach_avoid_sv1","""event"",""trial"",""time""
""fullscreenenter"",""1"",""1937""
","
","
","""event"",""trial"",""time""
""fullscreenenter"",""1"",""1937""
","
","","","","","","1383.800000011921","images/goat6.png","","","memory_trial","2","maybe_old",""
"html-keyboard-response","214","474896","0.0-18.0-0.85","8149","approach_avoid_sv1","""event"",""trial"",""time""
""fullscreenenter"",""1"",""1937""
","
","
","""event"",""trial"",""time""
""fullscreenenter"",""1"",""1937""
","
","","","","","","null","<div style=""font-size:60px;"">+</div>","null","","fixation","","",""
"memory-trial","215","478605","0.0-18.0-1.85","8149","approach_avoid_sv1","""event"",""trial"",""time""
""fullscreenenter"",""1"",""1937""
","
","
","""event"",""trial"",""time""
""fullscreenenter"",""1"",""1937""
","
","","","","","","2705.800000011921","images/truck4.png","","","memory_trial","3","maybe_new",""
"html-keyboard-response","216","479106","0.0-18.0-0.86","8149","approach_avoid_sv1","""event"",""trial"",""time""
""fullscreenenter"",""1"",""1937""
","
","
","""event"",""trial"",""time""
""fullscreenenter"",""1"",""1937""
","
","","","","","","null","<div style=""font-size:60px;"">+</div>","null","","fixation","","",""
"memory-trial","217","481136","0.0-18.0-1.86","8149","approach_avoid_sv1","""event"",""trial"",""time""
""fullscreenenter"",""1"",""1937""
","
","
","""event"",""trial"",""time""
""fullscreenenter"",""1"",""1937""
","
","","","","","","1027.5","images/tree4.png","","","memory_trial","1","definitely_old",""
"html-keyboard-response","218","481637","0.0-18.0-0.87","8149","approach_avoid_sv1","""event"",""trial"",""time""
""fullscreenenter"",""1"",""1937""
","
","
","""event"",""trial"",""time""
""fullscreenenter"",""1"",""1937""
","
","","","","","","null","<div style=""font-size:60px;"">+</div>","null","","fixation","","",""
"memory-trial","219","483945","0.0-18.0-1.87","8149","approach_avoid_sv1","""event"",""trial"",""time""
""fullscreenenter"",""1"",""1937""
","
","
","""event"",""trial"",""time""
""fullscreenenter"",""1"",""1937""
","
","","","","","","1304.800000011921","images/bush8.png","","","memory_trial","4","definitely_new",""
"html-keyboard-response","220","484445","0.0-18.0-0.88","8149","approach_avoid_sv1","""event"",""trial"",""time""
""fullscreenenter"",""1"",""1937""
","
","
","""event"",""trial"",""time""
""fullscreenenter"",""1"",""1937""
","
","","","","","","null","<div style=""font-size:60px;"">+</div>","null","","fixation","","",""
"memory-trial","221","486492","0.0-18.0-1.88","8149","approach_avoid_sv1","""event"",""trial"",""time""
""fullscreenenter"",""1"",""1937""
","
","
","""event"",""trial"",""time""
""fullscreenenter"",""1"",""1937""
","
","","","","","","1044.3999999761581","images/dog7.png","","","memory_trial","1","definitely_old",""
"html-keyboard-response","222","486994","0.0-18.0-0.89","8149","approach_avoid_sv1","""event"",""trial"",""time""
""fullscreenenter"",""1"",""1937""
","
","
","""event"",""trial"",""time""
""fullscreenenter"",""1"",""1937""
","
","","","","","","null","<div style=""font-size:60px;"">+</div>","null","","fixation","","",""
"memory-trial","223","489611","0.0-18.0-1.89","8149","approach_avoid_sv1","""event"",""trial"",""time""
""fullscreenenter"",""1"",""1937""
","
","
","""event"",""trial"",""time""
""fullscreenenter"",""1"",""1937""
","
","","","","","","1615","images/horse5.png","","","memory_trial","4","definitely_new",""
"html-keyboard-response","224","490114","0.0-18.0-0.90","8149","approach_avoid_sv1","""event"",""trial"",""time""
""fullscreenenter"",""1"",""1937""
","
","
","""event"",""trial"",""time""
""fullscreenenter"",""1"",""1937""
","
","","","","","","null","<div style=""font-size:60px;"">+</div>","null","","fixation","","",""
"memory-trial","225","493950","0.0-18.0-1.90","8149","approach_avoid_sv1","""event"",""trial"",""time""
""fullscreenenter"",""1"",""1937""
","
","
","""event"",""trial"",""time""
""fullscreenenter"",""1"",""1937""
","
","","","","","","2834.399999976158","images/tree3.png","","","memory_trial","2","maybe_old",""
"html-keyboard-response","226","494452","0.0-18.0-0.91","8149","approach_avoid_sv1","""event"",""trial"",""time""
""fullscreenenter"",""1"",""1937""
","
","
","""event"",""trial"",""time""
""fullscreenenter"",""1"",""1937""
","
","","","","","","null","<div style=""font-size:60px;"">+</div>","null","","fixation","","",""
"memory-trial","227","497374","0.0-18.0-1.91","8149","approach_avoid_sv1","""event"",""trial"",""time""
""fullscreenenter"",""1"",""1937""
","
","
","""event"",""trial"",""time""
""fullscreenenter"",""1"",""1937""
","
","","","","","","1918.5999999642372","images/table2.png","","","memory_trial","4","definitely_new",""
"html-button-response","228","499165","0.0-18.0-2.91-0.91","8149","approach_avoid_sv1","""event"",""trial"",""time""
""fullscreenenter"",""1"",""1937""
","
","
","""event"",""trial"",""time""
""fullscreenenter"",""1"",""1937""
","
","","","","","","1790.2000000476837","<p> Take a break! </p><p> Click the button to continue. </p>","0","","break","","",""
"html-keyboard-response","229","499667","0.0-18.0-0.92","8149","approach_avoid_sv1","""event"",""trial"",""time""
""fullscreenenter"",""1"",""1937""
","
","
","""event"",""trial"",""time""
""fullscreenenter"",""1"",""1937""
","
","","","","","","null","<div style=""font-size:60px;"">+</div>","null","","fixation","","",""
"memory-trial","230","502245","0.0-18.0-1.92","8149","approach_avoid_sv1","""event"",""trial"",""time""
""fullscreenenter"",""1"",""1937""
","
","
","""event"",""trial"",""time""
""fullscreenenter"",""1"",""1937""
","
","","","","","","1575","images/cactus1.png","","","memory_trial","2","maybe_old",""
"html-keyboard-response","231","502746","0.0-18.0-0.93","8149","approach_avoid_sv1","""event"",""trial"",""time""
""fullscreenenter"",""1"",""1937""
","
","
","""event"",""trial"",""time""
""fullscreenenter"",""1"",""1937""
","
","","","","","","null","<div style=""font-size:60px;"">+</div>","null","","fixation","","",""
"memory-trial","232","505685","0.0-18.0-1.93","8149","approach_avoid_sv1","""event"",""trial"",""time""
""fullscreenenter"",""1"",""1937""
","
","
","""event"",""trial"",""time""
""fullscreenenter"",""1"",""1937""
","
","","","","","","1936.6000000238419","images/chair5.png","","","memory_trial","2","maybe_old",""
"html-keyboard-response","233","506186","0.0-18.0-0.94","8149","approach_avoid_sv1","""event"",""trial"",""time""
""fullscreenenter"",""1"",""1937""
","
","
","""event"",""trial"",""time""
""fullscreenenter"",""1"",""1937""
","
","","","","","","null","<div style=""font-size:60px;"">+</div>","null","","fixation","","",""
"memory-trial","234","508396","0.0-18.0-1.94","8149","approach_avoid_sv1","""event"",""trial"",""time""
""fullscreenenter"",""1"",""1937""
","
","
","""event"",""trial"",""time""
""fullscreenenter"",""1"",""1937""
","
","","","","","","1206.6000000238419","images/cactus6.png","","","memory_trial","4","definitely_new",""
"html-keyboard-response","235","508897","0.0-18.0-0.95","8149","approach_avoid_sv1","""event"",""trial"",""time""
""fullscreenenter"",""1"",""1937""
","
","
","""event"",""trial"",""time""
""fullscreenenter"",""1"",""1937""
","
","","","","","","null","<div style=""font-size:60px;"">+</div>","null","","fixation","","",""
"memory-trial","236","510910","0.0-18.0-1.95","8149","approach_avoid_sv1","""event"",""trial"",""time""
""fullscreenenter"",""1"",""1937""
","
","
","""event"",""trial"",""time""
""fullscreenenter"",""1"",""1937""
","
","","","","","","1010.5999999642372","images/rabbit5.png","","","memory_trial","1","definitely_old",""
"html-keyboard-response","237","511412","0.0-18.0-0.96","8149","approach_avoid_sv1","""event"",""trial"",""time""
""fullscreenenter"",""1"",""1937""
","
","
","""event"",""trial"",""time""
""fullscreenenter"",""1"",""1937""
","
","","","","","","null","<div style=""font-size:60px;"">+</div>","null","","fixation","","",""
"memory-trial","238","513495","0.0-18.0-1.96","8149","approach_avoid_sv1","""event"",""trial"",""time""
""fullscreenenter"",""1"",""1937""
","
","
","""event"",""trial"",""time""
""fullscreenenter"",""1"",""1937""
","
","","","","","","1081.6000000238419","images/apple4.png","","","memory_trial","1","definitely_old",""
"html-keyboard-response","239","513997","0.0-18.0-0.97","8149","approach_avoid_sv1","""event"",""trial"",""time""
""fullscreenenter"",""1"",""1937""
","
","
","""event"",""trial"",""time""
""fullscreenenter"",""1"",""1937""
","
","","","","","","null","<div style=""font-size:60px;"">+</div>","null","","fixation","","",""
"memory-trial","240","515982","0.0-18.0-1.97","8149","approach_avoid_sv1","""event"",""trial"",""time""
""fullscreenenter"",""1"",""1937""
","
","
","""event"",""trial"",""time""
""fullscreenenter"",""1"",""1937""
","
","","","","","","981.5","images/orange1.png","","","memory_trial","1","definitely_old",""
"html-keyboard-response","241","516483","0.0-18.0-0.98","8149","approach_avoid_sv1","""event"",""trial"",""time""
""fullscreenenter"",""1"",""1937""
","
","
","""event"",""trial"",""time""
""fullscreenenter"",""1"",""1937""
","
","","","","","","null","<div style=""font-size:60px;"">+</div>","null","","fixation","","",""
"memory-trial","242","518689","0.0-18.0-1.98","8149","approach_avoid_sv1","""event"",""trial"",""time""
""fullscreenenter"",""1"",""1937""
","
","
","""event"",""trial"",""time""
""fullscreenenter"",""1"",""1937""
","
","","","","","","1203.3999999761581","images/goat8.png","","","memory_trial","2","maybe_old",""
"html-keyboard-response","243","519190","0.0-18.0-0.99","8149","approach_avoid_sv1","""event"",""trial"",""time""
""fullscreenenter"",""1"",""1937""
","
","
","""event"",""trial"",""time""
""fullscreenenter"",""1"",""1937""
","
","","","","","","null","<div style=""font-size:60px;"">+</div>","null","","fixation","","",""
"memory-trial","244","521199","0.0-18.0-1.99","8149","approach_avoid_sv1","""event"",""trial"",""time""
""fullscreenenter"",""1"",""1937""
","
","
","""event"",""trial"",""time""
""fullscreenenter"",""1"",""1937""
","
","","","","","","1007.1000000238419","images/cat4.png","","","memory_trial","1","definitely_old",""
"html-keyboard-response","245","521700","0.0-18.0-0.100","8149","approach_avoid_sv1","""event"",""trial"",""time""
""fullscreenenter"",""1"",""1937""
","
","
","""event"",""trial"",""time""
""fullscreenenter"",""1"",""1937""
","
","","","","","","null","<div style=""font-size:60px;"">+</div>","null","","fixation","","",""
"memory-trial","246","524133","0.0-18.0-1.100","8149","approach_avoid_sv1","""event"",""trial"",""time""
""fullscreenenter"",""1"",""1937""
","
","
","""event"",""trial"",""time""
""fullscreenenter"",""1"",""1937""
","
","","","","","","1429.3999999761581","images/orange6.png","","","memory_trial","2","maybe_old",""
"html-keyboard-response","247","524634","0.0-18.0-0.101","8149","approach_avoid_sv1","""event"",""trial"",""time""
""fullscreenenter"",""1"",""1937""
","
","
","""event"",""trial"",""time""
""fullscreenenter"",""1"",""1937""
","
","","","","","","null","<div style=""font-size:60px;"">+</div>","null","","fixation","","",""
"memory-trial","248","527023","0.0-18.0-1.101","8149","approach_avoid_sv1","""event"",""trial"",""time""
""fullscreenenter"",""1"",""1937""
","
","
","""event"",""trial"",""time""
""fullscreenenter"",""1"",""1937""
","
","","","","","","1386.3999999761581","images/cow2.png","","","memory_trial","2","maybe_old",""
"html-keyboard-response","249","527525","0.0-18.0-0.102","8149","approach_avoid_sv1","""event"",""trial"",""time""
""fullscreenenter"",""1"",""1937""
","
","
","""event"",""trial"",""time""
""fullscreenenter"",""1"",""1937""
","
","","","","","","null","<div style=""font-size:60px;"">+</div>","null","","fixation","","",""
"memory-trial","250","530870","0.0-18.0-1.102","8149","approach_avoid_sv1","""event"",""trial"",""time""
""fullscreenenter"",""1"",""1937""
","
","
","""event"",""trial"",""time""
""fullscreenenter"",""1"",""1937""
","
","","","","","","2342.800000011921","images/flower2.png","","","memory_trial","3","maybe_new",""
"html-keyboard-response","251","531372","0.0-18.0-0.103","8149","approach_avoid_sv1","""event"",""trial"",""time""
""fullscreenenter"",""1"",""1937""
","
","
","""event"",""trial"",""time""
""fullscreenenter"",""1"",""1937""
","
","","","","","","null","<div style=""font-size:60px;"">+</div>","null","","fixation","","",""
"memory-trial","252","534100","0.0-18.0-1.103","8149","approach_avoid_sv1","""event"",""trial"",""time""
""fullscreenenter"",""1"",""1937""
","
","
","""event"",""trial"",""time""
""fullscreenenter"",""1"",""1937""
","
","","","","","","1724.5","images/goat3.png","","","memory_trial","2","maybe_old",""
"html-keyboard-response","253","534600","0.0-18.0-0.104","8149","approach_avoid_sv1","""event"",""trial"",""time""
""fullscreenenter"",""1"",""1937""
","
","
","""event"",""trial"",""time""
""fullscreenenter"",""1"",""1937""
","
","","","","","","null","<div style=""font-size:60px;"">+</div>","null","","fixation","","",""
"memory-trial","254","539829","0.0-18.0-1.104","8149","approach_avoid_sv1","""event"",""trial"",""time""
""fullscreenenter"",""1"",""1937""
","
","
","""event"",""trial"",""time""
""fullscreenenter"",""1"",""1937""
","
","","","","","","4224.600000023842","images/cow7.png","","","memory_trial","4","definitely_new",""
"html-keyboard-response","255","540330","0.0-18.0-0.105","8149","approach_avoid_sv1","""event"",""trial"",""time""
""fullscreenenter"",""1"",""1937""
","
","
","""event"",""trial"",""time""
""fullscreenenter"",""1"",""1937""
","
","","","","","","null","<div style=""font-size:60px;"">+</div>","null","","fixation","","",""
"memory-trial","256","542985","0.0-18.0-1.105","8149","approach_avoid_sv1","""event"",""trial"",""time""
""fullscreenenter"",""1"",""1937""
","
","
","""event"",""trial"",""time""
""fullscreenenter"",""1"",""1937""
","
","","","","","","1651.9000000357628","images/banana6.png","","","memory_trial","3","maybe_new",""
"html-keyboard-response","257","543487","0.0-18.0-0.106","8149","approach_avoid_sv1","""event"",""trial"",""time""
""fullscreenenter"",""1"",""1937""
","
","
","""event"",""trial"",""time""
""fullscreenenter"",""1"",""1937""
","
","","","","","","null","<div style=""font-size:60px;"">+</div>","null","","fixation","","",""
"memory-trial","258","546019","0.0-18.0-1.106","8149","approach_avoid_sv1","""event"",""trial"",""time""
""fullscreenenter"",""1"",""1937""
","
","
","""event"",""trial"",""time""
""fullscreenenter"",""1"",""1937""
","
","","","","","","1529.1000000238419","images/straw5.png","","","memory_trial","2","maybe_old",""
"html-keyboard-response","259","546521","0.0-18.0-0.107","8149","approach_avoid_sv1","""event"",""trial"",""time""
""fullscreenenter"",""1"",""1937""
","
","
","""event"",""trial"",""time""
""fullscreenenter"",""1"",""1937""
","
","","","","","","null","<div style=""font-size:60px;"">+</div>","null","","fixation","","",""
"memory-trial","260","548714","0.0-18.0-1.107","8149","approach_avoid_sv1","""event"",""trial"",""time""
""fullscreenenter"",""1"",""1937""
","
","
","""event"",""trial"",""time""
""fullscreenenter"",""1"",""1937""
","
","","","","","","1191.1000000238419","images/horse3.png","","","memory_trial","2","maybe_old",""
"html-keyboard-response","261","549215","0.0-18.0-0.108","8149","approach_avoid_sv1","""event"",""trial"",""time""
""fullscreenenter"",""1"",""1937""
","
","
","""event"",""trial"",""time""
""fullscreenenter"",""1"",""1937""
","
","","","","","","null","<div style=""font-size:60px;"">+</div>","null","","fixation","","",""
"memory-trial","262","552009","0.0-18.0-1.108","8149","approach_avoid_sv1","""event"",""trial"",""time""
""fullscreenenter"",""1"",""1937""
","
","
","""event"",""trial"",""time""
""fullscreenenter"",""1"",""1937""
","
","","","","","","1791.3999999761581","images/rodent5.png","","","memory_trial","3","maybe_new",""
"html-keyboard-response","263","552510","0.0-18.0-0.109","8149","approach_avoid_sv1","""event"",""trial"",""time""
""fullscreenenter"",""1"",""1937""
","
","
","""event"",""trial"",""time""
""fullscreenenter"",""1"",""1937""
","
","","","","","","null","<div style=""font-size:60px;"">+</div>","null","","fixation","","",""
"memory-trial","264","554666","0.0-18.0-1.109","8149","approach_avoid_sv1","""event"",""trial"",""time""
""fullscreenenter"",""1"",""1937""
","
","
","""event"",""trial"",""time""
""fullscreenenter"",""1"",""1937""
","
","","","","","","1154","images/horse1.png","","","memory_trial","4","definitely_new",""
"html-keyboard-response","265","555168","0.0-18.0-0.110","8149","approach_avoid_sv1","""event"",""trial"",""time""
""fullscreenenter"",""1"",""1937""
","
","
","""event"",""trial"",""time""
""fullscreenenter"",""1"",""1937""
","
","","","","","","null","<div style=""font-size:60px;"">+</div>","null","","fixation","","",""
"memory-trial","266","557425","0.0-18.0-1.110","8149","approach_avoid_sv1","""event"",""trial"",""time""
""fullscreenenter"",""1"",""1937""
","
","
","""event"",""trial"",""time""
""fullscreenenter"",""1"",""1937""
","
","","","","","","1255.7000000476837","images/bed8.png","","","memory_trial","2","maybe_old",""
"html-keyboard-response","267","557927","0.0-18.0-0.111","8149","approach_avoid_sv1","""event"",""trial"",""time""
""fullscreenenter"",""1"",""1937""
","
","
","""event"",""trial"",""time""
""fullscreenenter"",""1"",""1937""
","
","","","","","","null","<div style=""font-size:60px;"">+</div>","null","","fixation","","",""
"memory-trial","268","560050","0.0-18.0-1.111","8149","approach_avoid_sv1","""event"",""trial"",""time""
""fullscreenenter"",""1"",""1937""
","
","
","""event"",""trial"",""time""
""fullscreenenter"",""1"",""1937""
","
","","","","","","1121.5999999642372","images/apple7.png","","","memory_trial","2","maybe_old",""
"html-keyboard-response","269","560551","0.0-18.0-0.112","8149","approach_avoid_sv1","""event"",""trial"",""time""
""fullscreenenter"",""1"",""1937""
","
","
","""event"",""trial"",""time""
""fullscreenenter"",""1"",""1937""
","
","","","","","","null","<div style=""font-size:60px;"">+</div>","null","","fixation","","",""
"memory-trial","270","563062","0.0-18.0-1.112","8149","approach_avoid_sv1","""event"",""trial"",""time""
""fullscreenenter"",""1"",""1937""
","
","
","""event"",""trial"",""time""
""fullscreenenter"",""1"",""1937""
","
","","","","","","1508","images/banana8.png","","","memory_trial","3","maybe_new",""
"html-keyboard-response","271","563564","0.0-18.0-0.113","8149","approach_avoid_sv1","""event"",""trial"",""time""
""fullscreenenter"",""1"",""1937""
","
","
","""event"",""trial"",""time""
""fullscreenenter"",""1"",""1937""
","
","","","","","","null","<div style=""font-size:60px;"">+</div>","null","","fixation","","",""
"memory-trial","272","565921","0.0-18.0-1.113","8149","approach_avoid_sv1","""event"",""trial"",""time""
""fullscreenenter"",""1"",""1937""
","
","
","""event"",""trial"",""time""
""fullscreenenter"",""1"",""1937""
","
","","","","","","1355","images/bush1.png","","","memory_trial","2","maybe_old",""
"html-keyboard-response","273","566423","0.0-18.0-0.114","8149","approach_avoid_sv1","""event"",""trial"",""time""
""fullscreenenter"",""1"",""1937""
","
","
","""event"",""trial"",""time""
""fullscreenenter"",""1"",""1937""
","
","","","","","","null","<div style=""font-size:60px;"">+</div>","null","","fixation","","",""
"memory-trial","274","570608","0.0-18.0-1.114","8149","approach_avoid_sv1","""event"",""trial"",""time""
""fullscreenenter"",""1"",""1937""
","
","
","""event"",""trial"",""time""
""fullscreenenter"",""1"",""1937""
","
","","","","","","3183.600000023842","images/dog6.png","","","memory_trial","1","definitely_old",""
"html-keyboard-response","275","571117","0.0-18.0-0.115","8149","approach_avoid_sv1","""event"",""trial"",""time""
""fullscreenenter"",""1"",""1937""
","
","
","""event"",""trial"",""time""
""fullscreenenter"",""1"",""1937""
","
","","","","","","null","<div style=""font-size:60px;"">+</div>","null","","fixation","","",""
"memory-trial","276","573348","0.0-18.0-1.115","8149","approach_avoid_sv1","""event"",""trial"",""time""
""fullscreenenter"",""1"",""1937""
","
","
","""event"",""trial"",""time""
""fullscreenenter"",""1"",""1937""
","
","","","","","","1227.1000000238419","images/train3.png","","","memory_trial","1","definitely_old",""
"html-keyboard-response","277","573849","0.0-18.0-0.116","8149","approach_avoid_sv1","""event"",""trial"",""time""
""fullscreenenter"",""1"",""1937""
","
","
","""event"",""trial"",""time""
""fullscreenenter"",""1"",""1937""
","
","","","","","","null","<div style=""font-size:60px;"">+</div>","null","","fixation","","",""
"memory-trial","278","576504","0.0-18.0-1.116","8149","approach_avoid_sv1","""event"",""trial"",""time""
""fullscreenenter"",""1"",""1937""
","
","
","""event"",""trial"",""time""
""fullscreenenter"",""1"",""1937""
","
","","","","","","1652.4000000357628","images/apple1.png","","","memory_trial","1","definitely_old",""
"html-keyboard-response","279","577006","0.0-18.0-0.117","8149","approach_avoid_sv1","""event"",""trial"",""time""
""fullscreenenter"",""1"",""1937""
","
","
","""event"",""trial"",""time""
""fullscreenenter"",""1"",""1937""
","
","","","","","","null","<div style=""font-size:60px;"">+</div>","null","","fixation","","",""
"memory-trial","280","579310","0.0-18.0-1.117","8149","approach_avoid_sv1","""event"",""trial"",""time""
""fullscreenenter"",""1"",""1937""
","
","
","""event"",""trial"",""time""
""fullscreenenter"",""1"",""1937""
","
","","","","","","1301.199999988079","images/flower6.png","","","memory_trial","4","definitely_new",""
"html-keyboard-response","281","579812","0.0-18.0-0.118","8149","approach_avoid_sv1","""event"",""trial"",""time""
""fullscreenenter"",""1"",""1937""
","
","
","""event"",""trial"",""time""
""fullscreenenter"",""1"",""1937""
","
","","","","","","null","<div style=""font-size:60px;"">+</div>","null","","fixation","","",""
"memory-trial","282","583085","0.0-18.0-1.118","8149","approach_avoid_sv1","""event"",""trial"",""time""
""fullscreenenter"",""1"",""1937""
","
","
","""event"",""trial"",""time""
""fullscreenenter"",""1"",""1937""
","
","","","","","","2271.600000023842","images/rabbit2.png","","","memory_trial","3","maybe_new",""
"html-keyboard-response","283","583587","0.0-18.0-0.119","8149","approach_avoid_sv1","""event"",""trial"",""time""
""fullscreenenter"",""1"",""1937""
","
","
","""event"",""trial"",""time""
""fullscreenenter"",""1"",""1937""
","
","","","","","","null","<div style=""font-size:60px;"">+</div>","null","","fixation","","",""
"memory-trial","284","585816","0.0-18.0-1.119","8149","approach_avoid_sv1","""event"",""trial"",""time""
""fullscreenenter"",""1"",""1937""
","
","
","""event"",""trial"",""time""
""fullscreenenter"",""1"",""1937""
","
","","","","","","1225.800000011921","images/straw4.png","","","memory_trial","4","definitely_new",""
"html-keyboard-response","285","586317","0.0-18.0-0.120","8149","approach_avoid_sv1","""event"",""trial"",""time""
""fullscreenenter"",""1"",""1937""
","
","
","""event"",""trial"",""time""
""fullscreenenter"",""1"",""1937""
","
","","","","","","null","<div style=""font-size:60px;"">+</div>","null","","fixation","","",""
"memory-trial","286","588320","0.0-18.0-1.120","8149","approach_avoid_sv1","""event"",""trial"",""time""
""fullscreenenter"",""1"",""1937""
","
","
","""event"",""trial"",""time""
""fullscreenenter"",""1"",""1937""
","
","","","","","","1000.5","images/sofa6.png","","","memory_trial","1","definitely_old",""
"html-keyboard-response","287","588821","0.0-18.0-0.121","8149","approach_avoid_sv1","""event"",""trial"",""time""
""fullscreenenter"",""1"",""1937""
","
","
","""event"",""trial"",""time""
""fullscreenenter"",""1"",""1937""
","
","","","","","","null","<div style=""font-size:60px;"">+</div>","null","","fixation","","",""
"memory-trial","288","590857","0.0-18.0-1.121","8149","approach_avoid_sv1","""event"",""trial"",""time""
""fullscreenenter"",""1"",""1937""
","
","
","""event"",""trial"",""time""
""fullscreenenter"",""1"",""1937""
","
","","","","","","1032.6000000238419","images/rodent6.png","","","memory_trial","4","definitely_new",""
"html-keyboard-response","289","591359","0.0-18.0-0.122","8149","approach_avoid_sv1","""event"",""trial"",""time""
""fullscreenenter"",""1"",""1937""
","
","
","""event"",""trial"",""time""
""fullscreenenter"",""1"",""1937""
","
","","","","","","null","<div style=""font-size:60px;"">+</div>","null","","fixation","","",""
"memory-trial","290","593322","0.0-18.0-1.122","8149","approach_avoid_sv1","""event"",""trial"",""time""
""fullscreenenter"",""1"",""1937""
","
","
","""event"",""trial"",""time""
""fullscreenenter"",""1"",""1937""
","
","","","","","","960.6000000238419","images/straw3.png","","","memory_trial","4","definitely_new",""
"html-keyboard-response","291","593824","0.0-18.0-0.123","8149","approach_avoid_sv1","""event"",""trial"",""time""
""fullscreenenter"",""1"",""1937""
","
","
","""event"",""trial"",""time""
""fullscreenenter"",""1"",""1937""
","
","","","","","","null","<div style=""font-size:60px;"">+</div>","null","","fixation","","",""
"memory-trial","292","596835","0.0-18.0-1.123","8149","approach_avoid_sv1","""event"",""trial"",""time""
""fullscreenenter"",""1"",""1937""
","
","
","""event"",""trial"",""time""
""fullscreenenter"",""1"",""1937""
","
","","","","","","2006.8999999761581","images/truck5.png","","","memory_trial","3","maybe_new",""
"html-keyboard-response","293","597335","0.0-18.0-0.124","8149","approach_avoid_sv1","""event"",""trial"",""time""
""fullscreenenter"",""1"",""1937""
","
","
","""event"",""trial"",""time""
""fullscreenenter"",""1"",""1937""
","
","","","","","","null","<div style=""font-size:60px;"">+</div>","null","","fixation","","",""
"memory-trial","294","599925","0.0-18.0-1.124","8149","approach_avoid_sv1","""event"",""trial"",""time""
""fullscreenenter"",""1"",""1937""
","
","
","""event"",""trial"",""time""
""fullscreenenter"",""1"",""1937""
","
","","","","","","1586.2000000476837","images/rodent2.png","","","memory_trial","4","definitely_new",""
"html-keyboard-response","295","600427","0.0-18.0-0.125","8149","approach_avoid_sv1","""event"",""trial"",""time""
""fullscreenenter"",""1"",""1937""
","
","
","""event"",""trial"",""time""
""fullscreenenter"",""1"",""1937""
","
","","","","","","null","<div style=""font-size:60px;"">+</div>","null","","fixation","","",""
"memory-trial","296","602421","0.0-18.0-1.125","8149","approach_avoid_sv1","""event"",""trial"",""time""
""fullscreenenter"",""1"",""1937""
","
","
","""event"",""trial"",""time""
""fullscreenenter"",""1"",""1937""
","
","","","","","","991.6999999880791","images/train4.png","","","memory_trial","1","definitely_old",""
"html-keyboard-response","297","602923","0.0-18.0-0.126","8149","approach_avoid_sv1","""event"",""trial"",""time""
""fullscreenenter"",""1"",""1937""
","
","
","""event"",""trial"",""time""
