"trial_type","trial_index","time_elapsed","internal_node_id","subject_id","task_version","interactions","blur_events","focus_events","fullscreenenter_events","fullscreenexit_events","success","timeout","failed_images","failed_audio","failed_video","rt","stimulus","response","button_pressed","task_part","key_press","answer","correct"
"pavlovia","0","8","0.0-0.0","5881","approach_avoid_sv1","""event"",""trial"",""time""
""fullscreenenter"",""1"",""3026""
","
","
","""event"",""trial"",""time""
""fullscreenenter"",""1"",""3026""
","
","","","","","","","","","","","","",""
"fullscreen","1","3991","0.0-1.0","5881","approach_avoid_sv1","""event"",""trial"",""time""
""fullscreenenter"",""1"",""3026""
","
","
","""event"",""trial"",""time""
""fullscreenenter"",""1"",""3026""
","
","true","","","","","","","","","","","",""
"preload","2","6332","0.0-2.0","5881","approach_avoid_sv1","""event"",""trial"",""time""
""fullscreenenter"",""1"",""3026""
","
","
","""event"",""trial"",""time""
""fullscreenenter"",""1"",""3026""
","
","true","false","[]","[]","[]","","","","","","","",""
"preload","3","8175","0.0-3.0","5881","approach_avoid_sv1","""event"",""trial"",""time""
""fullscreenenter"",""1"",""3026""
","
","
","""event"",""trial"",""time""
""fullscreenenter"",""1"",""3026""
","
","true","false","[]","[]","[]","","","","","","","",""
"preload","4","8684","0.0-4.0","5881","approach_avoid_sv1","""event"",""trial"",""time""
""fullscreenenter"",""1"",""3026""
","
","
","""event"",""trial"",""time""
""fullscreenenter"",""1"",""3026""
","
","true","false","[]","[]","[]","","","","","","","",""
"audio-keyboard-response","5","16222","0.0-5.0","5881","approach_avoid_sv1","""event"",""trial"",""time""
""fullscreenenter"",""1"",""3026""
","
","
","""event"",""trial"",""time""
""fullscreenenter"",""1"",""3026""
","
","","","","","","7538.666666666667","audio/beep_loop.wav"," ","","","","",""
"audio-button-response","6","22497","0.0-6.0","5881","approach_avoid_sv1","""event"",""trial"",""time""
""fullscreenenter"",""1"",""3026""
","
","
","""event"",""trial"",""time""
""fullscreenenter"",""1"",""3026""
","
","","","","","","6272","audio/turtle.wav","3","","","","",""
"audio-button-response","7","24894","0.0-7.0","5881","approach_avoid_sv1","""event"",""trial"",""time""
""fullscreenenter"",""1"",""3026""
","
","
","""event"",""trial"",""time""
""fullscreenenter"",""1"",""3026""
","
","","","","","","1392","audio/shark.wav","2","","","","",""
"preload","8","28161","0.0-8.0","5881","approach_avoid_sv1","""event"",""trial"",""time""
""fullscreenenter"",""1"",""3026""
","
","
","""event"",""trial"",""time""
""fullscreenenter"",""1"",""3026""
","
","true","false","[]","[]","[]","","","","","","","",""
"learning-instructions","9","42467","0.0-9.0-0.0","5881","approach_avoid_sv1","""event"",""trial"",""time""
""fullscreenenter"",""1"",""3026""
","
","
","""event"",""trial"",""time""
""fullscreenenter"",""1"",""3026""
","
","","","","","","9833","<p> Welcome back! </p><p> Last week, you had to make choices about lots of different items.  </p>","","0","instructions","","",""
"learning-instructions","10","49823","0.0-9.0-0.1","5881","approach_avoid_sv1","""event"",""trial"",""time""
""fullscreenenter"",""1"",""3026""
","
","
","""event"",""trial"",""time""
""fullscreenenter"",""1"",""3026""
","
","","","","","","3216.5999999046326","<p> Today, we are going to ask you to try to remember all the items. </p>","","0","instructions","","",""
"learning-instructions","11","62674","0.0-9.0-0.2","5881","approach_avoid_sv1","""event"",""trial"",""time""
""fullscreenenter"",""1"",""3026""
","
","
","""event"",""trial"",""time""
""fullscreenenter"",""1"",""3026""
","
","","","","","","2720","<p> On every trial, you will see an image. </p><p> The image may be an OLD image you saw during the games last week or it may be a NEW image that was not presented. </p>","","0","instructions","","",""
"learning-instructions","12","74207","0.0-9.0-0.3","5881","approach_avoid_sv1","""event"",""trial"",""time""
""fullscreenenter"",""1"",""3026""
","
","
","""event"",""trial"",""time""
""fullscreenenter"",""1"",""3026""
","
","","","","","","3021.1999999284744","<p> You need to select whether the image is:  </p><p>  'Definitely old', 'Maybe old', 'Maybe new', or 'Definitely new.'  </p><div class=""mem-choice-instructions-grid""><div class=""choice-option"" id=""choice-option-1"" ><img src=""images/definitely_old_1.png"" id=""choice-option-img-1"" class=""choice-option-img"" stage=""1""></div><div class=""choice-option"" id=""choice-option-2"" ><img src=""images/maybe_old_1.png"" id=""choice-option-img-2"" class=""choice-option-img"" stage=""1""></div><div class=""choice-option"" id=""choice-option-3"" ><img src=""images/maybe_new_1.png"" id=""choice-option-img-3"" class=""choice-option-img"" stage=""1""></div><div class=""choice-option"" id=""choice-option-4"" > <img src=""images/definitely_new_1.png"" id=""choice-option-img-4"" class=""choice-option-img"" stage=""1""></div></div>","","0","instructions","","",""
"learning-instructions","13","82288","0.0-9.0-0.4","5881","approach_avoid_sv1","""event"",""trial"",""time""
""fullscreenenter"",""1"",""3026""
","
","
","""event"",""trial"",""time""
""fullscreenenter"",""1"",""3026""
","
","","","","","","1562","<p> You should use the 1, 2, 3, and 4 keys to make your responses.  </p><div class=""mem-choice-instructions-grid""><div class=""choice-option"" id=""choice-option-1"" ><img src=""images/definitely_old.png"" id=""choice-option-img-1"" class=""choice-option-img"" stage=""1""></div><div class=""choice-option"" id=""choice-option-2"" ><img src=""images/maybe_old.png"" id=""choice-option-img-2"" class=""choice-option-img"" stage=""1""></div><div class=""choice-option"" id=""choice-option-3"" ><img src=""images/maybe_new.png"" id=""choice-option-img-3"" class=""choice-option-img"" stage=""1""></div><div class=""choice-option"" id=""choice-option-4"" > <img src=""images/definitely_new.png"" id=""choice-option-img-4"" class=""choice-option-img"" stage=""1""></div></div>","","0","instructions","","",""
"learning-instructions","14","89510","0.0-9.0-0.5","5881","approach_avoid_sv1","""event"",""trial"",""time""
""fullscreenenter"",""1"",""3026""
","
","
","""event"",""trial"",""time""
""fullscreenenter"",""1"",""3026""
","
","","","","","","888.6000000238419","<p> You will have 10 seconds to make each response.  </p><p>  Make sure to respond before time runs out! </p>","","0","instructions","","",""
"learning-instructions","15","97105","0.0-9.0-0.6","5881","approach_avoid_sv1","""event"",""trial"",""time""
""fullscreenenter"",""1"",""3026""
","
","
","""event"",""trial"",""time""
""fullscreenenter"",""1"",""3026""
","
","","","","","","503.60000002384186","<p> Today, you will see each image ONCE only.  </p><p>  That means none of the images will repeat. </p>","","0","instructions","","",""
"learning-instructions","16","110409","0.0-9.0-0.7","5881","approach_avoid_sv1","""event"",""trial"",""time""
""fullscreenenter"",""1"",""3026""
","
","
","""event"",""trial"",""time""
""fullscreenenter"",""1"",""3026""
","
","","","","","","618.0999999046326","<p> Before you play the real game, it is time to practice. </p><p>  Just like in the real game, some of the images in the practice will be ones you have seen before. </p><p>  Others will be entirely new. </p>","","0","instructions","","",""
"html-button-response","17","115847","0.0-10.0","5881","approach_avoid_sv1","""event"",""trial"",""time""
""fullscreenenter"",""1"",""3026""
","
","
","""event"",""trial"",""time""
""fullscreenenter"",""1"",""3026""
","
","","","","","","5325.5","<p> Ready to practice? </p><p> Remember, use the 1, 2, 3, and 4 keys to make your responses. </p>","0","","instructions","","",""
"html-keyboard-response","18","116470","0.0-11.0-0.0","5881","approach_avoid_sv1","""event"",""trial"",""time""
""fullscreenenter"",""1"",""3026""
","
","
","""event"",""trial"",""time""
""fullscreenenter"",""1"",""3026""
","
","","","","","","null","<div style=""font-size:60px;"">+</div>","null","","fixation","","",""
"memory-trial","19","123920","0.0-11.0-1.0","5881","approach_avoid_sv1","""event"",""trial"",""time""
""fullscreenenter"",""1"",""3026""
","
","
","""event"",""trial"",""time""
""fullscreenenter"",""1"",""3026""
","
","","","","","","6434.800000071526","images/racket2.png","","","practice","4","definitely_new",""
"html-keyboard-response","20","124439","0.0-11.0-0.1","5881","approach_avoid_sv1","""event"",""trial"",""time""
""fullscreenenter"",""1"",""3026""
","
","
","""event"",""trial"",""time""
""fullscreenenter"",""1"",""3026""
","
","","","","","","null","<div style=""font-size:60px;"">+</div>","null","","fixation","","",""
"memory-trial","21","129170","0.0-11.0-1.1","5881","approach_avoid_sv1","""event"",""trial"",""time""
""fullscreenenter"",""1"",""3026""
","
","
","""event"",""trial"",""time""
""fullscreenenter"",""1"",""3026""
","
","","","","","","3719.899999976158","images/racket3.png","","","practice","1","definitely_old",""
"html-keyboard-response","22","129688","0.0-11.0-0.2","5881","approach_avoid_sv1","""event"",""trial"",""time""
""fullscreenenter"",""1"",""3026""
","
","
","""event"",""trial"",""time""
""fullscreenenter"",""1"",""3026""
","
","","","","","","null","<div style=""font-size:60px;"">+</div>","null","","fixation","","",""
"memory-trial","23","132309","0.0-11.0-1.2","5881","approach_avoid_sv1","""event"",""trial"",""time""
""fullscreenenter"",""1"",""3026""
","
","
","""event"",""trial"",""time""
""fullscreenenter"",""1"",""3026""
","
","","","","","","1605.6000000238419","images/ball1.png","","","practice","4","definitely_new",""
"html-keyboard-response","24","132829","0.0-11.0-0.3","5881","approach_avoid_sv1","""event"",""trial"",""time""
""fullscreenenter"",""1"",""3026""
","
","
","""event"",""trial"",""time""
""fullscreenenter"",""1"",""3026""
","
","","","","","","null","<div style=""font-size:60px;"">+</div>","null","","fixation","","",""
"memory-trial","25","134999","0.0-11.0-1.3","5881","approach_avoid_sv1","""event"",""trial"",""time""
""fullscreenenter"",""1"",""3026""
","
","
","""event"",""trial"",""time""
""fullscreenenter"",""1"",""3026""
","
","","","","","","1148.7999999523163","images/racket5.png","","","practice","4","definitely_new",""
"html-keyboard-response","26","135518","0.0-11.0-0.4","5881","approach_avoid_sv1","""event"",""trial"",""time""
""fullscreenenter"",""1"",""3026""
","
","
","""event"",""trial"",""time""
""fullscreenenter"",""1"",""3026""
","
","","","","","","null","<div style=""font-size:60px;"">+</div>","null","","fixation","","",""
"memory-trial","27","137879","0.0-11.0-1.4","5881","approach_avoid_sv1","""event"",""trial"",""time""
""fullscreenenter"",""1"",""3026""
","
","
","""event"",""trial"",""time""
""fullscreenenter"",""1"",""3026""
","
","","","","","","1346.7999999523163","images/racket1.png","","","practice","1","definitely_old",""
"html-keyboard-response","28","138399","0.0-11.0-0.5","5881","approach_avoid_sv1","""event"",""trial"",""time""
""fullscreenenter"",""1"",""3026""
","
","
","""event"",""trial"",""time""
""fullscreenenter"",""1"",""3026""
","
","","","","","","null","<div style=""font-size:60px;"">+</div>","null","","fixation","","",""
"memory-trial","29","142199","0.0-11.0-1.5","5881","approach_avoid_sv1","""event"",""trial"",""time""
""fullscreenenter"",""1"",""3026""
","
","
","""event"",""trial"",""time""
""fullscreenenter"",""1"",""3026""
","
","","","","","","2790.7999999523163","images/ball5.png","","","practice","2","maybe_old",""
"html-keyboard-response","30","142710","0.0-11.0-0.6","5881","approach_avoid_sv1","""event"",""trial"",""time""
""fullscreenenter"",""1"",""3026""
","
","
","""event"",""trial"",""time""
""fullscreenenter"",""1"",""3026""
","
","","","","","","null","<div style=""font-size:60px;"">+</div>","null","","fixation","","",""
"memory-trial","31","144855","0.0-11.0-1.6","5881","approach_avoid_sv1","""event"",""trial"",""time""
""fullscreenenter"",""1"",""3026""
","
","
","""event"",""trial"",""time""
""fullscreenenter"",""1"",""3026""
","
","","","","","","1130.0999999046326","images/ball2.png","","","practice","2","maybe_old",""
"html-keyboard-response","32","145369","0.0-11.0-0.7","5881","approach_avoid_sv1","""event"",""trial"",""time""
""fullscreenenter"",""1"",""3026""
","
","
","""event"",""trial"",""time""
""fullscreenenter"",""1"",""3026""
","
","","","","","","null","<div style=""font-size:60px;"">+</div>","null","","fixation","","",""
"memory-trial","33","147270","0.0-11.0-1.7","5881","approach_avoid_sv1","""event"",""trial"",""time""
""fullscreenenter"",""1"",""3026""
","
","
","""event"",""trial"",""time""
""fullscreenenter"",""1"",""3026""
","
","","","","","","894.2000000476837","images/ball3.png","","","practice","3","maybe_new",""
"learning-instructions","34","159386","0.0-12.0-0.0","5881","approach_avoid_sv1","""event"",""trial"",""time""
""fullscreenenter"",""1"",""3026""
","
","
","""event"",""trial"",""time""
""fullscreenenter"",""1"",""3026""
","
","","","","","","4696.600000023842","<p> Great! You have completed the practice. </p><p> Before you start, we're going to ask you a few questions about how the game works.  </p>","","0","instructions","","",""
"preload","35","161024","0.0-13.0","5881","approach_avoid_sv1","""event"",""trial"",""time""
""fullscreenenter"",""1"",""3026""
","
","
","""event"",""trial"",""time""
""fullscreenenter"",""1"",""3026""
","
","true","false","[]","[]","[]","","","","","","","",""
"comp-q","36","171100","0.0-14.0-0.0","5881","approach_avoid_sv1","""event"",""trial"",""time""
""fullscreenenter"",""1"",""3026""
","
","
","""event"",""trial"",""time""
""fullscreenenter"",""1"",""3026""
","
","","","","","","4250.700000047684","<p> <b> True or False? </b> </p><p> In this game, you will only see each image once. </p>","","0","comp_question","","","true"
"comp-q","37","178552","0.0-14.0-1.0","5881","approach_avoid_sv1","""event"",""trial"",""time""
""fullscreenenter"",""1"",""3026""
","
","
","""event"",""trial"",""time""
""fullscreenenter"",""1"",""3026""
","
","","","","","","1123.6000000238419","<p> <b> That's right! </b> You will see many different images <i> one time each </i> in this game. </p>","","0","comp_answer","","",""
"comp-q","38","184546","0.0-15.0-0.0","5881","approach_avoid_sv1","""event"",""trial"",""time""
""fullscreenenter"",""1"",""3026""
","
","
","""event"",""trial"",""time""
""fullscreenenter"",""1"",""3026""
","
","","","","","","966.8000000715256","<p> <b> True or False? </b> </p><p> You should use the mouse and click to make your response. </p>","","1","comp_question","","","true"
"comp-q","39","196602","0.0-15.0-1.0","5881","approach_avoid_sv1","""event"",""trial"",""time""
""fullscreenenter"",""1"",""3026""
","
","
","""event"",""trial"",""time""
""fullscreenenter"",""1"",""3026""
","
","","","","","","5543.200000047684","<p><b> That's right! </b> You should use the '1', '2', '3', and '4' keys to make your response. </p>","","0","comp_answer","","",""
"comp-q","40","203603","0.0-16.0-0.0","5881","approach_avoid_sv1","""event"",""trial"",""time""
""fullscreenenter"",""1"",""3026""
","
","
","""event"",""trial"",""time""
""fullscreenenter"",""1"",""3026""
","
","","","","","","1314.8999999761581","<p> <b> True or False? </b> </p><p> You will have as much time as you want to make each choice. </p>","","1","comp_question","","","true"
"comp-q","41","212660","0.0-16.0-1.0","5881","approach_avoid_sv1","""event"",""trial"",""time""
""fullscreenenter"",""1"",""3026""
","
","
","""event"",""trial"",""time""
""fullscreenenter"",""1"",""3026""
","
","","","","","","4351.399999976158","<p> <b> That's right! </b> You will only have 10 seconds to make each choice. </p>","","0","comp_answer","","",""
"learning-instructions","42","222802","0.0-17.0","5881","approach_avoid_sv1","""event"",""trial"",""time""
""fullscreenenter"",""1"",""3026""
","
","
","""event"",""trial"",""time""
""fullscreenenter"",""1"",""3026""
","
","","","","","","1460.6000000238419","<p> Great! You are now ready to begin the game. </p><p> Remember, use the 1, 2, 3, and 4 keys to make your responses. </p>","","0","instructions","","",""
"html-keyboard-response","43","223429","0.0-18.0-0.0","5881","approach_avoid_sv1","""event"",""trial"",""time""
""fullscreenenter"",""1"",""3026""
","
","
","""event"",""trial"",""time""
""fullscreenenter"",""1"",""3026""
","
","","","","","","null","<div style=""font-size:60px;"">+</div>","null","","fixation","","",""
"memory-trial","44","227860","0.0-18.0-1.0","5881","approach_avoid_sv1","""event"",""trial"",""time""
""fullscreenenter"",""1"",""3026""
","
","
","""event"",""trial"",""time""
""fullscreenenter"",""1"",""3026""
","
","","","","","","3417.8000000715256","images/plane8.png","","","memory_trial","4","definitely_new",""
"html-keyboard-response","45","228379","0.0-18.0-0.1","5881","approach_avoid_sv1","""event"",""trial"",""time""
""fullscreenenter"",""1"",""3026""
","
","
","""event"",""trial"",""time""
""fullscreenenter"",""1"",""3026""
","
","","","","","","null","<div style=""font-size:60px;"">+</div>","null","","fixation","","",""
"memory-trial","46","230619","0.0-18.0-1.1","5881","approach_avoid_sv1","""event"",""trial"",""time""
""fullscreenenter"",""1"",""3026""
","
","
","""event"",""trial"",""time""
""fullscreenenter"",""1"",""3026""
","
","","","","","","1208.3999999761581","images/cow3.png","","","memory_trial","1","definitely_old",""
"html-keyboard-response","47","231128","0.0-18.0-0.2","5881","approach_avoid_sv1","""event"",""trial"",""time""
""fullscreenenter"",""1"",""3026""
","
","
","""event"",""trial"",""time""
""fullscreenenter"",""1"",""3026""
","
","","","","","","null","<div style=""font-size:60px;"">+</div>","null","","fixation","","",""
"memory-trial","48","233369","0.0-18.0-1.2","5881","approach_avoid_sv1","""event"",""trial"",""time""
""fullscreenenter"",""1"",""3026""
","
","
","""event"",""trial"",""time""
""fullscreenenter"",""1"",""3026""
","
","","","","","","1223.8999999761581","images/truck3.png","","","memory_trial","4","definitely_new",""
"html-keyboard-response","49","233899","0.0-18.0-0.3","5881","approach_avoid_sv1","""event"",""trial"",""time""
""fullscreenenter"",""1"",""3026""
","
","
","""event"",""trial"",""time""
""fullscreenenter"",""1"",""3026""
","
","","","","","","null","<div style=""font-size:60px;"">+</div>","null","","fixation","","",""
"memory-trial","50","237044","0.0-18.0-1.3","5881","approach_avoid_sv1","""event"",""trial"",""time""
""fullscreenenter"",""1"",""3026""
","
","
","""event"",""trial"",""time""
""fullscreenenter"",""1"",""3026""
","
","","","","","","2122","images/dog1.png","","","memory_trial","2","maybe_old",""
"html-keyboard-response","51","237559","0.0-18.0-0.4","5881","approach_avoid_sv1","""event"",""trial"",""time""
""fullscreenenter"",""1"",""3026""
","
","
","""event"",""trial"",""time""
""fullscreenenter"",""1"",""3026""
","
","","","","","","null","<div style=""font-size:60px;"">+</div>","null","","fixation","","",""
"memory-trial","52","240495","0.0-18.0-1.4","5881","approach_avoid_sv1","""event"",""trial"",""time""
""fullscreenenter"",""1"",""3026""
","
","
","""event"",""trial"",""time""
""fullscreenenter"",""1"",""3026""
","
","","","","","","1913.5","images/plane1.png","","","memory_trial","1","definitely_old",""
"html-keyboard-response","53","241020","0.0-18.0-0.5","5881","approach_avoid_sv1","""event"",""trial"",""time""
""fullscreenenter"",""1"",""3026""
","
","
","""event"",""trial"",""time""
""fullscreenenter"",""1"",""3026""
","
","","","","","","null","<div style=""font-size:60px;"">+</div>","null","","fixation","","",""
"memory-trial","54","243959","0.0-18.0-1.5","5881","approach_avoid_sv1","""event"",""trial"",""time""
""fullscreenenter"",""1"",""3026""
","
","
","""event"",""trial"",""time""
""fullscreenenter"",""1"",""3026""
","
","","","","","","1927.5999999046326","images/straw6.png","","","memory_trial","1","definitely_old",""
"html-keyboard-response","55","244465","0.0-18.0-0.6","5881","approach_avoid_sv1","""event"",""trial"",""time""
""fullscreenenter"",""1"",""3026""
","
","
","""event"",""trial"",""time""
""fullscreenenter"",""1"",""3026""
","
","","","","","","null","<div style=""font-size:60px;"">+</div>","null","","fixation","","",""
"memory-trial","56","246859","0.0-18.0-1.6","5881","approach_avoid_sv1","""event"",""trial"",""time""
""fullscreenenter"",""1"",""3026""
","
","
","""event"",""trial"",""time""
""fullscreenenter"",""1"",""3026""
","
","","","","","","1380.7000000476837","images/boat4.png","","","memory_trial","1","definitely_old",""
"html-keyboard-response","57","247378","0.0-18.0-0.7","5881","approach_avoid_sv1","""event"",""trial"",""time""
""fullscreenenter"",""1"",""3026""
","
","
","""event"",""trial"",""time""
""fullscreenenter"",""1"",""3026""
","
","","","","","","null","<div style=""font-size:60px;"">+</div>","null","","fixation","","",""
"memory-trial","58","249819","0.0-18.0-1.7","5881","approach_avoid_sv1","""event"",""trial"",""time""
""fullscreenenter"",""1"",""3026""
","
","
","""event"",""trial"",""time""
""fullscreenenter"",""1"",""3026""
","
","","","","","","1429.2000000476837","images/chair1.png","","","memory_trial","1","definitely_old",""
"html-keyboard-response","59","250338","0.0-18.0-0.8","5881","approach_avoid_sv1","""event"",""trial"",""time""
""fullscreenenter"",""1"",""3026""
","
","
","""event"",""trial"",""time""
""fullscreenenter"",""1"",""3026""
","
","","","","","","null","<div style=""font-size:60px;"">+</div>","null","","fixation","","",""
"memory-trial","60","253369","0.0-18.0-1.8","5881","approach_avoid_sv1","""event"",""trial"",""time""
""fullscreenenter"",""1"",""3026""
","
","
","""event"",""trial"",""time""
""fullscreenenter"",""1"",""3026""
","
","","","","","","2020.2000000476837","images/orange2.png","","","memory_trial","4","definitely_new",""
"html-keyboard-response","61","253880","0.0-18.0-0.9","5881","approach_avoid_sv1","""event"",""trial"",""time""
""fullscreenenter"",""1"",""3026""
","
","
","""event"",""trial"",""time""
""fullscreenenter"",""1"",""3026""
","
","","","","","","null","<div style=""font-size:60px;"">+</div>","null","","fixation","","",""
"memory-trial","62","256791","0.0-18.0-1.9","5881","approach_avoid_sv1","""event"",""trial"",""time""
""fullscreenenter"",""1"",""3026""
","
","
","""event"",""trial"",""time""
""fullscreenenter"",""1"",""3026""
","
","","","","","","1892.7000000476837","images/orange8.png","","","memory_trial","3","maybe_new",""
"html-keyboard-response","63","257296","0.0-18.0-0.10","5881","approach_avoid_sv1","""event"",""trial"",""time""
""fullscreenenter"",""1"",""3026""
","
","
","""event"",""trial"",""time""
""fullscreenenter"",""1"",""3026""
","
","","","","","","null","<div style=""font-size:60px;"">+</div>","null","","fixation","","",""
"memory-trial","64","260817","0.0-18.0-1.10","5881","approach_avoid_sv1","""event"",""trial"",""time""
""fullscreenenter"",""1"",""3026""
","
","
","""event"",""trial"",""time""
""fullscreenenter"",""1"",""3026""
","
","","","","","","2511.7999999523163","images/train2.png","","","memory_trial","4","definitely_new",""
"html-keyboard-response","65","261333","0.0-18.0-0.11","5881","approach_avoid_sv1","""event"",""trial"",""time""
""fullscreenenter"",""1"",""3026""
","
","
","""event"",""trial"",""time""
""fullscreenenter"",""1"",""3026""
","
","","","","","","null","<div style=""font-size:60px;"">+</div>","null","","fixation","","",""
"memory-trial","66","263907","0.0-18.0-1.11","5881","approach_avoid_sv1","""event"",""trial"",""time""
""fullscreenenter"",""1"",""3026""
","
","
","""event"",""trial"",""time""
""fullscreenenter"",""1"",""3026""
","
","","","","","","1553.1000000238419","images/flower1.png","","","memory_trial","4","definitely_new",""
"html-keyboard-response","67","264416","0.0-18.0-0.12","5881","approach_avoid_sv1","""event"",""trial"",""time""
""fullscreenenter"",""1"",""3026""
","
","
","""event"",""trial"",""time""
""fullscreenenter"",""1"",""3026""
","
","","","","","","null","<div style=""font-size:60px;"">+</div>","null","","fixation","","",""
"memory-trial","68","266870","0.0-18.0-1.12","5881","approach_avoid_sv1","""event"",""trial"",""time""
""fullscreenenter"",""1"",""3026""
","
","
","""event"",""trial"",""time""
""fullscreenenter"",""1"",""3026""
","
","","","","","","1442.4000000953674","images/cat4.png","","","memory_trial","2","maybe_old",""
"html-keyboard-response","69","267386","0.0-18.0-0.13","5881","approach_avoid_sv1","""event"",""trial"",""time""
""fullscreenenter"",""1"",""3026""
","
","
","""event"",""trial"",""time""
""fullscreenenter"",""1"",""3026""
","
","","","","","","null","<div style=""font-size:60px;"">+</div>","null","","fixation","","",""
"memory-trial","70","270057","0.0-18.0-1.13","5881","approach_avoid_sv1","""event"",""trial"",""time""
""fullscreenenter"",""1"",""3026""
","
","
","""event"",""trial"",""time""
""fullscreenenter"",""1"",""3026""
","
","","","","","","1662.2000000476837","images/rodent2.png","","","memory_trial","1","definitely_old",""
"html-keyboard-response","71","270574","0.0-18.0-0.14","5881","approach_avoid_sv1","""event"",""trial"",""time""
""fullscreenenter"",""1"",""3026""
","
","
","""event"",""trial"",""time""
""fullscreenenter"",""1"",""3026""
","
","","","","","","null","<div style=""font-size:60px;"">+</div>","null","","fixation","","",""
"memory-trial","72","272513","0.0-18.0-1.14","5881","approach_avoid_sv1","""event"",""trial"",""time""
""fullscreenenter"",""1"",""3026""
","
","
","""event"",""trial"",""time""
""fullscreenenter"",""1"",""3026""
","
","","","","","","927.3000000715256","images/table2.png","","","memory_trial","1","definitely_old",""
"html-keyboard-response","73","273028","0.0-18.0-0.15","5881","approach_avoid_sv1","""event"",""trial"",""time""
""fullscreenenter"",""1"",""3026""
","
","
","""event"",""trial"",""time""
""fullscreenenter"",""1"",""3026""
","
","","","","","","null","<div style=""font-size:60px;"">+</div>","null","","fixation","","",""
"memory-trial","74","275169","0.0-18.0-1.15","5881","approach_avoid_sv1","""event"",""trial"",""time""
""fullscreenenter"",""1"",""3026""
","
","
","""event"",""trial"",""time""
""fullscreenenter"",""1"",""3026""
","
","","","","","","1130.3999999761581","images/cat8.png","","","memory_trial","4","definitely_new",""
"html-keyboard-response","75","275678","0.0-18.0-0.16","5881","approach_avoid_sv1","""event"",""trial"",""time""
""fullscreenenter"",""1"",""3026""
","
","
","""event"",""trial"",""time""
""fullscreenenter"",""1"",""3026""
","
","","","","","","null","<div style=""font-size:60px;"">+</div>","null","","fixation","","",""
"memory-trial","76","278353","0.0-18.0-1.16","5881","approach_avoid_sv1","""event"",""trial"",""time""
""fullscreenenter"",""1"",""3026""
","
","
","""event"",""trial"",""time""
""fullscreenenter"",""1"",""3026""
","
","","","","","","1658.3999999761581","images/straw7.png","","","memory_trial","1","definitely_old",""
"html-keyboard-response","77","278861","0.0-18.0-0.17","5881","approach_avoid_sv1","""event"",""trial"",""time""
""fullscreenenter"",""1"",""3026""
","
","
","""event"",""trial"",""time""
""fullscreenenter"",""1"",""3026""
","
","","","","","","null","<div style=""font-size:60px;"">+</div>","null","","fixation","","",""
"memory-trial","78","281007","0.0-18.0-1.17","5881","approach_avoid_sv1","""event"",""trial"",""time""
""fullscreenenter"",""1"",""3026""
","
","
","""event"",""trial"",""time""
""fullscreenenter"",""1"",""3026""
","
","","","","","","1138.4000000953674","images/straw3.png","","","memory_trial","1","definitely_old",""
"html-keyboard-response","79","281525","0.0-18.0-0.18","5881","approach_avoid_sv1","""event"",""trial"",""time""
""fullscreenenter"",""1"",""3026""
","
","
","""event"",""trial"",""time""
""fullscreenenter"",""1"",""3026""
","
","","","","","","null","<div style=""font-size:60px;"">+</div>","null","","fixation","","",""
"memory-trial","80","283966","0.0-18.0-1.18","5881","approach_avoid_sv1","""event"",""trial"",""time""
""fullscreenenter"",""1"",""3026""
","
","
","""event"",""trial"",""time""
""fullscreenenter"",""1"",""3026""
","
","","","","","","1423","images/sheep6.png","","","memory_trial","4","definitely_new",""
"html-keyboard-response","81","284471","0.0-18.0-0.19","5881","approach_avoid_sv1","""event"",""trial"",""time""
""fullscreenenter"",""1"",""3026""
","
","
","""event"",""trial"",""time""
""fullscreenenter"",""1"",""3026""
","
","","","","","","null","<div style=""font-size:60px;"">+</div>","null","","fixation","","",""
"memory-trial","82","287408","0.0-18.0-1.19","5881","approach_avoid_sv1","""event"",""trial"",""time""
""fullscreenenter"",""1"",""3026""
","
","
","""event"",""trial"",""time""
""fullscreenenter"",""1"",""3026""
","
","","","","","","1925.1999999284744","images/boat6.png","","","memory_trial","1","definitely_old",""
"html-keyboard-response","83","287922","0.0-18.0-0.20","5881","approach_avoid_sv1","""event"",""trial"",""time""
""fullscreenenter"",""1"",""3026""
","
","
","""event"",""trial"",""time""
""fullscreenenter"",""1"",""3026""
","
","","","","","","null","<div style=""font-size:60px;"">+</div>","null","","fixation","","",""
"memory-trial","84","290439","0.0-18.0-1.20","5881","approach_avoid_sv1","""event"",""trial"",""time""
""fullscreenenter"",""1"",""3026""
","
","
","""event"",""trial"",""time""
""fullscreenenter"",""1"",""3026""
","
","","","","","","1503","images/banana4.png","","","memory_trial","1","definitely_old",""
"html-keyboard-response","85","290948","0.0-18.0-0.21","5881","approach_avoid_sv1","""event"",""trial"",""time""
""fullscreenenter"",""1"",""3026""
","
","
","""event"",""trial"",""time""
""fullscreenenter"",""1"",""3026""
","
","","","","","","null","<div style=""font-size:60px;"">+</div>","null","","fixation","","",""
"memory-trial","86","293223","0.0-18.0-1.21","5881","approach_avoid_sv1","""event"",""trial"",""time""
""fullscreenenter"",""1"",""3026""
","
","
","""event"",""trial"",""time""
""fullscreenenter"",""1"",""3026""
","
","","","","","","1263.7999999523163","images/table8.png","","","memory_trial","1","definitely_old",""
"html-keyboard-response","87","293737","0.0-18.0-0.22","5881","approach_avoid_sv1","""event"",""trial"",""time""
""fullscreenenter"",""1"",""3026""
","
","
","""event"",""trial"",""time""
""fullscreenenter"",""1"",""3026""
","
","","","","","","null","<div style=""font-size:60px;"">+</div>","null","","fixation","","",""
"memory-trial","88","296127","0.0-18.0-1.22","5881","approach_avoid_sv1","""event"",""trial"",""time""
""fullscreenenter"",""1"",""3026""
","
","
","""event"",""trial"",""time""
""fullscreenenter"",""1"",""3026""
","
","","","","","","1377.7999999523163","images/bed5.png","","","memory_trial","1","definitely_old",""
"html-keyboard-response","89","296641","0.0-18.0-0.23","5881","approach_avoid_sv1","""event"",""trial"",""time""
""fullscreenenter"",""1"",""3026""
","
","
","""event"",""trial"",""time""
""fullscreenenter"",""1"",""3026""
","
","","","","","","null","<div style=""font-size:60px;"">+</div>","null","","fixation","","",""
"memory-trial","90","300439","0.0-18.0-1.23","5881","approach_avoid_sv1","""event"",""trial"",""time""
""fullscreenenter"",""1"",""3026""
","
","
","""event"",""trial"",""time""
""fullscreenenter"",""1"",""3026""
","
","","","","","","2784.5","images/horse3.png","","","memory_trial","4","definitely_new",""
"html-keyboard-response","91","300949","0.0-18.0-0.24","5881","approach_avoid_sv1","""event"",""trial"",""time""
""fullscreenenter"",""1"",""3026""
","
","
","""event"",""trial"",""time""
""fullscreenenter"",""1"",""3026""
","
","","","","","","null","<div style=""font-size:60px;"">+</div>","null","","fixation","","",""
"memory-trial","92","303284","0.0-18.0-1.24","5881","approach_avoid_sv1","""event"",""trial"",""time""
""fullscreenenter"",""1"",""3026""
","
","
","""event"",""trial"",""time""
""fullscreenenter"",""1"",""3026""
","
","","","","","","1317.5","images/cat6.png","","","memory_trial","4","definitely_new",""
"html-keyboard-response","93","303795","0.0-18.0-0.25","5881","approach_avoid_sv1","""event"",""trial"",""time""
""fullscreenenter"",""1"",""3026""
","
","
","""event"",""trial"",""time""
""fullscreenenter"",""1"",""3026""
","
","","","","","","null","<div style=""font-size:60px;"">+</div>","null","","fixation","","",""
"memory-trial","94","307003","0.0-18.0-1.25","5881","approach_avoid_sv1","""event"",""trial"",""time""
""fullscreenenter"",""1"",""3026""
","
","
","""event"",""trial"",""time""
""fullscreenenter"",""1"",""3026""
","
","","","","","","2197.399999976158","images/train3.png","","","memory_trial","4","definitely_new",""
"html-keyboard-response","95","307511","0.0-18.0-0.26","5881","approach_avoid_sv1","""event"",""trial"",""time""
""fullscreenenter"",""1"",""3026""
","
","
","""event"",""trial"",""time""
""fullscreenenter"",""1"",""3026""
","
","","","","","","null","<div style=""font-size:60px;"">+</div>","null","","fixation","","",""
"memory-trial","96","309868","0.0-18.0-1.26","5881","approach_avoid_sv1","""event"",""trial"",""time""
""fullscreenenter"",""1"",""3026""
","
","
","""event"",""trial"",""time""
""fullscreenenter"",""1"",""3026""
","
","","","","","","1343.5","images/bush2.png","","","memory_trial","1","definitely_old",""
"html-keyboard-response","97","310374","0.0-18.0-0.27","5881","approach_avoid_sv1","""event"",""trial"",""time""
""fullscreenenter"",""1"",""3026""
","
","
","""event"",""trial"",""time""
""fullscreenenter"",""1"",""3026""
","
","","","","","","null","<div style=""font-size:60px;"">+</div>","null","","fixation","","",""
"memory-trial","98","314766","0.0-18.0-1.27","5881","approach_avoid_sv1","""event"",""trial"",""time""
""fullscreenenter"",""1"",""3026""
","
","
","""event"",""trial"",""time""
""fullscreenenter"",""1"",""3026""
","
","","","","","","3370.1999999284744","images/banana2.png","","","memory_trial","2","maybe_old",""
"html-keyboard-response","99","315273","0.0-18.0-0.28","5881","approach_avoid_sv1","""event"",""trial"",""time""
""fullscreenenter"",""1"",""3026""
","
","
","""event"",""trial"",""time""
""fullscreenenter"",""1"",""3026""
","
","","","","","","null","<div style=""font-size:60px;"">+</div>","null","","fixation","","",""
"memory-trial","100","318452","0.0-18.0-1.28","5881","approach_avoid_sv1","""event"",""trial"",""time""
""fullscreenenter"",""1"",""3026""
","
","
","""event"",""trial"",""time""
""fullscreenenter"",""1"",""3026""
","
","","","","","","2163.600000023842","images/cactus1.png","","","memory_trial","4","definitely_new",""
"html-keyboard-response","101","318960","0.0-18.0-0.29","5881","approach_avoid_sv1","""event"",""trial"",""time""
""fullscreenenter"",""1"",""3026""
","
","
","""event"",""trial"",""time""
""fullscreenenter"",""1"",""3026""
","
","","","","","","null","<div style=""font-size:60px;"">+</div>","null","","fixation","","",""
"memory-trial","102","321166","0.0-18.0-1.29","5881","approach_avoid_sv1","""event"",""trial"",""time""
""fullscreenenter"",""1"",""3026""
","
","
","""event"",""trial"",""time""
""fullscreenenter"",""1"",""3026""
","
","","","","","","1185.5","images/plane6.png","","","memory_trial","3","maybe_new",""
"html-keyboard-response","103","321674","0.0-18.0-0.30","5881","approach_avoid_sv1","""event"",""trial"",""time""
""fullscreenenter"",""1"",""3026""
","
","
","""event"",""trial"",""time""
""fullscreenenter"",""1"",""3026""
","
","","","","","","null","<div style=""font-size:60px;"">+</div>","null","","fixation","","",""
"memory-trial","104","324996","0.0-18.0-1.30","5881","approach_avoid_sv1","""event"",""trial"",""time""
""fullscreenenter"",""1"",""3026""
","
","
","""event"",""trial"",""time""
""fullscreenenter"",""1"",""3026""
","
","","","","","","2301.399999976158","images/horse8.png","","","memory_trial","1","definitely_old",""
"html-keyboard-response","105","325505","0.0-18.0-0.31","5881","approach_avoid_sv1","""event"",""trial"",""time""
""fullscreenenter"",""1"",""3026""
","
","
","""event"",""trial"",""time""
""fullscreenenter"",""1"",""3026""
","
","","","","","","null","<div style=""font-size:60px;"">+</div>","null","","fixation","","",""
"memory-trial","106","328787","0.0-18.0-1.31","5881","approach_avoid_sv1","""event"",""trial"",""time""
""fullscreenenter"",""1"",""3026""
","
","
","""event"",""trial"",""time""
""fullscreenenter"",""1"",""3026""
","
","","","","","","2258.399999976158","images/train1.png","","","memory_trial","4","definitely_new",""
"html-keyboard-response","107","329304","0.0-18.0-0.32","5881","approach_avoid_sv1","""event"",""trial"",""time""
""fullscreenenter"",""1"",""3026""
","
","
","""event"",""trial"",""time""
""fullscreenenter"",""1"",""3026""
","
","","","","","","null","<div style=""font-size:60px;"">+</div>","null","","fixation","","",""
"memory-trial","108","331487","0.0-18.0-1.32","5881","approach_avoid_sv1","""event"",""trial"",""time""
""fullscreenenter"",""1"",""3026""
","
","
","""event"",""trial"",""time""
""fullscreenenter"",""1"",""3026""
","
","","","","","","1167.1000000238419","images/chair8.png","","","memory_trial","1","definitely_old",""
"html-keyboard-response","109","332005","0.0-18.0-0.33","5881","approach_avoid_sv1","""event"",""trial"",""time""
""fullscreenenter"",""1"",""3026""
","
","
","""event"",""trial"",""time""
""fullscreenenter"",""1"",""3026""
","
","","","","","","null","<div style=""font-size:60px;"">+</div>","null","","fixation","","",""
"memory-trial","110","333974","0.0-18.0-1.33","5881","approach_avoid_sv1","""event"",""trial"",""time""
""fullscreenenter"",""1"",""3026""
","
","
","""event"",""trial"",""time""
""fullscreenenter"",""1"",""3026""
","
","","","","","","943.2999999523163","images/rabbit1.png","","","memory_trial","1","definitely_old",""
"html-keyboard-response","111","334485","0.0-18.0-0.34","5881","approach_avoid_sv1","""event"",""trial"",""time""
""fullscreenenter"",""1"",""3026""
","
","
","""event"",""trial"",""time""
""fullscreenenter"",""1"",""3026""
","
","","","","","","null","<div style=""font-size:60px;"">+</div>","null","","fixation","","",""
"memory-trial","112","337506","0.0-18.0-1.34","5881","approach_avoid_sv1","""event"",""trial"",""time""
""fullscreenenter"",""1"",""3026""
","
","
","""event"",""trial"",""time""
""fullscreenenter"",""1"",""3026""
","
","","","","","","1988.2999999523163","images/rabbit8.png","","","memory_trial","3","maybe_new",""
"html-keyboard-response","113","338023","0.0-18.0-0.35","5881","approach_avoid_sv1","""event"",""trial"",""time""
""fullscreenenter"",""1"",""3026""
","
","
","""event"",""trial"",""time""
""fullscreenenter"",""1"",""3026""
","
","","","","","","null","<div style=""font-size:60px;"">+</div>","null","","fixation","","",""
"memory-trial","114","340882","0.0-18.0-1.35","5881","approach_avoid_sv1","""event"",""trial"",""time""
""fullscreenenter"",""1"",""3026""
","
","
","""event"",""trial"",""time""
""fullscreenenter"",""1"",""3026""
","
","","","","","","1850.6999999284744","images/horse4.png","","","memory_trial","4","definitely_new",""
"html-keyboard-response","115","341389","0.0-18.0-0.36","5881","approach_avoid_sv1","""event"",""trial"",""time""
""fullscreenenter"",""1"",""3026""
","
","
","""event"",""trial"",""time""
""fullscreenenter"",""1"",""3026""
","
","","","","","","null","<div style=""font-size:60px;"">+</div>","null","","fixation","","",""
"memory-trial","116","343832","0.0-18.0-1.36","5881","approach_avoid_sv1","""event"",""trial"",""time""
""fullscreenenter"",""1"",""3026""
","
","
","""event"",""trial"",""time""
""fullscreenenter"",""1"",""3026""
","
","","","","","","1429.5999999046326","images/tree5.png","","","memory_trial","4","definitely_new",""
"html-keyboard-response","117","344350","0.0-18.0-0.37","5881","approach_avoid_sv1","""event"",""trial"",""time""
""fullscreenenter"",""1"",""3026""
","
","
","""event"",""trial"",""time""
""fullscreenenter"",""1"",""3026""
","
","","","","","","null","<div style=""font-size:60px;"">+</div>","null","","fixation","","",""
"memory-trial","118","346308","0.0-18.0-1.37","5881","approach_avoid_sv1","""event"",""trial"",""time""
""fullscreenenter"",""1"",""3026""
","
","
","""event"",""trial"",""time""
""fullscreenenter"",""1"",""3026""
","
","","","","","","946.2000000476837","images/tree8.png","","","memory_trial","4","definitely_new",""
"html-keyboard-response","119","346822","0.0-18.0-0.38","5881","approach_avoid_sv1","""event"",""trial"",""time""
""fullscreenenter"",""1"",""3026""
","
","
","""event"",""trial"",""time""
""fullscreenenter"",""1"",""3026""
","
","","","","","","null","<div style=""font-size:60px;"">+</div>","null","","fixation","","",""
"memory-trial","120","348530","0.0-18.0-1.38","5881","approach_avoid_sv1","""event"",""trial"",""time""
""fullscreenenter"",""1"",""3026""
","
","
","""event"",""trial"",""time""
""fullscreenenter"",""1"",""3026""
","
","","","","","","699.5","images/tree1.png","","","memory_trial","4","definitely_new",""
"html-keyboard-response","121","349038","0.0-18.0-0.39","5881","approach_avoid_sv1","""event"",""trial"",""time""
""fullscreenenter"",""1"",""3026""
","
","
","""event"",""trial"",""time""
""fullscreenenter"",""1"",""3026""
","
","","","","","","null","<div style=""font-size:60px;"">+</div>","null","","fixation","","",""
"memory-trial","122","351375","0.0-18.0-1.39","5881","approach_avoid_sv1","""event"",""trial"",""time""
""fullscreenenter"",""1"",""3026""
","
","
","""event"",""trial"",""time""
""fullscreenenter"",""1"",""3026""
","
","","","","","","1319.5","images/sofa2.png","","","memory_trial","4","definitely_new",""
"html-keyboard-response","123","351886","0.0-18.0-0.40","5881","approach_avoid_sv1","""event"",""trial"",""time""
""fullscreenenter"",""1"",""3026""
","
","
","""event"",""trial"",""time""
""fullscreenenter"",""1"",""3026""
","
","","","","","","null","<div style=""font-size:60px;"">+</div>","null","","fixation","","",""
"memory-trial","124","353963","0.0-18.0-1.40","5881","approach_avoid_sv1","""event"",""trial"",""time""
""fullscreenenter"",""1"",""3026""
","
","
","""event"",""trial"",""time""
""fullscreenenter"",""1"",""3026""
","
","","","","","","1057.6999999284744","images/banana5.png","","","memory_trial","1","definitely_old",""
"html-keyboard-response","125","354472","0.0-18.0-0.41","5881","approach_avoid_sv1","""event"",""trial"",""time""
""fullscreenenter"",""1"",""3026""
","
","
","""event"",""trial"",""time""
""fullscreenenter"",""1"",""3026""
","
","","","","","","null","<div style=""font-size:60px;"">+</div>","null","","fixation","","",""
"memory-trial","126","356890","0.0-18.0-1.41","5881","approach_avoid_sv1","""event"",""trial"",""time""
""fullscreenenter"",""1"",""3026""
","
","
","""event"",""trial"",""time""
""fullscreenenter"",""1"",""3026""
","
","","","","","","1405.2999999523163","images/orange7.png","","","memory_trial","4","definitely_new",""
"html-button-response","127","367840","0.0-18.0-2.41-0.41","5881","approach_avoid_sv1","""event"",""trial"",""time""
""fullscreenenter"",""1"",""3026""
","
","
","""event"",""trial"",""time""
""fullscreenenter"",""1"",""3026""
","
","","","","","","10947.899999976158","<p> Take a break! </p><p> Click the button to continue. </p>","0","","break","","",""
"html-keyboard-response","128","368351","0.0-18.0-0.42","5881","approach_avoid_sv1","""event"",""trial"",""time""
""fullscreenenter"",""1"",""3026""
","
","
","""event"",""trial"",""time""
""fullscreenenter"",""1"",""3026""
","
","","","","","","null","<div style=""font-size:60px;"">+</div>","null","","fixation","","",""
"memory-trial","129","370738","0.0-18.0-1.42","5881","approach_avoid_sv1","""event"",""trial"",""time""
""fullscreenenter"",""1"",""3026""
","
","
","""event"",""trial"",""time""
""fullscreenenter"",""1"",""3026""
","
","","","","","","1373.6999999284744","images/chair7.png","","","memory_trial","1","definitely_old",""
"html-keyboard-response","130","371256","0.0-18.0-0.43","5881","approach_avoid_sv1","""event"",""trial"",""time""
""fullscreenenter"",""1"",""3026""
","
","
","""event"",""trial"",""time""
""fullscreenenter"",""1"",""3026""
","
","","","","","","null","<div style=""font-size:60px;"">+</div>","null","","fixation","","",""
"memory-trial","131","373173","0.0-18.0-1.43","5881","approach_avoid_sv1","""event"",""trial"",""time""
""fullscreenenter"",""1"",""3026""
","
","
","""event"",""trial"",""time""
""fullscreenenter"",""1"",""3026""
","
","","","","","","905.5999999046326","images/tree4.png","","","memory_trial","4","definitely_new",""
"html-keyboard-response","132","373682","0.0-18.0-0.44","5881","approach_avoid_sv1","""event"",""trial"",""time""
""fullscreenenter"",""1"",""3026""
","
","
","""event"",""trial"",""time""
""fullscreenenter"",""1"",""3026""
","
","","","","","","null","<div style=""font-size:60px;"">+</div>","null","","fixation","","",""
"memory-trial","133","375556","0.0-18.0-1.44","5881","approach_avoid_sv1","""event"",""trial"",""time""
""fullscreenenter"",""1"",""3026""
","
","
","""event"",""trial"",""time""
""fullscreenenter"",""1"",""3026""
","
","","","","","","864.1000000238419","images/straw4.png","","","memory_trial","1","definitely_old",""
"html-keyboard-response","134","376078","0.0-18.0-0.45","5881","approach_avoid_sv1","""event"",""trial"",""time""
""fullscreenenter"",""1"",""3026""
","
","
","""event"",""trial"",""time""
""fullscreenenter"",""1"",""3026""
","
","","","","","","null","<div style=""font-size:60px;"">+</div>","null","","fixation","","",""
"memory-trial","135","379171","0.0-18.0-1.45","5881","approach_avoid_sv1","""event"",""trial"",""time""
""fullscreenenter"",""1"",""3026""
","
","
","""event"",""trial"",""time""
""fullscreenenter"",""1"",""3026""
","
","","","","","","2080.600000023842","images/dog5.png","","","memory_trial","3","maybe_new",""
"html-keyboard-response","136","379689","0.0-18.0-0.46","5881","approach_avoid_sv1","""event"",""trial"",""time""
""fullscreenenter"",""1"",""3026""
","
","
","""event"",""trial"",""time""
""fullscreenenter"",""1"",""3026""
","
","","","","","","null","<div style=""font-size:60px;"">+</div>","null","","fixation","","",""
"memory-trial","137","382257","0.0-18.0-1.46","5881","approach_avoid_sv1","""event"",""trial"",""time""
""fullscreenenter"",""1"",""3026""
","
","
","""event"",""trial"",""time""
""fullscreenenter"",""1"",""3026""
","
","","","","","","1553.8999999761581","images/banana6.png","","","memory_trial","4","definitely_new",""
"html-keyboard-response","138","382772","0.0-18.0-0.47","5881","approach_avoid_sv1","""event"",""trial"",""time""
""fullscreenenter"",""1"",""3026""
","
","
","""event"",""trial"",""time""
""fullscreenenter"",""1"",""3026""
","
","","","","","","null","<div style=""font-size:60px;"">+</div>","null","","fixation","","",""
"memory-trial","139","385379","0.0-18.0-1.47","5881","approach_avoid_sv1","""event"",""trial"",""time""
""fullscreenenter"",""1"",""3026""
","
","
","""event"",""trial"",""time""
""fullscreenenter"",""1"",""3026""
","
","","","","","","1592.8000000715256","images/orange4.png","","","memory_trial","4","definitely_new",""
"html-keyboard-response","140","385892","0.0-18.0-0.48","5881","approach_avoid_sv1","""event"",""trial"",""time""
""fullscreenenter"",""1"",""3026""
","
","
","""event"",""trial"",""time""
""fullscreenenter"",""1"",""3026""
","
","","","","","","null","<div style=""font-size:60px;"">+</div>","null","","fixation","","",""
"memory-trial","141","388466","0.0-18.0-1.48","5881","approach_avoid_sv1","""event"",""trial"",""time""
""fullscreenenter"",""1"",""3026""
","
","
","""event"",""trial"",""time""
""fullscreenenter"",""1"",""3026""
","
","","","","","","1566.9000000953674","images/cactus6.png","","","memory_trial","1","definitely_old",""
"html-keyboard-response","142","388991","0.0-18.0-0.49","5881","approach_avoid_sv1","""event"",""trial"",""time""
""fullscreenenter"",""1"",""3026""
","
","
","""event"",""trial"",""time""
""fullscreenenter"",""1"",""3026""
","
","","","","","","null","<div style=""font-size:60px;"">+</div>","null","","fixation","","",""
"memory-trial","143","391337","0.0-18.0-1.49","5881","approach_avoid_sv1","""event"",""trial"",""time""
""fullscreenenter"",""1"",""3026""
","
","
","""event"",""trial"",""time""
""fullscreenenter"",""1"",""3026""
","
","","","","","","1335.3999999761581","images/flower3.png","","","memory_trial","1","definitely_old",""
"html-keyboard-response","144","391846","0.0-18.0-0.50","5881","approach_avoid_sv1","""event"",""trial"",""time""
""fullscreenenter"",""1"",""3026""
","
","
","""event"",""trial"",""time""
""fullscreenenter"",""1"",""3026""
","
","","","","","","null","<div style=""font-size:60px;"">+</div>","null","","fixation","","",""
"memory-trial","145","395445","0.0-18.0-1.50","5881","approach_avoid_sv1","""event"",""trial"",""time""
""fullscreenenter"",""1"",""3026""
","
","
","""event"",""trial"",""time""
""fullscreenenter"",""1"",""3026""
","
","","","","","","2581.899999976158","images/bed8.png","","","memory_trial","2","maybe_old",""
"html-keyboard-response","146","395960","0.0-18.0-0.51","5881","approach_avoid_sv1","""event"",""trial"",""time""
""fullscreenenter"",""1"",""3026""
","
","
","""event"",""trial"",""time""
""fullscreenenter"",""1"",""3026""
","
","","","","","","null","<div style=""font-size:60px;"">+</div>","null","","fixation","","",""
"memory-trial","147","398249","0.0-18.0-1.51","5881","approach_avoid_sv1","""event"",""trial"",""time""
""fullscreenenter"",""1"",""3026""
","
","
","""event"",""trial"",""time""
""fullscreenenter"",""1"",""3026""
","
","","","","","","1269.2000000476837","images/dog7.png","","","memory_trial","1","definitely_old",""
"html-keyboard-response","148","398757","0.0-18.0-0.52","5881","approach_avoid_sv1","""event"",""trial"",""time""
""fullscreenenter"",""1"",""3026""
","
","
","""event"",""trial"",""time""
""fullscreenenter"",""1"",""3026""
","
","","","","","","null","<div style=""font-size:60px;"">+</div>","null","","fixation","","",""
"memory-trial","149","400493","0.0-18.0-1.52","5881","approach_avoid_sv1","""event"",""trial"",""time""
""fullscreenenter"",""1"",""3026""
","
","
","""event"",""trial"",""time""
""fullscreenenter"",""1"",""3026""
","
","","","","","","727","images/flower4.png","","","memory_trial","1","definitely_old",""
"html-keyboard-response","150","401002","0.0-18.0-0.53","5881","approach_avoid_sv1","""event"",""trial"",""time""
""fullscreenenter"",""1"",""3026""
","
","
","""event"",""trial"",""time""
""fullscreenenter"",""1"",""3026""
","
","","","","","","null","<div style=""font-size:60px;"">+</div>","null","","fixation","","",""
"memory-trial","151","403007","0.0-18.0-1.53","5881","approach_avoid_sv1","""event"",""trial"",""time""
""fullscreenenter"",""1"",""3026""
","
","
","""event"",""trial"",""time""
""fullscreenenter"",""1"",""3026""
","
","","","","","","998.1000000238419","images/tree6.png","","","memory_trial","4","definitely_new",""
"html-keyboard-response","152","403515","0.0-18.0-0.54","5881","approach_avoid_sv1","""event"",""trial"",""time""
""fullscreenenter"",""1"",""3026""
","
","
","""event"",""trial"",""time""
""fullscreenenter"",""1"",""3026""
","
","","","","","","null","<div style=""font-size:60px;"">+</div>","null","","fixation","","",""
"memory-trial","153","406647","0.0-18.0-1.54","5881","approach_avoid_sv1","""event"",""trial"",""time""
""fullscreenenter"",""1"",""3026""
","
","
","""event"",""trial"",""time""
""fullscreenenter"",""1"",""3026""
","
","","","","","","2114.2000000476837","images/boat7.png","","","memory_trial","1","definitely_old",""
"html-keyboard-response","154","407155","0.0-18.0-0.55","5881","approach_avoid_sv1","""event"",""trial"",""time""
""fullscreenenter"",""1"",""3026""
","
","
","""event"",""trial"",""time""
""fullscreenenter"",""1"",""3026""
","
","","","","","","null","<div style=""font-size:60px;"">+</div>","null","","fixation","","",""
"memory-trial","155","410513","0.0-18.0-1.55","5881","approach_avoid_sv1","""event"",""trial"",""time""
""fullscreenenter"",""1"",""3026""
","
","
","""event"",""trial"",""time""
""fullscreenenter"",""1"",""3026""
","
","","","","","","2336.899999976158","images/cow8.png","","","memory_trial","1","definitely_old",""
"html-keyboard-response","156","411021","0.0-18.0-0.56","5881","approach_avoid_sv1","""event"",""trial"",""time""
""fullscreenenter"",""1"",""3026""
","
","
","""event"",""trial"",""time""
""fullscreenenter"",""1"",""3026""
","
","","","","","","null","<div style=""font-size:60px;"">+</div>","null","","fixation","","",""
"memory-trial","157","413239","0.0-18.0-1.56","5881","approach_avoid_sv1","""event"",""trial"",""time""
""fullscreenenter"",""1"",""3026""
","
","
","""event"",""trial"",""time""
""fullscreenenter"",""1"",""3026""
","
","","","","","","1204.2000000476837","images/cactus8.png","","","memory_trial","4","definitely_new",""
"html-keyboard-response","158","413747","0.0-18.0-0.57","5881","approach_avoid_sv1","""event"",""trial"",""time""
""fullscreenenter"",""1"",""3026""
","
","
","""event"",""trial"",""time""
""fullscreenenter"",""1"",""3026""
","
","","","","","","null","<div style=""font-size:60px;"">+</div>","null","","fixation","","",""
"memory-trial","159","416914","0.0-18.0-1.57","5881","approach_avoid_sv1","""event"",""trial"",""time""
""fullscreenenter"",""1"",""3026""
","
","
","""event"",""trial"",""time""
""fullscreenenter"",""1"",""3026""
","
","","","","","","2160.2999999523163","images/sheep3.png","","","memory_trial","2","maybe_old",""
"html-keyboard-response","160","417437","0.0-18.0-0.58","5881","approach_avoid_sv1","""event"",""trial"",""time""
""fullscreenenter"",""1"",""3026""
","
","
","""event"",""trial"",""time""
""fullscreenenter"",""1"",""3026""
","
","","","","","","null","<div style=""font-size:60px;"">+</div>","null","","fixation","","",""
"memory-trial","161","420939","0.0-18.0-1.58","5881","approach_avoid_sv1","""event"",""trial"",""time""
""fullscreenenter"",""1"",""3026""
","
","
","""event"",""trial"",""time""
""fullscreenenter"",""1"",""3026""
","
","","","","","","2481.5999999046326","images/sheep5.png","","","memory_trial","4","definitely_new",""
"html-keyboard-response","162","421455","0.0-18.0-0.59","5881","approach_avoid_sv1","""event"",""trial"",""time""
""fullscreenenter"",""1"",""3026""
","
","
","""event"",""trial"",""time""
""fullscreenenter"",""1"",""3026""
","
","","","","","","null","<div style=""font-size:60px;"">+</div>","null","","fixation","","",""
"memory-trial","163","423950","0.0-18.0-1.59","5881","approach_avoid_sv1","""event"",""trial"",""time""
""fullscreenenter"",""1"",""3026""
","
","
","""event"",""trial"",""time""
""fullscreenenter"",""1"",""3026""
","
","","","","","","1474.1000000238419","images/truck1.png","","","memory_trial","1","definitely_old",""
"html-keyboard-response","164","424463","0.0-18.0-0.60","5881","approach_avoid_sv1","""event"",""trial"",""time""
""fullscreenenter"",""1"",""3026""
","
","
","""event"",""trial"",""time""
""fullscreenenter"",""1"",""3026""
","
","","","","","","null","<div style=""font-size:60px;"">+</div>","null","","fixation","","",""
"memory-trial","165","427274","0.0-18.0-1.60","5881","approach_avoid_sv1","""event"",""trial"",""time""
""fullscreenenter"",""1"",""3026""
","
","
","""event"",""trial"",""time""
""fullscreenenter"",""1"",""3026""
","
","","","","","","1795","images/sofa4.png","","","memory_trial","4","definitely_new",""
"html-keyboard-response","166","427790","0.0-18.0-0.61","5881","approach_avoid_sv1","""event"",""trial"",""time""
""fullscreenenter"",""1"",""3026""
","
","
","""event"",""trial"",""time""
""fullscreenenter"",""1"",""3026""
","
","","","","","","null","<div style=""font-size:60px;"">+</div>","null","","fixation","","",""
"memory-trial","167","429670","0.0-18.0-1.61","5881","approach_avoid_sv1","""event"",""trial"",""time""
""fullscreenenter"",""1"",""3026""
","
","
","""event"",""trial"",""time""
""fullscreenenter"",""1"",""3026""
","
","","","","","","867","images/banana7.png","","","memory_trial","1","definitely_old",""
"html-keyboard-response","168","430189","0.0-18.0-0.62","5881","approach_avoid_sv1","""event"",""trial"",""time""
""fullscreenenter"",""1"",""3026""
","
","
","""event"",""trial"",""time""
""fullscreenenter"",""1"",""3026""
","
","","","","","","null","<div style=""font-size:60px;"">+</div>","null","","fixation","","",""
"memory-trial","169","432383","0.0-18.0-1.62","5881","approach_avoid_sv1","""event"",""trial"",""time""
""fullscreenenter"",""1"",""3026""
","
","
","""event"",""trial"",""time""
""fullscreenenter"",""1"",""3026""
","
","","","","","","1182.1999999284744","images/chair4.png","","","memory_trial","3","maybe_new",""
"html-keyboard-response","170","432890","0.0-18.0-0.63","5881","approach_avoid_sv1","""event"",""trial"",""time""
""fullscreenenter"",""1"",""3026""
","
","
","""event"",""trial"",""time""
""fullscreenenter"",""1"",""3026""
","
","","","","","","null","<div style=""font-size:60px;"">+</div>","null","","fixation","","",""
"memory-trial","171","436700","0.0-18.0-1.63","5881","approach_avoid_sv1","""event"",""trial"",""time""
""fullscreenenter"",""1"",""3026""
","
","
","""event"",""trial"",""time""
""fullscreenenter"",""1"",""3026""
","
","","","","","","2797.5999999046326","images/cow6.png","","","memory_trial","4","definitely_new",""
"html-keyboard-response","172","437209","0.0-18.0-0.64","5881","approach_avoid_sv1","""event"",""trial"",""time""
""fullscreenenter"",""1"",""3026""
","
","
","""event"",""trial"",""time""
""fullscreenenter"",""1"",""3026""
","
","","","","","","null","<div style=""font-size:60px;"">+</div>","null","","fixation","","",""
"memory-trial","173","439494","0.0-18.0-1.64","5881","approach_avoid_sv1","""event"",""trial"",""time""
""fullscreenenter"",""1"",""3026""
","
","
","""event"",""trial"",""time""
""fullscreenenter"",""1"",""3026""
","
","","","","","","1271.3999999761581","images/apple7.png","","","memory_trial","1","definitely_old",""
"html-keyboard-response","174","440006","0.0-18.0-0.65","5881","approach_avoid_sv1","""event"",""trial"",""time""
""fullscreenenter"",""1"",""3026""
","
","
","""event"",""trial"",""time""
""fullscreenenter"",""1"",""3026""
","
","","","","","","null","<div style=""font-size:60px;"">+</div>","null","","fixation","","",""
"memory-trial","175","442931","0.0-18.0-1.65","5881","approach_avoid_sv1","""event"",""trial"",""time""
""fullscreenenter"",""1"",""3026""
","
","
","""event"",""trial"",""time""
""fullscreenenter"",""1"",""3026""
","
","","","","","","1915.3999999761581","images/sofa7.png","","","memory_trial","4","definitely_new",""
"html-keyboard-response","176","443441","0.0-18.0-0.66","5881","approach_avoid_sv1","""event"",""trial"",""time""
""fullscreenenter"",""1"",""3026""
","
","
","""event"",""trial"",""time""
""fullscreenenter"",""1"",""3026""
","
","","","","","","null","<div style=""font-size:60px;"">+</div>","null","","fixation","","",""
"memory-trial","177","445968","0.0-18.0-1.66","5881","approach_avoid_sv1","""event"",""trial"",""time""
""fullscreenenter"",""1"",""3026""
","
","
","""event"",""trial"",""time""
""fullscreenenter"",""1"",""3026""
","
","","","","","","1501.5","images/goat8.png","","","memory_trial","1","definitely_old",""
"html-keyboard-response","178","446476","0.0-18.0-0.67","5881","approach_avoid_sv1","""event"",""trial"",""time""
""fullscreenenter"",""1"",""3026""
","
","
","""event"",""trial"",""time""
""fullscreenenter"",""1"",""3026""
","
","","","","","","null","<div style=""font-size:60px;"">+</div>","null","","fixation","","",""
"memory-trial","179","448850","0.0-18.0-1.67","5881","approach_avoid_sv1","""event"",""trial"",""time""
""fullscreenenter"",""1"",""3026""
","
","
","""event"",""trial"",""time""
""fullscreenenter"",""1"",""3026""
","
","","","","","","1364.5","images/sheep8.png","","","memory_trial","4","definitely_new",""
"html-keyboard-response","180","449360","0.0-18.0-0.68","5881","approach_avoid_sv1","""event"",""trial"",""time""
""fullscreenenter"",""1"",""3026""
","
","
","""event"",""trial"",""time""
""fullscreenenter"",""1"",""3026""
","
","","","","","","null","<div style=""font-size:60px;"">+</div>","null","","fixation","","",""
"memory-trial","181","451213","0.0-18.0-1.68","5881","approach_avoid_sv1","""event"",""trial"",""time""
""fullscreenenter"",""1"",""3026""
","
","
","""event"",""trial"",""time""
""fullscreenenter"",""1"",""3026""
","
","","","","","","840.7000000476837","images/orange1.png","","","memory_trial","1","definitely_old",""
"html-keyboard-response","182","451729","0.0-18.0-0.69","5881","approach_avoid_sv1","""event"",""trial"",""time""
""fullscreenenter"",""1"",""3026""
","
","
","""event"",""trial"",""time""
""fullscreenenter"",""1"",""3026""
","
","","","","","","null","<div style=""font-size:60px;"">+</div>","null","","fixation","","",""
"memory-trial","183","453897","0.0-18.0-1.69","5881","approach_avoid_sv1","""event"",""trial"",""time""
""fullscreenenter"",""1"",""3026""
","
","
","""event"",""trial"",""time""
""fullscreenenter"",""1"",""3026""
","
","","","","","","1157.8999999761581","images/goat1.png","","","memory_trial","1","definitely_old",""
"html-keyboard-response","184","454403","0.0-18.0-0.70","5881","approach_avoid_sv1","""event"",""trial"",""time""
""fullscreenenter"",""1"",""3026""
","
","
","""event"",""trial"",""time""
""fullscreenenter"",""1"",""3026""
","
","","","","","","null","<div style=""font-size:60px;"">+</div>","null","","fixation","","",""
"memory-trial","185","456479","0.0-18.0-1.70","5881","approach_avoid_sv1","""event"",""trial"",""time""
""fullscreenenter"",""1"",""3026""
","
","
","""event"",""trial"",""time""
""fullscreenenter"",""1"",""3026""
","
","","","","","","1059.5999999046326","images/goat4.png","","","memory_trial","4","definitely_new",""
"html-keyboard-response","186","456997","0.0-18.0-0.71","5881","approach_avoid_sv1","""event"",""trial"",""time""
""fullscreenenter"",""1"",""3026""
","
","
","""event"",""trial"",""time""
""fullscreenenter"",""1"",""3026""
","
","","","","","","null","<div style=""font-size:60px;"">+</div>","null","","fixation","","",""
"memory-trial","187","459968","0.0-18.0-1.71","5881","approach_avoid_sv1","""event"",""trial"",""time""
""fullscreenenter"",""1"",""3026""
","
","
","""event"",""trial"",""time""
""fullscreenenter"",""1"",""3026""
","
","","","","","","1953.7000000476837","images/truck4.png","","","memory_trial","1","definitely_old",""
"html-keyboard-response","188","460492","0.0-18.0-0.72","5881","approach_avoid_sv1","""event"",""trial"",""time""
""fullscreenenter"",""1"",""3026""
","
","
","""event"",""trial"",""time""
""fullscreenenter"",""1"",""3026""
","
","","","","","","null","<div style=""font-size:60px;"">+</div>","null","","fixation","","",""
"memory-trial","189","462571","0.0-18.0-1.72","5881","approach_avoid_sv1","""event"",""trial"",""time""
""fullscreenenter"",""1"",""3026""
","
","
","""event"",""trial"",""time""
""fullscreenenter"",""1"",""3026""
","
","","","","","","1056","images/cactus3.png","","","memory_trial","4","definitely_new",""
"html-keyboard-response","190","463078","0.0-18.0-0.73","5881","approach_avoid_sv1","""event"",""trial"",""time""
""fullscreenenter"",""1"",""3026""
","
","
","""event"",""trial"",""time""
""fullscreenenter"",""1"",""3026""
","
","","","","","","null","<div style=""font-size:60px;"">+</div>","null","","fixation","","",""
"memory-trial","191","465489","0.0-18.0-1.73","5881","approach_avoid_sv1","""event"",""trial"",""time""
""fullscreenenter"",""1"",""3026""
","
","
","""event"",""trial"",""time""
""fullscreenenter"",""1"",""3026""
","
","","","","","","1395","images/table5.png","","","memory_trial","4","definitely_new",""
"html-keyboard-response","192","466007","0.0-18.0-0.74","5881","approach_avoid_sv1","""event"",""trial"",""time""
""fullscreenenter"",""1"",""3026""
","
","
","""event"",""trial"",""time""
""fullscreenenter"",""1"",""3026""
","
","","","","","","null","<div style=""font-size:60px;"">+</div>","null","","fixation","","",""
"memory-trial","193","468805","0.0-18.0-1.74","5881","approach_avoid_sv1","""event"",""trial"",""time""
""fullscreenenter"",""1"",""3026""
","
","
","""event"",""trial"",""time""
""fullscreenenter"",""1"",""3026""
","
","","","","","","1783.4000000953674","images/orange5.png","","","memory_trial","1","definitely_old",""
"html-keyboard-response","194","469324","0.0-18.0-0.75","5881","approach_avoid_sv1","""event"",""trial"",""time""
""fullscreenenter"",""1"",""3026""
","
","
","""event"",""trial"",""time""
""fullscreenenter"",""1"",""3026""
","
","","","","","","null","<div style=""font-size:60px;"">+</div>","null","","fixation","","",""
"memory-trial","195","471269","0.0-18.0-1.75","5881","approach_avoid_sv1","""event"",""trial"",""time""
""fullscreenenter"",""1"",""3026""
","
","
","""event"",""trial"",""time""
""fullscreenenter"",""1"",""3026""
","
","","","","","","929.6000000238419","images/plane2.png","","","memory_trial","1","definitely_old",""
"html-keyboard-response","196","471778","0.0-18.0-0.76","5881","approach_avoid_sv1","""event"",""trial"",""time""
""fullscreenenter"",""1"",""3026""
","
","
","""event"",""trial"",""time""
""fullscreenenter"",""1"",""3026""
","
","","","","","","null","<div style=""font-size:60px;"">+</div>","null","","fixation","","",""
"memory-trial","197","474642","0.0-18.0-1.76","5881","approach_avoid_sv1","""event"",""trial"",""time""
""fullscreenenter"",""1"",""3026""
","
","
","""event"",""trial"",""time""
""fullscreenenter"",""1"",""3026""
","
","","","","","","1850.2999999523163","images/table7.png","","","memory_trial","3","maybe_new",""
"html-keyboard-response","198","475157","0.0-18.0-0.77","5881","approach_avoid_sv1","""event"",""trial"",""time""
""fullscreenenter"",""1"",""3026""
","
","
","""event"",""trial"",""time""
""fullscreenenter"",""1"",""3026""
","
","","","","","","null","<div style=""font-size:60px;"">+</div>","null","","fixation","","",""
"memory-trial","199","477816","0.0-18.0-1.77","5881","approach_avoid_sv1","""event"",""trial"",""time""
""fullscreenenter"",""1"",""3026""
","
","
","""event"",""trial"",""time""
""fullscreenenter"",""1"",""3026""
","
","","","","","","1639.3999999761581","images/straw2.png","","","memory_trial","4","definitely_new",""
"html-keyboard-response","200","478332","0.0-18.0-0.78","5881","approach_avoid_sv1","""event"",""trial"",""time""
""fullscreenenter"",""1"",""3026""
","
","
","""event"",""trial"",""time""
""fullscreenenter"",""1"",""3026""
","
","","","","","","null","<div style=""font-size:60px;"">+</div>","null","","fixation","","",""
"memory-trial","201","480414","0.0-18.0-1.78","5881","approach_avoid_sv1","""event"",""trial"",""time""
""fullscreenenter"",""1"",""3026""
","
","
","""event"",""trial"",""time""
""fullscreenenter"",""1"",""3026""
","
","","","","","","1072.6000000238419","images/flower7.png","","","memory_trial","1","definitely_old",""
"html-keyboard-response","202","480921","0.0-18.0-0.79","5881","approach_avoid_sv1","""event"",""trial"",""time""
""fullscreenenter"",""1"",""3026""
","
","
","""event"",""trial"",""time""
""fullscreenenter"",""1"",""3026""
","
","","","","","","null","<div style=""font-size:60px;"">+</div>","null","","fixation","","",""
"memory-trial","203","483196","0.0-18.0-1.79","5881","approach_avoid_sv1","""event"",""trial"",""time""
""fullscreenenter"",""1"",""3026""
","
","
","""event"",""trial"",""time""
""fullscreenenter"",""1"",""3026""
","
","","","","","","1254.3000000715256","images/apple2.png","","","memory_trial","3","maybe_new",""
"html-keyboard-response","204","483705","0.0-18.0-0.80","5881","approach_avoid_sv1","""event"",""trial"",""time""
""fullscreenenter"",""1"",""3026""
","
","
","""event"",""trial"",""time""
""fullscreenenter"",""1"",""3026""
","
","","","","","","null","<div style=""font-size:60px;"">+</div>","null","","fixation","","",""
"memory-trial","205","486350","0.0-18.0-1.80","5881","approach_avoid_sv1","""event"",""trial"",""time""
""fullscreenenter"",""1"",""3026""
","
","
","""event"",""trial"",""time""
""fullscreenenter"",""1"",""3026""
","
","","","","","","1625.2000000476837","images/banana3.png","","","memory_trial","4","definitely_new",""
"html-keyboard-response","206","486858","0.0-18.0-0.81","5881","approach_avoid_sv1","""event"",""trial"",""time""
""fullscreenenter"",""1"",""3026""
","
","
","""event"",""trial"",""time""
""fullscreenenter"",""1"",""3026""
","
","","","","","","null","<div style=""font-size:60px;"">+</div>","null","","fixation","","",""
"memory-trial","207","488848","0.0-18.0-1.81","5881","approach_avoid_sv1","""event"",""trial"",""time""
""fullscreenenter"",""1"",""3026""
","
","
","""event"",""trial"",""time""
""fullscreenenter"",""1"",""3026""
","
","","","","","","979.5","images/chair6.png","","","memory_trial","1","definitely_old",""
"html-keyboard-response","208","489362","0.0-18.0-0.82","5881","approach_avoid_sv1","""event"",""trial"",""time""
""fullscreenenter"",""1"",""3026""
","
","
","""event"",""trial"",""time""
""fullscreenenter"",""1"",""3026""
","
","","","","","","null","<div style=""font-size:60px;"">+</div>","null","","fixation","","",""
"memory-trial","209","492726","0.0-18.0-1.82","5881","approach_avoid_sv1","""event"",""trial"",""time""
""fullscreenenter"",""1"",""3026""
","
","
","""event"",""trial"",""time""
""fullscreenenter"",""1"",""3026""
","
","","","","","","2345.2000000476837","images/horse2.png","","","memory_trial","4","definitely_new",""
"html-keyboard-response","210","493232","0.0-18.0-0.83","5881","approach_avoid_sv1","""event"",""trial"",""time""
""fullscreenenter"",""1"",""3026""
","
","
","""event"",""trial"",""time""
""fullscreenenter"",""1"",""3026""
","
","","","","","","null","<div style=""font-size:60px;"">+</div>","null","","fixation","","",""
"memory-trial","211","496316","0.0-18.0-1.83","5881","approach_avoid_sv1","""event"",""trial"",""time""
""fullscreenenter"",""1"",""3026""
","
","
","""event"",""trial"",""time""
""fullscreenenter"",""1"",""3026""
","
","","","","","","2063.399999976158","images/cow2.png","","","memory_trial","1","definitely_old",""
"html-keyboard-response","212","496823","0.0-18.0-0.84","5881","approach_avoid_sv1","""event"",""trial"",""time""
""fullscreenenter"",""1"",""3026""
","
","
","""event"",""trial"",""time""
""fullscreenenter"",""1"",""3026""
","
","","","","","","null","<div style=""font-size:60px;"">+</div>","null","","fixation","","",""
"memory-trial","213","500427","0.0-18.0-1.84","5881","approach_avoid_sv1","""event"",""trial"",""time""
""fullscreenenter"",""1"",""3026""
","
","
","""event"",""trial"",""time""
""fullscreenenter"",""1"",""3026""
","
","","","","","","2590.899999976158","images/sofa3.png","","","memory_trial","4","definitely_new",""
"html-keyboard-response","214","500935","0.0-18.0-0.85","5881","approach_avoid_sv1","""event"",""trial"",""time""
""fullscreenenter"",""1"",""3026""
","
","
","""event"",""trial"",""time""
""fullscreenenter"",""1"",""3026""
","
","","","","","","null","<div style=""font-size:60px;"">+</div>","null","","fixation","","",""
"memory-trial","215","503211","0.0-18.0-1.85","5881","approach_avoid_sv1","""event"",""trial"",""time""
""fullscreenenter"",""1"",""3026""
","
","
","""event"",""trial"",""time""
""fullscreenenter"",""1"",""3026""
","
","","","","","","1260.3999999761581","images/sheep1.png","","","memory_trial","4","definitely_new",""
"html-keyboard-response","216","503724","0.0-18.0-0.86","5881","approach_avoid_sv1","""event"",""trial"",""time""
""fullscreenenter"",""1"",""3026""
","
","
","""event"",""trial"",""time""
""fullscreenenter"",""1"",""3026""
","
","","","","","","null","<div style=""font-size:60px;"">+</div>","null","","fixation","","",""
"memory-trial","217","506224","0.0-18.0-1.86","5881","approach_avoid_sv1","""event"",""trial"",""time""
""fullscreenenter"",""1"",""3026""
","
","
","""event"",""trial"",""time""
""fullscreenenter"",""1"",""3026""
","
","","","","","","1482.0999999046326","images/sheep7.png","","","memory_trial","4","definitely_new",""
"html-keyboard-response","218","506742","0.0-18.0-0.87","5881","approach_avoid_sv1","""event"",""trial"",""time""
""fullscreenenter"",""1"",""3026""
","
","
","""event"",""trial"",""time""
""fullscreenenter"",""1"",""3026""
","
","","","","","","null","<div style=""font-size:60px;"">+</div>","null","","fixation","","",""
"memory-trial","219","510227","0.0-18.0-1.87","5881","approach_avoid_sv1","""event"",""trial"",""time""
""fullscreenenter"",""1"",""3026""
","
","
","""event"",""trial"",""time""
""fullscreenenter"",""1"",""3026""
","
","","","","","","2460","images/train8.png","","","memory_trial","4","definitely_new",""
"html-keyboard-response","220","510746","0.0-18.0-0.88","5881","approach_avoid_sv1","""event"",""trial"",""time""
""fullscreenenter"",""1"",""3026""
","
","
","""event"",""trial"",""time""
""fullscreenenter"",""1"",""3026""
","
","","","","","","null","<div style=""font-size:60px;"">+</div>","null","","fixation","","",""
"memory-trial","221","513025","0.0-18.0-1.88","5881","approach_avoid_sv1","""event"",""trial"",""time""
""fullscreenenter"",""1"",""3026""
","
","
","""event"",""trial"",""time""
""fullscreenenter"",""1"",""3026""
","
","","","","","","1261.2999999523163","images/cow1.png","","","memory_trial","1","definitely_old",""
"html-keyboard-response","222","513535","0.0-18.0-0.89","5881","approach_avoid_sv1","""event"",""trial"",""time""
""fullscreenenter"",""1"",""3026""
","
","
","""event"",""trial"",""time""
""fullscreenenter"",""1"",""3026""
","
","","","","","","null","<div style=""font-size:60px;"">+</div>","null","","fixation","","",""
"memory-trial","223","515894","0.0-18.0-1.89","5881","approach_avoid_sv1","""event"",""trial"",""time""
""fullscreenenter"",""1"",""3026""
","
","
","""event"",""trial"",""time""
""fullscreenenter"",""1"",""3026""
","
","","","","","","1339.5","images/rabbit4.png","","","memory_trial","1","definitely_old",""
"html-keyboard-response","224","516400","0.0-18.0-0.90","5881","approach_avoid_sv1","""event"",""trial"",""time""
""fullscreenenter"",""1"",""3026""
","
","
","""event"",""trial"",""time""
""fullscreenenter"",""1"",""3026""
","
","","","","","","null","<div style=""font-size:60px;"">+</div>","null","","fixation","","",""
"memory-trial","225","518203","0.0-18.0-1.90","5881","approach_avoid_sv1","""event"",""trial"",""time""
""fullscreenenter"",""1"",""3026""
","
","
","""event"",""trial"",""time""
""fullscreenenter"",""1"",""3026""
","
","","","","","","776.8999999761581","images/boat8.png","","","memory_trial","1","definitely_old",""
"html-keyboard-response","226","518711","0.0-18.0-0.91","5881","approach_avoid_sv1","""event"",""trial"",""time""
""fullscreenenter"",""1"",""3026""
","
","
","""event"",""trial"",""time""
""fullscreenenter"",""1"",""3026""
","
","","","","","","null","<div style=""font-size:60px;"">+</div>","null","","fixation","","",""
"memory-trial","227","520386","0.0-18.0-1.91","5881","approach_avoid_sv1","""event"",""trial"",""time""
""fullscreenenter"",""1"",""3026""
","
","
","""event"",""trial"",""time""
""fullscreenenter"",""1"",""3026""
","
","","","","","","658.9000000953674","images/rabbit2.png","","","memory_trial","1","definitely_old",""
"html-button-response","228","580996","0.0-18.0-2.91-0.91","5881","approach_avoid_sv1","""event"",""trial"",""time""
""fullscreenenter"",""1"",""3026""
","
","
","""event"",""trial"",""time""
""fullscreenenter"",""1"",""3026""
","
","","","","","","60614.799999952316","<p> Take a break! </p><p> Click the button to continue. </p>","0","","break","","",""
"html-keyboard-response","229","581506","0.0-18.0-0.92","5881","approach_avoid_sv1","""event"",""trial"",""time""
""fullscreenenter"",""1"",""3026""
","
","
","""event"",""trial"",""time""
""fullscreenenter"",""1"",""3026""
","
","","","","","","null","<div style=""font-size:60px;"">+</div>","null","","fixation","","",""
"memory-trial","230","587300","0.0-18.0-1.92","5881","approach_avoid_sv1","""event"",""trial"",""time""
""fullscreenenter"",""1"",""3026""
","
","
","""event"",""trial"",""time""
""fullscreenenter"",""1"",""3026""
","
","","","","","","4783.5","images/truck8.png","","","memory_trial","3","maybe_new",""
"html-keyboard-response","231","587816","0.0-18.0-0.93","5881","approach_avoid_sv1","""event"",""trial"",""time""
""fullscreenenter"",""1"",""3026""
","
","
","""event"",""trial"",""time""
""fullscreenenter"",""1"",""3026""
","
","","","","","","null","<div style=""font-size:60px;"">+</div>","null","","fixation","","",""
"memory-trial","232","590325","0.0-18.0-1.93","5881","approach_avoid_sv1","""event"",""trial"",""time""
""fullscreenenter"",""1"",""3026""
","
","
","""event"",""trial"",""time""
""fullscreenenter"",""1"",""3026""
","
","","","","","","1493.8000000715256","images/bed3.png","","","memory_trial","3","maybe_new",""
"html-keyboard-response","233","590836","0.0-18.0-0.94","5881","approach_avoid_sv1","""event"",""trial"",""time""
""fullscreenenter"",""1"",""3026""
","
","
","""event"",""trial"",""time""
""fullscreenenter"",""1"",""3026""
","
","","","","","","null","<div style=""font-size:60px;"">+</div>","null","","fixation","","",""
"memory-trial","234","593270","0.0-18.0-1.94","5881","approach_avoid_sv1","""event"",""trial"",""time""
""fullscreenenter"",""1"",""3026""
","
","
","""event"",""trial"",""time""
""fullscreenenter"",""1"",""3026""
","
","","","","","","1416.2999999523163","images/orange6.png","","","memory_trial","4","definitely_new",""
"html-keyboard-response","235","593784","0.0-18.0-0.95","5881","approach_avoid_sv1","""event"",""trial"",""time""
""fullscreenenter"",""1"",""3026""
","
","
","""event"",""trial"",""time""
""fullscreenenter"",""1"",""3026""
","
","","","","","","null","<div style=""font-size:60px;"">+</div>","null","","fixation","","",""
"memory-trial","236","596477","0.0-18.0-1.95","5881","approach_avoid_sv1","""event"",""trial"",""time""
""fullscreenenter"",""1"",""3026""
","
","
","""event"",""trial"",""time""
""fullscreenenter"",""1"",""3026""
","
","","","","","","1681.3000000715256","images/sofa1.png","","","memory_trial","4","definitely_new",""
"html-keyboard-response","237","596989","0.0-18.0-0.96","5881","approach_avoid_sv1","""event"",""trial"",""time""
""fullscreenenter"",""1"",""3026""
","
","
","""event"",""trial"",""time""
""fullscreenenter"",""1"",""3026""
","
","","","","","","null","<div style=""font-size:60px;"">+</div>","null","","fixation","","",""
"memory-trial","238","599880","0.0-18.0-1.96","5881","approach_avoid_sv1","""event"",""trial"",""time""
""fullscreenenter"",""1"",""3026""
","
","
","""event"",""trial"",""time""
""fullscreenenter"",""1"",""3026""
","
","","","","","","1873.1999999284744","images/table1.png","","","memory_trial","3","maybe_new",""
"html-keyboard-response","239","600389","0.0-18.0-0.97","5881","approach_avoid_sv1","""event"",""trial"",""time""
""fullscreenenter"",""1"",""3026""
","
","
","""event"",""trial"",""time""
""fullscreenenter"",""1"",""3026""
","
","","","","","","null","<div style=""font-size:60px;"">+</div>","null","","fixation","","",""
"memory-trial","240","603094","0.0-18.0-1.97","5881","approach_avoid_sv1","""event"",""trial"",""time""
""fullscreenenter"",""1"",""3026""
","
","
","""event"",""trial"",""time""
""fullscreenenter"",""1"",""3026""
","
","","","","","","1689.3999999761581","images/sheep2.png","","","memory_trial","4","definitely_new",""
"html-keyboard-response","241","603609","0.0-18.0-0.98","5881","approach_avoid_sv1","""event"",""trial"",""time""
""fullscreenenter"",""1"",""3026""
","
","
","""event"",""trial"",""time""
""fullscreenenter"",""1"",""3026""
","
","","","","","","null","<div style=""font-size:60px;"">+</div>","null","","fixation","","",""
"memory-trial","242","605729","0.0-18.0-1.98","5881","approach_avoid_sv1","""event"",""trial"",""time""
""fullscreenenter"",""1"",""3026""
","
","
","""event"",""trial"",""time""
""fullscreenenter"",""1"",""3026""
","
","","","","","","1101.5","images/sofa6.png","","","memory_trial","4","definitely_new",""
"html-keyboard-response","243","606239","0.0-18.0-0.99","5881","approach_avoid_sv1","""event"",""trial"",""time""
""fullscreenenter"",""1"",""3026""
","
","
","""event"",""trial"",""time""
""fullscreenenter"",""1"",""3026""
","
","","","","","","null","<div style=""font-size:60px;"">+</div>","null","","fixation","","",""
"memory-trial","244","608702","0.0-18.0-1.99","5881","approach_avoid_sv1","""event"",""trial"",""time""
""fullscreenenter"",""1"",""3026""
","
","
","""event"",""trial"",""time""
""fullscreenenter"",""1"",""3026""
","
","","","","","","1445.3999999761581","images/truck2.png","","","memory_trial","1","definitely_old",""
"html-keyboard-response","245","609211","0.0-18.0-0.100","5881","approach_avoid_sv1","""event"",""trial"",""time""
""fullscreenenter"",""1"",""3026""
","
","
","""event"",""trial"",""time""
""fullscreenenter"",""1"",""3026""
","
","","","","","","null","<div style=""font-size:60px;"">+</div>","null","","fixation","","",""
"memory-trial","246","612365","0.0-18.0-1.100","5881","approach_avoid_sv1","""event"",""trial"",""time""
""fullscreenenter"",""1"",""3026""
","
","
","""event"",""trial"",""time""
""fullscreenenter"",""1"",""3026""
","
","","","","","","2134.2999999523163","images/cat7.png","","","memory_trial","3","maybe_new",""
"html-keyboard-response","247","612872","0.0-18.0-0.101","5881","approach_avoid_sv1","""event"",""trial"",""time""
""fullscreenenter"",""1"",""3026""
","
","
","""event"",""trial"",""time""
""fullscreenenter"",""1"",""3026""
","
","","","","","","null","<div style=""font-size:60px;"">+</div>","null","","fixation","","",""
"memory-trial","248","615073","0.0-18.0-1.101","5881","approach_avoid_sv1","""event"",""trial"",""time""
""fullscreenenter"",""1"",""3026""
","
","
","""event"",""trial"",""time""
""fullscreenenter"",""1"",""3026""
","
","","","","","","1190.1000000238419","images/bush4.png","","","memory_trial","4","definitely_new",""
"html-keyboard-response","249","615589","0.0-18.0-0.102","5881","approach_avoid_sv1","""event"",""trial"",""time""
""fullscreenenter"",""1"",""3026""
","
","
","""event"",""trial"",""time""
""fullscreenenter"",""1"",""3026""
","
","","","","","","null","<div style=""font-size:60px;"">+</div>","null","","fixation","","",""
"memory-trial","250","617513","0.0-18.0-1.102","5881","approach_avoid_sv1","""event"",""trial"",""time""
""fullscreenenter"",""1"",""3026""
","
","
","""event"",""trial"",""time""
""fullscreenenter"",""1"",""3026""
","
","","","","","","912.2999999523163","images/bush6.png","","","memory_trial","4","definitely_new",""
"html-keyboard-response","251","618021","0.0-18.0-0.103","5881","approach_avoid_sv1","""event"",""trial"",""time""
""fullscreenenter"",""1"",""3026""
","
","
","""event"",""trial"",""time""
""fullscreenenter"",""1"",""3026""
","
","","","","","","null","<div style=""font-size:60px;"">+</div>","null","","fixation","","",""
"memory-trial","252","619987","0.0-18.0-1.103","5881","approach_avoid_sv1","""event"",""trial"",""time""
""fullscreenenter"",""1"",""3026""
","
","
","""event"",""trial"",""time""
""fullscreenenter"",""1"",""3026""
","
","","","","","","955.1999999284744","images/plane7.png","","","memory_trial","1","definitely_old",""
"html-keyboard-response","253","620503","0.0-18.0-0.104","5881","approach_avoid_sv1","""event"",""trial"",""time""
""fullscreenenter"",""1"",""3026""
","
","
","""event"",""trial"",""time""
""fullscreenenter"",""1"",""3026""
","
","","","","","","null","<div style=""font-size:60px;"">+</div>","null","","fixation","","",""
"memory-trial","254","622487","0.0-18.0-1.104","5881","approach_avoid_sv1","""event"",""trial"",""time""
""fullscreenenter"",""1"",""3026""
","
","
","""event"",""trial"",""time""
""fullscreenenter"",""1"",""3026""
","
","","","","","","968.6999999284744","images/rodent1.png","","","memory_trial","1","definitely_old",""
"html-keyboard-response","255","622995","0.0-18.0-0.105","5881","approach_avoid_sv1","""event"",""trial"",""time""
""fullscreenenter"",""1"",""3026""
","
","
","""event"",""trial"",""time""
""fullscreenenter"",""1"",""3026""
","
","","","","","","null","<div style=""font-size:60px;"">+</div>","null","","fixation","","",""
"memory-trial","256","625493","0.0-18.0-1.105","5881","approach_avoid_sv1","""event"",""trial"",""time""
""fullscreenenter"",""1"",""3026""
","
","
","""event"",""trial"",""time""
""fullscreenenter"",""1"",""3026""
","
","","","","","","1475.1999999284744","images/horse1.png","","","memory_trial","4","definitely_new",""
"html-keyboard-response","257","626007","0.0-18.0-0.106","5881","approach_avoid_sv1","""event"",""trial"",""time""
""fullscreenenter"",""1"",""3026""
","
","
","""event"",""trial"",""time""
""fullscreenenter"",""1"",""3026""
","
","","","","","","null","<div style=""font-size:60px;"">+</div>","null","","fixation","","",""
"memory-trial","258","628389","0.0-18.0-1.106","5881","approach_avoid_sv1","""event"",""trial"",""time""
""fullscreenenter"",""1"",""3026""
","
","
","""event"",""trial"",""time""
""fullscreenenter"",""1"",""3026""
","
","","","","","","1371.8999999761581","images/table6.png","","","memory_trial","1","definitely_old",""
"html-keyboard-response","259","628897","0.0-18.0-0.107","5881","approach_avoid_sv1","""event"",""trial"",""time""
""fullscreenenter"",""1"",""3026""
","
","
","""event"",""trial"",""time""
""fullscreenenter"",""1"",""3026""
","
","","","","","","null","<div style=""font-size:60px;"">+</div>","null","","fixation","","",""
"memory-trial","260","631259","0.0-18.0-1.107","5881","approach_avoid_sv1","""event"",""trial"",""time""
""fullscreenenter"",""1"",""3026""
","
","
","""event"",""trial"",""time""
""fullscreenenter"",""1"",""3026""
","
","","","","","","1352.4000000953674","images/rodent5.png","","","memory_trial","4","definitely_new",""
"html-keyboard-response","261","631783","0.0-18.0-0.108","5881","approach_avoid_sv1","""event"",""trial"",""time""
""fullscreenenter"",""1"",""3026""
","
","
","""event"",""trial"",""time""
""fullscreenenter"",""1"",""3026""
","
","","","","","","null","<div style=""font-size:60px;"">+</div>","null","","fixation","","",""
"memory-trial","262","633533","0.0-18.0-1.108","5881","approach_avoid_sv1","""event"",""trial"",""time""
""fullscreenenter"",""1"",""3026""
","
","
","""event"",""trial"",""time""
""fullscreenenter"",""1"",""3026""
","
","","","","","","734.3999999761581","images/straw8.png","","","memory_trial","1","definitely_old",""
"html-keyboard-response","263","634050","0.0-18.0-0.109","5881","approach_avoid_sv1","""event"",""trial"",""time""
""fullscreenenter"",""1"",""3026""
","
","
","""event"",""trial"",""time""
""fullscreenenter"",""1"",""3026""
","
","","","","","","null","<div style=""font-size:60px;"">+</div>","null","","fixation","","",""
"memory-trial","264","636275","0.0-18.0-1.109","5881","approach_avoid_sv1","""event"",""trial"",""time""
""fullscreenenter"",""1"",""3026""
","
","
","""event"",""trial"",""time""
""fullscreenenter"",""1"",""3026""
","
","","","","","","1216","images/boat3.png","","","memory_trial","4","definitely_new",""
"html-keyboard-response","265","636790","0.0-18.0-0.110","5881","approach_avoid_sv1","""event"",""trial"",""time""
""fullscreenenter"",""1"",""3026""
","
","
","""event"",""trial"",""time""
""fullscreenenter"",""1"",""3026""
","
","","","","","","null","<div style=""font-size:60px;"">+</div>","null","","fixation","","",""
"memory-trial","266","640132","0.0-18.0-1.110","5881","approach_avoid_sv1","""event"",""trial"",""time""
""fullscreenenter"",""1"",""3026""
","
","
","""event"",""trial"",""time""
""fullscreenenter"",""1"",""3026""
","
","","","","","","2322.7999999523163","images/table4.png","","","memory_trial","3","maybe_new",""
"html-keyboard-response","267","640646","0.0-18.0-0.111","5881","approach_avoid_sv1","""event"",""trial"",""time""
""fullscreenenter"",""1"",""3026""
","
","
","""event"",""trial"",""time""
""fullscreenenter"",""1"",""3026""
","
","","","","","","null","<div style=""font-size:60px;"">+</div>","null","","fixation","","",""
"memory-trial","268","642693","0.0-18.0-1.111","5881","approach_avoid_sv1","""event"",""trial"",""time""
""fullscreenenter"",""1"",""3026""
","
","
","""event"",""trial"",""time""
""fullscreenenter"",""1"",""3026""
","
","","","","","","1025.6999999284744","images/dog2.png","","","memory_trial","1","definitely_old",""
"html-keyboard-response","269","643200","0.0-18.0-0.112","5881","approach_avoid_sv1","""event"",""trial"",""time""
""fullscreenenter"",""1"",""3026""
","
","
","""event"",""trial"",""time""
""fullscreenenter"",""1"",""3026""
","
","","","","","","null","<div style=""font-size:60px;"">+</div>","null","","fixation","","",""
"memory-trial","270","646360","0.0-18.0-1.112","5881","approach_avoid_sv1","""event"",""trial"",""time""
""fullscreenenter"",""1"",""3026""
","
","
","""event"",""trial"",""time""
""fullscreenenter"",""1"",""3026""
","
","","","","","","2148.7000000476837","images/plane3.png","","","memory_trial","3","maybe_new",""
"html-keyboard-response","271","646866","0.0-18.0-0.113","5881","approach_avoid_sv1","""event"",""trial"",""time""
""fullscreenenter"",""1"",""3026""
","
","
","""event"",""trial"",""time""
""fullscreenenter"",""1"",""3026""
","
","","","","","","null","<div style=""font-size:60px;"">+</div>","null","","fixation","","",""
"memory-trial","272","648993","0.0-18.0-1.113","5881","approach_avoid_sv1","""event"",""trial"",""time""
""fullscreenenter"",""1"",""3026""
","
","
","""event"",""trial"",""time""
""fullscreenenter"",""1"",""3026""
","
","","","","","","1106.6999999284744","images/bush7.png","","","memory_trial","2","maybe_old",""
"html-keyboard-response","273","649504","0.0-18.0-0.114","5881","approach_avoid_sv1","""event"",""trial"",""time""
""fullscreenenter"",""1"",""3026""
","
","
","""event"",""trial"",""time""
""fullscreenenter"",""1"",""3026""
","
","","","","","","null","<div style=""font-size:60px;"">+</div>","null","","fixation","","",""
"memory-trial","274","652066","0.0-18.0-1.114","5881","approach_avoid_sv1","""event"",""trial"",""time""
""fullscreenenter"",""1"",""3026""
","
","
","""event"",""trial"",""time""
""fullscreenenter"",""1"",""3026""
","
","","","","","","1542.6999999284744","images/truck5.png","","","memory_trial","4","definitely_new",""
"html-keyboard-response","275","652583","0.0-18.0-0.115","5881","approach_avoid_sv1","""event"",""trial"",""time""
""fullscreenenter"",""1"",""3026""
","
","
","""event"",""trial"",""time""
""fullscreenenter"",""1"",""3026""
","
","","","","","","null","<div style=""font-size:60px;"">+</div>","null","","fixation","","",""
"memory-trial","276","655245","0.0-18.0-1.115","5881","approach_avoid_sv1","""event"",""trial"",""time""
""fullscreenenter"",""1"",""3026""
","
","
","""event"",""trial"",""time""
""fullscreenenter"",""1"",""3026""
","
","","","","","","1647.6000000238419","images/apple4.png","","","memory_trial","1","definitely_old",""
"html-keyboard-response","277","655751","0.0-18.0-0.116","5881","approach_avoid_sv1","""event"",""trial"",""time""
""fullscreenenter"",""1"",""3026""
","
","
","""event"",""trial"",""time""
""fullscreenenter"",""1"",""3026""
","
","","","","","","null","<div style=""font-size:60px;"">+</div>","null","","fixation","","",""
"memory-trial","278","658567","0.0-18.0-1.116","5881","approach_avoid_sv1","""event"",""trial"",""time""
""fullscreenenter"",""1"",""3026""
","
","
","""event"",""trial"",""time""
""fullscreenenter"",""1"",""3026""
","
","","","","","","1800.8999999761581","images/horse5.png","","","memory_trial","1","definitely_old",""
"html-keyboard-response","279","659075","0.0-18.0-0.117","5881","approach_avoid_sv1","""event"",""trial"",""time""
""fullscreenenter"",""1"",""3026""
","
","
","""event"",""trial"",""time""
""fullscreenenter"",""1"",""3026""
","
","","","","","","null","<div style=""font-size:60px;"">+</div>","null","","fixation","","",""
"memory-trial","280","661129","0.0-18.0-1.117","5881","approach_avoid_sv1","""event"",""trial"",""time""
""fullscreenenter"",""1"",""3026""
","
","
","""event"",""trial"",""time""
""fullscreenenter"",""1"",""3026""
","
","","","","","","1041.8999999761581","images/train6.png","","","memory_trial","4","definitely_new",""
"html-keyboard-response","281","661646","0.0-18.0-0.118","5881","approach_avoid_sv1","""event"",""trial"",""time""
""fullscreenenter"",""1"",""3026""
","
","
","""event"",""trial"",""time""
""fullscreenenter"",""1"",""3026""
","
","","","","","","null","<div style=""font-size:60px;"">+</div>","null","","fixation","","",""
"memory-trial","282","663578","0.0-18.0-1.118","5881","approach_avoid_sv1","""event"",""trial"",""time""
""fullscreenenter"",""1"",""3026""
","
","
","""event"",""trial"",""time""
""fullscreenenter"",""1"",""3026""
","
","","","","","","916.7999999523163","images/chair2.png","","","memory_trial","1","definitely_old",""
"html-keyboard-response","283","664094","0.0-18.0-0.119","5881","approach_avoid_sv1","""event"",""trial"",""time""
""fullscreenenter"",""1"",""3026""
","
","
","""event"",""trial"",""time""
""fullscreenenter"",""1"",""3026""
","
","","","","","","null","<div style=""font-size:60px;"">+</div>","null","","fixation","","",""
"memory-trial","284","666614","0.0-18.0-1.119","5881","approach_avoid_sv1","""event"",""trial"",""time""
""fullscreenenter"",""1"",""3026""
","
","
","""event"",""trial"",""time""
""fullscreenenter"",""1"",""3026""
","
","","","","","","1502.1000000238419","images/goat7.png","","","memory_trial","4","definitely_new",""
"html-keyboard-response","285","667122","0.0-18.0-0.120","5881","approach_avoid_sv1","""event"",""trial"",""time""
""fullscreenenter"",""1"",""3026""
","
","
","""event"",""trial"",""time""
""fullscreenenter"",""1"",""3026""
","
","","","","","","null","<div style=""font-size:60px;"">+</div>","null","","fixation","","",""
"memory-trial","286","669168","0.0-18.0-1.120","5881","approach_avoid_sv1","""event"",""trial"",""time""
""fullscreenenter"",""1"",""3026""
","
","
","""event"",""trial"",""time""
""fullscreenenter"",""1"",""3026""
","
","","","","","","1039.6000000238419","images/train5.png","","","memory_trial","4","definitely_new",""
"html-keyboard-response","287","669673","0.0-18.0-0.121","5881","approach_avoid_sv1","""event"",""trial"",""time""
""fullscreenenter"",""1"",""3026""
","
","
","""event"",""trial"",""time""
""fullscreenenter"",""1"",""3026""
","
","","","","","","null","<div style=""font-size:60px;"">+</div>","null","","fixation","","",""
"memory-trial","288","671640","0.0-18.0-1.121","5881","approach_avoid_sv1","""event"",""trial"",""time""
""fullscreenenter"",""1"",""3026""
","
","
","""event"",""trial"",""time""
""fullscreenenter"",""1"",""3026""
","
","","","","","","953.8999999761581","images/horse7.png","","","memory_trial","4","definitely_new",""
"html-keyboard-response","289","672147","0.0-18.0-0.122","5881","approach_avoid_sv1","""event"",""trial"",""time""
""fullscreenenter"",""1"",""3026""
","
","
","""event"",""trial"",""time""
""fullscreenenter"",""1"",""3026""
","
","","","","","","null","<div style=""font-size:60px;"">+</div>","null","","fixation","","",""
"memory-trial","290","674485","0.0-18.0-1.122","5881","approach_avoid_sv1","""event"",""trial"",""time""
""fullscreenenter"",""1"",""3026""
","
","
","""event"",""trial"",""time""
""fullscreenenter"",""1"",""3026""
","
","","","","","","1321.3999999761581","images/rabbit7.png","","","memory_trial","1","definitely_old",""
"html-keyboard-response","291","674993","0.0-18.0-0.123","5881","approach_avoid_sv1","""event"",""trial"",""time""
""fullscreenenter"",""1"",""3026""
","
","
","""event"",""trial"",""time""
""fullscreenenter"",""1"",""3026""
","
","","","","","","null","<div style=""font-size:60px;"">+</div>","null","","fixation","","",""
"memory-trial","292","677334","0.0-18.0-1.123","5881","approach_avoid_sv1","""event"",""trial"",""time""
""fullscreenenter"",""1"",""3026""
","
","
","""event"",""trial"",""time""
""fullscreenenter"",""1"",""3026""
","
","","","","","","1321.8999999761581","images/bed7.png","","","memory_trial","1","definitely_old",""
"html-keyboard-response","293","677846","0.0-18.0-0.124","5881","approach_avoid_sv1","""event"",""trial"",""time""
""fullscreenenter"",""1"",""3026""
","
","
","""event"",""trial"",""time""
""fullscreenenter"",""1"",""3026""
","
","","","","","","null","<div style=""font-size:60px;"">+</div>","null","","fixation","","",""
"memory-trial","294","679741","0.0-18.0-1.124","5881","approach_avoid_sv1","""event"",""trial"",""time""
""fullscreenenter"",""1"",""3026""
","
","
","""event"",""trial"",""time""
""fullscreenenter"",""1"",""3026""
","
","","","","","","879.1999999284744","images/chair5.png","","","memory_trial","4","definitely_new",""
"html-keyboard-response","295","680261","0.0-18.0-0.125","5881","approach_avoid_sv1","""event"",""trial"",""time""
""fullscreenenter"",""1"",""3026""
","
","
","""event"",""trial"",""time""
""fullscreenenter"",""1"",""3026""
","
","","","","","","null","<div style=""font-size:60px;"">+</div>","null","","fixation","","",""
"memory-trial","296","682189","0.0-18.0-1.125","5881","approach_avoid_sv1","""event"",""trial"",""time""
""fullscreenenter"",""1"",""3026""
","
","
","""event"",""trial"",""time""
""fullscreenenter"",""1"",""3026""
","
","","","","","","909","images/apple8.png","","","memory_trial","1","definitely_old",""
