"trial_type","trial_index","time_elapsed","internal_node_id","subject_id","task_version","interactions","blur_events","focus_events","fullscreenenter_events","fullscreenexit_events","success","timeout","failed_images","failed_audio","failed_video","rt","stimulus","response","button_pressed","task_part","key_press","answer","correct"
"pavlovia","0","4","0.0-0.0","4364","approach_avoid_sv1","""event"",""trial"",""time""
""fullscreenenter"",""1"",""1767""
","
","
","""event"",""trial"",""time""
""fullscreenenter"",""1"",""1767""
","
","","","","","","","","","","","","",""
"fullscreen","1","2754","0.0-1.0","4364","approach_avoid_sv1","""event"",""trial"",""time""
""fullscreenenter"",""1"",""1767""
","
","
","""event"",""trial"",""time""
""fullscreenenter"",""1"",""1767""
","
","true","","","","","","","","","","","",""
"preload","2","4260","0.0-2.0","4364","approach_avoid_sv1","""event"",""trial"",""time""
""fullscreenenter"",""1"",""1767""
","
","
","""event"",""trial"",""time""
""fullscreenenter"",""1"",""1767""
","
","true","false","[]","[]","[]","","","","","","","",""
"preload","3","4978","0.0-3.0","4364","approach_avoid_sv1","""event"",""trial"",""time""
""fullscreenenter"",""1"",""1767""
","
","
","""event"",""trial"",""time""
""fullscreenenter"",""1"",""1767""
","
","true","false","[]","[]","[]","","","","","","","",""
"preload","4","5166","0.0-4.0","4364","approach_avoid_sv1","""event"",""trial"",""time""
""fullscreenenter"",""1"",""1767""
","
","
","""event"",""trial"",""time""
""fullscreenenter"",""1"",""1767""
","
","true","false","[]","[]","[]","","","","","","","",""
"audio-keyboard-response","5","9260","0.0-5.0","4364","approach_avoid_sv1","""event"",""trial"",""time""
""fullscreenenter"",""1"",""1767""
","
","
","""event"",""trial"",""time""
""fullscreenenter"",""1"",""1767""
","
","","","","","","4090.6666666666665","audio/beep_loop.wav"," ","","","","",""
"audio-button-response","6","10986","0.0-6.0","4364","approach_avoid_sv1","""event"",""trial"",""time""
""fullscreenenter"",""1"",""1767""
","
","
","""event"",""trial"",""time""
""fullscreenenter"",""1"",""1767""
","
","","","","","","1723","audio/turtle.wav","3","","","","",""
"audio-button-response","7","13112","0.0-7.0","4364","approach_avoid_sv1","""event"",""trial"",""time""
""fullscreenenter"",""1"",""1767""
","
","
","""event"",""trial"",""time""
""fullscreenenter"",""1"",""1767""
","
","","","","","","1115","audio/shark.wav","2","","","","",""
"preload","8","15533","0.0-8.0","4364","approach_avoid_sv1","""event"",""trial"",""time""
""fullscreenenter"",""1"",""1767""
","
","
","""event"",""trial"",""time""
""fullscreenenter"",""1"",""1767""
","
","true","false","[]","[]","[]","","","","","","","",""
"learning-instructions","9","21347","0.0-9.0-0.0","4364","approach_avoid_sv1","""event"",""trial"",""time""
""fullscreenenter"",""1"",""1767""
","
","
","""event"",""trial"",""time""
""fullscreenenter"",""1"",""1767""
","
","","","","","","1333.5","<p> Welcome back! </p><p> Last week, you had to make choices about lots of different items.  </p>","","0","instructions","","",""
"learning-instructions","10","25897","0.0-9.0-0.1","4364","approach_avoid_sv1","""event"",""trial"",""time""
""fullscreenenter"",""1"",""1767""
","
","
","""event"",""trial"",""time""
""fullscreenenter"",""1"",""1767""
","
","","","","","","429.2000000476837","<p> Today, we are going to ask you to try to remember all the items. </p>","","0","instructions","","",""
"learning-instructions","11","36455","0.0-9.0-0.2","4364","approach_avoid_sv1","""event"",""trial"",""time""
""fullscreenenter"",""1"",""1767""
","
","
","""event"",""trial"",""time""
""fullscreenenter"",""1"",""1767""
","
","","","","","","422","<p> On every trial, you will see an image. </p><p> The image may be an OLD image you saw during the games last week or it may be a NEW image that was not presented. </p>","","0","instructions","","",""
"learning-instructions","12","45559","0.0-9.0-0.3","4364","approach_avoid_sv1","""event"",""trial"",""time""
""fullscreenenter"",""1"",""1767""
","
","
","""event"",""trial"",""time""
""fullscreenenter"",""1"",""1767""
","
","","","","","","603.7999999523163","<p> You need to select whether the image is:  </p><p>  'Definitely old', 'Maybe old', 'Maybe new', or 'Definitely new.'  </p><div class=""mem-choice-instructions-grid""><div class=""choice-option"" id=""choice-option-1"" ><img src=""images/definitely_old_1.png"" id=""choice-option-img-1"" class=""choice-option-img"" stage=""1""></div><div class=""choice-option"" id=""choice-option-2"" ><img src=""images/maybe_old_1.png"" id=""choice-option-img-2"" class=""choice-option-img"" stage=""1""></div><div class=""choice-option"" id=""choice-option-3"" ><img src=""images/maybe_new_1.png"" id=""choice-option-img-3"" class=""choice-option-img"" stage=""1""></div><div class=""choice-option"" id=""choice-option-4"" > <img src=""images/definitely_new_1.png"" id=""choice-option-img-4"" class=""choice-option-img"" stage=""1""></div></div>","","0","instructions","","",""
"learning-instructions","13","52547","0.0-9.0-0.4","4364","approach_avoid_sv1","""event"",""trial"",""time""
""fullscreenenter"",""1"",""1767""
","
","
","""event"",""trial"",""time""
""fullscreenenter"",""1"",""1767""
","
","","","","","","471.7000000476837","<p> You should use the 1, 2, 3, and 4 keys to make your responses.  </p><div class=""mem-choice-instructions-grid""><div class=""choice-option"" id=""choice-option-1"" ><img src=""images/definitely_old.png"" id=""choice-option-img-1"" class=""choice-option-img"" stage=""1""></div><div class=""choice-option"" id=""choice-option-2"" ><img src=""images/maybe_old.png"" id=""choice-option-img-2"" class=""choice-option-img"" stage=""1""></div><div class=""choice-option"" id=""choice-option-3"" ><img src=""images/maybe_new.png"" id=""choice-option-img-3"" class=""choice-option-img"" stage=""1""></div><div class=""choice-option"" id=""choice-option-4"" > <img src=""images/definitely_new.png"" id=""choice-option-img-4"" class=""choice-option-img"" stage=""1""></div></div>","","0","instructions","","",""
"learning-instructions","14","59384","0.0-9.0-0.5","4364","approach_avoid_sv1","""event"",""trial"",""time""
""fullscreenenter"",""1"",""1767""
","
","
","""event"",""trial"",""time""
""fullscreenenter"",""1"",""1767""
","
","","","","","","505","<p> You will have 10 seconds to make each response.  </p><p>  Make sure to respond before time runs out! </p>","","0","instructions","","",""
"learning-instructions","15","66934","0.0-9.0-0.6","4364","approach_avoid_sv1","""event"",""trial"",""time""
""fullscreenenter"",""1"",""1767""
","
","
","""event"",""trial"",""time""
""fullscreenenter"",""1"",""1767""
","
","","","","","","466.0999999642372","<p> Today, you will see each image ONCE only.  </p><p>  That means none of the images will repeat. </p>","","0","instructions","","",""
"learning-instructions","16","80300","0.0-9.0-0.7","4364","approach_avoid_sv1","""event"",""trial"",""time""
""fullscreenenter"",""1"",""1767""
","
","
","""event"",""trial"",""time""
""fullscreenenter"",""1"",""1767""
","
","","","","","","696.7000000476837","<p> Before you play the real game, it is time to practice. </p><p>  Just like in the real game, some of the images in the practice will be ones you have seen before. </p><p>  Others will be entirely new. </p>","","0","instructions","","",""
"html-button-response","17","82006","0.0-10.0","4364","approach_avoid_sv1","""event"",""trial"",""time""
""fullscreenenter"",""1"",""1767""
","
","
","""event"",""trial"",""time""
""fullscreenenter"",""1"",""1767""
","
","","","","","","1600.6000000238419","<p> Ready to practice? </p><p> Remember, use the 1, 2, 3, and 4 keys to make your responses. </p>","0","","instructions","","",""
"html-keyboard-response","18","82611","0.0-11.0-0.0","4364","approach_avoid_sv1","""event"",""trial"",""time""
""fullscreenenter"",""1"",""1767""
","
","
","""event"",""trial"",""time""
""fullscreenenter"",""1"",""1767""
","
","","","","","","null","<div style=""font-size:60px;"">+</div>","null","","fixation","","",""
"memory-trial","19","85852","0.0-11.0-1.0","4364","approach_avoid_sv1","""event"",""trial"",""time""
""fullscreenenter"",""1"",""1767""
","
","
","""event"",""trial"",""time""
""fullscreenenter"",""1"",""1767""
","
","","","","","","2230.599999964237","images/ball5.png","","","practice","3","maybe_new",""
"html-keyboard-response","20","86355","0.0-11.0-0.1","4364","approach_avoid_sv1","""event"",""trial"",""time""
""fullscreenenter"",""1"",""1767""
","
","
","""event"",""trial"",""time""
""fullscreenenter"",""1"",""1767""
","
","","","","","","null","<div style=""font-size:60px;"">+</div>","null","","fixation","","",""
"memory-trial","21","89111","0.0-11.0-1.1","4364","approach_avoid_sv1","""event"",""trial"",""time""
""fullscreenenter"",""1"",""1767""
","
","
","""event"",""trial"",""time""
""fullscreenenter"",""1"",""1767""
","
","","","","","","1741.4000000357628","images/ball1.png","","","practice","1","definitely_old",""
"html-keyboard-response","22","89622","0.0-11.0-0.2","4364","approach_avoid_sv1","""event"",""trial"",""time""
""fullscreenenter"",""1"",""1767""
","
","
","""event"",""trial"",""time""
""fullscreenenter"",""1"",""1767""
","
","","","","","","null","<div style=""font-size:60px;"">+</div>","null","","fixation","","",""
"memory-trial","23","93459","0.0-11.0-1.2","4364","approach_avoid_sv1","""event"",""trial"",""time""
""fullscreenenter"",""1"",""1767""
","
","
","""event"",""trial"",""time""
""fullscreenenter"",""1"",""1767""
","
","","","","","","2825.399999976158","images/ball2.png","","","practice","3","maybe_new",""
"html-keyboard-response","24","93963","0.0-11.0-0.3","4364","approach_avoid_sv1","""event"",""trial"",""time""
""fullscreenenter"",""1"",""1767""
","
","
","""event"",""trial"",""time""
""fullscreenenter"",""1"",""1767""
","
","","","","","","null","<div style=""font-size:60px;"">+</div>","null","","fixation","","",""
"memory-trial","25","96214","0.0-11.0-1.3","4364","approach_avoid_sv1","""event"",""trial"",""time""
""fullscreenenter"",""1"",""1767""
","
","
","""event"",""trial"",""time""
""fullscreenenter"",""1"",""1767""
","
","","","","","","1240.300000011921","images/racket5.png","","","practice","4","definitely_new",""
"html-keyboard-response","26","96722","0.0-11.0-0.4","4364","approach_avoid_sv1","""event"",""trial"",""time""
""fullscreenenter"",""1"",""1767""
","
","
","""event"",""trial"",""time""
""fullscreenenter"",""1"",""1767""
","
","","","","","","null","<div style=""font-size:60px;"">+</div>","null","","fixation","","",""
"memory-trial","27","99035","0.0-11.0-1.4","4364","approach_avoid_sv1","""event"",""trial"",""time""
""fullscreenenter"",""1"",""1767""
","
","
","""event"",""trial"",""time""
""fullscreenenter"",""1"",""1767""
","
","","","","","","1300.2999999523163","images/racket2.png","","","practice","4","definitely_new",""
"html-keyboard-response","28","99538","0.0-11.0-0.5","4364","approach_avoid_sv1","""event"",""trial"",""time""
""fullscreenenter"",""1"",""1767""
","
","
","""event"",""trial"",""time""
""fullscreenenter"",""1"",""1767""
","
","","","","","","null","<div style=""font-size:60px;"">+</div>","null","","fixation","","",""
"memory-trial","29","101739","0.0-11.0-1.5","4364","approach_avoid_sv1","""event"",""trial"",""time""
""fullscreenenter"",""1"",""1767""
","
","
","""event"",""trial"",""time""
""fullscreenenter"",""1"",""1767""
","
","","","","","","1188.8999999761581","images/ball3.png","","","practice","4","definitely_new",""
"html-keyboard-response","30","102245","0.0-11.0-0.6","4364","approach_avoid_sv1","""event"",""trial"",""time""
""fullscreenenter"",""1"",""1767""
","
","
","""event"",""trial"",""time""
""fullscreenenter"",""1"",""1767""
","
","","","","","","null","<div style=""font-size:60px;"">+</div>","null","","fixation","","",""
"memory-trial","31","103922","0.0-11.0-1.6","4364","approach_avoid_sv1","""event"",""trial"",""time""
""fullscreenenter"",""1"",""1767""
","
","
","""event"",""trial"",""time""
""fullscreenenter"",""1"",""1767""
","
","","","","","","669.8000000119209","images/racket3.png","","","practice","4","definitely_new",""
"html-keyboard-response","32","104426","0.0-11.0-0.7","4364","approach_avoid_sv1","""event"",""trial"",""time""
""fullscreenenter"",""1"",""1767""
","
","
","""event"",""trial"",""time""
""fullscreenenter"",""1"",""1767""
","
","","","","","","null","<div style=""font-size:60px;"">+</div>","null","","fixation","","",""
"memory-trial","33","106770","0.0-11.0-1.7","4364","approach_avoid_sv1","""event"",""trial"",""time""
""fullscreenenter"",""1"",""1767""
","
","
","""event"",""trial"",""time""
""fullscreenenter"",""1"",""1767""
","
","","","","","","1333.0999999642372","images/racket1.png","","","practice","2","maybe_old",""
"learning-instructions","34","115426","0.0-12.0-0.0","4364","approach_avoid_sv1","""event"",""trial"",""time""
""fullscreenenter"",""1"",""1767""
","
","
","""event"",""trial"",""time""
""fullscreenenter"",""1"",""1767""
","
","","","","","","1346.199999988079","<p> Great! You have completed the practice. </p><p> Before you start, we're going to ask you a few questions about how the game works.  </p>","","0","instructions","","",""
"preload","35","116669","0.0-13.0","4364","approach_avoid_sv1","""event"",""trial"",""time""
""fullscreenenter"",""1"",""1767""
","
","
","""event"",""trial"",""time""
""fullscreenenter"",""1"",""1767""
","
","true","false","[]","[]","[]","","","","","","","",""
"comp-q","36","123453","0.0-14.0-0.0","4364","approach_avoid_sv1","""event"",""trial"",""time""
""fullscreenenter"",""1"",""1767""
","
","
","""event"",""trial"",""time""
""fullscreenenter"",""1"",""1767""
","
","","","","","","951.8000000119209","<p> <b> True or False? </b> </p><p> In this game, you will only see each image once. </p>","","0","comp_question","","","true"
"comp-q","37","130510","0.0-14.0-1.0","4364","approach_avoid_sv1","""event"",""trial"",""time""
""fullscreenenter"",""1"",""1767""
","
","
","""event"",""trial"",""time""
""fullscreenenter"",""1"",""1767""
","
","","","","","","712.3000000119209","<p> <b> That's right! </b> You will see many different images <i> one time each </i> in this game. </p>","","0","comp_answer","","",""
"comp-q","38","138569","0.0-15.0-0.0","4364","approach_avoid_sv1","""event"",""trial"",""time""
""fullscreenenter"",""1"",""1767""
","
","
","""event"",""trial"",""time""
""fullscreenenter"",""1"",""1767""
","
","","","","","","3045.100000023842","<p> <b> True or False? </b> </p><p> You should use the mouse and click to make your response. </p>","","1","comp_question","","","true"
"comp-q","39","145977","0.0-15.0-1.0","4364","approach_avoid_sv1","""event"",""trial"",""time""
""fullscreenenter"",""1"",""1767""
","
","
","""event"",""trial"",""time""
""fullscreenenter"",""1"",""1767""
","
","","","","","","902.3000000119209","<p><b> That's right! </b> You should use the '1', '2', '3', and '4' keys to make your response. </p>","","0","comp_answer","","",""
"comp-q","40","152372","0.0-16.0-0.0","4364","approach_avoid_sv1","""event"",""trial"",""time""
""fullscreenenter"",""1"",""1767""
","
","
","""event"",""trial"",""time""
""fullscreenenter"",""1"",""1767""
","
","","","","","","716.1999999880791","<p> <b> True or False? </b> </p><p> You will have as much time as you want to make each choice. </p>","","1","comp_question","","","true"
"comp-q","41","157903","0.0-16.0-1.0","4364","approach_avoid_sv1","""event"",""trial"",""time""
""fullscreenenter"",""1"",""1767""
","
","
","""event"",""trial"",""time""
""fullscreenenter"",""1"",""1767""
","
","","","","","","828.6999999880791","<p> <b> That's right! </b> You will only have 10 seconds to make each choice. </p>","","0","comp_answer","","",""
"learning-instructions","42","167917","0.0-17.0","4364","approach_avoid_sv1","""event"",""trial"",""time""
""fullscreenenter"",""1"",""1767""
","
","
","""event"",""trial"",""time""
""fullscreenenter"",""1"",""1767""
","
","","","","","","1345.199999988079","<p> Great! You are now ready to begin the game. </p><p> Remember, use the 1, 2, 3, and 4 keys to make your responses. </p>","","0","instructions","","",""
"html-keyboard-response","43","168534","0.0-18.0-0.0","4364","approach_avoid_sv1","""event"",""trial"",""time""
""fullscreenenter"",""1"",""1767""
","
","
","""event"",""trial"",""time""
""fullscreenenter"",""1"",""1767""
","
","","","","","","null","<div style=""font-size:60px;"">+</div>","null","","fixation","","",""
"memory-trial","44","172144","0.0-18.0-1.0","4364","approach_avoid_sv1","""event"",""trial"",""time""
""fullscreenenter"",""1"",""1767""
","
","
","""event"",""trial"",""time""
""fullscreenenter"",""1"",""1767""
","
","","","","","","2596.899999976158","images/flower6.png","","","memory_trial","3","maybe_new",""
"html-keyboard-response","45","172656","0.0-18.0-0.1","4364","approach_avoid_sv1","""event"",""trial"",""time""
""fullscreenenter"",""1"",""1767""
","
","
","""event"",""trial"",""time""
""fullscreenenter"",""1"",""1767""
","
","","","","","","null","<div style=""font-size:60px;"">+</div>","null","","fixation","","",""
"memory-trial","46","175045","0.0-18.0-1.1","4364","approach_avoid_sv1","""event"",""trial"",""time""
""fullscreenenter"",""1"",""1767""
","
","
","""event"",""trial"",""time""
""fullscreenenter"",""1"",""1767""
","
","","","","","","1384.3999999761581","images/chair8.png","","","memory_trial","2","maybe_old",""
"html-keyboard-response","47","175550","0.0-18.0-0.2","4364","approach_avoid_sv1","""event"",""trial"",""time""
""fullscreenenter"",""1"",""1767""
","
","
","""event"",""trial"",""time""
""fullscreenenter"",""1"",""1767""
","
","","","","","","null","<div style=""font-size:60px;"">+</div>","null","","fixation","","",""
"memory-trial","48","177561","0.0-18.0-1.2","4364","approach_avoid_sv1","""event"",""trial"",""time""
""fullscreenenter"",""1"",""1767""
","
","
","""event"",""trial"",""time""
""fullscreenenter"",""1"",""1767""
","
","","","","","","1000","images/straw2.png","","","memory_trial","1","definitely_old",""
"html-keyboard-response","49","178069","0.0-18.0-0.3","4364","approach_avoid_sv1","""event"",""trial"",""time""
""fullscreenenter"",""1"",""1767""
","
","
","""event"",""trial"",""time""
""fullscreenenter"",""1"",""1767""
","
","","","","","","null","<div style=""font-size:60px;"">+</div>","null","","fixation","","",""
"memory-trial","50","181669","0.0-18.0-1.3","4364","approach_avoid_sv1","""event"",""trial"",""time""
""fullscreenenter"",""1"",""1767""
","
","
","""event"",""trial"",""time""
""fullscreenenter"",""1"",""1767""
","
","","","","","","2592.5","images/goat6.png","","","memory_trial","2","maybe_old",""
"html-keyboard-response","51","182174","0.0-18.0-0.4","4364","approach_avoid_sv1","""event"",""trial"",""time""
""fullscreenenter"",""1"",""1767""
","
","
","""event"",""trial"",""time""
""fullscreenenter"",""1"",""1767""
","
","","","","","","null","<div style=""font-size:60px;"">+</div>","null","","fixation","","",""
"memory-trial","52","184536","0.0-18.0-1.4","4364","approach_avoid_sv1","""event"",""trial"",""time""
""fullscreenenter"",""1"",""1767""
","
","
","""event"",""trial"",""time""
""fullscreenenter"",""1"",""1767""
","
","","","","","","1349.5","images/flower1.png","","","memory_trial","4","definitely_new",""
"html-keyboard-response","53","185044","0.0-18.0-0.5","4364","approach_avoid_sv1","""event"",""trial"",""time""
""fullscreenenter"",""1"",""1767""
","
","
","""event"",""trial"",""time""
""fullscreenenter"",""1"",""1767""
","
","","","","","","null","<div style=""font-size:60px;"">+</div>","null","","fixation","","",""
"memory-trial","54","187165","0.0-18.0-1.5","4364","approach_avoid_sv1","""event"",""trial"",""time""
""fullscreenenter"",""1"",""1767""
","
","
","""event"",""trial"",""time""
""fullscreenenter"",""1"",""1767""
","
","","","","","","1115.699999988079","images/orange6.png","","","memory_trial","4","definitely_new",""
"html-keyboard-response","55","187672","0.0-18.0-0.6","4364","approach_avoid_sv1","""event"",""trial"",""time""
""fullscreenenter"",""1"",""1767""
","
","
","""event"",""trial"",""time""
""fullscreenenter"",""1"",""1767""
","
","","","","","","null","<div style=""font-size:60px;"">+</div>","null","","fixation","","",""
"memory-trial","56","189624","0.0-18.0-1.6","4364","approach_avoid_sv1","""event"",""trial"",""time""
""fullscreenenter"",""1"",""1767""
","
","
","""event"",""trial"",""time""
""fullscreenenter"",""1"",""1767""
","
","","","","","","938.3000000119209","images/rabbit8.png","","","memory_trial","1","definitely_old",""
"html-keyboard-response","57","190136","0.0-18.0-0.7","4364","approach_avoid_sv1","""event"",""trial"",""time""
""fullscreenenter"",""1"",""1767""
","
","
","""event"",""trial"",""time""
""fullscreenenter"",""1"",""1767""
","
","","","","","","null","<div style=""font-size:60px;"">+</div>","null","","fixation","","",""
"memory-trial","58","192308","0.0-18.0-1.7","4364","approach_avoid_sv1","""event"",""trial"",""time""
""fullscreenenter"",""1"",""1767""
","
","
","""event"",""trial"",""time""
""fullscreenenter"",""1"",""1767""
","
","","","","","","1164.5","images/cactus5.png","","","memory_trial","2","maybe_old",""
"html-keyboard-response","59","192815","0.0-18.0-0.8","4364","approach_avoid_sv1","""event"",""trial"",""time""
""fullscreenenter"",""1"",""1767""
","
","
","""event"",""trial"",""time""
""fullscreenenter"",""1"",""1767""
","
","","","","","","null","<div style=""font-size:60px;"">+</div>","null","","fixation","","",""
"memory-trial","60","194767","0.0-18.0-1.8","4364","approach_avoid_sv1","""event"",""trial"",""time""
""fullscreenenter"",""1"",""1767""
","
","
","""event"",""trial"",""time""
""fullscreenenter"",""1"",""1767""
","
","","","","","","946.7999999523163","images/goat4.png","","","memory_trial","1","definitely_old",""
"html-keyboard-response","61","195276","0.0-18.0-0.9","4364","approach_avoid_sv1","""event"",""trial"",""time""
""fullscreenenter"",""1"",""1767""
","
","
","""event"",""trial"",""time""
""fullscreenenter"",""1"",""1767""
","
","","","","","","null","<div style=""font-size:60px;"">+</div>","null","","fixation","","",""
"memory-trial","62","197461","0.0-18.0-1.9","4364","approach_avoid_sv1","""event"",""trial"",""time""
""fullscreenenter"",""1"",""1767""
","
","
","""event"",""trial"",""time""
""fullscreenenter"",""1"",""1767""
","
","","","","","","1174.8999999761581","images/sheep1.png","","","memory_trial","3","maybe_new",""
"html-keyboard-response","63","197964","0.0-18.0-0.10","4364","approach_avoid_sv1","""event"",""trial"",""time""
""fullscreenenter"",""1"",""1767""
","
","
","""event"",""trial"",""time""
""fullscreenenter"",""1"",""1767""
","
","","","","","","null","<div style=""font-size:60px;"">+</div>","null","","fixation","","",""
"memory-trial","64","200140","0.0-18.0-1.10","4364","approach_avoid_sv1","""event"",""trial"",""time""
""fullscreenenter"",""1"",""1767""
","
","
","""event"",""trial"",""time""
""fullscreenenter"",""1"",""1767""
","
","","","","","","1164.699999988079","images/cat4.png","","","memory_trial","4","definitely_new",""
"html-keyboard-response","65","200645","0.0-18.0-0.11","4364","approach_avoid_sv1","""event"",""trial"",""time""
""fullscreenenter"",""1"",""1767""
","
","
","""event"",""trial"",""time""
""fullscreenenter"",""1"",""1767""
","
","","","","","","null","<div style=""font-size:60px;"">+</div>","null","","fixation","","",""
"memory-trial","66","202653","0.0-18.0-1.11","4364","approach_avoid_sv1","""event"",""trial"",""time""
""fullscreenenter"",""1"",""1767""
","
","
","""event"",""trial"",""time""
""fullscreenenter"",""1"",""1767""
","
","","","","","","997.3999999761581","images/truck6.png","","","memory_trial","1","definitely_old",""
"html-keyboard-response","67","203156","0.0-18.0-0.12","4364","approach_avoid_sv1","""event"",""trial"",""time""
""fullscreenenter"",""1"",""1767""
","
","
","""event"",""trial"",""time""
""fullscreenenter"",""1"",""1767""
","
","","","","","","null","<div style=""font-size:60px;"">+</div>","null","","fixation","","",""
"memory-trial","68","205364","0.0-18.0-1.12","4364","approach_avoid_sv1","""event"",""trial"",""time""
""fullscreenenter"",""1"",""1767""
","
","
","""event"",""trial"",""time""
""fullscreenenter"",""1"",""1767""
","
","","","","","","1198.5999999642372","images/dog1.png","","","memory_trial","3","maybe_new",""
"html-keyboard-response","69","205868","0.0-18.0-0.13","4364","approach_avoid_sv1","""event"",""trial"",""time""
""fullscreenenter"",""1"",""1767""
","
","
","""event"",""trial"",""time""
""fullscreenenter"",""1"",""1767""
","
","","","","","","null","<div style=""font-size:60px;"">+</div>","null","","fixation","","",""
"memory-trial","70","208260","0.0-18.0-1.13","4364","approach_avoid_sv1","""event"",""trial"",""time""
""fullscreenenter"",""1"",""1767""
","
","
","""event"",""trial"",""time""
""fullscreenenter"",""1"",""1767""
","
","","","","","","1384.2999999523163","images/plane5.png","","","memory_trial","2","maybe_old",""
"html-keyboard-response","71","208764","0.0-18.0-0.14","4364","approach_avoid_sv1","""event"",""trial"",""time""
""fullscreenenter"",""1"",""1767""
","
","
","""event"",""trial"",""time""
""fullscreenenter"",""1"",""1767""
","
","","","","","","null","<div style=""font-size:60px;"">+</div>","null","","fixation","","",""
"memory-trial","72","210892","0.0-18.0-1.14","4364","approach_avoid_sv1","""event"",""trial"",""time""
""fullscreenenter"",""1"",""1767""
","
","
","""event"",""trial"",""time""
""fullscreenenter"",""1"",""1767""
","
","","","","","","1116.699999988079","images/train2.png","","","memory_trial","3","maybe_new",""
"html-keyboard-response","73","211396","0.0-18.0-0.15","4364","approach_avoid_sv1","""event"",""trial"",""time""
""fullscreenenter"",""1"",""1767""
","
","
","""event"",""trial"",""time""
""fullscreenenter"",""1"",""1767""
","
","","","","","","null","<div style=""font-size:60px;"">+</div>","null","","fixation","","",""
"memory-trial","74","213555","0.0-18.0-1.15","4364","approach_avoid_sv1","""event"",""trial"",""time""
""fullscreenenter"",""1"",""1767""
","
","
","""event"",""trial"",""time""
""fullscreenenter"",""1"",""1767""
","
","","","","","","1151.4000000357628","images/rodent3.png","","","memory_trial","1","definitely_old",""
"html-keyboard-response","75","214060","0.0-18.0-0.16","4364","approach_avoid_sv1","""event"",""trial"",""time""
""fullscreenenter"",""1"",""1767""
","
","
","""event"",""trial"",""time""
""fullscreenenter"",""1"",""1767""
","
","","","","","","null","<div style=""font-size:60px;"">+</div>","null","","fixation","","",""
"memory-trial","76","216219","0.0-18.0-1.16","4364","approach_avoid_sv1","""event"",""trial"",""time""
""fullscreenenter"",""1"",""1767""
","
","
","""event"",""trial"",""time""
""fullscreenenter"",""1"",""1767""
","
","","","","","","1155.300000011921","images/truck8.png","","","memory_trial","2","maybe_old",""
"html-keyboard-response","77","216723","0.0-18.0-0.17","4364","approach_avoid_sv1","""event"",""trial"",""time""
""fullscreenenter"",""1"",""1767""
","
","
","""event"",""trial"",""time""
""fullscreenenter"",""1"",""1767""
","
","","","","","","null","<div style=""font-size:60px;"">+</div>","null","","fixation","","",""
"memory-trial","78","218507","0.0-18.0-1.17","4364","approach_avoid_sv1","""event"",""trial"",""time""
""fullscreenenter"",""1"",""1767""
","
","
","""event"",""trial"",""time""
""fullscreenenter"",""1"",""1767""
","
","","","","","","775.7999999523163","images/rabbit5.png","","","memory_trial","1","definitely_old",""
"html-keyboard-response","79","219012","0.0-18.0-0.18","4364","approach_avoid_sv1","""event"",""trial"",""time""
""fullscreenenter"",""1"",""1767""
","
","
","""event"",""trial"",""time""
""fullscreenenter"",""1"",""1767""
","
","","","","","","null","<div style=""font-size:60px;"">+</div>","null","","fixation","","",""
"memory-trial","80","221147","0.0-18.0-1.18","4364","approach_avoid_sv1","""event"",""trial"",""time""
""fullscreenenter"",""1"",""1767""
","
","
","""event"",""trial"",""time""
""fullscreenenter"",""1"",""1767""
","
","","","","","","1124.199999988079","images/apple3.png","","","memory_trial","1","definitely_old",""
"html-keyboard-response","81","221651","0.0-18.0-0.19","4364","approach_avoid_sv1","""event"",""trial"",""time""
""fullscreenenter"",""1"",""1767""
","
","
","""event"",""trial"",""time""
""fullscreenenter"",""1"",""1767""
","
","","","","","","null","<div style=""font-size:60px;"">+</div>","null","","fixation","","",""
"memory-trial","82","223827","0.0-18.0-1.19","4364","approach_avoid_sv1","""event"",""trial"",""time""
""fullscreenenter"",""1"",""1767""
","
","
","""event"",""trial"",""time""
""fullscreenenter"",""1"",""1767""
","
","","","","","","1172.3999999761581","images/horse3.png","","","memory_trial","2","maybe_old",""
"html-keyboard-response","83","224331","0.0-18.0-0.20","4364","approach_avoid_sv1","""event"",""trial"",""time""
""fullscreenenter"",""1"",""1767""
","
","
","""event"",""trial"",""time""
""fullscreenenter"",""1"",""1767""
","
","","","","","","null","<div style=""font-size:60px;"">+</div>","null","","fixation","","",""
"memory-trial","84","227307","0.0-18.0-1.20","4364","approach_avoid_sv1","""event"",""trial"",""time""
""fullscreenenter"",""1"",""1767""
","
","
","""event"",""trial"",""time""
""fullscreenenter"",""1"",""1767""
","
","","","","","","1971.0999999642372","images/orange2.png","","","memory_trial","3","maybe_new",""
"html-keyboard-response","85","227811","0.0-18.0-0.21","4364","approach_avoid_sv1","""event"",""trial"",""time""
""fullscreenenter"",""1"",""1767""
","
","
","""event"",""trial"",""time""
""fullscreenenter"",""1"",""1767""
","
","","","","","","null","<div style=""font-size:60px;"">+</div>","null","","fixation","","",""
"memory-trial","86","229746","0.0-18.0-1.21","4364","approach_avoid_sv1","""event"",""trial"",""time""
""fullscreenenter"",""1"",""1767""
","
","
","""event"",""trial"",""time""
""fullscreenenter"",""1"",""1767""
","
","","","","","","932.3999999761581","images/flower4.png","","","memory_trial","4","definitely_new",""
"html-keyboard-response","87","230251","0.0-18.0-0.22","4364","approach_avoid_sv1","""event"",""trial"",""time""
""fullscreenenter"",""1"",""1767""
","
","
","""event"",""trial"",""time""
""fullscreenenter"",""1"",""1767""
","
","","","","","","null","<div style=""font-size:60px;"">+</div>","null","","fixation","","",""
"memory-trial","88","232603","0.0-18.0-1.22","4364","approach_avoid_sv1","""event"",""trial"",""time""
""fullscreenenter"",""1"",""1767""
","
","
","""event"",""trial"",""time""
""fullscreenenter"",""1"",""1767""
","
","","","","","","1342.300000011921","images/straw4.png","","","memory_trial","2","maybe_old",""
"html-keyboard-response","89","233107","0.0-18.0-0.23","4364","approach_avoid_sv1","""event"",""trial"",""time""
""fullscreenenter"",""1"",""1767""
","
","
","""event"",""trial"",""time""
""fullscreenenter"",""1"",""1767""
","
","","","","","","null","<div style=""font-size:60px;"">+</div>","null","","fixation","","",""
"memory-trial","90","235125","0.0-18.0-1.23","4364","approach_avoid_sv1","""event"",""trial"",""time""
""fullscreenenter"",""1"",""1767""
","
","
","""event"",""trial"",""time""
""fullscreenenter"",""1"",""1767""
","
","","","","","","1010.7000000476837","images/dog8.png","","","memory_trial","3","maybe_new",""
"html-keyboard-response","91","235634","0.0-18.0-0.24","4364","approach_avoid_sv1","""event"",""trial"",""time""
""fullscreenenter"",""1"",""1767""
","
","
","""event"",""trial"",""time""
""fullscreenenter"",""1"",""1767""
","
","","","","","","null","<div style=""font-size:60px;"">+</div>","null","","fixation","","",""
"memory-trial","92","237763","0.0-18.0-1.24","4364","approach_avoid_sv1","""event"",""trial"",""time""
""fullscreenenter"",""1"",""1767""
","
","
","""event"",""trial"",""time""
""fullscreenenter"",""1"",""1767""
","
","","","","","","1118.300000011921","images/bush2.png","","","memory_trial","4","definitely_new",""
"html-keyboard-response","93","238266","0.0-18.0-0.25","4364","approach_avoid_sv1","""event"",""trial"",""time""
""fullscreenenter"",""1"",""1767""
","
","
","""event"",""trial"",""time""
""fullscreenenter"",""1"",""1767""
","
","","","","","","null","<div style=""font-size:60px;"">+</div>","null","","fixation","","",""
"memory-trial","94","240243","0.0-18.0-1.25","4364","approach_avoid_sv1","""event"",""trial"",""time""
""fullscreenenter"",""1"",""1767""
","
","
","""event"",""trial"",""time""
""fullscreenenter"",""1"",""1767""
","
","","","","","","970.5","images/dog3.png","","","memory_trial","3","maybe_new",""
"html-keyboard-response","95","240746","0.0-18.0-0.26","4364","approach_avoid_sv1","""event"",""trial"",""time""
""fullscreenenter"",""1"",""1767""
","
","
","""event"",""trial"",""time""
""fullscreenenter"",""1"",""1767""
","
","","","","","","null","<div style=""font-size:60px;"">+</div>","null","","fixation","","",""
"memory-trial","96","242858","0.0-18.0-1.26","4364","approach_avoid_sv1","""event"",""trial"",""time""
""fullscreenenter"",""1"",""1767""
","
","
","""event"",""trial"",""time""
""fullscreenenter"",""1"",""1767""
","
","","","","","","1103.8999999761581","images/banana7.png","","","memory_trial","3","maybe_new",""
"html-keyboard-response","97","243362","0.0-18.0-0.27","4364","approach_avoid_sv1","""event"",""trial"",""time""
""fullscreenenter"",""1"",""1767""
","
","
","""event"",""trial"",""time""
""fullscreenenter"",""1"",""1767""
","
","","","","","","null","<div style=""font-size:60px;"">+</div>","null","","fixation","","",""
"memory-trial","98","245802","0.0-18.0-1.27","4364","approach_avoid_sv1","""event"",""trial"",""time""
""fullscreenenter"",""1"",""1767""
","
","
","""event"",""trial"",""time""
""fullscreenenter"",""1"",""1767""
","
","","","","","","1431.2000000476837","images/chair4.png","","","memory_trial","3","maybe_new",""
"html-keyboard-response","99","246306","0.0-18.0-0.28","4364","approach_avoid_sv1","""event"",""trial"",""time""
""fullscreenenter"",""1"",""1767""
","
","
","""event"",""trial"",""time""
""fullscreenenter"",""1"",""1767""
","
","","","","","","null","<div style=""font-size:60px;"">+</div>","null","","fixation","","",""
"memory-trial","100","248593","0.0-18.0-1.28","4364","approach_avoid_sv1","""event"",""trial"",""time""
""fullscreenenter"",""1"",""1767""
","
","
","""event"",""trial"",""time""
""fullscreenenter"",""1"",""1767""
","
","","","","","","1283","images/train4.png","","","memory_trial","3","maybe_new",""
"html-keyboard-response","101","249097","0.0-18.0-0.29","4364","approach_avoid_sv1","""event"",""trial"",""time""
""fullscreenenter"",""1"",""1767""
","
","
","""event"",""trial"",""time""
""fullscreenenter"",""1"",""1767""
","
","","","","","","null","<div style=""font-size:60px;"">+</div>","null","","fixation","","",""
"memory-trial","102","251227","0.0-18.0-1.29","4364","approach_avoid_sv1","""event"",""trial"",""time""
""fullscreenenter"",""1"",""1767""
","
","
","""event"",""trial"",""time""
""fullscreenenter"",""1"",""1767""
","
","","","","","","1123.0999999642372","images/orange1.png","","","memory_trial","2","maybe_old",""
"html-keyboard-response","103","251729","0.0-18.0-0.30","4364","approach_avoid_sv1","""event"",""trial"",""time""
""fullscreenenter"",""1"",""1767""
","
","
","""event"",""trial"",""time""
""fullscreenenter"",""1"",""1767""
","
","","","","","","null","<div style=""font-size:60px;"">+</div>","null","","fixation","","",""
"memory-trial","104","253818","0.0-18.0-1.30","4364","approach_avoid_sv1","""event"",""trial"",""time""
""fullscreenenter"",""1"",""1767""
","
","
","""event"",""trial"",""time""
""fullscreenenter"",""1"",""1767""
","
","","","","","","1082.9000000357628","images/rodent6.png","","","memory_trial","3","maybe_new",""
"html-keyboard-response","105","254321","0.0-18.0-0.31","4364","approach_avoid_sv1","""event"",""trial"",""time""
""fullscreenenter"",""1"",""1767""
","
","
","""event"",""trial"",""time""
""fullscreenenter"",""1"",""1767""
","
","","","","","","null","<div style=""font-size:60px;"">+</div>","null","","fixation","","",""
"memory-trial","106","256617","0.0-18.0-1.31","4364","approach_avoid_sv1","""event"",""trial"",""time""
""fullscreenenter"",""1"",""1767""
","
","
","""event"",""trial"",""time""
""fullscreenenter"",""1"",""1767""
","
","","","","","","1286","images/bed2.png","","","memory_trial","1","definitely_old",""
"html-keyboard-response","107","257121","0.0-18.0-0.32","4364","approach_avoid_sv1","""event"",""trial"",""time""
""fullscreenenter"",""1"",""1767""
","
","
","""event"",""trial"",""time""
""fullscreenenter"",""1"",""1767""
","
","","","","","","null","<div style=""font-size:60px;"">+</div>","null","","fixation","","",""
"memory-trial","108","259233","0.0-18.0-1.32","4364","approach_avoid_sv1","""event"",""trial"",""time""
""fullscreenenter"",""1"",""1767""
","
","
","""event"",""trial"",""time""
""fullscreenenter"",""1"",""1767""
","
","","","","","","1105.300000011921","images/straw5.png","","","memory_trial","4","definitely_new",""
"html-keyboard-response","109","259737","0.0-18.0-0.33","4364","approach_avoid_sv1","""event"",""trial"",""time""
""fullscreenenter"",""1"",""1767""
","
","
","""event"",""trial"",""time""
""fullscreenenter"",""1"",""1767""
","
","","","","","","null","<div style=""font-size:60px;"">+</div>","null","","fixation","","",""
"memory-trial","110","262121","0.0-18.0-1.33","4364","approach_avoid_sv1","""event"",""trial"",""time""
""fullscreenenter"",""1"",""1767""
","
","
","""event"",""trial"",""time""
""fullscreenenter"",""1"",""1767""
","
","","","","","","1374.9000000357628","images/tree5.png","","","memory_trial","3","maybe_new",""
"html-keyboard-response","111","262625","0.0-18.0-0.34","4364","approach_avoid_sv1","""event"",""trial"",""time""
""fullscreenenter"",""1"",""1767""
","
","
","""event"",""trial"",""time""
""fullscreenenter"",""1"",""1767""
","
","","","","","","null","<div style=""font-size:60px;"">+</div>","null","","fixation","","",""
"memory-trial","112","264553","0.0-18.0-1.34","4364","approach_avoid_sv1","""event"",""trial"",""time""
""fullscreenenter"",""1"",""1767""
","
","
","""event"",""trial"",""time""
""fullscreenenter"",""1"",""1767""
","
","","","","","","922.8999999761581","images/cactus1.png","","","memory_trial","1","definitely_old",""
"html-keyboard-response","113","265057","0.0-18.0-0.35","4364","approach_avoid_sv1","""event"",""trial"",""time""
""fullscreenenter"",""1"",""1767""
","
","
","""event"",""trial"",""time""
""fullscreenenter"",""1"",""1767""
","
","","","","","","null","<div style=""font-size:60px;"">+</div>","null","","fixation","","",""
"memory-trial","114","266921","0.0-18.0-1.35","4364","approach_avoid_sv1","""event"",""trial"",""time""
""fullscreenenter"",""1"",""1767""
","
","
","""event"",""trial"",""time""
""fullscreenenter"",""1"",""1767""
","
","","","","","","856.1999999880791","images/banana5.png","","","memory_trial","1","definitely_old",""
"html-keyboard-response","115","267425","0.0-18.0-0.36","4364","approach_avoid_sv1","""event"",""trial"",""time""
""fullscreenenter"",""1"",""1767""
","
","
","""event"",""trial"",""time""
""fullscreenenter"",""1"",""1767""
","
","","","","","","null","<div style=""font-size:60px;"">+</div>","null","","fixation","","",""
"memory-trial","116","269129","0.0-18.0-1.36","4364","approach_avoid_sv1","""event"",""trial"",""time""
""fullscreenenter"",""1"",""1767""
","
","
","""event"",""trial"",""time""
""fullscreenenter"",""1"",""1767""
","
","","","","","","698.3000000119209","images/table3.png","","","memory_trial","1","definitely_old",""
"html-keyboard-response","117","269633","0.0-18.0-0.37","4364","approach_avoid_sv1","""event"",""trial"",""time""
""fullscreenenter"",""1"",""1767""
","
","
","""event"",""trial"",""time""
""fullscreenenter"",""1"",""1767""
","
","","","","","","null","<div style=""font-size:60px;"">+</div>","null","","fixation","","",""
"memory-trial","118","271657","0.0-18.0-1.37","4364","approach_avoid_sv1","""event"",""trial"",""time""
""fullscreenenter"",""1"",""1767""
","
","
","""event"",""trial"",""time""
""fullscreenenter"",""1"",""1767""
","
","","","","","","1018.1000000238419","images/orange7.png","","","memory_trial","3","maybe_new",""
"html-keyboard-response","119","272161","0.0-18.0-0.38","4364","approach_avoid_sv1","""event"",""trial"",""time""
""fullscreenenter"",""1"",""1767""
","
","
","""event"",""trial"",""time""
""fullscreenenter"",""1"",""1767""
","
","","","","","","null","<div style=""font-size:60px;"">+</div>","null","","fixation","","",""
"memory-trial","120","274113","0.0-18.0-1.38","4364","approach_avoid_sv1","""event"",""trial"",""time""
""fullscreenenter"",""1"",""1767""
","
","
","""event"",""trial"",""time""
""fullscreenenter"",""1"",""1767""
","
","","","","","","945.5999999642372","images/apple6.png","","","memory_trial","2","maybe_old",""
"html-keyboard-response","121","274617","0.0-18.0-0.39","4364","approach_avoid_sv1","""event"",""trial"",""time""
""fullscreenenter"",""1"",""1767""
","
","
","""event"",""trial"",""time""
""fullscreenenter"",""1"",""1767""
","
","","","","","","null","<div style=""font-size:60px;"">+</div>","null","","fixation","","",""
"memory-trial","122","276368","0.0-18.0-1.39","4364","approach_avoid_sv1","""event"",""trial"",""time""
""fullscreenenter"",""1"",""1767""
","
","
","""event"",""trial"",""time""
""fullscreenenter"",""1"",""1767""
","
","","","","","","740.8999999761581","images/bed1.png","","","memory_trial","1","definitely_old",""
"html-keyboard-response","123","276871","0.0-18.0-0.40","4364","approach_avoid_sv1","""event"",""trial"",""time""
""fullscreenenter"",""1"",""1767""
","
","
","""event"",""trial"",""time""
""fullscreenenter"",""1"",""1767""
","
","","","","","","null","<div style=""font-size:60px;"">+</div>","null","","fixation","","",""
"memory-trial","124","280128","0.0-18.0-1.40","4364","approach_avoid_sv1","""event"",""trial"",""time""
""fullscreenenter"",""1"",""1767""
","
","
","""event"",""trial"",""time""
""fullscreenenter"",""1"",""1767""
","
","","","","","","2252.699999988079","images/straw3.png","","","memory_trial","3","maybe_new",""
"html-keyboard-response","125","280632","0.0-18.0-0.41","4364","approach_avoid_sv1","""event"",""trial"",""time""
""fullscreenenter"",""1"",""1767""
","
","
","""event"",""trial"",""time""
""fullscreenenter"",""1"",""1767""
","
","","","","","","null","<div style=""font-size:60px;"">+</div>","null","","fixation","","",""
"memory-trial","126","282728","0.0-18.0-1.41","4364","approach_avoid_sv1","""event"",""trial"",""time""
""fullscreenenter"",""1"",""1767""
","
","
","""event"",""trial"",""time""
""fullscreenenter"",""1"",""1767""
","
","","","","","","1090.300000011921","images/bush4.png","","","memory_trial","3","maybe_new",""
"html-button-response","127","284184","0.0-18.0-2.41-0.41","4364","approach_avoid_sv1","""event"",""trial"",""time""
""fullscreenenter"",""1"",""1767""
","
","
","""event"",""trial"",""time""
""fullscreenenter"",""1"",""1767""
","
","","","","","","1454.5999999642372","<p> Take a break! </p><p> Click the button to continue. </p>","0","","break","","",""
"html-keyboard-response","128","284688","0.0-18.0-0.42","4364","approach_avoid_sv1","""event"",""trial"",""time""
""fullscreenenter"",""1"",""1767""
","
","
","""event"",""trial"",""time""
""fullscreenenter"",""1"",""1767""
","
","","","","","","null","<div style=""font-size:60px;"">+</div>","null","","fixation","","",""
"memory-trial","129","286879","0.0-18.0-1.42","4364","approach_avoid_sv1","""event"",""trial"",""time""
""fullscreenenter"",""1"",""1767""
","
","
","""event"",""trial"",""time""
""fullscreenenter"",""1"",""1767""
","
","","","","","","1184.699999988079","images/sofa2.png","","","memory_trial","1","definitely_old",""
"html-keyboard-response","130","287383","0.0-18.0-0.43","4364","approach_avoid_sv1","""event"",""trial"",""time""
""fullscreenenter"",""1"",""1767""
","
","
","""event"",""trial"",""time""
""fullscreenenter"",""1"",""1767""
","
","","","","","","null","<div style=""font-size:60px;"">+</div>","null","","fixation","","",""
"memory-trial","131","289312","0.0-18.0-1.43","4364","approach_avoid_sv1","""event"",""trial"",""time""
""fullscreenenter"",""1"",""1767""
","
","
","""event"",""trial"",""time""
""fullscreenenter"",""1"",""1767""
","
","","","","","","921.7999999523163","images/tree8.png","","","memory_trial","1","definitely_old",""
"html-keyboard-response","132","289816","0.0-18.0-0.44","4364","approach_avoid_sv1","""event"",""trial"",""time""
""fullscreenenter"",""1"",""1767""
","
","
","""event"",""trial"",""time""
""fullscreenenter"",""1"",""1767""
","
","","","","","","null","<div style=""font-size:60px;"">+</div>","null","","fixation","","",""
"memory-trial","133","291903","0.0-18.0-1.44","4364","approach_avoid_sv1","""event"",""trial"",""time""
""fullscreenenter"",""1"",""1767""
","
","
","""event"",""trial"",""time""
""fullscreenenter"",""1"",""1767""
","
","","","","","","1079.800000011921","images/straw1.png","","","memory_trial","3","maybe_new",""
"html-keyboard-response","134","292407","0.0-18.0-0.45","4364","approach_avoid_sv1","""event"",""trial"",""time""
""fullscreenenter"",""1"",""1767""
","
","
","""event"",""trial"",""time""
""fullscreenenter"",""1"",""1767""
","
","","","","","","null","<div style=""font-size:60px;"">+</div>","null","","fixation","","",""
"memory-trial","135","294423","0.0-18.0-1.45","4364","approach_avoid_sv1","""event"",""trial"",""time""
""fullscreenenter"",""1"",""1767""
","
","
","""event"",""trial"",""time""
""fullscreenenter"",""1"",""1767""
","
","","","","","","1009.1999999880791","images/boat1.png","","","memory_trial","2","maybe_old",""
"html-keyboard-response","136","294927","0.0-18.0-0.46","4364","approach_avoid_sv1","""event"",""trial"",""time""
""fullscreenenter"",""1"",""1767""
","
","
","""event"",""trial"",""time""
""fullscreenenter"",""1"",""1767""
","
","","","","","","null","<div style=""font-size:60px;"">+</div>","null","","fixation","","",""
"memory-trial","137","297151","0.0-18.0-1.46","4364","approach_avoid_sv1","""event"",""trial"",""time""
""fullscreenenter"",""1"",""1767""
","
","
","""event"",""trial"",""time""
""fullscreenenter"",""1"",""1767""
","
","","","","","","1217.300000011921","images/bush5.png","","","memory_trial","4","definitely_new",""
"html-keyboard-response","138","297655","0.0-18.0-0.47","4364","approach_avoid_sv1","""event"",""trial"",""time""
""fullscreenenter"",""1"",""1767""
","
","
","""event"",""trial"",""time""
""fullscreenenter"",""1"",""1767""
","
","","","","","","null","<div style=""font-size:60px;"">+</div>","null","","fixation","","",""
"memory-trial","139","299559","0.0-18.0-1.47","4364","approach_avoid_sv1","""event"",""trial"",""time""
""fullscreenenter"",""1"",""1767""
","
","
","""event"",""trial"",""time""
""fullscreenenter"",""1"",""1767""
","
","","","","","","894.5999999642372","images/tree3.png","","","memory_trial","3","maybe_new",""
"html-keyboard-response","140","300063","0.0-18.0-0.48","4364","approach_avoid_sv1","""event"",""trial"",""time""
""fullscreenenter"",""1"",""1767""
","
","
","""event"",""trial"",""time""
""fullscreenenter"",""1"",""1767""
","
","","","","","","null","<div style=""font-size:60px;"">+</div>","null","","fixation","","",""
"memory-trial","141","301879","0.0-18.0-1.48","4364","approach_avoid_sv1","""event"",""trial"",""time""
""fullscreenenter"",""1"",""1767""
","
","
","""event"",""trial"",""time""
""fullscreenenter"",""1"",""1767""
","
","","","","","","806.2999999523163","images/dog4.png","","","memory_trial","1","definitely_old",""
"html-keyboard-response","142","302383","0.0-18.0-0.49","4364","approach_avoid_sv1","""event"",""trial"",""time""
""fullscreenenter"",""1"",""1767""
","
","
","""event"",""trial"",""time""
""fullscreenenter"",""1"",""1767""
","
","","","","","","null","<div style=""font-size:60px;"">+</div>","null","","fixation","","",""
"memory-trial","143","304895","0.0-18.0-1.49","4364","approach_avoid_sv1","""event"",""trial"",""time""
""fullscreenenter"",""1"",""1767""
","
","
","""event"",""trial"",""time""
""fullscreenenter"",""1"",""1767""
","
","","","","","","1507.5","images/tree6.png","","","memory_trial","2","maybe_old",""
"html-keyboard-response","144","305399","0.0-18.0-0.50","4364","approach_avoid_sv1","""event"",""trial"",""time""
""fullscreenenter"",""1"",""1767""
","
","
","""event"",""trial"",""time""
""fullscreenenter"",""1"",""1767""
","
","","","","","","null","<div style=""font-size:60px;"">+</div>","null","","fixation","","",""
"memory-trial","145","307231","0.0-18.0-1.50","4364","approach_avoid_sv1","""event"",""trial"",""time""
""fullscreenenter"",""1"",""1767""
","
","
","""event"",""trial"",""time""
""fullscreenenter"",""1"",""1767""
","
","","","","","","823.4000000357628","images/bush1.png","","","memory_trial","1","definitely_old",""
"html-keyboard-response","146","307734","0.0-18.0-0.51","4364","approach_avoid_sv1","""event"",""trial"",""time""
""fullscreenenter"",""1"",""1767""
","
","
","""event"",""trial"",""time""
""fullscreenenter"",""1"",""1767""
","
","","","","","","null","<div style=""font-size:60px;"">+</div>","null","","fixation","","",""
"memory-trial","147","309358","0.0-18.0-1.51","4364","approach_avoid_sv1","""event"",""trial"",""time""
""fullscreenenter"",""1"",""1767""
","
","
","""event"",""trial"",""time""
""fullscreenenter"",""1"",""1767""
","
","","","","","","619.1999999880791","images/rodent5.png","","","memory_trial","1","definitely_old",""
"html-keyboard-response","148","309863","0.0-18.0-0.52","4364","approach_avoid_sv1","""event"",""trial"",""time""
""fullscreenenter"",""1"",""1767""
","
","
","""event"",""trial"",""time""
""fullscreenenter"",""1"",""1767""
","
","","","","","","null","<div style=""font-size:60px;"">+</div>","null","","fixation","","",""
"memory-trial","149","311695","0.0-18.0-1.52","4364","approach_avoid_sv1","""event"",""trial"",""time""
""fullscreenenter"",""1"",""1767""
","
","
","""event"",""trial"",""time""
""fullscreenenter"",""1"",""1767""
","
","","","","","","826.0999999642372","images/dog2.png","","","memory_trial","1","definitely_old",""
"html-keyboard-response","150","312198","0.0-18.0-0.53","4364","approach_avoid_sv1","""event"",""trial"",""time""
""fullscreenenter"",""1"",""1767""
","
","
","""event"",""trial"",""time""
""fullscreenenter"",""1"",""1767""
","
","","","","","","null","<div style=""font-size:60px;"">+</div>","null","","fixation","","",""
"memory-trial","151","314209","0.0-18.0-1.53","4364","approach_avoid_sv1","""event"",""trial"",""time""
""fullscreenenter"",""1"",""1767""
","
","
","""event"",""trial"",""time""
""fullscreenenter"",""1"",""1767""
","
","","","","","","1000.9000000357628","images/apple4.png","","","memory_trial","4","definitely_new",""
"html-keyboard-response","152","314718","0.0-18.0-0.54","4364","approach_avoid_sv1","""event"",""trial"",""time""
""fullscreenenter"",""1"",""1767""
","
","
","""event"",""trial"",""time""
""fullscreenenter"",""1"",""1767""
","
","","","","","","null","<div style=""font-size:60px;"">+</div>","null","","fixation","","",""
"memory-trial","153","316870","0.0-18.0-1.54","4364","approach_avoid_sv1","""event"",""trial"",""time""
""fullscreenenter"",""1"",""1767""
","
","
","""event"",""trial"",""time""
""fullscreenenter"",""1"",""1767""
","
","","","","","","1140.5","images/table7.png","","","memory_trial","1","definitely_old",""
"html-keyboard-response","154","317374","0.0-18.0-0.55","4364","approach_avoid_sv1","""event"",""trial"",""time""
""fullscreenenter"",""1"",""1767""
","
","
","""event"",""trial"",""time""
""fullscreenenter"",""1"",""1767""
","
","","","","","","null","<div style=""font-size:60px;"">+</div>","null","","fixation","","",""
"memory-trial","155","318942","0.0-18.0-1.55","4364","approach_avoid_sv1","""event"",""trial"",""time""
""fullscreenenter"",""1"",""1767""
","
","
","""event"",""trial"",""time""
""fullscreenenter"",""1"",""1767""
","
","","","","","","558.8000000119209","images/rabbit3.png","","","memory_trial","1","definitely_old",""
"html-keyboard-response","156","319446","0.0-18.0-0.56","4364","approach_avoid_sv1","""event"",""trial"",""time""
""fullscreenenter"",""1"",""1767""
","
","
","""event"",""trial"",""time""
""fullscreenenter"",""1"",""1767""
","
","","","","","","null","<div style=""font-size:60px;"">+</div>","null","","fixation","","",""
"memory-trial","157","321733","0.0-18.0-1.56","4364","approach_avoid_sv1","""event"",""trial"",""time""
""fullscreenenter"",""1"",""1767""
","
","
","""event"",""trial"",""time""
""fullscreenenter"",""1"",""1767""
","
","","","","","","1279.2000000476837","images/boat6.png","","","memory_trial","2","maybe_old",""
"html-keyboard-response","158","322238","0.0-18.0-0.57","4364","approach_avoid_sv1","""event"",""trial"",""time""
""fullscreenenter"",""1"",""1767""
","
","
","""event"",""trial"",""time""
""fullscreenenter"",""1"",""1767""
","
","","","","","","null","<div style=""font-size:60px;"">+</div>","null","","fixation","","",""
"memory-trial","159","323950","0.0-18.0-1.57","4364","approach_avoid_sv1","""event"",""trial"",""time""
""fullscreenenter"",""1"",""1767""
","
","
","""event"",""trial"",""time""
""fullscreenenter"",""1"",""1767""
","
","","","","","","708.9000000357628","images/sofa7.png","","","memory_trial","1","definitely_old",""
"html-keyboard-response","160","324454","0.0-18.0-0.58","4364","approach_avoid_sv1","""event"",""trial"",""time""
""fullscreenenter"",""1"",""1767""
","
","
","""event"",""trial"",""time""
""fullscreenenter"",""1"",""1767""
","
","","","","","","null","<div style=""font-size:60px;"">+</div>","null","","fixation","","",""
"memory-trial","161","326093","0.0-18.0-1.58","4364","approach_avoid_sv1","""event"",""trial"",""time""
""fullscreenenter"",""1"",""1767""
","
","
","""event"",""trial"",""time""
""fullscreenenter"",""1"",""1767""
","
","","","","","","632.0999999642372","images/plane6.png","","","memory_trial","1","definitely_old",""
"html-keyboard-response","162","326598","0.0-18.0-0.59","4364","approach_avoid_sv1","""event"",""trial"",""time""
""fullscreenenter"",""1"",""1767""
","
","
","""event"",""trial"",""time""
""fullscreenenter"",""1"",""1767""
","
","","","","","","null","<div style=""font-size:60px;"">+</div>","null","","fixation","","",""
"memory-trial","163","328693","0.0-18.0-1.59","4364","approach_avoid_sv1","""event"",""trial"",""time""
""fullscreenenter"",""1"",""1767""
","
","
","""event"",""trial"",""time""
""fullscreenenter"",""1"",""1767""
","
","","","","","","1091.8999999761581","images/sofa3.png","","","memory_trial","2","maybe_old",""
"html-keyboard-response","164","329197","0.0-18.0-0.60","4364","approach_avoid_sv1","""event"",""trial"",""time""
""fullscreenenter"",""1"",""1767""
","
","
","""event"",""trial"",""time""
""fullscreenenter"",""1"",""1767""
","
","","","","","","null","<div style=""font-size:60px;"">+</div>","null","","fixation","","",""
"memory-trial","165","331230","0.0-18.0-1.60","4364","approach_avoid_sv1","""event"",""trial"",""time""
""fullscreenenter"",""1"",""1767""
","
","
","""event"",""trial"",""time""
""fullscreenenter"",""1"",""1767""
","
","","","","","","1021.5","images/banana3.png","","","memory_trial","4","definitely_new",""
"html-keyboard-response","166","331733","0.0-18.0-0.61","4364","approach_avoid_sv1","""event"",""trial"",""time""
""fullscreenenter"",""1"",""1767""
","
","
","""event"",""trial"",""time""
""fullscreenenter"",""1"",""1767""
","
","","","","","","null","<div style=""font-size:60px;"">+</div>","null","","fixation","","",""
"memory-trial","167","334022","0.0-18.0-1.61","4364","approach_avoid_sv1","""event"",""trial"",""time""
""fullscreenenter"",""1"",""1767""
","
","
","""event"",""trial"",""time""
""fullscreenenter"",""1"",""1767""
","
","","","","","","1280","images/cactus8.png","","","memory_trial","3","maybe_new",""
"html-keyboard-response","168","334525","0.0-18.0-0.62","4364","approach_avoid_sv1","""event"",""trial"",""time""
""fullscreenenter"",""1"",""1767""
","
","
","""event"",""trial"",""time""
""fullscreenenter"",""1"",""1767""
","
","","","","","","null","<div style=""font-size:60px;"">+</div>","null","","fixation","","",""
"memory-trial","169","336853","0.0-18.0-1.62","4364","approach_avoid_sv1","""event"",""trial"",""time""
""fullscreenenter"",""1"",""1767""
","
","
","""event"",""trial"",""time""
""fullscreenenter"",""1"",""1767""
","
","","","","","","1322.5","images/rabbit6.png","","","memory_trial","1","definitely_old",""
"html-keyboard-response","170","337356","0.0-18.0-0.63","4364","approach_avoid_sv1","""event"",""trial"",""time""
""fullscreenenter"",""1"",""1767""
","
","
","""event"",""trial"",""time""
""fullscreenenter"",""1"",""1767""
","
","","","","","","null","<div style=""font-size:60px;"">+</div>","null","","fixation","","",""
"memory-trial","171","339564","0.0-18.0-1.63","4364","approach_avoid_sv1","""event"",""trial"",""time""
""fullscreenenter"",""1"",""1767""
","
","
","""event"",""trial"",""time""
""fullscreenenter"",""1"",""1767""
","
","","","","","","1199.800000011921","images/straw8.png","","","memory_trial","3","maybe_new",""
"html-keyboard-response","172","340069","0.0-18.0-0.64","4364","approach_avoid_sv1","""event"",""trial"",""time""
""fullscreenenter"",""1"",""1767""
","
","
","""event"",""trial"",""time""
""fullscreenenter"",""1"",""1767""
","
","","","","","","null","<div style=""font-size:60px;"">+</div>","null","","fixation","","",""
"memory-trial","173","341949","0.0-18.0-1.64","4364","approach_avoid_sv1","""event"",""trial"",""time""
""fullscreenenter"",""1"",""1767""
","
","
","""event"",""trial"",""time""
""fullscreenenter"",""1"",""1767""
","
","","","","","","875.6999999880791","images/plane8.png","","","memory_trial","1","definitely_old",""
"html-keyboard-response","174","342452","0.0-18.0-0.65","4364","approach_avoid_sv1","""event"",""trial"",""time""
""fullscreenenter"",""1"",""1767""
","
","
","""event"",""trial"",""time""
""fullscreenenter"",""1"",""1767""
","
","","","","","","null","<div style=""font-size:60px;"">+</div>","null","","fixation","","",""
"memory-trial","175","344501","0.0-18.0-1.65","4364","approach_avoid_sv1","""event"",""trial"",""time""
""fullscreenenter"",""1"",""1767""
","
","
","""event"",""trial"",""time""
""fullscreenenter"",""1"",""1767""
","
","","","","","","1043.7999999523163","images/sofa1.png","","","memory_trial","1","definitely_old",""
"html-keyboard-response","176","345004","0.0-18.0-0.66","4364","approach_avoid_sv1","""event"",""trial"",""time""
""fullscreenenter"",""1"",""1767""
","
","
","""event"",""trial"",""time""
""fullscreenenter"",""1"",""1767""
","
","","","","","","null","<div style=""font-size:60px;"">+</div>","null","","fixation","","",""
"memory-trial","177","346997","0.0-18.0-1.66","4364","approach_avoid_sv1","""event"",""trial"",""time""
""fullscreenenter"",""1"",""1767""
","
","
","""event"",""trial"",""time""
""fullscreenenter"",""1"",""1767""
","
","","","","","","982.3000000119209","images/boat2.png","","","memory_trial","3","maybe_new",""
"html-keyboard-response","178","347500","0.0-18.0-0.67","4364","approach_avoid_sv1","""event"",""trial"",""time""
""fullscreenenter"",""1"",""1767""
","
","
","""event"",""trial"",""time""
""fullscreenenter"",""1"",""1767""
","
","","","","","","null","<div style=""font-size:60px;"">+</div>","null","","fixation","","",""
"memory-trial","179","349524","0.0-18.0-1.67","4364","approach_avoid_sv1","""event"",""trial"",""time""
""fullscreenenter"",""1"",""1767""
","
","
","""event"",""trial"",""time""
""fullscreenenter"",""1"",""1767""
","
","","","","","","1014","images/goat1.png","","","memory_trial","3","maybe_new",""
"html-keyboard-response","180","350028","0.0-18.0-0.68","4364","approach_avoid_sv1","""event"",""trial"",""time""
""fullscreenenter"",""1"",""1767""
","
","
","""event"",""trial"",""time""
""fullscreenenter"",""1"",""1767""
","
","","","","","","null","<div style=""font-size:60px;"">+</div>","null","","fixation","","",""
"memory-trial","181","352828","0.0-18.0-1.68","4364","approach_avoid_sv1","""event"",""trial"",""time""
""fullscreenenter"",""1"",""1767""
","
","
","""event"",""trial"",""time""
""fullscreenenter"",""1"",""1767""
","
","","","","","","1792.2999999523163","images/cow3.png","","","memory_trial","2","maybe_old",""
"html-keyboard-response","182","353332","0.0-18.0-0.69","4364","approach_avoid_sv1","""event"",""trial"",""time""
""fullscreenenter"",""1"",""1767""
","
","
","""event"",""trial"",""time""
""fullscreenenter"",""1"",""1767""
","
","","","","","","null","<div style=""font-size:60px;"">+</div>","null","","fixation","","",""
"memory-trial","183","355388","0.0-18.0-1.69","4364","approach_avoid_sv1","""event"",""trial"",""time""
""fullscreenenter"",""1"",""1767""
","
","
","""event"",""trial"",""time""
""fullscreenenter"",""1"",""1767""
","
","","","","","","1044.9000000357628","images/cow5.png","","","memory_trial","1","definitely_old",""
"html-keyboard-response","184","355892","0.0-18.0-0.70","4364","approach_avoid_sv1","""event"",""trial"",""time""
""fullscreenenter"",""1"",""1767""
","
","
","""event"",""trial"",""time""
""fullscreenenter"",""1"",""1767""
","
","","","","","","null","<div style=""font-size:60px;"">+</div>","null","","fixation","","",""
"memory-trial","185","358027","0.0-18.0-1.70","4364","approach_avoid_sv1","""event"",""trial"",""time""
""fullscreenenter"",""1"",""1767""
","
","
","""event"",""trial"",""time""
""fullscreenenter"",""1"",""1767""
","
","","","","","","1126.6000000238419","images/banana1.png","","","memory_trial","3","maybe_new",""
"html-keyboard-response","186","358532","0.0-18.0-0.71","4364","approach_avoid_sv1","""event"",""trial"",""time""
""fullscreenenter"",""1"",""1767""
","
","
","""event"",""trial"",""time""
""fullscreenenter"",""1"",""1767""
","
","","","","","","null","<div style=""font-size:60px;"">+</div>","null","","fixation","","",""
"memory-trial","187","360660","0.0-18.0-1.71","4364","approach_avoid_sv1","""event"",""trial"",""time""
""fullscreenenter"",""1"",""1767""
","
","
","""event"",""trial"",""time""
""fullscreenenter"",""1"",""1767""
","
","","","","","","1124.1000000238419","images/cat6.png","","","memory_trial","4","definitely_new",""
"html-keyboard-response","188","361164","0.0-18.0-0.72","4364","approach_avoid_sv1","""event"",""trial"",""time""
""fullscreenenter"",""1"",""1767""
","
","
","""event"",""trial"",""time""
""fullscreenenter"",""1"",""1767""
","
","","","","","","null","<div style=""font-size:60px;"">+</div>","null","","fixation","","",""
"memory-trial","189","363571","0.0-18.0-1.72","4364","approach_avoid_sv1","""event"",""trial"",""time""
""fullscreenenter"",""1"",""1767""
","
","
","""event"",""trial"",""time""
""fullscreenenter"",""1"",""1767""
","
","","","","","","1399.7999999523163","images/cow2.png","","","memory_trial","3","maybe_new",""
"html-keyboard-response","190","364075","0.0-18.0-0.73","4364","approach_avoid_sv1","""event"",""trial"",""time""
""fullscreenenter"",""1"",""1767""
","
","
","""event"",""trial"",""time""
""fullscreenenter"",""1"",""1767""
","
","","","","","","null","<div style=""font-size:60px;"">+</div>","null","","fixation","","",""
"memory-trial","191","366163","0.0-18.0-1.73","4364","approach_avoid_sv1","""event"",""trial"",""time""
""fullscreenenter"",""1"",""1767""
","
","
","""event"",""trial"",""time""
""fullscreenenter"",""1"",""1767""
","
","","","","","","1079","images/sofa4.png","","","memory_trial","3","maybe_new",""
"html-keyboard-response","192","366671","0.0-18.0-0.74","4364","approach_avoid_sv1","""event"",""trial"",""time""
""fullscreenenter"",""1"",""1767""
","
","
","""event"",""trial"",""time""
""fullscreenenter"",""1"",""1767""
","
","","","","","","null","<div style=""font-size:60px;"">+</div>","null","","fixation","","",""
"memory-trial","193","368691","0.0-18.0-1.74","4364","approach_avoid_sv1","""event"",""trial"",""time""
""fullscreenenter"",""1"",""1767""
","
","
","""event"",""trial"",""time""
""fullscreenenter"",""1"",""1767""
","
","","","","","","1012.6999999880791","images/sheep5.png","","","memory_trial","4","definitely_new",""
"html-keyboard-response","194","369194","0.0-18.0-0.75","4364","approach_avoid_sv1","""event"",""trial"",""time""
""fullscreenenter"",""1"",""1767""
","
","
","""event"",""trial"",""time""
""fullscreenenter"",""1"",""1767""
","
","","","","","","null","<div style=""font-size:60px;"">+</div>","null","","fixation","","",""
"memory-trial","195","371251","0.0-18.0-1.75","4364","approach_avoid_sv1","""event"",""trial"",""time""
""fullscreenenter"",""1"",""1767""
","
","
","""event"",""trial"",""time""
""fullscreenenter"",""1"",""1767""
","
","","","","","","1049.5","images/cat1.png","","","memory_trial","4","definitely_new",""
"html-keyboard-response","196","371754","0.0-18.0-0.76","4364","approach_avoid_sv1","""event"",""trial"",""time""
""fullscreenenter"",""1"",""1767""
","
","
","""event"",""trial"",""time""
""fullscreenenter"",""1"",""1767""
","
","","","","","","null","<div style=""font-size:60px;"">+</div>","null","","fixation","","",""
"memory-trial","197","373963","0.0-18.0-1.76","4364","approach_avoid_sv1","""event"",""trial"",""time""
""fullscreenenter"",""1"",""1767""
","
","
","""event"",""trial"",""time""
""fullscreenenter"",""1"",""1767""
","
","","","","","","1198.199999988079","images/rodent2.png","","","memory_trial","3","maybe_new",""
"html-keyboard-response","198","374466","0.0-18.0-0.77","4364","approach_avoid_sv1","""event"",""trial"",""time""
""fullscreenenter"",""1"",""1767""
","
","
","""event"",""trial"",""time""
""fullscreenenter"",""1"",""1767""
","
","","","","","","null","<div style=""font-size:60px;"">+</div>","null","","fixation","","",""
"memory-trial","199","376459","0.0-18.0-1.77","4364","approach_avoid_sv1","""event"",""trial"",""time""
""fullscreenenter"",""1"",""1767""
","
","
","""event"",""trial"",""time""
""fullscreenenter"",""1"",""1767""
","
","","","","","","986.3000000119209","images/rodent4.png","","","memory_trial","2","maybe_old",""
"html-keyboard-response","200","376962","0.0-18.0-0.78","4364","approach_avoid_sv1","""event"",""trial"",""time""
""fullscreenenter"",""1"",""1767""
","
","
","""event"",""trial"",""time""
""fullscreenenter"",""1"",""1767""
","
","","","","","","null","<div style=""font-size:60px;"">+</div>","null","","fixation","","",""
"memory-trial","201","379803","0.0-18.0-1.78","4364","approach_avoid_sv1","""event"",""trial"",""time""
""fullscreenenter"",""1"",""1767""
","
","
","""event"",""trial"",""time""
""fullscreenenter"",""1"",""1767""
","
","","","","","","1832.300000011921","images/table6.png","","","memory_trial","3","maybe_new",""
"html-keyboard-response","202","380306","0.0-18.0-0.79","4364","approach_avoid_sv1","""event"",""trial"",""time""
""fullscreenenter"",""1"",""1767""
","
","
","""event"",""trial"",""time""
""fullscreenenter"",""1"",""1767""
","
","","","","","","null","<div style=""font-size:60px;"">+</div>","null","","fixation","","",""
"memory-trial","203","382123","0.0-18.0-1.79","4364","approach_avoid_sv1","""event"",""trial"",""time""
""fullscreenenter"",""1"",""1767""
","
","
","""event"",""trial"",""time""
""fullscreenenter"",""1"",""1767""
","
","","","","","","810.4000000357628","images/bed4.png","","","memory_trial","1","definitely_old",""
"html-keyboard-response","204","382625","0.0-18.0-0.80","4364","approach_avoid_sv1","""event"",""trial"",""time""
""fullscreenenter"",""1"",""1767""
","
","
","""event"",""trial"",""time""
""fullscreenenter"",""1"",""1767""
","
","","","","","","null","<div style=""font-size:60px;"">+</div>","null","","fixation","","",""
"memory-trial","205","384738","0.0-18.0-1.80","4364","approach_avoid_sv1","""event"",""trial"",""time""
""fullscreenenter"",""1"",""1767""
","
","
","""event"",""trial"",""time""
""fullscreenenter"",""1"",""1767""
","
","","","","","","1105.8999999761581","images/dog6.png","","","memory_trial","3","maybe_new",""
"html-keyboard-response","206","385242","0.0-18.0-0.81","4364","approach_avoid_sv1","""event"",""trial"",""time""
""fullscreenenter"",""1"",""1767""
","
","
","""event"",""trial"",""time""
""fullscreenenter"",""1"",""1767""
","
","","","","","","null","<div style=""font-size:60px;"">+</div>","null","","fixation","","",""
"memory-trial","207","387315","0.0-18.0-1.81","4364","approach_avoid_sv1","""event"",""trial"",""time""
""fullscreenenter"",""1"",""1767""
","
","
","""event"",""trial"",""time""
""fullscreenenter"",""1"",""1767""
","
","","","","","","1067.6000000238419","images/cat3.png","","","memory_trial","4","definitely_new",""
"html-keyboard-response","208","387820","0.0-18.0-0.82","4364","approach_avoid_sv1","""event"",""trial"",""time""
""fullscreenenter"",""1"",""1767""
","
","
","""event"",""trial"",""time""
""fullscreenenter"",""1"",""1767""
","
","","","","","","null","<div style=""font-size:60px;"">+</div>","null","","fixation","","",""
"memory-trial","209","389938","0.0-18.0-1.82","4364","approach_avoid_sv1","""event"",""trial"",""time""
""fullscreenenter"",""1"",""1767""
","
","
","""event"",""trial"",""time""
""fullscreenenter"",""1"",""1767""
","
","","","","","","1112.7000000476837","images/apple5.png","","","memory_trial","3","maybe_new",""
"html-keyboard-response","210","390442","0.0-18.0-0.83","4364","approach_avoid_sv1","""event"",""trial"",""time""
""fullscreenenter"",""1"",""1767""
","
","
","""event"",""trial"",""time""
""fullscreenenter"",""1"",""1767""
","
","","","","","","null","<div style=""font-size:60px;"">+</div>","null","","fixation","","",""
"memory-trial","211","392506","0.0-18.0-1.83","4364","approach_avoid_sv1","""event"",""trial"",""time""
""fullscreenenter"",""1"",""1767""
","
","
","""event"",""trial"",""time""
""fullscreenenter"",""1"",""1767""
","
","","","","","","1053","images/cow7.png","","","memory_trial","3","maybe_new",""
"html-keyboard-response","212","393010","0.0-18.0-0.84","4364","approach_avoid_sv1","""event"",""trial"",""time""
""fullscreenenter"",""1"",""1767""
","
","
","""event"",""trial"",""time""
""fullscreenenter"",""1"",""1767""
","
","","","","","","null","<div style=""font-size:60px;"">+</div>","null","","fixation","","",""
"memory-trial","213","394978","0.0-18.0-1.84","4364","approach_avoid_sv1","""event"",""trial"",""time""
""fullscreenenter"",""1"",""1767""
","
","
","""event"",""trial"",""time""
""fullscreenenter"",""1"",""1767""
","
","","","","","","962.1000000238419","images/dog5.png","","","memory_trial","1","definitely_old",""
"html-keyboard-response","214","395482","0.0-18.0-0.85","4364","approach_avoid_sv1","""event"",""trial"",""time""
""fullscreenenter"",""1"",""1767""
","
","
","""event"",""trial"",""time""
""fullscreenenter"",""1"",""1767""
","
","","","","","","null","<div style=""font-size:60px;"">+</div>","null","","fixation","","",""
"memory-trial","215","397106","0.0-18.0-1.85","4364","approach_avoid_sv1","""event"",""trial"",""time""
""fullscreenenter"",""1"",""1767""
","
","
","""event"",""trial"",""time""
""fullscreenenter"",""1"",""1767""
","
","","","","","","617.4000000357628","images/sofa5.png","","","memory_trial","1","definitely_old",""
"html-keyboard-response","216","397610","0.0-18.0-0.86","4364","approach_avoid_sv1","""event"",""trial"",""time""
""fullscreenenter"",""1"",""1767""
","
","
","""event"",""trial"",""time""
""fullscreenenter"",""1"",""1767""
","
","","","","","","null","<div style=""font-size:60px;"">+</div>","null","","fixation","","",""
"memory-trial","217","400433","0.0-18.0-1.86","4364","approach_avoid_sv1","""event"",""trial"",""time""
""fullscreenenter"",""1"",""1767""
","
","
","""event"",""trial"",""time""
""fullscreenenter"",""1"",""1767""
","
","","","","","","1814.800000011921","images/chair1.png","","","memory_trial","2","maybe_old",""
"html-keyboard-response","218","400937","0.0-18.0-0.87","4364","approach_avoid_sv1","""event"",""trial"",""time""
""fullscreenenter"",""1"",""1767""
","
","
","""event"",""trial"",""time""
""fullscreenenter"",""1"",""1767""
","
","","","","","","null","<div style=""font-size:60px;"">+</div>","null","","fixation","","",""
"memory-trial","219","402705","0.0-18.0-1.87","4364","approach_avoid_sv1","""event"",""trial"",""time""
""fullscreenenter"",""1"",""1767""
","
","
","""event"",""trial"",""time""
""fullscreenenter"",""1"",""1767""
","
","","","","","","756.8000000119209","images/chair5.png","","","memory_trial","3","maybe_new",""
"html-keyboard-response","220","403209","0.0-18.0-0.88","4364","approach_avoid_sv1","""event"",""trial"",""time""
""fullscreenenter"",""1"",""1767""
","
","
","""event"",""trial"",""time""
""fullscreenenter"",""1"",""1767""
","
","","","","","","null","<div style=""font-size:60px;"">+</div>","null","","fixation","","",""
"memory-trial","221","405705","0.0-18.0-1.88","4364","approach_avoid_sv1","""event"",""trial"",""time""
""fullscreenenter"",""1"",""1767""
","
","
","""event"",""trial"",""time""
""fullscreenenter"",""1"",""1767""
","
","","","","","","1486","images/horse4.png","","","memory_trial","4","definitely_new",""
"html-keyboard-response","222","406209","0.0-18.0-0.89","4364","approach_avoid_sv1","""event"",""trial"",""time""
""fullscreenenter"",""1"",""1767""
","
","
","""event"",""trial"",""time""
""fullscreenenter"",""1"",""1767""
","
","","","","","","null","<div style=""font-size:60px;"">+</div>","null","","fixation","","",""
"memory-trial","223","408593","0.0-18.0-1.89","4364","approach_avoid_sv1","""event"",""trial"",""time""
""fullscreenenter"",""1"",""1767""
","
","
","""event"",""trial"",""time""
""fullscreenenter"",""1"",""1767""
","
","","","","","","1375.8999999761581","images/bed8.png","","","memory_trial","2","maybe_old",""
"html-keyboard-response","224","409097","0.0-18.0-0.90","4364","approach_avoid_sv1","""event"",""trial"",""time""
""fullscreenenter"",""1"",""1767""
","
","
","""event"",""trial"",""time""
""fullscreenenter"",""1"",""1767""
","
","","","","","","null","<div style=""font-size:60px;"">+</div>","null","","fixation","","",""
"memory-trial","225","411408","0.0-18.0-1.90","4364","approach_avoid_sv1","""event"",""trial"",""time""
""fullscreenenter"",""1"",""1767""
","
","
","""event"",""trial"",""time""
""fullscreenenter"",""1"",""1767""
","
","","","","","","1304.699999988079","images/boat8.png","","","memory_trial","1","definitely_old",""
"html-keyboard-response","226","411913","0.0-18.0-0.91","4364","approach_avoid_sv1","""event"",""trial"",""time""
""fullscreenenter"",""1"",""1767""
","
","
","""event"",""trial"",""time""
""fullscreenenter"",""1"",""1767""
","
","","","","","","null","<div style=""font-size:60px;"">+</div>","null","","fixation","","",""
"memory-trial","227","413769","0.0-18.0-1.91","4364","approach_avoid_sv1","""event"",""trial"",""time""
""fullscreenenter"",""1"",""1767""
","
","
","""event"",""trial"",""time""
""fullscreenenter"",""1"",""1767""
","
","","","","","","852.3000000119209","images/boat5.png","","","memory_trial","2","maybe_old",""
"html-button-response","228","418379","0.0-18.0-2.91-0.91","4364","approach_avoid_sv1","""event"",""trial"",""time""
""fullscreenenter"",""1"",""1767""
","
","
","""event"",""trial"",""time""
""fullscreenenter"",""1"",""1767""
","
","","","","","","4608.700000047684","<p> Take a break! </p><p> Click the button to continue. </p>","0","","break","","",""
"html-keyboard-response","229","418888","0.0-18.0-0.92","4364","approach_avoid_sv1","""event"",""trial"",""time""
""fullscreenenter"",""1"",""1767""
","
","
","""event"",""trial"",""time""
""fullscreenenter"",""1"",""1767""
","
","","","","","","null","<div style=""font-size:60px;"">+</div>","null","","fixation","","",""
"memory-trial","230","420944","0.0-18.0-1.92","4364","approach_avoid_sv1","""event"",""trial"",""time""
""fullscreenenter"",""1"",""1767""
","
","
","""event"",""trial"",""time""
""fullscreenenter"",""1"",""1767""
","
","","","","","","1047.199999988079","images/horse1.png","","","memory_trial","4","definitely_new",""
"html-keyboard-response","231","421448","0.0-18.0-0.93","4364","approach_avoid_sv1","""event"",""trial"",""time""
""fullscreenenter"",""1"",""1767""
","
","
","""event"",""trial"",""time""
""fullscreenenter"",""1"",""1767""
","
","","","","","","null","<div style=""font-size:60px;"">+</div>","null","","fixation","","",""
"memory-trial","232","423592","0.0-18.0-1.93","4364","approach_avoid_sv1","""event"",""trial"",""time""
""fullscreenenter"",""1"",""1767""
","
","
","""event"",""trial"",""time""
""fullscreenenter"",""1"",""1767""
","
","","","","","","1136.9000000357628","images/train6.png","","","memory_trial","4","definitely_new",""
"html-keyboard-response","233","424096","0.0-18.0-0.94","4364","approach_avoid_sv1","""event"",""trial"",""time""
""fullscreenenter"",""1"",""1767""
","
","
","""event"",""trial"",""time""
""fullscreenenter"",""1"",""1767""
","
","","","","","","null","<div style=""font-size:60px;"">+</div>","null","","fixation","","",""
"memory-trial","234","426633","0.0-18.0-1.94","4364","approach_avoid_sv1","""event"",""trial"",""time""
""fullscreenenter"",""1"",""1767""
","
","
","""event"",""trial"",""time""
""fullscreenenter"",""1"",""1767""
","
","","","","","","1524.699999988079","images/boat4.png","","","memory_trial","3","maybe_new",""
"html-keyboard-response","235","427136","0.0-18.0-0.95","4364","approach_avoid_sv1","""event"",""trial"",""time""
""fullscreenenter"",""1"",""1767""
","
","
","""event"",""trial"",""time""
""fullscreenenter"",""1"",""1767""
","
","","","","","","null","<div style=""font-size:60px;"">+</div>","null","","fixation","","",""
"memory-trial","236","429392","0.0-18.0-1.95","4364","approach_avoid_sv1","""event"",""trial"",""time""
""fullscreenenter"",""1"",""1767""
","
","
","""event"",""trial"",""time""
""fullscreenenter"",""1"",""1767""
","
","","","","","","1249.7999999523163","images/plane3.png","","","memory_trial","4","definitely_new",""
"html-keyboard-response","237","429896","0.0-18.0-0.96","4364","approach_avoid_sv1","""event"",""trial"",""time""
""fullscreenenter"",""1"",""1767""
","
","
","""event"",""trial"",""time""
""fullscreenenter"",""1"",""1767""
","
","","","","","","null","<div style=""font-size:60px;"">+</div>","null","","fixation","","",""
"memory-trial","238","432945","0.0-18.0-1.96","4364","approach_avoid_sv1","""event"",""trial"",""time""
""fullscreenenter"",""1"",""1767""
","
","
","""event"",""trial"",""time""
""fullscreenenter"",""1"",""1767""
","
","","","","","","2044.2000000476837","images/rodent8.png","","","memory_trial","2","maybe_old",""
"html-keyboard-response","239","433448","0.0-18.0-0.97","4364","approach_avoid_sv1","""event"",""trial"",""time""
""fullscreenenter"",""1"",""1767""
","
","
","""event"",""trial"",""time""
""fullscreenenter"",""1"",""1767""
","
","","","","","","null","<div style=""font-size:60px;"">+</div>","null","","fixation","","",""
"memory-trial","240","435376","0.0-18.0-1.97","4364","approach_avoid_sv1","""event"",""trial"",""time""
""fullscreenenter"",""1"",""1767""
","
","
","""event"",""trial"",""time""
""fullscreenenter"",""1"",""1767""
","
","","","","","","922.8000000119209","images/apple8.png","","","memory_trial","1","definitely_old",""
"html-keyboard-response","241","435879","0.0-18.0-0.98","4364","approach_avoid_sv1","""event"",""trial"",""time""
""fullscreenenter"",""1"",""1767""
","
","
","""event"",""trial"",""time""
""fullscreenenter"",""1"",""1767""
","
","","","","","","null","<div style=""font-size:60px;"">+</div>","null","","fixation","","",""
"memory-trial","242","438240","0.0-18.0-1.98","4364","approach_avoid_sv1","""event"",""trial"",""time""
""fullscreenenter"",""1"",""1767""
","
","
","""event"",""trial"",""time""
""fullscreenenter"",""1"",""1767""
","
","","","","","","1351.3999999761581","images/cat8.png","","","memory_trial","3","maybe_new",""
"html-keyboard-response","243","438744","0.0-18.0-0.99","4364","approach_avoid_sv1","""event"",""trial"",""time""
""fullscreenenter"",""1"",""1767""
","
","
","""event"",""trial"",""time""
""fullscreenenter"",""1"",""1767""
","
","","","","","","null","<div style=""font-size:60px;"">+</div>","null","","fixation","","",""
"memory-trial","244","440696","0.0-18.0-1.99","4364","approach_avoid_sv1","""event"",""trial"",""time""
""fullscreenenter"",""1"",""1767""
","
","
","""event"",""trial"",""time""
""fullscreenenter"",""1"",""1767""
","
","","","","","","945.1999999880791","images/cat7.png","","","memory_trial","3","maybe_new",""
"html-keyboard-response","245","441199","0.0-18.0-0.100","4364","approach_avoid_sv1","""event"",""trial"",""time""
""fullscreenenter"",""1"",""1767""
","
","
","""event"",""trial"",""time""
""fullscreenenter"",""1"",""1767""
","
","","","","","","null","<div style=""font-size:60px;"">+</div>","null","","fixation","","",""
"memory-trial","246","443015","0.0-18.0-1.100","4364","approach_avoid_sv1","""event"",""trial"",""time""
""fullscreenenter"",""1"",""1767""
","
","
","""event"",""trial"",""time""
""fullscreenenter"",""1"",""1767""
","
","","","","","","807.5999999642372","images/table8.png","","","memory_trial","1","definitely_old",""
"html-keyboard-response","247","443519","0.0-18.0-0.101","4364","approach_avoid_sv1","""event"",""trial"",""time""
""fullscreenenter"",""1"",""1767""
","
","
","""event"",""trial"",""time""
""fullscreenenter"",""1"",""1767""
","
","","","","","","null","<div style=""font-size:60px;"">+</div>","null","","fixation","","",""
"memory-trial","248","445759","0.0-18.0-1.101","4364","approach_avoid_sv1","""event"",""trial"",""time""
""fullscreenenter"",""1"",""1767""
","
","
","""event"",""trial"",""time""
""fullscreenenter"",""1"",""1767""
","
","","","","","","1232","images/flower8.png","","","memory_trial","4","definitely_new",""
"html-keyboard-response","249","446263","0.0-18.0-0.102","4364","approach_avoid_sv1","""event"",""trial"",""time""
""fullscreenenter"",""1"",""1767""
","
","
","""event"",""trial"",""time""
""fullscreenenter"",""1"",""1767""
","
","","","","","","null","<div style=""font-size:60px;"">+</div>","null","","fixation","","",""
"memory-trial","250","448582","0.0-18.0-1.102","4364","approach_avoid_sv1","""event"",""trial"",""time""
""fullscreenenter"",""1"",""1767""
","
","
","""event"",""trial"",""time""
""fullscreenenter"",""1"",""1767""
","
","","","","","","1315.3999999761581","images/goat7.png","","","memory_trial","2","maybe_old",""
"html-keyboard-response","251","449087","0.0-18.0-0.103","4364","approach_avoid_sv1","""event"",""trial"",""time""
""fullscreenenter"",""1"",""1767""
","
","
","""event"",""trial"",""time""
""fullscreenenter"",""1"",""1767""
","
","","","","","","null","<div style=""font-size:60px;"">+</div>","null","","fixation","","",""
"memory-trial","252","451110","0.0-18.0-1.103","4364","approach_avoid_sv1","""event"",""trial"",""time""
""fullscreenenter"",""1"",""1767""
","
","
","""event"",""trial"",""time""
""fullscreenenter"",""1"",""1767""
","
","","","","","","1017.2999999523163","images/truck4.png","","","memory_trial","3","maybe_new",""
"html-keyboard-response","253","451615","0.0-18.0-0.104","4364","approach_avoid_sv1","""event"",""trial"",""time""
""fullscreenenter"",""1"",""1767""
","
","
","""event"",""trial"",""time""
""fullscreenenter"",""1"",""1767""
","
","","","","","","null","<div style=""font-size:60px;"">+</div>","null","","fixation","","",""
"memory-trial","254","453455","0.0-18.0-1.104","4364","approach_avoid_sv1","""event"",""trial"",""time""
""fullscreenenter"",""1"",""1767""
","
","
","""event"",""trial"",""time""
""fullscreenenter"",""1"",""1767""
","
","","","","","","829.3000000119209","images/bush7.png","","","memory_trial","1","definitely_old",""
"html-keyboard-response","255","453959","0.0-18.0-0.105","4364","approach_avoid_sv1","""event"",""trial"",""time""
""fullscreenenter"",""1"",""1767""
","
","
","""event"",""trial"",""time""
""fullscreenenter"",""1"",""1767""
","
","","","","","","null","<div style=""font-size:60px;"">+</div>","null","","fixation","","",""
"memory-trial","256","455943","0.0-18.0-1.105","4364","approach_avoid_sv1","""event"",""trial"",""time""
""fullscreenenter"",""1"",""1767""
","
","
","""event"",""trial"",""time""
""fullscreenenter"",""1"",""1767""
","
","","","","","","979.8000000119209","images/cat2.png","","","memory_trial","4","definitely_new",""
"html-keyboard-response","257","456447","0.0-18.0-0.106","4364","approach_avoid_sv1","""event"",""trial"",""time""
""fullscreenenter"",""1"",""1767""
","
","
","""event"",""trial"",""time""
""fullscreenenter"",""1"",""1767""
","
","","","","","","null","<div style=""font-size:60px;"">+</div>","null","","fixation","","",""
"memory-trial","258","458190","0.0-18.0-1.106","4364","approach_avoid_sv1","""event"",""trial"",""time""
""fullscreenenter"",""1"",""1767""
","
","
","""event"",""trial"",""time""
""fullscreenenter"",""1"",""1767""
","
","","","","","","738.5","images/sofa6.png","","","memory_trial","1","definitely_old",""
"html-keyboard-response","259","458694","0.0-18.0-0.107","4364","approach_avoid_sv1","""event"",""trial"",""time""
""fullscreenenter"",""1"",""1767""
","
","
","""event"",""trial"",""time""
""fullscreenenter"",""1"",""1767""
","
","","","","","","null","<div style=""font-size:60px;"">+</div>","null","","fixation","","",""
"memory-trial","260","460886","0.0-18.0-1.107","4364","approach_avoid_sv1","""event"",""trial"",""time""
""fullscreenenter"",""1"",""1767""
","
","
","""event"",""trial"",""time""
""fullscreenenter"",""1"",""1767""
","
","","","","","","1184.800000011921","images/bed3.png","","","memory_trial","2","maybe_old",""
"html-keyboard-response","261","461390","0.0-18.0-0.108","4364","approach_avoid_sv1","""event"",""trial"",""time""
""fullscreenenter"",""1"",""1767""
","
","
","""event"",""trial"",""time""
""fullscreenenter"",""1"",""1767""
","
","","","","","","null","<div style=""font-size:60px;"">+</div>","null","","fixation","","",""
"memory-trial","262","463590","0.0-18.0-1.108","4364","approach_avoid_sv1","""event"",""trial"",""time""
""fullscreenenter"",""1"",""1767""
","
","
","""event"",""trial"",""time""
""fullscreenenter"",""1"",""1767""
","
","","","","","","1191.300000011921","images/orange4.png","","","memory_trial","3","maybe_new",""
"html-keyboard-response","263","464094","0.0-18.0-0.109","4364","approach_avoid_sv1","""event"",""trial"",""time""
""fullscreenenter"",""1"",""1767""
","
","
","""event"",""trial"",""time""
""fullscreenenter"",""1"",""1767""
","
","","","","","","null","<div style=""font-size:60px;"">+</div>","null","","fixation","","",""
"memory-trial","264","466006","0.0-18.0-1.109","4364","approach_avoid_sv1","""event"",""trial"",""time""
""fullscreenenter"",""1"",""1767""
","
","
","""event"",""trial"",""time""
""fullscreenenter"",""1"",""1767""
","
","","","","","","901.8000000119209","images/train8.png","","","memory_trial","4","definitely_new",""
"html-keyboard-response","265","466510","0.0-18.0-0.110","4364","approach_avoid_sv1","""event"",""trial"",""time""
""fullscreenenter"",""1"",""1767""
","
","
","""event"",""trial"",""time""
""fullscreenenter"",""1"",""1767""
","
","","","","","","null","<div style=""font-size:60px;"">+</div>","null","","fixation","","",""
"memory-trial","266","468790","0.0-18.0-1.110","4364","approach_avoid_sv1","""event"",""trial"",""time""
""fullscreenenter"",""1"",""1767""
","
","
","""event"",""trial"",""time""
""fullscreenenter"",""1"",""1767""
","
","","","","","","1274.9000000357628","images/bed6.png","","","memory_trial","1","definitely_old",""
"html-keyboard-response","267","469293","0.0-18.0-0.111","4364","approach_avoid_sv1","""event"",""trial"",""time""
""fullscreenenter"",""1"",""1767""
","
","
","""event"",""trial"",""time""
""fullscreenenter"",""1"",""1767""
","
","","","","","","null","<div style=""font-size:60px;"">+</div>","null","","fixation","","",""
"memory-trial","268","471183","0.0-18.0-1.111","4364","approach_avoid_sv1","""event"",""trial"",""time""
""fullscreenenter"",""1"",""1767""
","
","
","""event"",""trial"",""time""
""fullscreenenter"",""1"",""1767""
","
","","","","","","884.8000000119209","images/truck1.png","","","memory_trial","3","maybe_new",""
"html-keyboard-response","269","471686","0.0-18.0-0.112","4364","approach_avoid_sv1","""event"",""trial"",""time""
""fullscreenenter"",""1"",""1767""
","
","
","""event"",""trial"",""time""
""fullscreenenter"",""1"",""1767""
","
","","","","","","null","<div style=""font-size:60px;"">+</div>","null","","fixation","","",""
"memory-trial","270","473582","0.0-18.0-1.112","4364","approach_avoid_sv1","""event"",""trial"",""time""
""fullscreenenter"",""1"",""1767""
","
","
","""event"",""trial"",""time""
""fullscreenenter"",""1"",""1767""
","
","","","","","","883.3999999761581","images/horse2.png","","","memory_trial","1","definitely_old",""
"html-keyboard-response","271","474086","0.0-18.0-0.113","4364","approach_avoid_sv1","""event"",""trial"",""time""
""fullscreenenter"",""1"",""1767""
","
","
","""event"",""trial"",""time""
""fullscreenenter"",""1"",""1767""
","
","","","","","","null","<div style=""font-size:60px;"">+</div>","null","","fixation","","",""
"memory-trial","272","476182","0.0-18.0-1.113","4364","approach_avoid_sv1","""event"",""trial"",""time""
""fullscreenenter"",""1"",""1767""
","
","
","""event"",""trial"",""time""
""fullscreenenter"",""1"",""1767""
","
","","","","","","1091.2000000476837","images/train1.png","","","memory_trial","4","definitely_new",""
"html-keyboard-response","273","476685","0.0-18.0-0.114","4364","approach_avoid_sv1","""event"",""trial"",""time""
""fullscreenenter"",""1"",""1767""
","
","
","""event"",""trial"",""time""
""fullscreenenter"",""1"",""1767""
","
","","","","","","null","<div style=""font-size:60px;"">+</div>","null","","fixation","","",""
"memory-trial","274","478893","0.0-18.0-1.114","4364","approach_avoid_sv1","""event"",""trial"",""time""
""fullscreenenter"",""1"",""1767""
","
","
","""event"",""trial"",""time""
""fullscreenenter"",""1"",""1767""
","
","","","","","","1197.4000000357628","images/sheep6.png","","","memory_trial","3","maybe_new",""
"html-keyboard-response","275","479397","0.0-18.0-0.115","4364","approach_avoid_sv1","""event"",""trial"",""time""
""fullscreenenter"",""1"",""1767""
","
","
","""event"",""trial"",""time""
""fullscreenenter"",""1"",""1767""
","
","","","","","","null","<div style=""font-size:60px;"">+</div>","null","","fixation","","",""
"memory-trial","276","482237","0.0-18.0-1.115","4364","approach_avoid_sv1","""event"",""trial"",""time""
""fullscreenenter"",""1"",""1767""
","
","
","""event"",""trial"",""time""
""fullscreenenter"",""1"",""1767""
","
","","","","","","1830.300000011921","images/orange3.png","","","memory_trial","3","maybe_new",""
"html-keyboard-response","277","482741","0.0-18.0-0.116","4364","approach_avoid_sv1","""event"",""trial"",""time""
""fullscreenenter"",""1"",""1767""
","
","
","""event"",""trial"",""time""
""fullscreenenter"",""1"",""1767""
","
","","","","","","null","<div style=""font-size:60px;"">+</div>","null","","fixation","","",""
"memory-trial","278","485277","0.0-18.0-1.116","4364","approach_avoid_sv1","""event"",""trial"",""time""
""fullscreenenter"",""1"",""1767""
","
","
","""event"",""trial"",""time""
""fullscreenenter"",""1"",""1767""
","
","","","","","","1527.1000000238419","images/goat5.png","","","memory_trial","2","maybe_old",""
"html-keyboard-response","279","485781","0.0-18.0-0.117","4364","approach_avoid_sv1","""event"",""trial"",""time""
""fullscreenenter"",""1"",""1767""
","
","
","""event"",""trial"",""time""
""fullscreenenter"",""1"",""1767""
","
","","","","","","null","<div style=""font-size:60px;"">+</div>","null","","fixation","","",""
"memory-trial","280","487844","0.0-18.0-1.117","4364","approach_avoid_sv1","""event"",""trial"",""time""
""fullscreenenter"",""1"",""1767""
","
","
","""event"",""trial"",""time""
""fullscreenenter"",""1"",""1767""
","
","","","","","","1052.4000000357628","images/truck5.png","","","memory_trial","1","definitely_old",""
"html-keyboard-response","281","488349","0.0-18.0-0.118","4364","approach_avoid_sv1","""event"",""trial"",""time""
""fullscreenenter"",""1"",""1767""
","
","
","""event"",""trial"",""time""
""fullscreenenter"",""1"",""1767""
","
","","","","","","null","<div style=""font-size:60px;"">+</div>","null","","fixation","","",""
"memory-trial","282","490620","0.0-18.0-1.118","4364","approach_avoid_sv1","""event"",""trial"",""time""
""fullscreenenter"",""1"",""1767""
","
","
","""event"",""trial"",""time""
""fullscreenenter"",""1"",""1767""
","
","","","","","","1263.7999999523163","images/banana6.png","","","memory_trial","3","maybe_new",""
"html-keyboard-response","283","491124","0.0-18.0-0.119","4364","approach_avoid_sv1","""event"",""trial"",""time""
""fullscreenenter"",""1"",""1767""
","
","
","""event"",""trial"",""time""
""fullscreenenter"",""1"",""1767""
","
","","","","","","null","<div style=""font-size:60px;"">+</div>","null","","fixation","","",""
"memory-trial","284","493548","0.0-18.0-1.119","4364","approach_avoid_sv1","""event"",""trial"",""time""
""fullscreenenter"",""1"",""1767""
","
","
","""event"",""trial"",""time""
""fullscreenenter"",""1"",""1767""
","
","","","","","","1414","images/bush8.png","","","memory_trial","2","maybe_old",""
"html-keyboard-response","285","494052","0.0-18.0-0.120","4364","approach_avoid_sv1","""event"",""trial"",""time""
""fullscreenenter"",""1"",""1767""
","
","
","""event"",""trial"",""time""
""fullscreenenter"",""1"",""1767""
","
","","","","","","null","<div style=""font-size:60px;"">+</div>","null","","fixation","","",""
"memory-trial","286","496028","0.0-18.0-1.120","4364","approach_avoid_sv1","""event"",""trial"",""time""
""fullscreenenter"",""1"",""1767""
","
","
","""event"",""trial"",""time""
""fullscreenenter"",""1"",""1767""
","
","","","","","","963.5","images/flower3.png","","","memory_trial","4","definitely_new",""
"html-keyboard-response","287","496532","0.0-18.0-0.121","4364","approach_avoid_sv1","""event"",""trial"",""time""
""fullscreenenter"",""1"",""1767""
","
","
","""event"",""trial"",""time""
""fullscreenenter"",""1"",""1767""
","
","","","","","","null","<div style=""font-size:60px;"">+</div>","null","","fixation","","",""
"memory-trial","288","498460","0.0-18.0-1.121","4364","approach_avoid_sv1","""event"",""trial"",""time""
""fullscreenenter"",""1"",""1767""
","
","
","""event"",""trial"",""time""
""fullscreenenter"",""1"",""1767""
","
","","","","","","921.2000000476837","images/sheep3.png","","","memory_trial","3","maybe_new",""
"html-keyboard-response","289","498964","0.0-18.0-0.122","4364","approach_avoid_sv1","""event"",""trial"",""time""
""fullscreenenter"",""1"",""1767""
","
","
","""event"",""trial"",""time""
""fullscreenenter"",""1"",""1767""
","
","","","","","","null","<div style=""font-size:60px;"">+</div>","null","","fixation","","",""
"memory-trial","290","501012","0.0-18.0-1.122","4364","approach_avoid_sv1","""event"",""trial"",""time""
""fullscreenenter"",""1"",""1767""
","
","
","""event"",""trial"",""time""
""fullscreenenter"",""1"",""1767""
","
","","","","","","1040.6000000238419","images/truck7.png","","","memory_trial","3","maybe_new",""
"html-keyboard-response","291","501516","0.0-18.0-0.123","4364","approach_avoid_sv1","""event"",""trial"",""time""
""fullscreenenter"",""1"",""1767""
","
","
","""event"",""trial"",""time""
""fullscreenenter"",""1"",""1767""
","
","","","","","","null","<div style=""font-size:60px;"">+</div>","null","","fixation","","",""
"memory-trial","292","503325","0.0-18.0-1.123","4364","approach_avoid_sv1","""event"",""trial"",""time""
""fullscreenenter"",""1"",""1767""
","
","
","""event"",""trial"",""time""
""fullscreenenter"",""1"",""1767""
","
","","","","","","798","images/rabbit2.png","","","memory_trial","1","definitely_old",""
"html-keyboard-response","293","503828","0.0-18.0-0.124","4364","approach_avoid_sv1","""event"",""trial"",""time""
""fullscreenenter"",""1"",""1767""
","
","
","""event"",""trial"",""time""
""fullscreenenter"",""1"",""1767""
","
","","","","","","null","<div style=""font-size:60px;"">+</div>","null","","fixation","","",""
"memory-trial","294","505604","0.0-18.0-1.124","4364","approach_avoid_sv1","""event"",""trial"",""time""
""fullscreenenter"",""1"",""1767""
","
","
","""event"",""trial"",""time""
""fullscreenenter"",""1"",""1767""
","
","","","","","","770.8999999761581","images/boat3.png","","","memory_trial","1","definitely_old",""
"html-keyboard-response","295","506108","0.0-18.0-0.125","4364","approach_avoid_sv1","""event"",""trial"",""time""
""fullscreenenter"",""1"",""1767""
","
","
","""event"",""trial"",""time""
""fullscreenenter"",""1"",""1767""
","
","","","","","","null","<div style=""font-size:60px;"">+</div>","null","","fixation","","",""
"memory-trial","296","508588","0.0-18.0-1.125","4364","approach_avoid_sv1","""event"",""trial"",""time""
""fullscreenenter"",""1"",""1767""
","
","
","""event"",""trial"",""time""
""fullscreenenter"",""1"",""1767""
","
","","","","","","1475.7999999523163","images/sheep2.png","","","memory_trial","3","maybe_new",""
"html-keyboard-response","297","509092","0.0-18.0-0.126","4364","approach_avoid_sv1","""event"",""trial"",""time""
""fullscreenenter"",""1"",""1767""
","
","
","""event"",""trial"",""time""
""fullscreenenter"",""1"",""1767""
","
