"trial_type","trial_index","time_elapsed","internal_node_id","subject_id","task_version","interactions","blur_events","focus_events","fullscreenenter_events","fullscreenexit_events","success","timeout","failed_images","failed_audio","failed_video","rt","stimulus","response","button_pressed","task_part","key_press","answer","correct"
"pavlovia","0","18","0.0-0.0","5317","approach_avoid_sv1","""event"",""trial"",""time""
""blur"",""1"",""5353""
""focus"",""1"",""29651""
""fullscreenenter"",""1"",""43769""
","""event"",""trial"",""time""
""blur"",""1"",""5353""
","""event"",""trial"",""time""
""focus"",""1"",""29651""
","""event"",""trial"",""time""
""fullscreenenter"",""1"",""43769""
","
","","","","","","","","","","","","",""
"fullscreen","1","44762","0.0-1.0","5317","approach_avoid_sv1","""event"",""trial"",""time""
""blur"",""1"",""5353""
""focus"",""1"",""29651""
""fullscreenenter"",""1"",""43769""
","""event"",""trial"",""time""
""blur"",""1"",""5353""
","""event"",""trial"",""time""
""focus"",""1"",""29651""
","""event"",""trial"",""time""
""fullscreenenter"",""1"",""43769""
","
","true","","","","","","","","","","","",""
"preload","2","61387","0.0-2.0","5317","approach_avoid_sv1","""event"",""trial"",""time""
""blur"",""1"",""5353""
""focus"",""1"",""29651""
""fullscreenenter"",""1"",""43769""
","""event"",""trial"",""time""
""blur"",""1"",""5353""
","""event"",""trial"",""time""
""focus"",""1"",""29651""
","""event"",""trial"",""time""
""fullscreenenter"",""1"",""43769""
","
","true","false","[]","[]","[]","","","","","","","",""
"preload","3","79057","0.0-3.0","5317","approach_avoid_sv1","""event"",""trial"",""time""
""blur"",""1"",""5353""
""focus"",""1"",""29651""
""fullscreenenter"",""1"",""43769""
","""event"",""trial"",""time""
""blur"",""1"",""5353""
","""event"",""trial"",""time""
""focus"",""1"",""29651""
","""event"",""trial"",""time""
""fullscreenenter"",""1"",""43769""
","
","true","false","[]","[]","[]","","","","","","","",""
"preload","4","80126","0.0-4.0","5317","approach_avoid_sv1","""event"",""trial"",""time""
""blur"",""1"",""5353""
""focus"",""1"",""29651""
""fullscreenenter"",""1"",""43769""
","""event"",""trial"",""time""
""blur"",""1"",""5353""
","""event"",""trial"",""time""
""focus"",""1"",""29651""
","""event"",""trial"",""time""
""fullscreenenter"",""1"",""43769""
","
","true","false","[]","[]","[]","","","","","","","",""
"audio-keyboard-response","5","100289","0.0-5.0","5317","approach_avoid_sv1","""event"",""trial"",""time""
""blur"",""1"",""5353""
""focus"",""1"",""29651""
""fullscreenenter"",""1"",""43769""
","""event"",""trial"",""time""
""blur"",""1"",""5353""
","""event"",""trial"",""time""
""focus"",""1"",""29651""
","""event"",""trial"",""time""
""fullscreenenter"",""1"",""43769""
","
","","","","","","20160","audio/beep_loop.wav"," ","","","","",""
"audio-button-response","6","102503","0.0-6.0","5317","approach_avoid_sv1","""event"",""trial"",""time""
""blur"",""1"",""5353""
""focus"",""1"",""29651""
""fullscreenenter"",""1"",""43769""
","""event"",""trial"",""time""
""blur"",""1"",""5353""
","""event"",""trial"",""time""
""focus"",""1"",""29651""
","""event"",""trial"",""time""
""fullscreenenter"",""1"",""43769""
","
","","","","","","2219","audio/turtle.wav","3","","","","",""
"audio-button-response","7","104761","0.0-7.0","5317","approach_avoid_sv1","""event"",""trial"",""time""
""blur"",""1"",""5353""
""focus"",""1"",""29651""
""fullscreenenter"",""1"",""43769""
","""event"",""trial"",""time""
""blur"",""1"",""5353""
","""event"",""trial"",""time""
""focus"",""1"",""29651""
","""event"",""trial"",""time""
""fullscreenenter"",""1"",""43769""
","
","","","","","","1248","audio/shark.wav","2","","","","",""
"preload","8","126254","0.0-8.0","5317","approach_avoid_sv1","""event"",""trial"",""time""
""blur"",""1"",""5353""
""focus"",""1"",""29651""
""fullscreenenter"",""1"",""43769""
","""event"",""trial"",""time""
""blur"",""1"",""5353""
","""event"",""trial"",""time""
""focus"",""1"",""29651""
","""event"",""trial"",""time""
""fullscreenenter"",""1"",""43769""
","
","true","false","[]","[]","[]","","","","","","","",""
"learning-instructions","9","132909","0.0-9.0-0.0","5317","approach_avoid_sv1","""event"",""trial"",""time""
""blur"",""1"",""5353""
""focus"",""1"",""29651""
""fullscreenenter"",""1"",""43769""
","""event"",""trial"",""time""
""blur"",""1"",""5353""
","""event"",""trial"",""time""
""focus"",""1"",""29651""
","""event"",""trial"",""time""
""fullscreenenter"",""1"",""43769""
","
","","","","","","2171.4000000003725","<p> Welcome back! </p><p> Last week, you had to make choices about lots of different items.  </p>","","0","instructions","","",""
"learning-instructions","10","145209","0.0-9.0-0.1","5317","approach_avoid_sv1","""event"",""trial"",""time""
""blur"",""1"",""5353""
""focus"",""1"",""29651""
""fullscreenenter"",""1"",""43769""
","""event"",""trial"",""time""
""blur"",""1"",""5353""
","""event"",""trial"",""time""
""focus"",""1"",""29651""
","""event"",""trial"",""time""
""fullscreenenter"",""1"",""43769""
","
","","","","","","8189","<p> Today, we are going to ask you to try to remember all the items. </p>","","0","instructions","","",""
"learning-instructions","11","156008","0.0-9.0-0.2","5317","approach_avoid_sv1","""event"",""trial"",""time""
""blur"",""1"",""5353""
""focus"",""1"",""29651""
""fullscreenenter"",""1"",""43769""
","""event"",""trial"",""time""
""blur"",""1"",""5353""
","""event"",""trial"",""time""
""focus"",""1"",""29651""
","""event"",""trial"",""time""
""fullscreenenter"",""1"",""43769""
","
","","","","","","662.8000000007451","<p> On every trial, you will see an image. </p><p> The image may be an OLD image you saw during the games last week or it may be a NEW image that was not presented. </p>","","0","instructions","","",""
"learning-instructions","12","165529","0.0-9.0-0.3","5317","approach_avoid_sv1","""event"",""trial"",""time""
""blur"",""1"",""5353""
""focus"",""1"",""29651""
""fullscreenenter"",""1"",""43769""
","""event"",""trial"",""time""
""blur"",""1"",""5353""
","""event"",""trial"",""time""
""focus"",""1"",""29651""
","""event"",""trial"",""time""
""fullscreenenter"",""1"",""43769""
","
","","","","","","1020.8000000007451","<p> You need to select whether the image is:  </p><p>  'Definitely old', 'Maybe old', 'Maybe new', or 'Definitely new.'  </p><div class=""mem-choice-instructions-grid""><div class=""choice-option"" id=""choice-option-1"" ><img src=""images/definitely_old_1.png"" id=""choice-option-img-1"" class=""choice-option-img"" stage=""1""></div><div class=""choice-option"" id=""choice-option-2"" ><img src=""images/maybe_old_1.png"" id=""choice-option-img-2"" class=""choice-option-img"" stage=""1""></div><div class=""choice-option"" id=""choice-option-3"" ><img src=""images/maybe_new_1.png"" id=""choice-option-img-3"" class=""choice-option-img"" stage=""1""></div><div class=""choice-option"" id=""choice-option-4"" > <img src=""images/definitely_new_1.png"" id=""choice-option-img-4"" class=""choice-option-img"" stage=""1""></div></div>","","0","instructions","","",""
"learning-instructions","13","172926","0.0-9.0-0.4","5317","approach_avoid_sv1","""event"",""trial"",""time""
""blur"",""1"",""5353""
""focus"",""1"",""29651""
""fullscreenenter"",""1"",""43769""
","""event"",""trial"",""time""
""blur"",""1"",""5353""
","""event"",""trial"",""time""
""focus"",""1"",""29651""
","""event"",""trial"",""time""
""fullscreenenter"",""1"",""43769""
","
","","","","","","876.7000000011176","<p> You should use the 1, 2, 3, and 4 keys to make your responses.  </p><div class=""mem-choice-instructions-grid""><div class=""choice-option"" id=""choice-option-1"" ><img src=""images/definitely_old.png"" id=""choice-option-img-1"" class=""choice-option-img"" stage=""1""></div><div class=""choice-option"" id=""choice-option-2"" ><img src=""images/maybe_old.png"" id=""choice-option-img-2"" class=""choice-option-img"" stage=""1""></div><div class=""choice-option"" id=""choice-option-3"" ><img src=""images/maybe_new.png"" id=""choice-option-img-3"" class=""choice-option-img"" stage=""1""></div><div class=""choice-option"" id=""choice-option-4"" > <img src=""images/definitely_new.png"" id=""choice-option-img-4"" class=""choice-option-img"" stage=""1""></div></div>","","0","instructions","","",""
"learning-instructions","14","179778","0.0-9.0-0.5","5317","approach_avoid_sv1","""event"",""trial"",""time""
""blur"",""1"",""5353""
""focus"",""1"",""29651""
""fullscreenenter"",""1"",""43769""
","""event"",""trial"",""time""
""blur"",""1"",""5353""
","""event"",""trial"",""time""
""focus"",""1"",""29651""
","""event"",""trial"",""time""
""fullscreenenter"",""1"",""43769""
","
","","","","","","518.5","<p> You will have 10 seconds to make each response.  </p><p>  Make sure to respond before time runs out! </p>","","0","instructions","","",""
"learning-instructions","15","188177","0.0-9.0-0.6","5317","approach_avoid_sv1","""event"",""trial"",""time""
""blur"",""1"",""5353""
""focus"",""1"",""29651""
""fullscreenenter"",""1"",""43769""
","""event"",""trial"",""time""
""blur"",""1"",""5353""
","""event"",""trial"",""time""
""focus"",""1"",""29651""
","""event"",""trial"",""time""
""fullscreenenter"",""1"",""43769""
","
","","","","","","1322.5999999996275","<p> Today, you will see each image ONCE only.  </p><p>  That means none of the images will repeat. </p>","","0","instructions","","",""
"learning-instructions","16","202533","0.0-9.0-0.7","5317","approach_avoid_sv1","""event"",""trial"",""time""
""blur"",""1"",""5353""
""focus"",""1"",""29651""
""fullscreenenter"",""1"",""43769""
","""event"",""trial"",""time""
""blur"",""1"",""5353""
","""event"",""trial"",""time""
""focus"",""1"",""29651""
","""event"",""trial"",""time""
""fullscreenenter"",""1"",""43769""
","
","","","","","","1683.7999999988824","<p> Before you play the real game, it is time to practice. </p><p>  Just like in the real game, some of the images in the practice will be ones you have seen before. </p><p>  Others will be entirely new. </p>","","0","instructions","","",""
"html-button-response","17","205808","0.0-10.0","5317","approach_avoid_sv1","""event"",""trial"",""time""
""blur"",""1"",""5353""
""focus"",""1"",""29651""
""fullscreenenter"",""1"",""43769""
","""event"",""trial"",""time""
""blur"",""1"",""5353""
","""event"",""trial"",""time""
""focus"",""1"",""29651""
","""event"",""trial"",""time""
""fullscreenenter"",""1"",""43769""
","
","","","","","","3171.89999999851","<p> Ready to practice? </p><p> Remember, use the 1, 2, 3, and 4 keys to make your responses. </p>","0","","instructions","","",""
"html-keyboard-response","18","206418","0.0-11.0-0.0","5317","approach_avoid_sv1","""event"",""trial"",""time""
""blur"",""1"",""5353""
""focus"",""1"",""29651""
""fullscreenenter"",""1"",""43769""
","""event"",""trial"",""time""
""blur"",""1"",""5353""
","""event"",""trial"",""time""
""focus"",""1"",""29651""
","""event"",""trial"",""time""
""fullscreenenter"",""1"",""43769""
","
","","","","","","null","<div style=""font-size:60px;"">+</div>","null","","fixation","","",""
"memory-trial","19","209610","0.0-11.0-1.0","5317","approach_avoid_sv1","""event"",""trial"",""time""
""blur"",""1"",""5353""
""focus"",""1"",""29651""
""fullscreenenter"",""1"",""43769""
","""event"",""trial"",""time""
""blur"",""1"",""5353""
","""event"",""trial"",""time""
""focus"",""1"",""29651""
","""event"",""trial"",""time""
""fullscreenenter"",""1"",""43769""
","
","","","","","","2183.699999999255","images/ball2.png","","","practice","1","definitely_old",""
"html-keyboard-response","20","210114","0.0-11.0-0.1","5317","approach_avoid_sv1","""event"",""trial"",""time""
""blur"",""1"",""5353""
""focus"",""1"",""29651""
""fullscreenenter"",""1"",""43769""
","""event"",""trial"",""time""
""blur"",""1"",""5353""
","""event"",""trial"",""time""
""focus"",""1"",""29651""
","""event"",""trial"",""time""
""fullscreenenter"",""1"",""43769""
","
","","","","","","null","<div style=""font-size:60px;"">+</div>","null","","fixation","","",""
"memory-trial","21","212274","0.0-11.0-1.1","5317","approach_avoid_sv1","""event"",""trial"",""time""
""blur"",""1"",""5353""
""focus"",""1"",""29651""
""fullscreenenter"",""1"",""43769""
","""event"",""trial"",""time""
""blur"",""1"",""5353""
","""event"",""trial"",""time""
""focus"",""1"",""29651""
","""event"",""trial"",""time""
""fullscreenenter"",""1"",""43769""
","
","","","","","","1150","images/racket3.png","","","practice","1","definitely_old",""
"html-keyboard-response","22","212778","0.0-11.0-0.2","5317","approach_avoid_sv1","""event"",""trial"",""time""
""blur"",""1"",""5353""
""focus"",""1"",""29651""
""fullscreenenter"",""1"",""43769""
","""event"",""trial"",""time""
""blur"",""1"",""5353""
","""event"",""trial"",""time""
""focus"",""1"",""29651""
","""event"",""trial"",""time""
""fullscreenenter"",""1"",""43769""
","
","","","","","","null","<div style=""font-size:60px;"">+</div>","null","","fixation","","",""
"memory-trial","23","215762","0.0-11.0-1.2","5317","approach_avoid_sv1","""event"",""trial"",""time""
""blur"",""1"",""5353""
""focus"",""1"",""29651""
""fullscreenenter"",""1"",""43769""
","""event"",""trial"",""time""
""blur"",""1"",""5353""
","""event"",""trial"",""time""
""focus"",""1"",""29651""
","""event"",""trial"",""time""
""fullscreenenter"",""1"",""43769""
","
","","","","","","1974.7000000011176","images/ball5.png","","","practice","2","maybe_old",""
"html-keyboard-response","24","216266","0.0-11.0-0.3","5317","approach_avoid_sv1","""event"",""trial"",""time""
""blur"",""1"",""5353""
""focus"",""1"",""29651""
""fullscreenenter"",""1"",""43769""
","""event"",""trial"",""time""
""blur"",""1"",""5353""
","""event"",""trial"",""time""
""focus"",""1"",""29651""
","""event"",""trial"",""time""
""fullscreenenter"",""1"",""43769""
","
","","","","","","null","<div style=""font-size:60px;"">+</div>","null","","fixation","","",""
"memory-trial","25","218843","0.0-11.0-1.3","5317","approach_avoid_sv1","""event"",""trial"",""time""
""blur"",""1"",""5353""
""focus"",""1"",""29651""
""fullscreenenter"",""1"",""43769""
","""event"",""trial"",""time""
""blur"",""1"",""5353""
","""event"",""trial"",""time""
""focus"",""1"",""29651""
","""event"",""trial"",""time""
""fullscreenenter"",""1"",""43769""
","
","","","","","","1572.699999999255","images/racket2.png","","","practice","2","maybe_old",""
"html-keyboard-response","26","219346","0.0-11.0-0.4","5317","approach_avoid_sv1","""event"",""trial"",""time""
""blur"",""1"",""5353""
""focus"",""1"",""29651""
""fullscreenenter"",""1"",""43769""
","""event"",""trial"",""time""
""blur"",""1"",""5353""
","""event"",""trial"",""time""
""focus"",""1"",""29651""
","""event"",""trial"",""time""
""fullscreenenter"",""1"",""43769""
","
","","","","","","null","<div style=""font-size:60px;"">+</div>","null","","fixation","","",""
"memory-trial","27","221850","0.0-11.0-1.4","5317","approach_avoid_sv1","""event"",""trial"",""time""
""blur"",""1"",""5353""
""focus"",""1"",""29651""
""fullscreenenter"",""1"",""43769""
","""event"",""trial"",""time""
""blur"",""1"",""5353""
","""event"",""trial"",""time""
""focus"",""1"",""29651""
","""event"",""trial"",""time""
""fullscreenenter"",""1"",""43769""
","
","","","","","","1498.0999999996275","images/ball1.png","","","practice","4","definitely_new",""
"html-keyboard-response","28","222354","0.0-11.0-0.5","5317","approach_avoid_sv1","""event"",""trial"",""time""
""blur"",""1"",""5353""
""focus"",""1"",""29651""
""fullscreenenter"",""1"",""43769""
","""event"",""trial"",""time""
""blur"",""1"",""5353""
","""event"",""trial"",""time""
""focus"",""1"",""29651""
","""event"",""trial"",""time""
""fullscreenenter"",""1"",""43769""
","
","","","","","","null","<div style=""font-size:60px;"">+</div>","null","","fixation","","",""
"memory-trial","29","224418","0.0-11.0-1.5","5317","approach_avoid_sv1","""event"",""trial"",""time""
""blur"",""1"",""5353""
""focus"",""1"",""29651""
""fullscreenenter"",""1"",""43769""
","""event"",""trial"",""time""
""blur"",""1"",""5353""
","""event"",""trial"",""time""
""focus"",""1"",""29651""
","""event"",""trial"",""time""
""fullscreenenter"",""1"",""43769""
","
","","","","","","1061.0999999996275","images/ball3.png","","","practice","4","definitely_new",""
"html-keyboard-response","30","224923","0.0-11.0-0.6","5317","approach_avoid_sv1","""event"",""trial"",""time""
""blur"",""1"",""5353""
""focus"",""1"",""29651""
""fullscreenenter"",""1"",""43769""
","""event"",""trial"",""time""
""blur"",""1"",""5353""
","""event"",""trial"",""time""
""focus"",""1"",""29651""
","""event"",""trial"",""time""
""fullscreenenter"",""1"",""43769""
","
","","","","","","null","<div style=""font-size:60px;"">+</div>","null","","fixation","","",""
"memory-trial","31","227202","0.0-11.0-1.6","5317","approach_avoid_sv1","""event"",""trial"",""time""
""blur"",""1"",""5353""
""focus"",""1"",""29651""
""fullscreenenter"",""1"",""43769""
","""event"",""trial"",""time""
""blur"",""1"",""5353""
","""event"",""trial"",""time""
""focus"",""1"",""29651""
","""event"",""trial"",""time""
""fullscreenenter"",""1"",""43769""
","
","","","","","","1269.699999999255","images/racket1.png","","","practice","2","maybe_old",""
"html-keyboard-response","32","227706","0.0-11.0-0.7","5317","approach_avoid_sv1","""event"",""trial"",""time""
""blur"",""1"",""5353""
""focus"",""1"",""29651""
""fullscreenenter"",""1"",""43769""
","""event"",""trial"",""time""
""blur"",""1"",""5353""
","""event"",""trial"",""time""
""focus"",""1"",""29651""
","""event"",""trial"",""time""
""fullscreenenter"",""1"",""43769""
","
","","","","","","null","<div style=""font-size:60px;"">+</div>","null","","fixation","","",""
"memory-trial","33","230202","0.0-11.0-1.7","5317","approach_avoid_sv1","""event"",""trial"",""time""
""blur"",""1"",""5353""
""focus"",""1"",""29651""
""fullscreenenter"",""1"",""43769""
","""event"",""trial"",""time""
""blur"",""1"",""5353""
","""event"",""trial"",""time""
""focus"",""1"",""29651""
","""event"",""trial"",""time""
""fullscreenenter"",""1"",""43769""
","
","","","","","","1492.9000000003725","images/racket5.png","","","practice","2","maybe_old",""
"learning-instructions","34","238524","0.0-12.0-0.0","5317","approach_avoid_sv1","""event"",""trial"",""time""
""blur"",""1"",""5353""
""focus"",""1"",""29651""
""fullscreenenter"",""1"",""43769""
","""event"",""trial"",""time""
""blur"",""1"",""5353""
","""event"",""trial"",""time""
""focus"",""1"",""29651""
","""event"",""trial"",""time""
""fullscreenenter"",""1"",""43769""
","
","","","","","","1013.5","<p> Great! You have completed the practice. </p><p> Before you start, we're going to ask you a few questions about how the game works.  </p>","","0","instructions","","",""
"preload","35","251364","0.0-13.0","5317","approach_avoid_sv1","""event"",""trial"",""time""
""blur"",""1"",""5353""
""focus"",""1"",""29651""
""fullscreenenter"",""1"",""43769""
","""event"",""trial"",""time""
""blur"",""1"",""5353""
","""event"",""trial"",""time""
""focus"",""1"",""29651""
","""event"",""trial"",""time""
""fullscreenenter"",""1"",""43769""
","
","true","false","[]","[]","[]","","","","","","","",""
"comp-q","36","258255","0.0-14.0-0.0","5317","approach_avoid_sv1","""event"",""trial"",""time""
""blur"",""1"",""5353""
""focus"",""1"",""29651""
""fullscreenenter"",""1"",""43769""
","""event"",""trial"",""time""
""blur"",""1"",""5353""
","""event"",""trial"",""time""
""focus"",""1"",""29651""
","""event"",""trial"",""time""
""fullscreenenter"",""1"",""43769""
","
","","","","","","1042.800000000745","<p> <b> True or False? </b> </p><p> In this game, you will only see each image once. </p>","","0","comp_question","","","true"
"comp-q","37","266455","0.0-14.0-1.0","5317","approach_avoid_sv1","""event"",""trial"",""time""
""blur"",""1"",""5353""
""focus"",""1"",""29651""
""fullscreenenter"",""1"",""43769""
","""event"",""trial"",""time""
""blur"",""1"",""5353""
","""event"",""trial"",""time""
""focus"",""1"",""29651""
","""event"",""trial"",""time""
""fullscreenenter"",""1"",""43769""
","
","","","","","","1852.5","<p> <b> That's right! </b> You will see many different images <i> one time each </i> in this game. </p>","","0","comp_answer","","",""
"comp-q","38","272285","0.0-15.0-0.0","5317","approach_avoid_sv1","""event"",""trial"",""time""
""blur"",""1"",""5353""
""focus"",""1"",""29651""
""fullscreenenter"",""1"",""43769""
","""event"",""trial"",""time""
""blur"",""1"",""5353""
","""event"",""trial"",""time""
""focus"",""1"",""29651""
","""event"",""trial"",""time""
""fullscreenenter"",""1"",""43769""
","
","","","","","","823.9000000003725","<p> <b> True or False? </b> </p><p> You should use the mouse and click to make your response. </p>","","1","comp_question","","","true"
"comp-q","39","280487","0.0-15.0-1.0","5317","approach_avoid_sv1","""event"",""trial"",""time""
""blur"",""1"",""5353""
""focus"",""1"",""29651""
""fullscreenenter"",""1"",""43769""
","""event"",""trial"",""time""
""blur"",""1"",""5353""
","""event"",""trial"",""time""
""focus"",""1"",""29651""
","""event"",""trial"",""time""
""fullscreenenter"",""1"",""43769""
","
","","","","","","1697.0999999996275","<p><b> That's right! </b> You should use the '1', '2', '3', and '4' keys to make your response. </p>","","0","comp_answer","","",""
"comp-q","40","286516","0.0-16.0-0.0","5317","approach_avoid_sv1","""event"",""trial"",""time""
""blur"",""1"",""5353""
""focus"",""1"",""29651""
""fullscreenenter"",""1"",""43769""
","""event"",""trial"",""time""
""blur"",""1"",""5353""
","""event"",""trial"",""time""
""focus"",""1"",""29651""
","""event"",""trial"",""time""
""fullscreenenter"",""1"",""43769""
","
","","","","","","345","<p> <b> True or False? </b> </p><p> You will have as much time as you want to make each choice. </p>","","1","comp_question","","","true"
"comp-q","41","292221","0.0-16.0-1.0","5317","approach_avoid_sv1","""event"",""trial"",""time""
""blur"",""1"",""5353""
""focus"",""1"",""29651""
""fullscreenenter"",""1"",""43769""
","""event"",""trial"",""time""
""blur"",""1"",""5353""
","""event"",""trial"",""time""
""focus"",""1"",""29651""
","""event"",""trial"",""time""
""fullscreenenter"",""1"",""43769""
","
","","","","","","1003.9000000003725","<p> <b> That's right! </b> You will only have 10 seconds to make each choice. </p>","","0","comp_answer","","",""
"learning-instructions","42","303309","0.0-17.0","5317","approach_avoid_sv1","""event"",""trial"",""time""
""blur"",""1"",""5353""
""focus"",""1"",""29651""
""fullscreenenter"",""1"",""43769""
","""event"",""trial"",""time""
""blur"",""1"",""5353""
","""event"",""trial"",""time""
""focus"",""1"",""29651""
","""event"",""trial"",""time""
""fullscreenenter"",""1"",""43769""
","
","","","","","","2428.199999999255","<p> Great! You are now ready to begin the game. </p><p> Remember, use the 1, 2, 3, and 4 keys to make your responses. </p>","","0","instructions","","",""
"html-keyboard-response","43","303914","0.0-18.0-0.0","5317","approach_avoid_sv1","""event"",""trial"",""time""
""blur"",""1"",""5353""
""focus"",""1"",""29651""
""fullscreenenter"",""1"",""43769""
","""event"",""trial"",""time""
""blur"",""1"",""5353""
","""event"",""trial"",""time""
""focus"",""1"",""29651""
","""event"",""trial"",""time""
""fullscreenenter"",""1"",""43769""
","
","","","","","","null","<div style=""font-size:60px;"">+</div>","null","","fixation","","",""
"memory-trial","44","306651","0.0-18.0-1.0","5317","approach_avoid_sv1","""event"",""trial"",""time""
""blur"",""1"",""5353""
""focus"",""1"",""29651""
""fullscreenenter"",""1"",""43769""
","""event"",""trial"",""time""
""blur"",""1"",""5353""
","""event"",""trial"",""time""
""focus"",""1"",""29651""
","""event"",""trial"",""time""
""fullscreenenter"",""1"",""43769""
","
","","","","","","1725.5999999996275","images/bed2.png","","","memory_trial","1","definitely_old",""
"html-keyboard-response","45","307154","0.0-18.0-0.1","5317","approach_avoid_sv1","""event"",""trial"",""time""
""blur"",""1"",""5353""
""focus"",""1"",""29651""
""fullscreenenter"",""1"",""43769""
","""event"",""trial"",""time""
""blur"",""1"",""5353""
","""event"",""trial"",""time""
""focus"",""1"",""29651""
","""event"",""trial"",""time""
""fullscreenenter"",""1"",""43769""
","
","","","","","","null","<div style=""font-size:60px;"">+</div>","null","","fixation","","",""
"memory-trial","46","310306","0.0-18.0-1.1","5317","approach_avoid_sv1","""event"",""trial"",""time""
""blur"",""1"",""5353""
""focus"",""1"",""29651""
""fullscreenenter"",""1"",""43769""
","""event"",""trial"",""time""
""blur"",""1"",""5353""
","""event"",""trial"",""time""
""focus"",""1"",""29651""
","""event"",""trial"",""time""
""fullscreenenter"",""1"",""43769""
","
","","","","","","2149","images/truck2.png","","","memory_trial","2","maybe_old",""
"html-keyboard-response","47","310810","0.0-18.0-0.2","5317","approach_avoid_sv1","""event"",""trial"",""time""
""blur"",""1"",""5353""
""focus"",""1"",""29651""
""fullscreenenter"",""1"",""43769""
","""event"",""trial"",""time""
""blur"",""1"",""5353""
","""event"",""trial"",""time""
""focus"",""1"",""29651""
","""event"",""trial"",""time""
""fullscreenenter"",""1"",""43769""
","
","","","","","","null","<div style=""font-size:60px;"">+</div>","null","","fixation","","",""
"memory-trial","48","314523","0.0-18.0-1.2","5317","approach_avoid_sv1","""event"",""trial"",""time""
""blur"",""1"",""5353""
""focus"",""1"",""29651""
""fullscreenenter"",""1"",""43769""
","""event"",""trial"",""time""
""blur"",""1"",""5353""
","""event"",""trial"",""time""
""focus"",""1"",""29651""
","""event"",""trial"",""time""
""fullscreenenter"",""1"",""43769""
","
","","","","","","2708.7000000011176","images/rabbit2.png","","","memory_trial","3","maybe_new",""
"html-keyboard-response","49","315026","0.0-18.0-0.3","5317","approach_avoid_sv1","""event"",""trial"",""time""
""blur"",""1"",""5353""
""focus"",""1"",""29651""
""fullscreenenter"",""1"",""43769""
","""event"",""trial"",""time""
""blur"",""1"",""5353""
","""event"",""trial"",""time""
""focus"",""1"",""29651""
","""event"",""trial"",""time""
""fullscreenenter"",""1"",""43769""
","
","","","","","","null","<div style=""font-size:60px;"">+</div>","null","","fixation","","",""
"memory-trial","50","317498","0.0-18.0-1.3","5317","approach_avoid_sv1","""event"",""trial"",""time""
""blur"",""1"",""5353""
""focus"",""1"",""29651""
""fullscreenenter"",""1"",""43769""
","""event"",""trial"",""time""
""blur"",""1"",""5353""
","""event"",""trial"",""time""
""focus"",""1"",""29651""
","""event"",""trial"",""time""
""fullscreenenter"",""1"",""43769""
","
","","","","","","1466.7999999988824","images/rabbit1.png","","","memory_trial","2","maybe_old",""
"html-keyboard-response","51","318010","0.0-18.0-0.4","5317","approach_avoid_sv1","""event"",""trial"",""time""
""blur"",""1"",""5353""
""focus"",""1"",""29651""
""fullscreenenter"",""1"",""43769""
","""event"",""trial"",""time""
""blur"",""1"",""5353""
","""event"",""trial"",""time""
""focus"",""1"",""29651""
","""event"",""trial"",""time""
""fullscreenenter"",""1"",""43769""
","
","","","","","","null","<div style=""font-size:60px;"">+</div>","null","","fixation","","",""
"memory-trial","52","322818","0.0-18.0-1.4","5317","approach_avoid_sv1","""event"",""trial"",""time""
""blur"",""1"",""5353""
""focus"",""1"",""29651""
""fullscreenenter"",""1"",""43769""
","""event"",""trial"",""time""
""blur"",""1"",""5353""
","""event"",""trial"",""time""
""focus"",""1"",""29651""
","""event"",""trial"",""time""
""fullscreenenter"",""1"",""43769""
","
","","","","","","3798","images/goat4.png","","","memory_trial","2","maybe_old",""
"html-keyboard-response","53","323323","0.0-18.0-0.5","5317","approach_avoid_sv1","""event"",""trial"",""time""
""blur"",""1"",""5353""
""focus"",""1"",""29651""
""fullscreenenter"",""1"",""43769""
","""event"",""trial"",""time""
""blur"",""1"",""5353""
","""event"",""trial"",""time""
""focus"",""1"",""29651""
","""event"",""trial"",""time""
""fullscreenenter"",""1"",""43769""
","
","","","","","","null","<div style=""font-size:60px;"">+</div>","null","","fixation","","",""
"memory-trial","54","325699","0.0-18.0-1.5","5317","approach_avoid_sv1","""event"",""trial"",""time""
""blur"",""1"",""5353""
""focus"",""1"",""29651""
""fullscreenenter"",""1"",""43769""
","""event"",""trial"",""time""
""blur"",""1"",""5353""
","""event"",""trial"",""time""
""focus"",""1"",""29651""
","""event"",""trial"",""time""
""fullscreenenter"",""1"",""43769""
","
","","","","","","1366.7999999988824","images/straw5.png","","","memory_trial","4","definitely_new",""
"html-keyboard-response","55","326202","0.0-18.0-0.6","5317","approach_avoid_sv1","""event"",""trial"",""time""
""blur"",""1"",""5353""
""focus"",""1"",""29651""
""fullscreenenter"",""1"",""43769""
","""event"",""trial"",""time""
""blur"",""1"",""5353""
","""event"",""trial"",""time""
""focus"",""1"",""29651""
","""event"",""trial"",""time""
""fullscreenenter"",""1"",""43769""
","
","","","","","","null","<div style=""font-size:60px;"">+</div>","null","","fixation","","",""
"memory-trial","56","329362","0.0-18.0-1.6","5317","approach_avoid_sv1","""event"",""trial"",""time""
""blur"",""1"",""5353""
""focus"",""1"",""29651""
""fullscreenenter"",""1"",""43769""
","""event"",""trial"",""time""
""blur"",""1"",""5353""
","""event"",""trial"",""time""
""focus"",""1"",""29651""
","""event"",""trial"",""time""
""fullscreenenter"",""1"",""43769""
","
","","","","","","2152.300000000745","images/orange6.png","","","memory_trial","3","maybe_new",""
"html-keyboard-response","57","329866","0.0-18.0-0.7","5317","approach_avoid_sv1","""event"",""trial"",""time""
""blur"",""1"",""5353""
""focus"",""1"",""29651""
""fullscreenenter"",""1"",""43769""
","""event"",""trial"",""time""
""blur"",""1"",""5353""
","""event"",""trial"",""time""
""focus"",""1"",""29651""
","""event"",""trial"",""time""
""fullscreenenter"",""1"",""43769""
","
","","","","","","null","<div style=""font-size:60px;"">+</div>","null","","fixation","","",""
"memory-trial","58","332370","0.0-18.0-1.7","5317","approach_avoid_sv1","""event"",""trial"",""time""
""blur"",""1"",""5353""
""focus"",""1"",""29651""
""fullscreenenter"",""1"",""43769""
","""event"",""trial"",""time""
""blur"",""1"",""5353""
","""event"",""trial"",""time""
""focus"",""1"",""29651""
","""event"",""trial"",""time""
""fullscreenenter"",""1"",""43769""
","
","","","","","","1500.5999999996275","images/chair8.png","","","memory_trial","3","maybe_new",""
"html-keyboard-response","59","332874","0.0-18.0-0.8","5317","approach_avoid_sv1","""event"",""trial"",""time""
""blur"",""1"",""5353""
""focus"",""1"",""29651""
""fullscreenenter"",""1"",""43769""
","""event"",""trial"",""time""
""blur"",""1"",""5353""
","""event"",""trial"",""time""
""focus"",""1"",""29651""
","""event"",""trial"",""time""
""fullscreenenter"",""1"",""43769""
","
","","","","","","null","<div style=""font-size:60px;"">+</div>","null","","fixation","","",""
"memory-trial","60","335426","0.0-18.0-1.8","5317","approach_avoid_sv1","""event"",""trial"",""time""
""blur"",""1"",""5353""
""focus"",""1"",""29651""
""fullscreenenter"",""1"",""43769""
","""event"",""trial"",""time""
""blur"",""1"",""5353""
","""event"",""trial"",""time""
""focus"",""1"",""29651""
","""event"",""trial"",""time""
""fullscreenenter"",""1"",""43769""
","
","","","","","","1545.9000000003725","images/chair2.png","","","memory_trial","1","definitely_old",""
"html-keyboard-response","61","335930","0.0-18.0-0.9","5317","approach_avoid_sv1","""event"",""trial"",""time""
""blur"",""1"",""5353""
""focus"",""1"",""29651""
""fullscreenenter"",""1"",""43769""
","""event"",""trial"",""time""
""blur"",""1"",""5353""
","""event"",""trial"",""time""
""focus"",""1"",""29651""
","""event"",""trial"",""time""
""fullscreenenter"",""1"",""43769""
","
","","","","","","null","<div style=""font-size:60px;"">+</div>","null","","fixation","","",""
"memory-trial","62","337874","0.0-18.0-1.9","5317","approach_avoid_sv1","""event"",""trial"",""time""
""blur"",""1"",""5353""
""focus"",""1"",""29651""
""fullscreenenter"",""1"",""43769""
","""event"",""trial"",""time""
""blur"",""1"",""5353""
","""event"",""trial"",""time""
""focus"",""1"",""29651""
","""event"",""trial"",""time""
""fullscreenenter"",""1"",""43769""
","
","","","","","","937.0999999996275","images/cow7.png","","","memory_trial","1","definitely_old",""
"html-keyboard-response","63","338378","0.0-18.0-0.10","5317","approach_avoid_sv1","""event"",""trial"",""time""
""blur"",""1"",""5353""
""focus"",""1"",""29651""
""fullscreenenter"",""1"",""43769""
","""event"",""trial"",""time""
""blur"",""1"",""5353""
","""event"",""trial"",""time""
""focus"",""1"",""29651""
","""event"",""trial"",""time""
""fullscreenenter"",""1"",""43769""
","
","","","","","","null","<div style=""font-size:60px;"">+</div>","null","","fixation","","",""
"memory-trial","64","341314","0.0-18.0-1.10","5317","approach_avoid_sv1","""event"",""trial"",""time""
""blur"",""1"",""5353""
""focus"",""1"",""29651""
""fullscreenenter"",""1"",""43769""
","""event"",""trial"",""time""
""blur"",""1"",""5353""
","""event"",""trial"",""time""
""focus"",""1"",""29651""
","""event"",""trial"",""time""
""fullscreenenter"",""1"",""43769""
","
","","","","","","1928.7999999988824","images/cat5.png","","","memory_trial","2","maybe_old",""
"html-keyboard-response","65","341818","0.0-18.0-0.11","5317","approach_avoid_sv1","""event"",""trial"",""time""
""blur"",""1"",""5353""
""focus"",""1"",""29651""
""fullscreenenter"",""1"",""43769""
","""event"",""trial"",""time""
""blur"",""1"",""5353""
","""event"",""trial"",""time""
""focus"",""1"",""29651""
","""event"",""trial"",""time""
""fullscreenenter"",""1"",""43769""
","
","","","","","","null","<div style=""font-size:60px;"">+</div>","null","","fixation","","",""
"memory-trial","66","344194","0.0-18.0-1.11","5317","approach_avoid_sv1","""event"",""trial"",""time""
""blur"",""1"",""5353""
""focus"",""1"",""29651""
""fullscreenenter"",""1"",""43769""
","""event"",""trial"",""time""
""blur"",""1"",""5353""
","""event"",""trial"",""time""
""focus"",""1"",""29651""
","""event"",""trial"",""time""
""fullscreenenter"",""1"",""43769""
","
","","","","","","1368.2000000011176","images/orange4.png","","","memory_trial","2","maybe_old",""
"html-keyboard-response","67","344698","0.0-18.0-0.12","5317","approach_avoid_sv1","""event"",""trial"",""time""
""blur"",""1"",""5353""
""focus"",""1"",""29651""
""fullscreenenter"",""1"",""43769""
","""event"",""trial"",""time""
""blur"",""1"",""5353""
","""event"",""trial"",""time""
""focus"",""1"",""29651""
","""event"",""trial"",""time""
""fullscreenenter"",""1"",""43769""
","
","","","","","","null","<div style=""font-size:60px;"">+</div>","null","","fixation","","",""
"memory-trial","68","346786","0.0-18.0-1.12","5317","approach_avoid_sv1","""event"",""trial"",""time""
""blur"",""1"",""5353""
""focus"",""1"",""29651""
""fullscreenenter"",""1"",""43769""
","""event"",""trial"",""time""
""blur"",""1"",""5353""
","""event"",""trial"",""time""
""focus"",""1"",""29651""
","""event"",""trial"",""time""
""fullscreenenter"",""1"",""43769""
","
","","","","","","1077.300000000745","images/bush3.png","","","memory_trial","1","definitely_old",""
"html-keyboard-response","69","347290","0.0-18.0-0.13","5317","approach_avoid_sv1","""event"",""trial"",""time""
""blur"",""1"",""5353""
""focus"",""1"",""29651""
""fullscreenenter"",""1"",""43769""
","""event"",""trial"",""time""
""blur"",""1"",""5353""
","""event"",""trial"",""time""
""focus"",""1"",""29651""
","""event"",""trial"",""time""
""fullscreenenter"",""1"",""43769""
","
","","","","","","null","<div style=""font-size:60px;"">+</div>","null","","fixation","","",""
"memory-trial","70","349650","0.0-18.0-1.13","5317","approach_avoid_sv1","""event"",""trial"",""time""
""blur"",""1"",""5353""
""focus"",""1"",""29651""
""fullscreenenter"",""1"",""43769""
","""event"",""trial"",""time""
""blur"",""1"",""5353""
","""event"",""trial"",""time""
""focus"",""1"",""29651""
","""event"",""trial"",""time""
""fullscreenenter"",""1"",""43769""
","
","","","","","","1350.9000000003725","images/cactus3.png","","","memory_trial","4","definitely_new",""
"html-keyboard-response","71","350154","0.0-18.0-0.14","5317","approach_avoid_sv1","""event"",""trial"",""time""
""blur"",""1"",""5353""
""focus"",""1"",""29651""
""fullscreenenter"",""1"",""43769""
","""event"",""trial"",""time""
""blur"",""1"",""5353""
","""event"",""trial"",""time""
""focus"",""1"",""29651""
","""event"",""trial"",""time""
""fullscreenenter"",""1"",""43769""
","
","","","","","","null","<div style=""font-size:60px;"">+</div>","null","","fixation","","",""
"memory-trial","72","354747","0.0-18.0-1.14","5317","approach_avoid_sv1","""event"",""trial"",""time""
""blur"",""1"",""5353""
""focus"",""1"",""29651""
""fullscreenenter"",""1"",""43769""
","""event"",""trial"",""time""
""blur"",""1"",""5353""
","""event"",""trial"",""time""
""focus"",""1"",""29651""
","""event"",""trial"",""time""
""fullscreenenter"",""1"",""43769""
","
","","","","","","3582.199999999255","images/rodent6.png","","","memory_trial","2","maybe_old",""
"html-keyboard-response","73","355250","0.0-18.0-0.15","5317","approach_avoid_sv1","""event"",""trial"",""time""
""blur"",""1"",""5353""
""focus"",""1"",""29651""
""fullscreenenter"",""1"",""43769""
","""event"",""trial"",""time""
""blur"",""1"",""5353""
","""event"",""trial"",""time""
""focus"",""1"",""29651""
","""event"",""trial"",""time""
""fullscreenenter"",""1"",""43769""
","
","","","","","","null","<div style=""font-size:60px;"">+</div>","null","","fixation","","",""
"memory-trial","74","357842","0.0-18.0-1.15","5317","approach_avoid_sv1","""event"",""trial"",""time""
""blur"",""1"",""5353""
""focus"",""1"",""29651""
""fullscreenenter"",""1"",""43769""
","""event"",""trial"",""time""
""blur"",""1"",""5353""
","""event"",""trial"",""time""
""focus"",""1"",""29651""
","""event"",""trial"",""time""
""fullscreenenter"",""1"",""43769""
","
","","","","","","1584.9000000003725","images/dog5.png","","","memory_trial","4","definitely_new",""
"html-keyboard-response","75","358346","0.0-18.0-0.16","5317","approach_avoid_sv1","""event"",""trial"",""time""
""blur"",""1"",""5353""
""focus"",""1"",""29651""
""fullscreenenter"",""1"",""43769""
","""event"",""trial"",""time""
""blur"",""1"",""5353""
","""event"",""trial"",""time""
""focus"",""1"",""29651""
","""event"",""trial"",""time""
""fullscreenenter"",""1"",""43769""
","
","","","","","","null","<div style=""font-size:60px;"">+</div>","null","","fixation","","",""
"memory-trial","76","362514","0.0-18.0-1.16","5317","approach_avoid_sv1","""event"",""trial"",""time""
""blur"",""1"",""5353""
""focus"",""1"",""29651""
""fullscreenenter"",""1"",""43769""
","""event"",""trial"",""time""
""blur"",""1"",""5353""
","""event"",""trial"",""time""
""focus"",""1"",""29651""
","""event"",""trial"",""time""
""fullscreenenter"",""1"",""43769""
","
","","","","","","3164.199999999255","images/cactus7.png","","","memory_trial","4","definitely_new",""
"html-keyboard-response","77","363018","0.0-18.0-0.17","5317","approach_avoid_sv1","""event"",""trial"",""time""
""blur"",""1"",""5353""
""focus"",""1"",""29651""
""fullscreenenter"",""1"",""43769""
","""event"",""trial"",""time""
""blur"",""1"",""5353""
","""event"",""trial"",""time""
""focus"",""1"",""29651""
","""event"",""trial"",""time""
""fullscreenenter"",""1"",""43769""
","
","","","","","","null","<div style=""font-size:60px;"">+</div>","null","","fixation","","",""
"memory-trial","78","365346","0.0-18.0-1.17","5317","approach_avoid_sv1","""event"",""trial"",""time""
""blur"",""1"",""5353""
""focus"",""1"",""29651""
""fullscreenenter"",""1"",""43769""
","""event"",""trial"",""time""
""blur"",""1"",""5353""
","""event"",""trial"",""time""
""focus"",""1"",""29651""
","""event"",""trial"",""time""
""fullscreenenter"",""1"",""43769""
","
","","","","","","1320.5999999996275","images/cactus8.png","","","memory_trial","4","definitely_new",""
"html-keyboard-response","79","365850","0.0-18.0-0.18","5317","approach_avoid_sv1","""event"",""trial"",""time""
""blur"",""1"",""5353""
""focus"",""1"",""29651""
""fullscreenenter"",""1"",""43769""
","""event"",""trial"",""time""
""blur"",""1"",""5353""
","""event"",""trial"",""time""
""focus"",""1"",""29651""
","""event"",""trial"",""time""
""fullscreenenter"",""1"",""43769""
","
","","","","","","null","<div style=""font-size:60px;"">+</div>","null","","fixation","","",""
"memory-trial","80","367738","0.0-18.0-1.18","5317","approach_avoid_sv1","""event"",""trial"",""time""
""blur"",""1"",""5353""
""focus"",""1"",""29651""
""fullscreenenter"",""1"",""43769""
","""event"",""trial"",""time""
""blur"",""1"",""5353""
","""event"",""trial"",""time""
""focus"",""1"",""29651""
","""event"",""trial"",""time""
""fullscreenenter"",""1"",""43769""
","
","","","","","","883.3000000007451","images/horse3.png","","","memory_trial","1","definitely_old",""
"html-keyboard-response","81","368242","0.0-18.0-0.19","5317","approach_avoid_sv1","""event"",""trial"",""time""
""blur"",""1"",""5353""
""focus"",""1"",""29651""
""fullscreenenter"",""1"",""43769""
","""event"",""trial"",""time""
""blur"",""1"",""5353""
","""event"",""trial"",""time""
""focus"",""1"",""29651""
","""event"",""trial"",""time""
""fullscreenenter"",""1"",""43769""
","
","","","","","","null","<div style=""font-size:60px;"">+</div>","null","","fixation","","",""
"memory-trial","82","370586","0.0-18.0-1.19","5317","approach_avoid_sv1","""event"",""trial"",""time""
""blur"",""1"",""5353""
""focus"",""1"",""29651""
""fullscreenenter"",""1"",""43769""
","""event"",""trial"",""time""
""blur"",""1"",""5353""
","""event"",""trial"",""time""
""focus"",""1"",""29651""
","""event"",""trial"",""time""
""fullscreenenter"",""1"",""43769""
","
","","","","","","1333.800000000745","images/apple5.png","","","memory_trial","4","definitely_new",""
"html-keyboard-response","83","371090","0.0-18.0-0.20","5317","approach_avoid_sv1","""event"",""trial"",""time""
""blur"",""1"",""5353""
""focus"",""1"",""29651""
""fullscreenenter"",""1"",""43769""
","""event"",""trial"",""time""
""blur"",""1"",""5353""
","""event"",""trial"",""time""
""focus"",""1"",""29651""
","""event"",""trial"",""time""
""fullscreenenter"",""1"",""43769""
","
","","","","","","null","<div style=""font-size:60px;"">+</div>","null","","fixation","","",""
"memory-trial","84","373026","0.0-18.0-1.20","5317","approach_avoid_sv1","""event"",""trial"",""time""
""blur"",""1"",""5353""
""focus"",""1"",""29651""
""fullscreenenter"",""1"",""43769""
","""event"",""trial"",""time""
""blur"",""1"",""5353""
","""event"",""trial"",""time""
""focus"",""1"",""29651""
","""event"",""trial"",""time""
""fullscreenenter"",""1"",""43769""
","
","","","","","","932.3000000007451","images/bush8.png","","","memory_trial","1","definitely_old",""
"html-keyboard-response","85","373530","0.0-18.0-0.21","5317","approach_avoid_sv1","""event"",""trial"",""time""
""blur"",""1"",""5353""
""focus"",""1"",""29651""
""fullscreenenter"",""1"",""43769""
","""event"",""trial"",""time""
""blur"",""1"",""5353""
","""event"",""trial"",""time""
""focus"",""1"",""29651""
","""event"",""trial"",""time""
""fullscreenenter"",""1"",""43769""
","
","","","","","","null","<div style=""font-size:60px;"">+</div>","null","","fixation","","",""
"memory-trial","86","375594","0.0-18.0-1.21","5317","approach_avoid_sv1","""event"",""trial"",""time""
""blur"",""1"",""5353""
""focus"",""1"",""29651""
""fullscreenenter"",""1"",""43769""
","""event"",""trial"",""time""
""blur"",""1"",""5353""
","""event"",""trial"",""time""
""focus"",""1"",""29651""
","""event"",""trial"",""time""
""fullscreenenter"",""1"",""43769""
","
","","","","","","1055","images/bush7.png","","","memory_trial","1","definitely_old",""
"html-keyboard-response","87","376098","0.0-18.0-0.22","5317","approach_avoid_sv1","""event"",""trial"",""time""
""blur"",""1"",""5353""
""focus"",""1"",""29651""
""fullscreenenter"",""1"",""43769""
","""event"",""trial"",""time""
""blur"",""1"",""5353""
","""event"",""trial"",""time""
""focus"",""1"",""29651""
","""event"",""trial"",""time""
""fullscreenenter"",""1"",""43769""
","
","","","","","","null","<div style=""font-size:60px;"">+</div>","null","","fixation","","",""
"memory-trial","88","378066","0.0-18.0-1.22","5317","approach_avoid_sv1","""event"",""trial"",""time""
""blur"",""1"",""5353""
""focus"",""1"",""29651""
""fullscreenenter"",""1"",""43769""
","""event"",""trial"",""time""
""blur"",""1"",""5353""
","""event"",""trial"",""time""
""focus"",""1"",""29651""
","""event"",""trial"",""time""
""fullscreenenter"",""1"",""43769""
","
","","","","","","963.8000000007451","images/train7.png","","","memory_trial","1","definitely_old",""
"html-keyboard-response","89","378570","0.0-18.0-0.23","5317","approach_avoid_sv1","""event"",""trial"",""time""
""blur"",""1"",""5353""
""focus"",""1"",""29651""
""fullscreenenter"",""1"",""43769""
","""event"",""trial"",""time""
""blur"",""1"",""5353""
","""event"",""trial"",""time""
""focus"",""1"",""29651""
","""event"",""trial"",""time""
""fullscreenenter"",""1"",""43769""
","
","","","","","","null","<div style=""font-size:60px;"">+</div>","null","","fixation","","",""
"memory-trial","90","381002","0.0-18.0-1.23","5317","approach_avoid_sv1","""event"",""trial"",""time""
""blur"",""1"",""5353""
""focus"",""1"",""29651""
""fullscreenenter"",""1"",""43769""
","""event"",""trial"",""time""
""blur"",""1"",""5353""
","""event"",""trial"",""time""
""focus"",""1"",""29651""
","""event"",""trial"",""time""
""fullscreenenter"",""1"",""43769""
","
","","","","","","1423","images/dog1.png","","","memory_trial","3","maybe_new",""
"html-keyboard-response","91","381506","0.0-18.0-0.24","5317","approach_avoid_sv1","""event"",""trial"",""time""
""blur"",""1"",""5353""
""focus"",""1"",""29651""
""fullscreenenter"",""1"",""43769""
","""event"",""trial"",""time""
""blur"",""1"",""5353""
","""event"",""trial"",""time""
""focus"",""1"",""29651""
","""event"",""trial"",""time""
""fullscreenenter"",""1"",""43769""
","
","","","","","","null","<div style=""font-size:60px;"">+</div>","null","","fixation","","",""
"memory-trial","92","386666","0.0-18.0-1.24","5317","approach_avoid_sv1","""event"",""trial"",""time""
""blur"",""1"",""5353""
""focus"",""1"",""29651""
""fullscreenenter"",""1"",""43769""
","""event"",""trial"",""time""
""blur"",""1"",""5353""
","""event"",""trial"",""time""
""focus"",""1"",""29651""
","""event"",""trial"",""time""
""fullscreenenter"",""1"",""43769""
","
","","","","","","4154.4000000003725","images/sheep7.png","","","memory_trial","3","maybe_new",""
"html-keyboard-response","93","387170","0.0-18.0-0.25","5317","approach_avoid_sv1","""event"",""trial"",""time""
""blur"",""1"",""5353""
""focus"",""1"",""29651""
""fullscreenenter"",""1"",""43769""
","""event"",""trial"",""time""
""blur"",""1"",""5353""
","""event"",""trial"",""time""
""focus"",""1"",""29651""
","""event"",""trial"",""time""
""fullscreenenter"",""1"",""43769""
","
","","","","","","null","<div style=""font-size:60px;"">+</div>","null","","fixation","","",""
"memory-trial","94","389242","0.0-18.0-1.25","5317","approach_avoid_sv1","""event"",""trial"",""time""
""blur"",""1"",""5353""
""focus"",""1"",""29651""
""fullscreenenter"",""1"",""43769""
","""event"",""trial"",""time""
""blur"",""1"",""5353""
","""event"",""trial"",""time""
""focus"",""1"",""29651""
","""event"",""trial"",""time""
""fullscreenenter"",""1"",""43769""
","
","","","","","","1062.199999999255","images/dog7.png","","","memory_trial","3","maybe_new",""
"html-keyboard-response","95","389746","0.0-18.0-0.26","5317","approach_avoid_sv1","""event"",""trial"",""time""
""blur"",""1"",""5353""
""focus"",""1"",""29651""
""fullscreenenter"",""1"",""43769""
","""event"",""trial"",""time""
""blur"",""1"",""5353""
","""event"",""trial"",""time""
""focus"",""1"",""29651""
","""event"",""trial"",""time""
""fullscreenenter"",""1"",""43769""
","
","","","","","","null","<div style=""font-size:60px;"">+</div>","null","","fixation","","",""
"memory-trial","96","393386","0.0-18.0-1.26","5317","approach_avoid_sv1","""event"",""trial"",""time""
""blur"",""1"",""5353""
""focus"",""1"",""29651""
""fullscreenenter"",""1"",""43769""
","""event"",""trial"",""time""
""blur"",""1"",""5353""
","""event"",""trial"",""time""
""focus"",""1"",""29651""
","""event"",""trial"",""time""
""fullscreenenter"",""1"",""43769""
","
","","","","","","2631.300000000745","images/cow5.png","","","memory_trial","2","maybe_old",""
"html-keyboard-response","97","393890","0.0-18.0-0.27","5317","approach_avoid_sv1","""event"",""trial"",""time""
""blur"",""1"",""5353""
""focus"",""1"",""29651""
""fullscreenenter"",""1"",""43769""
","""event"",""trial"",""time""
""blur"",""1"",""5353""
","""event"",""trial"",""time""
""focus"",""1"",""29651""
","""event"",""trial"",""time""
""fullscreenenter"",""1"",""43769""
","
","","","","","","null","<div style=""font-size:60px;"">+</div>","null","","fixation","","",""
"memory-trial","98","396090","0.0-18.0-1.27","5317","approach_avoid_sv1","""event"",""trial"",""time""
""blur"",""1"",""5353""
""focus"",""1"",""29651""
""fullscreenenter"",""1"",""43769""
","""event"",""trial"",""time""
""blur"",""1"",""5353""
","""event"",""trial"",""time""
""focus"",""1"",""29651""
","""event"",""trial"",""time""
""fullscreenenter"",""1"",""43769""
","
","","","","","","1195","images/sofa5.png","","","memory_trial","1","definitely_old",""
"html-keyboard-response","99","396594","0.0-18.0-0.28","5317","approach_avoid_sv1","""event"",""trial"",""time""
""blur"",""1"",""5353""
""focus"",""1"",""29651""
""fullscreenenter"",""1"",""43769""
","""event"",""trial"",""time""
""blur"",""1"",""5353""
","""event"",""trial"",""time""
""focus"",""1"",""29651""
","""event"",""trial"",""time""
""fullscreenenter"",""1"",""43769""
","
","","","","","","null","<div style=""font-size:60px;"">+</div>","null","","fixation","","",""
"memory-trial","100","399034","0.0-18.0-1.28","5317","approach_avoid_sv1","""event"",""trial"",""time""
""blur"",""1"",""5353""
""focus"",""1"",""29651""
""fullscreenenter"",""1"",""43769""
","""event"",""trial"",""time""
""blur"",""1"",""5353""
","""event"",""trial"",""time""
""focus"",""1"",""29651""
","""event"",""trial"",""time""
""fullscreenenter"",""1"",""43769""
","
","","","","","","1437.5","images/boat1.png","","","memory_trial","4","definitely_new",""
"html-keyboard-response","101","399538","0.0-18.0-0.29","5317","approach_avoid_sv1","""event"",""trial"",""time""
""blur"",""1"",""5353""
""focus"",""1"",""29651""
""fullscreenenter"",""1"",""43769""
","""event"",""trial"",""time""
""blur"",""1"",""5353""
","""event"",""trial"",""time""
""focus"",""1"",""29651""
","""event"",""trial"",""time""
""fullscreenenter"",""1"",""43769""
","
","","","","","","null","<div style=""font-size:60px;"">+</div>","null","","fixation","","",""
"memory-trial","102","403362","0.0-18.0-1.29","5317","approach_avoid_sv1","""event"",""trial"",""time""
""blur"",""1"",""5353""
""focus"",""1"",""29651""
""fullscreenenter"",""1"",""43769""
","""event"",""trial"",""time""
""blur"",""1"",""5353""
","""event"",""trial"",""time""
""focus"",""1"",""29651""
","""event"",""trial"",""time""
""fullscreenenter"",""1"",""43769""
","
","","","","","","2815.5","images/sheep6.png","","","memory_trial","3","maybe_new",""
"html-keyboard-response","103","403866","0.0-18.0-0.30","5317","approach_avoid_sv1","""event"",""trial"",""time""
""blur"",""1"",""5353""
""focus"",""1"",""29651""
""fullscreenenter"",""1"",""43769""
","""event"",""trial"",""time""
""blur"",""1"",""5353""
","""event"",""trial"",""time""
""focus"",""1"",""29651""
","""event"",""trial"",""time""
""fullscreenenter"",""1"",""43769""
","
","","","","","","null","<div style=""font-size:60px;"">+</div>","null","","fixation","","",""
"memory-trial","104","406778","0.0-18.0-1.30","5317","approach_avoid_sv1","""event"",""trial"",""time""
""blur"",""1"",""5353""
""focus"",""1"",""29651""
""fullscreenenter"",""1"",""43769""
","""event"",""trial"",""time""
""blur"",""1"",""5353""
","""event"",""trial"",""time""
""focus"",""1"",""29651""
","""event"",""trial"",""time""
""fullscreenenter"",""1"",""43769""
","
","","","","","","1906.800000000745","images/straw8.png","","","memory_trial","4","definitely_new",""
"html-keyboard-response","105","407282","0.0-18.0-0.31","5317","approach_avoid_sv1","""event"",""trial"",""time""
""blur"",""1"",""5353""
""focus"",""1"",""29651""
""fullscreenenter"",""1"",""43769""
","""event"",""trial"",""time""
""blur"",""1"",""5353""
","""event"",""trial"",""time""
""focus"",""1"",""29651""
","""event"",""trial"",""time""
""fullscreenenter"",""1"",""43769""
","
","","","","","","null","<div style=""font-size:60px;"">+</div>","null","","fixation","","",""
"memory-trial","106","409490","0.0-18.0-1.31","5317","approach_avoid_sv1","""event"",""trial"",""time""
""blur"",""1"",""5353""
""focus"",""1"",""29651""
""fullscreenenter"",""1"",""43769""
","""event"",""trial"",""time""
""blur"",""1"",""5353""
","""event"",""trial"",""time""
""focus"",""1"",""29651""
","""event"",""trial"",""time""
""fullscreenenter"",""1"",""43769""
","
","","","","","","1198.7000000011176","images/truck5.png","","","memory_trial","4","definitely_new",""
"html-keyboard-response","107","409994","0.0-18.0-0.32","5317","approach_avoid_sv1","""event"",""trial"",""time""
""blur"",""1"",""5353""
""focus"",""1"",""29651""
""fullscreenenter"",""1"",""43769""
","""event"",""trial"",""time""
""blur"",""1"",""5353""
","""event"",""trial"",""time""
""focus"",""1"",""29651""
","""event"",""trial"",""time""
""fullscreenenter"",""1"",""43769""
","
","","","","","","null","<div style=""font-size:60px;"">+</div>","null","","fixation","","",""
"memory-trial","108","412210","0.0-18.0-1.32","5317","approach_avoid_sv1","""event"",""trial"",""time""
""blur"",""1"",""5353""
""focus"",""1"",""29651""
""fullscreenenter"",""1"",""43769""
","""event"",""trial"",""time""
""blur"",""1"",""5353""
","""event"",""trial"",""time""
""focus"",""1"",""29651""
","""event"",""trial"",""time""
""fullscreenenter"",""1"",""43769""
","
","","","","","","1207.300000000745","images/train6.png","","","memory_trial","3","maybe_new",""
"html-keyboard-response","109","412714","0.0-18.0-0.33","5317","approach_avoid_sv1","""event"",""trial"",""time""
""blur"",""1"",""5353""
""focus"",""1"",""29651""
""fullscreenenter"",""1"",""43769""
","""event"",""trial"",""time""
""blur"",""1"",""5353""
","""event"",""trial"",""time""
""focus"",""1"",""29651""
","""event"",""trial"",""time""
""fullscreenenter"",""1"",""43769""
","
","","","","","","null","<div style=""font-size:60px;"">+</div>","null","","fixation","","",""
"memory-trial","110","415658","0.0-18.0-1.33","5317","approach_avoid_sv1","""event"",""trial"",""time""
""blur"",""1"",""5353""
""focus"",""1"",""29651""
""fullscreenenter"",""1"",""43769""
","""event"",""trial"",""time""
""blur"",""1"",""5353""
","""event"",""trial"",""time""
""focus"",""1"",""29651""
","""event"",""trial"",""time""
""fullscreenenter"",""1"",""43769""
","
","","","","","","1939.699999999255","images/chair7.png","","","memory_trial","2","maybe_old",""
"html-keyboard-response","111","416162","0.0-18.0-0.34","5317","approach_avoid_sv1","""event"",""trial"",""time""
""blur"",""1"",""5353""
""focus"",""1"",""29651""
""fullscreenenter"",""1"",""43769""
","""event"",""trial"",""time""
""blur"",""1"",""5353""
","""event"",""trial"",""time""
""focus"",""1"",""29651""
","""event"",""trial"",""time""
""fullscreenenter"",""1"",""43769""
","
","","","","","","null","<div style=""font-size:60px;"">+</div>","null","","fixation","","",""
"memory-trial","112","418578","0.0-18.0-1.34","5317","approach_avoid_sv1","""event"",""trial"",""time""
""blur"",""1"",""5353""
""focus"",""1"",""29651""
""fullscreenenter"",""1"",""43769""
","""event"",""trial"",""time""
""blur"",""1"",""5353""
","""event"",""trial"",""time""
""focus"",""1"",""29651""
","""event"",""trial"",""time""
""fullscreenenter"",""1"",""43769""
","
","","","","","","1413.0999999996275","images/flower1.png","","","memory_trial","1","definitely_old",""
"html-keyboard-response","113","419082","0.0-18.0-0.35","5317","approach_avoid_sv1","""event"",""trial"",""time""
""blur"",""1"",""5353""
""focus"",""1"",""29651""
""fullscreenenter"",""1"",""43769""
","""event"",""trial"",""time""
""blur"",""1"",""5353""
","""event"",""trial"",""time""
""focus"",""1"",""29651""
","""event"",""trial"",""time""
""fullscreenenter"",""1"",""43769""
","
","","","","","","null","<div style=""font-size:60px;"">+</div>","null","","fixation","","",""
"memory-trial","114","421618","0.0-18.0-1.35","5317","approach_avoid_sv1","""event"",""trial"",""time""
""blur"",""1"",""5353""
""focus"",""1"",""29651""
""fullscreenenter"",""1"",""43769""
","""event"",""trial"",""time""
""blur"",""1"",""5353""
","""event"",""trial"",""time""
""focus"",""1"",""29651""
","""event"",""trial"",""time""
""fullscreenenter"",""1"",""43769""
","
","","","","","","1533","images/truck8.png","","","memory_trial","4","definitely_new",""
"html-keyboard-response","115","422122","0.0-18.0-0.36","5317","approach_avoid_sv1","""event"",""trial"",""time""
""blur"",""1"",""5353""
""focus"",""1"",""29651""
""fullscreenenter"",""1"",""43769""
","""event"",""trial"",""time""
""blur"",""1"",""5353""
","""event"",""trial"",""time""
""focus"",""1"",""29651""
","""event"",""trial"",""time""
""fullscreenenter"",""1"",""43769""
","
","","","","","","null","<div style=""font-size:60px;"">+</div>","null","","fixation","","",""
"memory-trial","116","424778","0.0-18.0-1.36","5317","approach_avoid_sv1","""event"",""trial"",""time""
""blur"",""1"",""5353""
""focus"",""1"",""29651""
""fullscreenenter"",""1"",""43769""
","""event"",""trial"",""time""
""blur"",""1"",""5353""
","""event"",""trial"",""time""
""focus"",""1"",""29651""
","""event"",""trial"",""time""
""fullscreenenter"",""1"",""43769""
","
","","","","","","1651.2999999988824","images/tree6.png","","","memory_trial","3","maybe_new",""
"html-keyboard-response","117","425282","0.0-18.0-0.37","5317","approach_avoid_sv1","""event"",""trial"",""time""
""blur"",""1"",""5353""
""focus"",""1"",""29651""
""fullscreenenter"",""1"",""43769""
","""event"",""trial"",""time""
""blur"",""1"",""5353""
","""event"",""trial"",""time""
""focus"",""1"",""29651""
","""event"",""trial"",""time""
""fullscreenenter"",""1"",""43769""
","
","","","","","","null","<div style=""font-size:60px;"">+</div>","null","","fixation","","",""
"memory-trial","118","427698","0.0-18.0-1.37","5317","approach_avoid_sv1","""event"",""trial"",""time""
""blur"",""1"",""5353""
""focus"",""1"",""29651""
""fullscreenenter"",""1"",""43769""
","""event"",""trial"",""time""
""blur"",""1"",""5353""
","""event"",""trial"",""time""
""focus"",""1"",""29651""
","""event"",""trial"",""time""
""fullscreenenter"",""1"",""43769""
","
","","","","","","1406.300000000745","images/cat3.png","","","memory_trial","3","maybe_new",""
"html-keyboard-response","119","428202","0.0-18.0-0.38","5317","approach_avoid_sv1","""event"",""trial"",""time""
""blur"",""1"",""5353""
""focus"",""1"",""29651""
""fullscreenenter"",""1"",""43769""
","""event"",""trial"",""time""
""blur"",""1"",""5353""
","""event"",""trial"",""time""
""focus"",""1"",""29651""
","""event"",""trial"",""time""
""fullscreenenter"",""1"",""43769""
","
","","","","","","null","<div style=""font-size:60px;"">+</div>","null","","fixation","","",""
"memory-trial","120","430234","0.0-18.0-1.38","5317","approach_avoid_sv1","""event"",""trial"",""time""
""blur"",""1"",""5353""
""focus"",""1"",""29651""
""fullscreenenter"",""1"",""43769""
","""event"",""trial"",""time""
""blur"",""1"",""5353""
","""event"",""trial"",""time""
""focus"",""1"",""29651""
","""event"",""trial"",""time""
""fullscreenenter"",""1"",""43769""
","
","","","","","","1029.2999999988824","images/sofa7.png","","","memory_trial","1","definitely_old",""
"html-keyboard-response","121","430738","0.0-18.0-0.39","5317","approach_avoid_sv1","""event"",""trial"",""time""
""blur"",""1"",""5353""
""focus"",""1"",""29651""
""fullscreenenter"",""1"",""43769""
","""event"",""trial"",""time""
""blur"",""1"",""5353""
","""event"",""trial"",""time""
""focus"",""1"",""29651""
","""event"",""trial"",""time""
""fullscreenenter"",""1"",""43769""
","
","","","","","","null","<div style=""font-size:60px;"">+</div>","null","","fixation","","",""
"memory-trial","122","432634","0.0-18.0-1.39","5317","approach_avoid_sv1","""event"",""trial"",""time""
""blur"",""1"",""5353""
""focus"",""1"",""29651""
""fullscreenenter"",""1"",""43769""
","""event"",""trial"",""time""
""blur"",""1"",""5353""
","""event"",""trial"",""time""
""focus"",""1"",""29651""
","""event"",""trial"",""time""
""fullscreenenter"",""1"",""43769""
","
","","","","","","891.0999999996275","images/cat8.png","","","memory_trial","1","definitely_old",""
"html-keyboard-response","123","433138","0.0-18.0-0.40","5317","approach_avoid_sv1","""event"",""trial"",""time""
""blur"",""1"",""5353""
""focus"",""1"",""29651""
""fullscreenenter"",""1"",""43769""
","""event"",""trial"",""time""
""blur"",""1"",""5353""
","""event"",""trial"",""time""
""focus"",""1"",""29651""
","""event"",""trial"",""time""
""fullscreenenter"",""1"",""43769""
","
","","","","","","null","<div style=""font-size:60px;"">+</div>","null","","fixation","","",""
"memory-trial","124","434994","0.0-18.0-1.40","5317","approach_avoid_sv1","""event"",""trial"",""time""
""blur"",""1"",""5353""
""focus"",""1"",""29651""
""fullscreenenter"",""1"",""43769""
","""event"",""trial"",""time""
""blur"",""1"",""5353""
","""event"",""trial"",""time""
""focus"",""1"",""29651""
","""event"",""trial"",""time""
""fullscreenenter"",""1"",""43769""
","
","","","","","","846.6999999992549","images/cactus6.png","","","memory_trial","2","maybe_old",""
"html-keyboard-response","125","435498","0.0-18.0-0.41","5317","approach_avoid_sv1","""event"",""trial"",""time""
""blur"",""1"",""5353""
""focus"",""1"",""29651""
""fullscreenenter"",""1"",""43769""
","""event"",""trial"",""time""
""blur"",""1"",""5353""
","""event"",""trial"",""time""
""focus"",""1"",""29651""
","""event"",""trial"",""time""
""fullscreenenter"",""1"",""43769""
","
","","","","","","null","<div style=""font-size:60px;"">+</div>","null","","fixation","","",""
"memory-trial","126","437610","0.0-18.0-1.41","5317","approach_avoid_sv1","""event"",""trial"",""time""
""blur"",""1"",""5353""
""focus"",""1"",""29651""
""fullscreenenter"",""1"",""43769""
""blur"",""127"",""447295""
""fullscreenexit"",""127"",""447328""
""focus"",""127"",""607252""
","""event"",""trial"",""time""
""blur"",""1"",""5353""
""blur"",""127"",""447295""
","""event"",""trial"",""time""
""focus"",""1"",""29651""
""focus"",""127"",""607252""
","""event"",""trial"",""time""
""fullscreenenter"",""1"",""43769""
","""event"",""trial"",""time""
""fullscreenexit"",""127"",""447328""
","","","","","","1108.0999999996275","images/cow6.png","","","memory_trial","3","maybe_new",""
"html-button-response","127","611140","0.0-18.0-2.41-0.41","5317","approach_avoid_sv1","""event"",""trial"",""time""
""blur"",""1"",""5353""
""focus"",""1"",""29651""
""fullscreenenter"",""1"",""43769""
""blur"",""127"",""447295""
""fullscreenexit"",""127"",""447328""
""focus"",""127"",""607252""
","""event"",""trial"",""time""
""blur"",""1"",""5353""
""blur"",""127"",""447295""
","""event"",""trial"",""time""
""focus"",""1"",""29651""
""focus"",""127"",""607252""
","""event"",""trial"",""time""
""fullscreenenter"",""1"",""43769""
","""event"",""trial"",""time""
""fullscreenexit"",""127"",""447328""
","","","","","","173528.69999999925","<p> Take a break! </p><p> Click the button to continue. </p>","0","","break","","",""
"html-keyboard-response","128","611642","0.0-18.0-0.42","5317","approach_avoid_sv1","""event"",""trial"",""time""
""blur"",""1"",""5353""
""focus"",""1"",""29651""
""fullscreenenter"",""1"",""43769""
""blur"",""127"",""447295""
""fullscreenexit"",""127"",""447328""
""focus"",""127"",""607252""
","""event"",""trial"",""time""
""blur"",""1"",""5353""
""blur"",""127"",""447295""
","""event"",""trial"",""time""
""focus"",""1"",""29651""
""focus"",""127"",""607252""
","""event"",""trial"",""time""
""fullscreenenter"",""1"",""43769""
","""event"",""trial"",""time""
""fullscreenexit"",""127"",""447328""
","","","","","","null","<div style=""font-size:60px;"">+</div>","null","","fixation","","",""
"memory-trial","129","614490","0.0-18.0-1.42","5317","approach_avoid_sv1","""event"",""trial"",""time""
""blur"",""1"",""5353""
""focus"",""1"",""29651""
""fullscreenenter"",""1"",""43769""
""blur"",""127"",""447295""
""fullscreenexit"",""127"",""447328""
""focus"",""127"",""607252""
","""event"",""trial"",""time""
""blur"",""1"",""5353""
""blur"",""127"",""447295""
","""event"",""trial"",""time""
""focus"",""1"",""29651""
""focus"",""127"",""607252""
","""event"",""trial"",""time""
""fullscreenenter"",""1"",""43769""
","""event"",""trial"",""time""
""fullscreenexit"",""127"",""447328""
","","","","","","1841.7000000011176","images/banana3.png","","","memory_trial","3","maybe_new",""
"html-keyboard-response","130","614994","0.0-18.0-0.43","5317","approach_avoid_sv1","""event"",""trial"",""time""
""blur"",""1"",""5353""
""focus"",""1"",""29651""
""fullscreenenter"",""1"",""43769""
""blur"",""127"",""447295""
""fullscreenexit"",""127"",""447328""
""focus"",""127"",""607252""
","""event"",""trial"",""time""
""blur"",""1"",""5353""
""blur"",""127"",""447295""
","""event"",""trial"",""time""
""focus"",""1"",""29651""
""focus"",""127"",""607252""
","""event"",""trial"",""time""
""fullscreenenter"",""1"",""43769""
","""event"",""trial"",""time""
""fullscreenexit"",""127"",""447328""
","","","","","","null","<div style=""font-size:60px;"">+</div>","null","","fixation","","",""
"memory-trial","131","617138","0.0-18.0-1.43","5317","approach_avoid_sv1","""event"",""trial"",""time""
""blur"",""1"",""5353""
""focus"",""1"",""29651""
""fullscreenenter"",""1"",""43769""
""blur"",""127"",""447295""
""fullscreenexit"",""127"",""447328""
""focus"",""127"",""607252""
","""event"",""trial"",""time""
""blur"",""1"",""5353""
""blur"",""127"",""447295""
","""event"",""trial"",""time""
""focus"",""1"",""29651""
""focus"",""127"",""607252""
","""event"",""trial"",""time""
""fullscreenenter"",""1"",""43769""
","""event"",""trial"",""time""
""fullscreenexit"",""127"",""447328""
","","","","","","1139.2999999988824","images/apple2.png","","","memory_trial","1","definitely_old",""
"html-keyboard-response","132","617642","0.0-18.0-0.44","5317","approach_avoid_sv1","""event"",""trial"",""time""
""blur"",""1"",""5353""
""focus"",""1"",""29651""
""fullscreenenter"",""1"",""43769""
""blur"",""127"",""447295""
""fullscreenexit"",""127"",""447328""
""focus"",""127"",""607252""
","""event"",""trial"",""time""
""blur"",""1"",""5353""
""blur"",""127"",""447295""
","""event"",""trial"",""time""
""focus"",""1"",""29651""
""focus"",""127"",""607252""
","""event"",""trial"",""time""
""fullscreenenter"",""1"",""43769""
","""event"",""trial"",""time""
""fullscreenexit"",""127"",""447328""
","","","","","","null","<div style=""font-size:60px;"">+</div>","null","","fixation","","",""
"memory-trial","133","620042","0.0-18.0-1.44","5317","approach_avoid_sv1","""event"",""trial"",""time""
""blur"",""1"",""5353""
""focus"",""1"",""29651""
""fullscreenenter"",""1"",""43769""
""blur"",""127"",""447295""
""fullscreenexit"",""127"",""447328""
""focus"",""127"",""607252""
","""event"",""trial"",""time""
""blur"",""1"",""5353""
""blur"",""127"",""447295""
","""event"",""trial"",""time""
""focus"",""1"",""29651""
""focus"",""127"",""607252""
","""event"",""trial"",""time""
""fullscreenenter"",""1"",""43769""
","""event"",""trial"",""time""
""fullscreenexit"",""127"",""447328""
","","","","","","1397.5","images/sofa4.png","","","memory_trial","2","maybe_old",""
"html-keyboard-response","134","620546","0.0-18.0-0.45","5317","approach_avoid_sv1","""event"",""trial"",""time""
""blur"",""1"",""5353""
""focus"",""1"",""29651""
""fullscreenenter"",""1"",""43769""
""blur"",""127"",""447295""
""fullscreenexit"",""127"",""447328""
""focus"",""127"",""607252""
","""event"",""trial"",""time""
""blur"",""1"",""5353""
""blur"",""127"",""447295""
","""event"",""trial"",""time""
""focus"",""1"",""29651""
""focus"",""127"",""607252""
","""event"",""trial"",""time""
""fullscreenenter"",""1"",""43769""
","""event"",""trial"",""time""
""fullscreenexit"",""127"",""447328""
","","","","","","null","<div style=""font-size:60px;"">+</div>","null","","fixation","","",""
"memory-trial","135","622826","0.0-18.0-1.45","5317","approach_avoid_sv1","""event"",""trial"",""time""
""blur"",""1"",""5353""
""focus"",""1"",""29651""
""fullscreenenter"",""1"",""43769""
""blur"",""127"",""447295""
""fullscreenexit"",""127"",""447328""
""focus"",""127"",""607252""
","""event"",""trial"",""time""
""blur"",""1"",""5353""
""blur"",""127"",""447295""
","""event"",""trial"",""time""
""focus"",""1"",""29651""
""focus"",""127"",""607252""
","""event"",""trial"",""time""
""fullscreenenter"",""1"",""43769""
","""event"",""trial"",""time""
""fullscreenexit"",""127"",""447328""
","","","","","","1269.300000000745","images/cow1.png","","","memory_trial","4","definitely_new",""
"html-keyboard-response","136","623330","0.0-18.0-0.46","5317","approach_avoid_sv1","""event"",""trial"",""time""
""blur"",""1"",""5353""
""focus"",""1"",""29651""
""fullscreenenter"",""1"",""43769""
""blur"",""127"",""447295""
""fullscreenexit"",""127"",""447328""
""focus"",""127"",""607252""
","""event"",""trial"",""time""
""blur"",""1"",""5353""
""blur"",""127"",""447295""
","""event"",""trial"",""time""
""focus"",""1"",""29651""
""focus"",""127"",""607252""
","""event"",""trial"",""time""
""fullscreenenter"",""1"",""43769""
","""event"",""trial"",""time""
""fullscreenexit"",""127"",""447328""
","","","","","","null","<div style=""font-size:60px;"">+</div>","null","","fixation","","",""
"memory-trial","137","625610","0.0-18.0-1.46","5317","approach_avoid_sv1","""event"",""trial"",""time""
""blur"",""1"",""5353""
""focus"",""1"",""29651""
""fullscreenenter"",""1"",""43769""
""blur"",""127"",""447295""
""fullscreenexit"",""127"",""447328""
""focus"",""127"",""607252""
","""event"",""trial"",""time""
""blur"",""1"",""5353""
""blur"",""127"",""447295""
","""event"",""trial"",""time""
""focus"",""1"",""29651""
""focus"",""127"",""607252""
","""event"",""trial"",""time""
""fullscreenenter"",""1"",""43769""
","""event"",""trial"",""time""
""fullscreenexit"",""127"",""447328""
","","","","","","1275.5","images/bed4.png","","","memory_trial","2","maybe_old",""
"html-keyboard-response","138","626114","0.0-18.0-0.47","5317","approach_avoid_sv1","""event"",""trial"",""time""
""blur"",""1"",""5353""
""focus"",""1"",""29651""
""fullscreenenter"",""1"",""43769""
""blur"",""127"",""447295""
""fullscreenexit"",""127"",""447328""
""focus"",""127"",""607252""
","""event"",""trial"",""time""
""blur"",""1"",""5353""
""blur"",""127"",""447295""
","""event"",""trial"",""time""
""focus"",""1"",""29651""
""focus"",""127"",""607252""
","""event"",""trial"",""time""
""fullscreenenter"",""1"",""43769""
","""event"",""trial"",""time""
""fullscreenexit"",""127"",""447328""
","","","","","","null","<div style=""font-size:60px;"">+</div>","null","","fixation","","",""
"memory-trial","139","628202","0.0-18.0-1.47","5317","approach_avoid_sv1","""event"",""trial"",""time""
""blur"",""1"",""5353""
""focus"",""1"",""29651""
""fullscreenenter"",""1"",""43769""
""blur"",""127"",""447295""
""fullscreenexit"",""127"",""447328""
""focus"",""127"",""607252""
","""event"",""trial"",""time""
""blur"",""1"",""5353""
""blur"",""127"",""447295""
","""event"",""trial"",""time""
""focus"",""1"",""29651""
""focus"",""127"",""607252""
","""event"",""trial"",""time""
""fullscreenenter"",""1"",""43769""
","""event"",""trial"",""time""
""fullscreenexit"",""127"",""447328""
","","","","","","1078.4000000003725","images/boat5.png","","","memory_trial","4","definitely_new",""
"html-keyboard-response","140","628706","0.0-18.0-0.48","5317","approach_avoid_sv1","""event"",""trial"",""time""
""blur"",""1"",""5353""
""focus"",""1"",""29651""
""fullscreenenter"",""1"",""43769""
""blur"",""127"",""447295""
""fullscreenexit"",""127"",""447328""
""focus"",""127"",""607252""
","""event"",""trial"",""time""
""blur"",""1"",""5353""
""blur"",""127"",""447295""
","""event"",""trial"",""time""
""focus"",""1"",""29651""
""focus"",""127"",""607252""
","""event"",""trial"",""time""
""fullscreenenter"",""1"",""43769""
","""event"",""trial"",""time""
""fullscreenexit"",""127"",""447328""
","","","","","","null","<div style=""font-size:60px;"">+</div>","null","","fixation","","",""
"memory-trial","141","631442","0.0-18.0-1.48","5317","approach_avoid_sv1","""event"",""trial"",""time""
""blur"",""1"",""5353""
""focus"",""1"",""29651""
""fullscreenenter"",""1"",""43769""
""blur"",""127"",""447295""
""fullscreenexit"",""127"",""447328""
""focus"",""127"",""607252""
","""event"",""trial"",""time""
""blur"",""1"",""5353""
""blur"",""127"",""447295""
","""event"",""trial"",""time""
""focus"",""1"",""29651""
""focus"",""127"",""607252""
","""event"",""trial"",""time""
""fullscreenenter"",""1"",""43769""
","""event"",""trial"",""time""
""fullscreenexit"",""127"",""447328""
","","","","","","1731","images/goat3.png","","","memory_trial","2","maybe_old",""
"html-keyboard-response","142","631946","0.0-18.0-0.49","5317","approach_avoid_sv1","""event"",""trial"",""time""
""blur"",""1"",""5353""
""focus"",""1"",""29651""
""fullscreenenter"",""1"",""43769""
""blur"",""127"",""447295""
""fullscreenexit"",""127"",""447328""
""focus"",""127"",""607252""
","""event"",""trial"",""time""
""blur"",""1"",""5353""
""blur"",""127"",""447295""
","""event"",""trial"",""time""
""focus"",""1"",""29651""
""focus"",""127"",""607252""
","""event"",""trial"",""time""
""fullscreenenter"",""1"",""43769""
","""event"",""trial"",""time""
""fullscreenexit"",""127"",""447328""
","","","","","","null","<div style=""font-size:60px;"">+</div>","null","","fixation","","",""
"memory-trial","143","634066","0.0-18.0-1.49","5317","approach_avoid_sv1","""event"",""trial"",""time""
""blur"",""1"",""5353""
""focus"",""1"",""29651""
""fullscreenenter"",""1"",""43769""
""blur"",""127"",""447295""
""fullscreenexit"",""127"",""447328""
""focus"",""127"",""607252""
","""event"",""trial"",""time""
""blur"",""1"",""5353""
""blur"",""127"",""447295""
","""event"",""trial"",""time""
""focus"",""1"",""29651""
""focus"",""127"",""607252""
","""event"",""trial"",""time""
""fullscreenenter"",""1"",""43769""
","""event"",""trial"",""time""
""fullscreenexit"",""127"",""447328""
","","","","","","1115.0999999996275","images/dog4.png","","","memory_trial","3","maybe_new",""
"html-keyboard-response","144","634570","0.0-18.0-0.50","5317","approach_avoid_sv1","""event"",""trial"",""time""
""blur"",""1"",""5353""
""focus"",""1"",""29651""
""fullscreenenter"",""1"",""43769""
""blur"",""127"",""447295""
""fullscreenexit"",""127"",""447328""
""focus"",""127"",""607252""
","""event"",""trial"",""time""
""blur"",""1"",""5353""
""blur"",""127"",""447295""
","""event"",""trial"",""time""
""focus"",""1"",""29651""
""focus"",""127"",""607252""
","""event"",""trial"",""time""
""fullscreenenter"",""1"",""43769""
","""event"",""trial"",""time""
""fullscreenexit"",""127"",""447328""
","","","","","","null","<div style=""font-size:60px;"">+</div>","null","","fixation","","",""
"memory-trial","145","636466","0.0-18.0-1.50","5317","approach_avoid_sv1","""event"",""trial"",""time""
""blur"",""1"",""5353""
""focus"",""1"",""29651""
""fullscreenenter"",""1"",""43769""
""blur"",""127"",""447295""
""fullscreenexit"",""127"",""447328""
""focus"",""127"",""607252""
","""event"",""trial"",""time""
""blur"",""1"",""5353""
""blur"",""127"",""447295""
","""event"",""trial"",""time""
""focus"",""1"",""29651""
""focus"",""127"",""607252""
","""event"",""trial"",""time""
""fullscreenenter"",""1"",""43769""
","""event"",""trial"",""time""
""fullscreenexit"",""127"",""447328""
","","","","","","890.0999999996275","images/boat8.png","","","memory_trial","4","definitely_new",""
"html-keyboard-response","146","636970","0.0-18.0-0.51","5317","approach_avoid_sv1","""event"",""trial"",""time""
""blur"",""1"",""5353""
""focus"",""1"",""29651""
""fullscreenenter"",""1"",""43769""
""blur"",""127"",""447295""
""fullscreenexit"",""127"",""447328""
""focus"",""127"",""607252""
","""event"",""trial"",""time""
""blur"",""1"",""5353""
""blur"",""127"",""447295""
","""event"",""trial"",""time""
""focus"",""1"",""29651""
""focus"",""127"",""607252""
","""event"",""trial"",""time""
""fullscreenenter"",""1"",""43769""
","""event"",""trial"",""time""
""fullscreenexit"",""127"",""447328""
","","","","","","null","<div style=""font-size:60px;"">+</div>","null","","fixation","","",""
"memory-trial","147","639658","0.0-18.0-1.51","5317","approach_avoid_sv1","""event"",""trial"",""time""
""blur"",""1"",""5353""
""focus"",""1"",""29651""
""fullscreenenter"",""1"",""43769""
""blur"",""127"",""447295""
""fullscreenexit"",""127"",""447328""
""focus"",""127"",""607252""
","""event"",""trial"",""time""
""blur"",""1"",""5353""
""blur"",""127"",""447295""
","""event"",""trial"",""time""
""focus"",""1"",""29651""
""focus"",""127"",""607252""
","""event"",""trial"",""time""
""fullscreenenter"",""1"",""43769""
","""event"",""trial"",""time""
""fullscreenexit"",""127"",""447328""
","","","","","","1681","images/banana8.png","","","memory_trial","3","maybe_new",""
"html-keyboard-response","148","640162","0.0-18.0-0.52","5317","approach_avoid_sv1","""event"",""trial"",""time""
""blur"",""1"",""5353""
""focus"",""1"",""29651""
""fullscreenenter"",""1"",""43769""
""blur"",""127"",""447295""
""fullscreenexit"",""127"",""447328""
""focus"",""127"",""607252""
","""event"",""trial"",""time""
""blur"",""1"",""5353""
""blur"",""127"",""447295""
","""event"",""trial"",""time""
""focus"",""1"",""29651""
""focus"",""127"",""607252""
","""event"",""trial"",""time""
""fullscreenenter"",""1"",""43769""
","""event"",""trial"",""time""
""fullscreenexit"",""127"",""447328""
","","","","","","null","<div style=""font-size:60px;"">+</div>","null","","fixation","","",""
"memory-trial","149","642706","0.0-18.0-1.52","5317","approach_avoid_sv1","""event"",""trial"",""time""
""blur"",""1"",""5353""
""focus"",""1"",""29651""
""fullscreenenter"",""1"",""43769""
""blur"",""127"",""447295""
""fullscreenexit"",""127"",""447328""
""focus"",""127"",""607252""
","""event"",""trial"",""time""
""blur"",""1"",""5353""
""blur"",""127"",""447295""
","""event"",""trial"",""time""
""focus"",""1"",""29651""
""focus"",""127"",""607252""
","""event"",""trial"",""time""
""fullscreenenter"",""1"",""43769""
","""event"",""trial"",""time""
""fullscreenexit"",""127"",""447328""
","","","","","","1538","images/cat7.png","","","memory_trial","2","maybe_old",""
"html-keyboard-response","150","643210","0.0-18.0-0.53","5317","approach_avoid_sv1","""event"",""trial"",""time""
""blur"",""1"",""5353""
""focus"",""1"",""29651""
""fullscreenenter"",""1"",""43769""
""blur"",""127"",""447295""
""fullscreenexit"",""127"",""447328""
""focus"",""127"",""607252""
","""event"",""trial"",""time""
""blur"",""1"",""5353""
""blur"",""127"",""447295""
","""event"",""trial"",""time""
""focus"",""1"",""29651""
""focus"",""127"",""607252""
","""event"",""trial"",""time""
""fullscreenenter"",""1"",""43769""
","""event"",""trial"",""time""
""fullscreenexit"",""127"",""447328""
","","","","","","null","<div style=""font-size:60px;"">+</div>","null","","fixation","","",""
"memory-trial","151","645746","0.0-18.0-1.53","5317","approach_avoid_sv1","""event"",""trial"",""time""
""blur"",""1"",""5353""
""focus"",""1"",""29651""
""fullscreenenter"",""1"",""43769""
""blur"",""127"",""447295""
""fullscreenexit"",""127"",""447328""
""focus"",""127"",""607252""
","""event"",""trial"",""time""
""blur"",""1"",""5353""
""blur"",""127"",""447295""
","""event"",""trial"",""time""
""focus"",""1"",""29651""
""focus"",""127"",""607252""
","""event"",""trial"",""time""
""fullscreenenter"",""1"",""43769""
","""event"",""trial"",""time""
""fullscreenexit"",""127"",""447328""
","","","","","","1528.4000000003725","images/horse4.png","","","memory_trial","1","definitely_old",""
"html-keyboard-response","152","646250","0.0-18.0-0.54","5317","approach_avoid_sv1","""event"",""trial"",""time""
""blur"",""1"",""5353""
""focus"",""1"",""29651""
""fullscreenenter"",""1"",""43769""
""blur"",""127"",""447295""
""fullscreenexit"",""127"",""447328""
""focus"",""127"",""607252""
","""event"",""trial"",""time""
""blur"",""1"",""5353""
""blur"",""127"",""447295""
","""event"",""trial"",""time""
""focus"",""1"",""29651""
""focus"",""127"",""607252""
","""event"",""trial"",""time""
""fullscreenenter"",""1"",""43769""
","""event"",""trial"",""time""
""fullscreenexit"",""127"",""447328""
","","","","","","null","<div style=""font-size:60px;"">+</div>","null","","fixation","","",""
"memory-trial","153","648746","0.0-18.0-1.54","5317","approach_avoid_sv1","""event"",""trial"",""time""
""blur"",""1"",""5353""
""focus"",""1"",""29651""
""fullscreenenter"",""1"",""43769""
""blur"",""127"",""447295""
""fullscreenexit"",""127"",""447328""
""focus"",""127"",""607252""
","""event"",""trial"",""time""
""blur"",""1"",""5353""
""blur"",""127"",""447295""
","""event"",""trial"",""time""
""focus"",""1"",""29651""
""focus"",""127"",""607252""
","""event"",""trial"",""time""
""fullscreenenter"",""1"",""43769""
","""event"",""trial"",""time""
""fullscreenexit"",""127"",""447328""
","","","","","","1481.5","images/train8.png","","","memory_trial","3","maybe_new",""
"html-keyboard-response","154","649250","0.0-18.0-0.55","5317","approach_avoid_sv1","""event"",""trial"",""time""
""blur"",""1"",""5353""
""focus"",""1"",""29651""
""fullscreenenter"",""1"",""43769""
""blur"",""127"",""447295""
""fullscreenexit"",""127"",""447328""
""focus"",""127"",""607252""
","""event"",""trial"",""time""
""blur"",""1"",""5353""
""blur"",""127"",""447295""
","""event"",""trial"",""time""
""focus"",""1"",""29651""
""focus"",""127"",""607252""
","""event"",""trial"",""time""
""fullscreenenter"",""1"",""43769""
","""event"",""trial"",""time""
""fullscreenexit"",""127"",""447328""
","","","","","","null","<div style=""font-size:60px;"">+</div>","null","","fixation","","",""
"memory-trial","155","651562","0.0-18.0-1.55","5317","approach_avoid_sv1","""event"",""trial"",""time""
""blur"",""1"",""5353""
""focus"",""1"",""29651""
""fullscreenenter"",""1"",""43769""
""blur"",""127"",""447295""
""fullscreenexit"",""127"",""447328""
""focus"",""127"",""607252""
","""event"",""trial"",""time""
""blur"",""1"",""5353""
""blur"",""127"",""447295""
","""event"",""trial"",""time""
""focus"",""1"",""29651""
""focus"",""127"",""607252""
","""event"",""trial"",""time""
""fullscreenenter"",""1"",""43769""
","""event"",""trial"",""time""
""fullscreenexit"",""127"",""447328""
","","","","","","1303.2999999988824","images/rodent2.png","","","memory_trial","1","definitely_old",""
"html-keyboard-response","156","652066","0.0-18.0-0.56","5317","approach_avoid_sv1","""event"",""trial"",""time""
""blur"",""1"",""5353""
""focus"",""1"",""29651""
""fullscreenenter"",""1"",""43769""
""blur"",""127"",""447295""
""fullscreenexit"",""127"",""447328""
""focus"",""127"",""607252""
","""event"",""trial"",""time""
""blur"",""1"",""5353""
""blur"",""127"",""447295""
","""event"",""trial"",""time""
""focus"",""1"",""29651""
""focus"",""127"",""607252""
","""event"",""trial"",""time""
""fullscreenenter"",""1"",""43769""
","""event"",""trial"",""time""
""fullscreenexit"",""127"",""447328""
","","","","","","null","<div style=""font-size:60px;"">+</div>","null","","fixation","","",""
"memory-trial","157","655146","0.0-18.0-1.56","5317","approach_avoid_sv1","""event"",""trial"",""time""
""blur"",""1"",""5353""
""focus"",""1"",""29651""
""fullscreenenter"",""1"",""43769""
""blur"",""127"",""447295""
""fullscreenexit"",""127"",""447328""
""focus"",""127"",""607252""
","""event"",""trial"",""time""
""blur"",""1"",""5353""
""blur"",""127"",""447295""
","""event"",""trial"",""time""
""focus"",""1"",""29651""
""focus"",""127"",""607252""
","""event"",""trial"",""time""
""fullscreenenter"",""1"",""43769""
","""event"",""trial"",""time""
""fullscreenexit"",""127"",""447328""
","","","","","","2073.4000000003725","images/plane8.png","","","memory_trial","1","definitely_old",""
"html-keyboard-response","158","655650","0.0-18.0-0.57","5317","approach_avoid_sv1","""event"",""trial"",""time""
""blur"",""1"",""5353""
""focus"",""1"",""29651""
""fullscreenenter"",""1"",""43769""
""blur"",""127"",""447295""
""fullscreenexit"",""127"",""447328""
""focus"",""127"",""607252""
","""event"",""trial"",""time""
""blur"",""1"",""5353""
""blur"",""127"",""447295""
","""event"",""trial"",""time""
""focus"",""1"",""29651""
""focus"",""127"",""607252""
","""event"",""trial"",""time""
""fullscreenenter"",""1"",""43769""
","""event"",""trial"",""time""
""fullscreenexit"",""127"",""447328""
","","","","","","null","<div style=""font-size:60px;"">+</div>","null","","fixation","","",""
"memory-trial","159","658178","0.0-18.0-1.57","5317","approach_avoid_sv1","""event"",""trial"",""time""
""blur"",""1"",""5353""
""focus"",""1"",""29651""
""fullscreenenter"",""1"",""43769""
""blur"",""127"",""447295""
""fullscreenexit"",""127"",""447328""
""focus"",""127"",""607252""
","""event"",""trial"",""time""
""blur"",""1"",""5353""
""blur"",""127"",""447295""
","""event"",""trial"",""time""
""focus"",""1"",""29651""
""focus"",""127"",""607252""
","""event"",""trial"",""time""
""fullscreenenter"",""1"",""43769""
","""event"",""trial"",""time""
""fullscreenexit"",""127"",""447328""
","","","","","","1524.199999999255","images/rabbit6.png","","","memory_trial","1","definitely_old",""
"html-keyboard-response","160","658682","0.0-18.0-0.58","5317","approach_avoid_sv1","""event"",""trial"",""time""
""blur"",""1"",""5353""
""focus"",""1"",""29651""
""fullscreenenter"",""1"",""43769""
""blur"",""127"",""447295""
""fullscreenexit"",""127"",""447328""
""focus"",""127"",""607252""
","""event"",""trial"",""time""
""blur"",""1"",""5353""
""blur"",""127"",""447295""
","""event"",""trial"",""time""
""focus"",""1"",""29651""
""focus"",""127"",""607252""
","""event"",""trial"",""time""
""fullscreenenter"",""1"",""43769""
","""event"",""trial"",""time""
""fullscreenexit"",""127"",""447328""
","","","","","","null","<div style=""font-size:60px;"">+</div>","null","","fixation","","",""
"memory-trial","161","660818","0.0-18.0-1.58","5317","approach_avoid_sv1","""event"",""trial"",""time""
""blur"",""1"",""5353""
""focus"",""1"",""29651""
""fullscreenenter"",""1"",""43769""
""blur"",""127"",""447295""
""fullscreenexit"",""127"",""447328""
""focus"",""127"",""607252""
","""event"",""trial"",""time""
""blur"",""1"",""5353""
""blur"",""127"",""447295""
","""event"",""trial"",""time""
""focus"",""1"",""29651""
""focus"",""127"",""607252""
","""event"",""trial"",""time""
""fullscreenenter"",""1"",""43769""
","""event"",""trial"",""time""
""fullscreenexit"",""127"",""447328""
","","","","","","1129.5","images/bed1.png","","","memory_trial","1","definitely_old",""
"html-keyboard-response","162","661322","0.0-18.0-0.59","5317","approach_avoid_sv1","""event"",""trial"",""time""
""blur"",""1"",""5353""
""focus"",""1"",""29651""
""fullscreenenter"",""1"",""43769""
""blur"",""127"",""447295""
""fullscreenexit"",""127"",""447328""
""focus"",""127"",""607252""
","""event"",""trial"",""time""
""blur"",""1"",""5353""
""blur"",""127"",""447295""
","""event"",""trial"",""time""
""focus"",""1"",""29651""
""focus"",""127"",""607252""
","""event"",""trial"",""time""
""fullscreenenter"",""1"",""43769""
","""event"",""trial"",""time""
""fullscreenexit"",""127"",""447328""
","","","","","","null","<div style=""font-size:60px;"">+</div>","null","","fixation","","",""
"memory-trial","163","663210","0.0-18.0-1.59","5317","approach_avoid_sv1","""event"",""trial"",""time""
""blur"",""1"",""5353""
""focus"",""1"",""29651""
""fullscreenenter"",""1"",""43769""
""blur"",""127"",""447295""
""fullscreenexit"",""127"",""447328""
""focus"",""127"",""607252""
","""event"",""trial"",""time""
""blur"",""1"",""5353""
""blur"",""127"",""447295""
","""event"",""trial"",""time""
""focus"",""1"",""29651""
""focus"",""127"",""607252""
","""event"",""trial"",""time""
""fullscreenenter"",""1"",""43769""
","""event"",""trial"",""time""
""fullscreenexit"",""127"",""447328""
","","","","","","882.6999999992549","images/dog6.png","","","memory_trial","2","maybe_old",""
"html-keyboard-response","164","663714","0.0-18.0-0.60","5317","approach_avoid_sv1","""event"",""trial"",""time""
""blur"",""1"",""5353""
""focus"",""1"",""29651""
""fullscreenenter"",""1"",""43769""
""blur"",""127"",""447295""
""fullscreenexit"",""127"",""447328""
""focus"",""127"",""607252""
","""event"",""trial"",""time""
""blur"",""1"",""5353""
""blur"",""127"",""447295""
","""event"",""trial"",""time""
""focus"",""1"",""29651""
""focus"",""127"",""607252""
","""event"",""trial"",""time""
""fullscreenenter"",""1"",""43769""
","""event"",""trial"",""time""
""fullscreenexit"",""127"",""447328""
","","","","","","null","<div style=""font-size:60px;"">+</div>","null","","fixation","","",""
"memory-trial","165","665634","0.0-18.0-1.60","5317","approach_avoid_sv1","""event"",""trial"",""time""
""blur"",""1"",""5353""
""focus"",""1"",""29651""
""fullscreenenter"",""1"",""43769""
""blur"",""127"",""447295""
""fullscreenexit"",""127"",""447328""
""focus"",""127"",""607252""
","""event"",""trial"",""time""
""blur"",""1"",""5353""
""blur"",""127"",""447295""
","""event"",""trial"",""time""
""focus"",""1"",""29651""
""focus"",""127"",""607252""
","""event"",""trial"",""time""
""fullscreenenter"",""1"",""43769""
","""event"",""trial"",""time""
""fullscreenexit"",""127"",""447328""
","","","","","","916.7999999988824","images/cactus4.png","","","memory_trial","3","maybe_new",""
"html-keyboard-response","166","666138","0.0-18.0-0.61","5317","approach_avoid_sv1","""event"",""trial"",""time""
""blur"",""1"",""5353""
""focus"",""1"",""29651""
""fullscreenenter"",""1"",""43769""
""blur"",""127"",""447295""
""fullscreenexit"",""127"",""447328""
""focus"",""127"",""607252""
","""event"",""trial"",""time""
""blur"",""1"",""5353""
""blur"",""127"",""447295""
","""event"",""trial"",""time""
""focus"",""1"",""29651""
""focus"",""127"",""607252""
","""event"",""trial"",""time""
""fullscreenenter"",""1"",""43769""
","""event"",""trial"",""time""
""fullscreenexit"",""127"",""447328""
","","","","","","null","<div style=""font-size:60px;"">+</div>","null","","fixation","","",""
"memory-trial","167","668274","0.0-18.0-1.61","5317","approach_avoid_sv1","""event"",""trial"",""time""
""blur"",""1"",""5353""
""focus"",""1"",""29651""
""fullscreenenter"",""1"",""43769""
""blur"",""127"",""447295""
""fullscreenexit"",""127"",""447328""
""focus"",""127"",""607252""
","""event"",""trial"",""time""
""blur"",""1"",""5353""
""blur"",""127"",""447295""
","""event"",""trial"",""time""
""focus"",""1"",""29651""
""focus"",""127"",""607252""
","""event"",""trial"",""time""
""fullscreenenter"",""1"",""43769""
","""event"",""trial"",""time""
""fullscreenexit"",""127"",""447328""
","","","","","","1130.800000000745","images/cow3.png","","","memory_trial","4","definitely_new",""
"html-keyboard-response","168","668778","0.0-18.0-0.62","5317","approach_avoid_sv1","""event"",""trial"",""time""
""blur"",""1"",""5353""
""focus"",""1"",""29651""
""fullscreenenter"",""1"",""43769""
""blur"",""127"",""447295""
""fullscreenexit"",""127"",""447328""
""focus"",""127"",""607252""
","""event"",""trial"",""time""
""blur"",""1"",""5353""
""blur"",""127"",""447295""
","""event"",""trial"",""time""
""focus"",""1"",""29651""
""focus"",""127"",""607252""
","""event"",""trial"",""time""
""fullscreenenter"",""1"",""43769""
","""event"",""trial"",""time""
""fullscreenexit"",""127"",""447328""
","","","","","","null","<div style=""font-size:60px;"">+</div>","null","","fixation","","",""
"memory-trial","169","671098","0.0-18.0-1.62","5317","approach_avoid_sv1","""event"",""trial"",""time""
""blur"",""1"",""5353""
""focus"",""1"",""29651""
""fullscreenenter"",""1"",""43769""
""blur"",""127"",""447295""
""fullscreenexit"",""127"",""447328""
""focus"",""127"",""607252""
","""event"",""trial"",""time""
""blur"",""1"",""5353""
""blur"",""127"",""447295""
","""event"",""trial"",""time""
""focus"",""1"",""29651""
""focus"",""127"",""607252""
","""event"",""trial"",""time""
""fullscreenenter"",""1"",""43769""
","""event"",""trial"",""time""
""fullscreenexit"",""127"",""447328""
","","","","","","1311.7000000011176","images/bush5.png","","","memory_trial","3","maybe_new",""
"html-keyboard-response","170","671602","0.0-18.0-0.63","5317","approach_avoid_sv1","""event"",""trial"",""time""
""blur"",""1"",""5353""
""focus"",""1"",""29651""
""fullscreenenter"",""1"",""43769""
""blur"",""127"",""447295""
""fullscreenexit"",""127"",""447328""
""focus"",""127"",""607252""
","""event"",""trial"",""time""
""blur"",""1"",""5353""
""blur"",""127"",""447295""
","""event"",""trial"",""time""
""focus"",""1"",""29651""
""focus"",""127"",""607252""
","""event"",""trial"",""time""
""fullscreenenter"",""1"",""43769""
","""event"",""trial"",""time""
""fullscreenexit"",""127"",""447328""
","","","","","","null","<div style=""font-size:60px;"">+</div>","null","","fixation","","",""
"memory-trial","171","674346","0.0-18.0-1.63","5317","approach_avoid_sv1","""event"",""trial"",""time""
""blur"",""1"",""5353""
""focus"",""1"",""29651""
""fullscreenenter"",""1"",""43769""
""blur"",""127"",""447295""
""fullscreenexit"",""127"",""447328""
""focus"",""127"",""607252""
","""event"",""trial"",""time""
""blur"",""1"",""5353""
""blur"",""127"",""447295""
","""event"",""trial"",""time""
""focus"",""1"",""29651""
""focus"",""127"",""607252""
","""event"",""trial"",""time""
""fullscreenenter"",""1"",""43769""
","""event"",""trial"",""time""
""fullscreenexit"",""127"",""447328""
","","","","","","1739.6000000014901","images/truck1.png","","","memory_trial","4","definitely_new",""
"html-keyboard-response","172","674850","0.0-18.0-0.64","5317","approach_avoid_sv1","""event"",""trial"",""time""
""blur"",""1"",""5353""
""focus"",""1"",""29651""
""fullscreenenter"",""1"",""43769""
""blur"",""127"",""447295""
""fullscreenexit"",""127"",""447328""
""focus"",""127"",""607252""
","""event"",""trial"",""time""
""blur"",""1"",""5353""
""blur"",""127"",""447295""
","""event"",""trial"",""time""
""focus"",""1"",""29651""
""focus"",""127"",""607252""
","""event"",""trial"",""time""
""fullscreenenter"",""1"",""43769""
","""event"",""trial"",""time""
""fullscreenexit"",""127"",""447328""
","","","","","","null","<div style=""font-size:60px;"">+</div>","null","","fixation","","",""
"memory-trial","173","677458","0.0-18.0-1.64","5317","approach_avoid_sv1","""event"",""trial"",""time""
""blur"",""1"",""5353""
""focus"",""1"",""29651""
""fullscreenenter"",""1"",""43769""
""blur"",""127"",""447295""
""fullscreenexit"",""127"",""447328""
""focus"",""127"",""607252""
","""event"",""trial"",""time""
""blur"",""1"",""5353""
""blur"",""127"",""447295""
","""event"",""trial"",""time""
""focus"",""1"",""29651""
""focus"",""127"",""607252""
","""event"",""trial"",""time""
""fullscreenenter"",""1"",""43769""
","""event"",""trial"",""time""
""fullscreenexit"",""127"",""447328""
","","","","","","1602.4000000003725","images/plane1.png","","","memory_trial","3","maybe_new",""
"html-keyboard-response","174","677962","0.0-18.0-0.65","5317","approach_avoid_sv1","""event"",""trial"",""time""
""blur"",""1"",""5353""
""focus"",""1"",""29651""
""fullscreenenter"",""1"",""43769""
""blur"",""127"",""447295""
""fullscreenexit"",""127"",""447328""
""focus"",""127"",""607252""
","""event"",""trial"",""time""
""blur"",""1"",""5353""
""blur"",""127"",""447295""
","""event"",""trial"",""time""
""focus"",""1"",""29651""
""focus"",""127"",""607252""
","""event"",""trial"",""time""
""fullscreenenter"",""1"",""43769""
","""event"",""trial"",""time""
""fullscreenexit"",""127"",""447328""
","","","","","","null","<div style=""font-size:60px;"">+</div>","null","","fixation","","",""
"memory-trial","175","680386","0.0-18.0-1.65","5317","approach_avoid_sv1","""event"",""trial"",""time""
""blur"",""1"",""5353""
""focus"",""1"",""29651""
""fullscreenenter"",""1"",""43769""
""blur"",""127"",""447295""
""fullscreenexit"",""127"",""447328""
""focus"",""127"",""607252""
","""event"",""trial"",""time""
""blur"",""1"",""5353""
""blur"",""127"",""447295""
","""event"",""trial"",""time""
""focus"",""1"",""29651""
""focus"",""127"",""607252""
","""event"",""trial"",""time""
""fullscreenenter"",""1"",""43769""
","""event"",""trial"",""time""
""fullscreenexit"",""127"",""447328""
","","","","","","1420.199999999255","images/sofa6.png","","","memory_trial","1","definitely_old",""
"html-keyboard-response","176","680890","0.0-18.0-0.66","5317","approach_avoid_sv1","""event"",""trial"",""time""
""blur"",""1"",""5353""
""focus"",""1"",""29651""
""fullscreenenter"",""1"",""43769""
""blur"",""127"",""447295""
""fullscreenexit"",""127"",""447328""
""focus"",""127"",""607252""