"trial_type","trial_index","time_elapsed","internal_node_id","subject_id","task_version","interactions","blur_events","focus_events","fullscreenenter_events","fullscreenexit_events","success","timeout","failed_images","failed_audio","failed_video","rt","stimulus","response","button_pressed","task_part","key_press","answer","correct"
"pavlovia","0","6","0.0-0.0","5967","approach_avoid_sv1","""event"",""trial"",""time""
""fullscreenenter"",""1"",""4765""
","
","
","""event"",""trial"",""time""
""fullscreenenter"",""1"",""4765""
","
","","","","","","","","","","","","",""
"fullscreen","1","5761","0.0-1.0","5967","approach_avoid_sv1","""event"",""trial"",""time""
""fullscreenenter"",""1"",""4765""
","
","
","""event"",""trial"",""time""
""fullscreenenter"",""1"",""4765""
","
","true","","","","","","","","","","","",""
"preload","2","11849","0.0-2.0","5967","approach_avoid_sv1","""event"",""trial"",""time""
""fullscreenenter"",""1"",""4765""
","
","
","""event"",""trial"",""time""
""fullscreenenter"",""1"",""4765""
","
","true","false","[]","[]","[]","","","","","","","",""
"preload","3","18084","0.0-3.0","5967","approach_avoid_sv1","""event"",""trial"",""time""
""fullscreenenter"",""1"",""4765""
","
","
","""event"",""trial"",""time""
""fullscreenenter"",""1"",""4765""
","
","true","false","[]","[]","[]","","","","","","","",""
"preload","4","18548","0.0-4.0","5967","approach_avoid_sv1","""event"",""trial"",""time""
""fullscreenenter"",""1"",""4765""
","
","
","""event"",""trial"",""time""
""fullscreenenter"",""1"",""4765""
","
","true","false","[]","[]","[]","","","","","","","",""
"audio-keyboard-response","5","21425","0.0-5.0","5967","approach_avoid_sv1","""event"",""trial"",""time""
""fullscreenenter"",""1"",""4765""
","
","
","""event"",""trial"",""time""
""fullscreenenter"",""1"",""4765""
","
","","","","","","2879.2743764172337","audio/beep_loop.wav"," ","","","","",""
"audio-button-response","6","24254","0.0-6.0","5967","approach_avoid_sv1","""event"",""trial"",""time""
""fullscreenenter"",""1"",""4765""
","
","
","""event"",""trial"",""time""
""fullscreenenter"",""1"",""4765""
","
","","","","","","2827","audio/turtle.wav","3","","","","",""
"audio-button-response","7","26636","0.0-7.0","5967","approach_avoid_sv1","""event"",""trial"",""time""
""fullscreenenter"",""1"",""4765""
","
","
","""event"",""trial"",""time""
""fullscreenenter"",""1"",""4765""
","
","","","","","","1370","audio/shark.wav","2","","","","",""
"preload","8","34689","0.0-8.0","5967","approach_avoid_sv1","""event"",""trial"",""time""
""fullscreenenter"",""1"",""4765""
","
","
","""event"",""trial"",""time""
""fullscreenenter"",""1"",""4765""
","
","true","false","[]","[]","[]","","","","","","","",""
"learning-instructions","9","42522","0.0-9.0-0.0","5967","approach_avoid_sv1","""event"",""trial"",""time""
""fullscreenenter"",""1"",""4765""
","
","
","""event"",""trial"",""time""
""fullscreenenter"",""1"",""4765""
","
","","","","","","3356","<p> Welcome back! </p><p> Last week, you had to make choices about lots of different items.  </p>","","0","instructions","","",""
"learning-instructions","10","47787","0.0-9.0-0.1","5967","approach_avoid_sv1","""event"",""trial"",""time""
""fullscreenenter"",""1"",""4765""
","
","
","""event"",""trial"",""time""
""fullscreenenter"",""1"",""4765""
","
","","","","","","1150.699999999255","<p> Today, we are going to ask you to try to remember all the items. </p>","","0","instructions","","",""
"learning-instructions","11","58835","0.0-9.0-0.2","5967","approach_avoid_sv1","""event"",""trial"",""time""
""fullscreenenter"",""1"",""4765""
","
","
","""event"",""trial"",""time""
""fullscreenenter"",""1"",""4765""
","
","","","","","","909","<p> On every trial, you will see an image. </p><p> The image may be an OLD image you saw during the games last week or it may be a NEW image that was not presented. </p>","","0","instructions","","",""
"learning-instructions","12","67721","0.0-9.0-0.3","5967","approach_avoid_sv1","""event"",""trial"",""time""
""fullscreenenter"",""1"",""4765""
","
","
","""event"",""trial"",""time""
""fullscreenenter"",""1"",""4765""
","
","","","","","","381","<p> You need to select whether the image is:  </p><p>  'Definitely old', 'Maybe old', 'Maybe new', or 'Definitely new.'  </p><div class=""mem-choice-instructions-grid""><div class=""choice-option"" id=""choice-option-1"" ><img src=""images/definitely_old_1.png"" id=""choice-option-img-1"" class=""choice-option-img"" stage=""1""></div><div class=""choice-option"" id=""choice-option-2"" ><img src=""images/maybe_old_1.png"" id=""choice-option-img-2"" class=""choice-option-img"" stage=""1""></div><div class=""choice-option"" id=""choice-option-3"" ><img src=""images/maybe_new_1.png"" id=""choice-option-img-3"" class=""choice-option-img"" stage=""1""></div><div class=""choice-option"" id=""choice-option-4"" > <img src=""images/definitely_new_1.png"" id=""choice-option-img-4"" class=""choice-option-img"" stage=""1""></div></div>","","0","instructions","","",""
"learning-instructions","13","74746","0.0-9.0-0.4","5967","approach_avoid_sv1","""event"",""trial"",""time""
""fullscreenenter"",""1"",""4765""
","
","
","""event"",""trial"",""time""
""fullscreenenter"",""1"",""4765""
","
","","","","","","510.0999999977648","<p> You should use the 1, 2, 3, and 4 keys to make your responses.  </p><div class=""mem-choice-instructions-grid""><div class=""choice-option"" id=""choice-option-1"" ><img src=""images/definitely_old.png"" id=""choice-option-img-1"" class=""choice-option-img"" stage=""1""></div><div class=""choice-option"" id=""choice-option-2"" ><img src=""images/maybe_old.png"" id=""choice-option-img-2"" class=""choice-option-img"" stage=""1""></div><div class=""choice-option"" id=""choice-option-3"" ><img src=""images/maybe_new.png"" id=""choice-option-img-3"" class=""choice-option-img"" stage=""1""></div><div class=""choice-option"" id=""choice-option-4"" > <img src=""images/definitely_new.png"" id=""choice-option-img-4"" class=""choice-option-img"" stage=""1""></div></div>","","0","instructions","","",""
"learning-instructions","14","81572","0.0-9.0-0.5","5967","approach_avoid_sv1","""event"",""trial"",""time""
""fullscreenenter"",""1"",""4765""
","
","
","""event"",""trial"",""time""
""fullscreenenter"",""1"",""4765""
","
","","","","","","497.8999999985099","<p> You will have 10 seconds to make each response.  </p><p>  Make sure to respond before time runs out! </p>","","0","instructions","","",""
"learning-instructions","15","89113","0.0-9.0-0.6","5967","approach_avoid_sv1","""event"",""trial"",""time""
""fullscreenenter"",""1"",""4765""
","
","
","""event"",""trial"",""time""
""fullscreenenter"",""1"",""4765""
","
","","","","","","463.5999999977648","<p> Today, you will see each image ONCE only.  </p><p>  That means none of the images will repeat. </p>","","0","instructions","","",""
"learning-instructions","16","102500","0.0-9.0-0.7","5967","approach_avoid_sv1","""event"",""trial"",""time""
""fullscreenenter"",""1"",""4765""
","
","
","""event"",""trial"",""time""
""fullscreenenter"",""1"",""4765""
","
","","","","","","713.4000000022352","<p> Before you play the real game, it is time to practice. </p><p>  Just like in the real game, some of the images in the practice will be ones you have seen before. </p><p>  Others will be entirely new. </p>","","0","instructions","","",""
"html-button-response","17","104717","0.0-10.0","5967","approach_avoid_sv1","""event"",""trial"",""time""
""fullscreenenter"",""1"",""4765""
","
","
","""event"",""trial"",""time""
""fullscreenenter"",""1"",""4765""
","
","","","","","","2111.199999999255","<p> Ready to practice? </p><p> Remember, use the 1, 2, 3, and 4 keys to make your responses. </p>","0","","instructions","","",""
"html-keyboard-response","18","105332","0.0-11.0-0.0","5967","approach_avoid_sv1","""event"",""trial"",""time""
""fullscreenenter"",""1"",""4765""
","
","
","""event"",""trial"",""time""
""fullscreenenter"",""1"",""4765""
","
","","","","","","null","<div style=""font-size:60px;"">+</div>","null","","fixation","","",""
"memory-trial","19","110615","0.0-11.0-1.0","5967","approach_avoid_sv1","""event"",""trial"",""time""
""fullscreenenter"",""1"",""4765""
","
","
","""event"",""trial"",""time""
""fullscreenenter"",""1"",""4765""
","
","","","","","","4271.800000000745","images/ball5.png","","","practice","1","definitely_old",""
"html-keyboard-response","20","111126","0.0-11.0-0.1","5967","approach_avoid_sv1","""event"",""trial"",""time""
""fullscreenenter"",""1"",""4765""
","
","
","""event"",""trial"",""time""
""fullscreenenter"",""1"",""4765""
","
","","","","","","null","<div style=""font-size:60px;"">+</div>","null","","fixation","","",""
"memory-trial","21","115032","0.0-11.0-1.1","5967","approach_avoid_sv1","""event"",""trial"",""time""
""fullscreenenter"",""1"",""4765""
","
","
","""event"",""trial"",""time""
""fullscreenenter"",""1"",""4765""
","
","","","","","","2896.5","images/ball1.png","","","practice","1","definitely_old",""
"html-keyboard-response","22","115544","0.0-11.0-0.2","5967","approach_avoid_sv1","""event"",""trial"",""time""
""fullscreenenter"",""1"",""4765""
","
","
","""event"",""trial"",""time""
""fullscreenenter"",""1"",""4765""
","
","","","","","","null","<div style=""font-size:60px;"">+</div>","null","","fixation","","",""
"memory-trial","23","118510","0.0-11.0-1.2","5967","approach_avoid_sv1","""event"",""trial"",""time""
""fullscreenenter"",""1"",""4765""
","
","
","""event"",""trial"",""time""
""fullscreenenter"",""1"",""4765""
","
","","","","","","1956.699999999255","images/ball2.png","","","practice","1","definitely_old",""
"html-keyboard-response","24","119022","0.0-11.0-0.3","5967","approach_avoid_sv1","""event"",""trial"",""time""
""fullscreenenter"",""1"",""4765""
","
","
","""event"",""trial"",""time""
""fullscreenenter"",""1"",""4765""
","
","","","","","","null","<div style=""font-size:60px;"">+</div>","null","","fixation","","",""
"memory-trial","25","122796","0.0-11.0-1.3","5967","approach_avoid_sv1","""event"",""trial"",""time""
""fullscreenenter"",""1"",""4765""
","
","
","""event"",""trial"",""time""
""fullscreenenter"",""1"",""4765""
","
","","","","","","2768.89999999851","images/racket2.png","","","practice","3","maybe_new",""
"html-keyboard-response","26","123299","0.0-11.0-0.4","5967","approach_avoid_sv1","""event"",""trial"",""time""
""fullscreenenter"",""1"",""4765""
","
","
","""event"",""trial"",""time""
""fullscreenenter"",""1"",""4765""
","
","","","","","","null","<div style=""font-size:60px;"">+</div>","null","","fixation","","",""
"memory-trial","27","128773","0.0-11.0-1.4","5967","approach_avoid_sv1","""event"",""trial"",""time""
""fullscreenenter"",""1"",""4765""
","
","
","""event"",""trial"",""time""
""fullscreenenter"",""1"",""4765""
","
","","","","","","4464.70000000298","images/racket3.png","","","practice","2","maybe_old",""
"html-keyboard-response","28","129276","0.0-11.0-0.5","5967","approach_avoid_sv1","""event"",""trial"",""time""
""fullscreenenter"",""1"",""4765""
","
","
","""event"",""trial"",""time""
""fullscreenenter"",""1"",""4765""
","
","","","","","","null","<div style=""font-size:60px;"">+</div>","null","","fixation","","",""
"memory-trial","29","131968","0.0-11.0-1.5","5967","approach_avoid_sv1","""event"",""trial"",""time""
""fullscreenenter"",""1"",""4765""
","
","
","""event"",""trial"",""time""
""fullscreenenter"",""1"",""4765""
","
","","","","","","1677.4000000022352","images/racket1.png","","","practice","1","definitely_old",""
"html-keyboard-response","30","132478","0.0-11.0-0.6","5967","approach_avoid_sv1","""event"",""trial"",""time""
""fullscreenenter"",""1"",""4765""
","
","
","""event"",""trial"",""time""
""fullscreenenter"",""1"",""4765""
","
","","","","","","null","<div style=""font-size:60px;"">+</div>","null","","fixation","","",""
"memory-trial","31","136798","0.0-11.0-1.6","5967","approach_avoid_sv1","""event"",""trial"",""time""
""fullscreenenter"",""1"",""4765""
","
","
","""event"",""trial"",""time""
""fullscreenenter"",""1"",""4765""
","
","","","","","","3309.10000000149","images/ball3.png","","","practice","3","maybe_new",""
"html-keyboard-response","32","137302","0.0-11.0-0.7","5967","approach_avoid_sv1","""event"",""trial"",""time""
""fullscreenenter"",""1"",""4765""
","
","
","""event"",""trial"",""time""
""fullscreenenter"",""1"",""4765""
","
","","","","","","null","<div style=""font-size:60px;"">+</div>","null","","fixation","","",""
"memory-trial","33","140199","0.0-11.0-1.7","5967","approach_avoid_sv1","""event"",""trial"",""time""
""fullscreenenter"",""1"",""4765""
","
","
","""event"",""trial"",""time""
""fullscreenenter"",""1"",""4765""
","
","","","","","","1884.199999999255","images/racket5.png","","","practice","4","definitely_new",""
"learning-instructions","34","148615","0.0-12.0-0.0","5967","approach_avoid_sv1","""event"",""trial"",""time""
""fullscreenenter"",""1"",""4765""
","
","
","""event"",""trial"",""time""
""fullscreenenter"",""1"",""4765""
","
","","","","","","1100.199999999255","<p> Great! You have completed the practice. </p><p> Before you start, we're going to ask you a few questions about how the game works.  </p>","","0","instructions","","",""
"preload","35","154492","0.0-13.0","5967","approach_avoid_sv1","""event"",""trial"",""time""
""fullscreenenter"",""1"",""4765""
","
","
","""event"",""trial"",""time""
""fullscreenenter"",""1"",""4765""
","
","true","false","[]","[]","[]","","","","","","","",""
"comp-q","36","162658","0.0-14.0-0.0","5967","approach_avoid_sv1","""event"",""trial"",""time""
""fullscreenenter"",""1"",""4765""
","
","
","""event"",""trial"",""time""
""fullscreenenter"",""1"",""4765""
","
","","","","","","2337","<p> <b> True or False? </b> </p><p> In this game, you will only see each image once. </p>","","0","comp_question","","","true"
"comp-q","37","169974","0.0-14.0-1.0","5967","approach_avoid_sv1","""event"",""trial"",""time""
""fullscreenenter"",""1"",""4765""
","
","
","""event"",""trial"",""time""
""fullscreenenter"",""1"",""4765""
","
","","","","","","967.8000000007451","<p> <b> That's right! </b> You will see many different images <i> one time each </i> in this game. </p>","","0","comp_answer","","",""
"comp-q","38","175943","0.0-15.0-0.0","5967","approach_avoid_sv1","""event"",""trial"",""time""
""fullscreenenter"",""1"",""4765""
","
","
","""event"",""trial"",""time""
""fullscreenenter"",""1"",""4765""
","
","","","","","","958.1999999992549","<p> <b> True or False? </b> </p><p> You should use the mouse and click to make your response. </p>","","1","comp_question","","","true"
"comp-q","39","185362","0.0-15.0-1.0","5967","approach_avoid_sv1","""event"",""trial"",""time""
""fullscreenenter"",""1"",""4765""
","
","
","""event"",""trial"",""time""
""fullscreenenter"",""1"",""4765""
","
","","","","","","2917.699999999255","<p><b> That's right! </b> You should use the '1', '2', '3', and '4' keys to make your response. </p>","","0","comp_answer","","",""
"comp-q","40","192077","0.0-16.0-0.0","5967","approach_avoid_sv1","""event"",""trial"",""time""
""fullscreenenter"",""1"",""4765""
","
","
","""event"",""trial"",""time""
""fullscreenenter"",""1"",""4765""
","
","","","","","","1028.8999999985099","<p> <b> True or False? </b> </p><p> You will have as much time as you want to make each choice. </p>","","1","comp_question","","","true"
"comp-q","41","198322","0.0-16.0-1.0","5967","approach_avoid_sv1","""event"",""trial"",""time""
""fullscreenenter"",""1"",""4765""
","
","
","""event"",""trial"",""time""
""fullscreenenter"",""1"",""4765""
","
","","","","","","1551.6000000014901","<p> <b> That's right! </b> You will only have 10 seconds to make each choice. </p>","","0","comp_answer","","",""
"learning-instructions","42","208617","0.0-17.0","5967","approach_avoid_sv1","""event"",""trial"",""time""
""fullscreenenter"",""1"",""4765""
","
","
","""event"",""trial"",""time""
""fullscreenenter"",""1"",""4765""
","
","","","","","","1622.6000000014901","<p> Great! You are now ready to begin the game. </p><p> Remember, use the 1, 2, 3, and 4 keys to make your responses. </p>","","0","instructions","","",""
"html-keyboard-response","43","209222","0.0-18.0-0.0","5967","approach_avoid_sv1","""event"",""trial"",""time""
""fullscreenenter"",""1"",""4765""
","
","
","""event"",""trial"",""time""
""fullscreenenter"",""1"",""4765""
","
","","","","","","null","<div style=""font-size:60px;"">+</div>","null","","fixation","","",""
"memory-trial","44","213263","0.0-18.0-1.0","5967","approach_avoid_sv1","""event"",""trial"",""time""
""fullscreenenter"",""1"",""4765""
","
","
","""event"",""trial"",""time""
""fullscreenenter"",""1"",""4765""
","
","","","","","","3034.599999997765","images/orange3.png","","","memory_trial","4","definitely_new",""
"html-keyboard-response","45","213768","0.0-18.0-0.1","5967","approach_avoid_sv1","""event"",""trial"",""time""
""fullscreenenter"",""1"",""4765""
","
","
","""event"",""trial"",""time""
""fullscreenenter"",""1"",""4765""
","
","","","","","","null","<div style=""font-size:60px;"">+</div>","null","","fixation","","",""
"memory-trial","46","216955","0.0-18.0-1.1","5967","approach_avoid_sv1","""event"",""trial"",""time""
""fullscreenenter"",""1"",""4765""
","
","
","""event"",""trial"",""time""
""fullscreenenter"",""1"",""4765""
","
","","","","","","2179.10000000149","images/flower3.png","","","memory_trial","1","definitely_old",""
"html-keyboard-response","47","217466","0.0-18.0-0.2","5967","approach_avoid_sv1","""event"",""trial"",""time""
""fullscreenenter"",""1"",""4765""
","
","
","""event"",""trial"",""time""
""fullscreenenter"",""1"",""4765""
","
","","","","","","null","<div style=""font-size:60px;"">+</div>","null","","fixation","","",""
"memory-trial","48","221016","0.0-18.0-1.2","5967","approach_avoid_sv1","""event"",""trial"",""time""
""fullscreenenter"",""1"",""4765""
","
","
","""event"",""trial"",""time""
""fullscreenenter"",""1"",""4765""
","
","","","","","","2543.89999999851","images/bush5.png","","","memory_trial","4","definitely_new",""
"html-keyboard-response","49","221521","0.0-18.0-0.3","5967","approach_avoid_sv1","""event"",""trial"",""time""
""fullscreenenter"",""1"",""4765""
","
","
","""event"",""trial"",""time""
""fullscreenenter"",""1"",""4765""
","
","","","","","","null","<div style=""font-size:60px;"">+</div>","null","","fixation","","",""
"memory-trial","50","224376","0.0-18.0-1.3","5967","approach_avoid_sv1","""event"",""trial"",""time""
""fullscreenenter"",""1"",""4765""
","
","
","""event"",""trial"",""time""
""fullscreenenter"",""1"",""4765""
","
","","","","","","1843.5","images/dog5.png","","","memory_trial","4","definitely_new",""
"html-keyboard-response","51","224879","0.0-18.0-0.4","5967","approach_avoid_sv1","""event"",""trial"",""time""
""fullscreenenter"",""1"",""4765""
","
","
","""event"",""trial"",""time""
""fullscreenenter"",""1"",""4765""
","
","","","","","","null","<div style=""font-size:60px;"">+</div>","null","","fixation","","",""
"memory-trial","52","227282","0.0-18.0-1.4","5967","approach_avoid_sv1","""event"",""trial"",""time""
""fullscreenenter"",""1"",""4765""
","
","
","""event"",""trial"",""time""
""fullscreenenter"",""1"",""4765""
","
","","","","","","1391.6000000014901","images/dog8.png","","","memory_trial","4","definitely_new",""
"html-keyboard-response","53","227793","0.0-18.0-0.5","5967","approach_avoid_sv1","""event"",""trial"",""time""
""fullscreenenter"",""1"",""4765""
","
","
","""event"",""trial"",""time""
""fullscreenenter"",""1"",""4765""
","
","","","","","","null","<div style=""font-size:60px;"">+</div>","null","","fixation","","",""
"memory-trial","54","230912","0.0-18.0-1.5","5967","approach_avoid_sv1","""event"",""trial"",""time""
""fullscreenenter"",""1"",""4765""
","
","
","""event"",""trial"",""time""
""fullscreenenter"",""1"",""4765""
","
","","","","","","2106.5","images/sheep6.png","","","memory_trial","3","maybe_new",""
"html-keyboard-response","55","231415","0.0-18.0-0.6","5967","approach_avoid_sv1","""event"",""trial"",""time""
""fullscreenenter"",""1"",""4765""
","
","
","""event"",""trial"",""time""
""fullscreenenter"",""1"",""4765""
","
","","","","","","null","<div style=""font-size:60px;"">+</div>","null","","fixation","","",""
"memory-trial","56","234011","0.0-18.0-1.6","5967","approach_avoid_sv1","""event"",""trial"",""time""
""fullscreenenter"",""1"",""4765""
","
","
","""event"",""trial"",""time""
""fullscreenenter"",""1"",""4765""
","
","","","","","","1582.699999999255","images/table6.png","","","memory_trial","1","definitely_old",""
"html-keyboard-response","57","234521","0.0-18.0-0.7","5967","approach_avoid_sv1","""event"",""trial"",""time""
""fullscreenenter"",""1"",""4765""
","
","
","""event"",""trial"",""time""
""fullscreenenter"",""1"",""4765""
","
","","","","","","null","<div style=""font-size:60px;"">+</div>","null","","fixation","","",""
"memory-trial","58","237634","0.0-18.0-1.7","5967","approach_avoid_sv1","""event"",""trial"",""time""
""fullscreenenter"",""1"",""4765""
","
","
","""event"",""trial"",""time""
""fullscreenenter"",""1"",""4765""
","
","","","","","","2102.89999999851","images/table7.png","","","memory_trial","2","maybe_old",""
"html-keyboard-response","59","238144","0.0-18.0-0.8","5967","approach_avoid_sv1","""event"",""trial"",""time""
""fullscreenenter"",""1"",""4765""
","
","
","""event"",""trial"",""time""
""fullscreenenter"",""1"",""4765""
","
","","","","","","null","<div style=""font-size:60px;"">+</div>","null","","fixation","","",""
"memory-trial","60","242811","0.0-18.0-1.8","5967","approach_avoid_sv1","""event"",""trial"",""time""
""fullscreenenter"",""1"",""4765""
","
","
","""event"",""trial"",""time""
""fullscreenenter"",""1"",""4765""
","
","","","","","","3656.300000000745","images/horse6.png","","","memory_trial","1","definitely_old",""
"html-keyboard-response","61","243323","0.0-18.0-0.9","5967","approach_avoid_sv1","""event"",""trial"",""time""
""fullscreenenter"",""1"",""4765""
","
","
","""event"",""trial"",""time""
""fullscreenenter"",""1"",""4765""
","
","","","","","","null","<div style=""font-size:60px;"">+</div>","null","","fixation","","",""
"memory-trial","62","245372","0.0-18.0-1.9","5967","approach_avoid_sv1","""event"",""trial"",""time""
""fullscreenenter"",""1"",""4765""
","
","
","""event"",""trial"",""time""
""fullscreenenter"",""1"",""4765""
","
","","","","","","1033.199999999255","images/boat8.png","","","memory_trial","1","definitely_old",""
"html-keyboard-response","63","245883","0.0-18.0-0.10","5967","approach_avoid_sv1","""event"",""trial"",""time""
""fullscreenenter"",""1"",""4765""
","
","
","""event"",""trial"",""time""
""fullscreenenter"",""1"",""4765""
","
","","","","","","null","<div style=""font-size:60px;"">+</div>","null","","fixation","","",""
"memory-trial","64","248251","0.0-18.0-1.10","5967","approach_avoid_sv1","""event"",""trial"",""time""
""fullscreenenter"",""1"",""4765""
","
","
","""event"",""trial"",""time""
""fullscreenenter"",""1"",""4765""
","
","","","","","","1358.300000000745","images/horse7.png","","","memory_trial","1","definitely_old",""
"html-keyboard-response","65","248762","0.0-18.0-0.11","5967","approach_avoid_sv1","""event"",""trial"",""time""
""fullscreenenter"",""1"",""4765""
","
","
","""event"",""trial"",""time""
""fullscreenenter"",""1"",""4765""
","
","","","","","","null","<div style=""font-size:60px;"">+</div>","null","","fixation","","",""
"memory-trial","66","252083","0.0-18.0-1.11","5967","approach_avoid_sv1","""event"",""trial"",""time""
""fullscreenenter"",""1"",""4765""
","
","
","""event"",""trial"",""time""
""fullscreenenter"",""1"",""4765""
","
","","","","","","2306.39999999851","images/chair3.png","","","memory_trial","4","definitely_new",""
"html-keyboard-response","67","252593","0.0-18.0-0.12","5967","approach_avoid_sv1","""event"",""trial"",""time""
""fullscreenenter"",""1"",""4765""
","
","
","""event"",""trial"",""time""
""fullscreenenter"",""1"",""4765""
","
","","","","","","null","<div style=""font-size:60px;"">+</div>","null","","fixation","","",""
"memory-trial","68","254939","0.0-18.0-1.12","5967","approach_avoid_sv1","""event"",""trial"",""time""
""fullscreenenter"",""1"",""4765""
","
","
","""event"",""trial"",""time""
""fullscreenenter"",""1"",""4765""
","
","","","","","","1330.300000000745","images/truck3.png","","","memory_trial","1","definitely_old",""
"html-keyboard-response","69","255450","0.0-18.0-0.13","5967","approach_avoid_sv1","""event"",""trial"",""time""
""fullscreenenter"",""1"",""4765""
","
","
","""event"",""trial"",""time""
""fullscreenenter"",""1"",""4765""
","
","","","","","","null","<div style=""font-size:60px;"">+</div>","null","","fixation","","",""
"memory-trial","70","258451","0.0-18.0-1.13","5967","approach_avoid_sv1","""event"",""trial"",""time""
""fullscreenenter"",""1"",""4765""
","
","
","""event"",""trial"",""time""
""fullscreenenter"",""1"",""4765""
","
","","","","","","1986.3999999985099","images/bed7.png","","","memory_trial","1","definitely_old",""
"html-keyboard-response","71","258962","0.0-18.0-0.14","5967","approach_avoid_sv1","""event"",""trial"",""time""
""fullscreenenter"",""1"",""4765""
","
","
","""event"",""trial"",""time""
""fullscreenenter"",""1"",""4765""
","
","","","","","","null","<div style=""font-size:60px;"">+</div>","null","","fixation","","",""
"memory-trial","72","261812","0.0-18.0-1.14","5967","approach_avoid_sv1","""event"",""trial"",""time""
""fullscreenenter"",""1"",""4765""
","
","
","""event"",""trial"",""time""
""fullscreenenter"",""1"",""4765""
","
","","","","","","1842.5","images/train4.png","","","memory_trial","4","definitely_new",""
"html-keyboard-response","73","262323","0.0-18.0-0.15","5967","approach_avoid_sv1","""event"",""trial"",""time""
""fullscreenenter"",""1"",""4765""
","
","
","""event"",""trial"",""time""
""fullscreenenter"",""1"",""4765""
","
","","","","","","null","<div style=""font-size:60px;"">+</div>","null","","fixation","","",""
"memory-trial","74","264669","0.0-18.0-1.15","5967","approach_avoid_sv1","""event"",""trial"",""time""
""fullscreenenter"",""1"",""4765""
","
","
","""event"",""trial"",""time""
""fullscreenenter"",""1"",""4765""
","
","","","","","","1328.800000000745","images/goat2.png","","","memory_trial","4","definitely_new",""
"html-keyboard-response","75","265179","0.0-18.0-0.16","5967","approach_avoid_sv1","""event"",""trial"",""time""
""fullscreenenter"",""1"",""4765""
","
","
","""event"",""trial"",""time""
""fullscreenenter"",""1"",""4765""
","
","","","","","","null","<div style=""font-size:60px;"">+</div>","null","","fixation","","",""
"memory-trial","76","267194","0.0-18.0-1.16","5967","approach_avoid_sv1","""event"",""trial"",""time""
""fullscreenenter"",""1"",""4765""
","
","
","""event"",""trial"",""time""
""fullscreenenter"",""1"",""4765""
","
","","","","","","1009.3999999985099","images/sofa7.png","","","memory_trial","4","definitely_new",""
"html-keyboard-response","77","267699","0.0-18.0-0.17","5967","approach_avoid_sv1","""event"",""trial"",""time""
""fullscreenenter"",""1"",""4765""
","
","
","""event"",""trial"",""time""
""fullscreenenter"",""1"",""4765""
","
","","","","","","null","<div style=""font-size:60px;"">+</div>","null","","fixation","","",""
"memory-trial","78","269609","0.0-18.0-1.17","5967","approach_avoid_sv1","""event"",""trial"",""time""
""fullscreenenter"",""1"",""4765""
","
","
","""event"",""trial"",""time""
""fullscreenenter"",""1"",""4765""
","
","","","","","","897.6999999992549","images/train3.png","","","memory_trial","4","definitely_new",""
"html-keyboard-response","79","270114","0.0-18.0-0.18","5967","approach_avoid_sv1","""event"",""trial"",""time""
""fullscreenenter"",""1"",""4765""
","
","
","""event"",""trial"",""time""
""fullscreenenter"",""1"",""4765""
","
","","","","","","null","<div style=""font-size:60px;"">+</div>","null","","fixation","","",""
"memory-trial","80","272018","0.0-18.0-1.18","5967","approach_avoid_sv1","""event"",""trial"",""time""
""fullscreenenter"",""1"",""4765""
","
","
","""event"",""trial"",""time""
""fullscreenenter"",""1"",""4765""
","
","","","","","","891.6999999992549","images/tree7.png","","","memory_trial","4","definitely_new",""
"html-keyboard-response","81","272523","0.0-18.0-0.19","5967","approach_avoid_sv1","""event"",""trial"",""time""
""fullscreenenter"",""1"",""4765""
","
","
","""event"",""trial"",""time""
""fullscreenenter"",""1"",""4765""
","
","","","","","","null","<div style=""font-size:60px;"">+</div>","null","","fixation","","",""
"memory-trial","82","274650","0.0-18.0-1.19","5967","approach_avoid_sv1","""event"",""trial"",""time""
""fullscreenenter"",""1"",""4765""
","
","
","""event"",""trial"",""time""
""fullscreenenter"",""1"",""4765""
","
","","","","","","1114.5","images/bush2.png","","","memory_trial","4","definitely_new",""
"html-keyboard-response","83","275164","0.0-18.0-0.20","5967","approach_avoid_sv1","""event"",""trial"",""time""
""fullscreenenter"",""1"",""4765""
","
","
","""event"",""trial"",""time""
""fullscreenenter"",""1"",""4765""
","
","","","","","","null","<div style=""font-size:60px;"">+</div>","null","","fixation","","",""
"memory-trial","84","277138","0.0-18.0-1.20","5967","approach_avoid_sv1","""event"",""trial"",""time""
""fullscreenenter"",""1"",""4765""
","
","
","""event"",""trial"",""time""
""fullscreenenter"",""1"",""4765""
","
","","","","","","961.1000000014901","images/truck7.png","","","memory_trial","4","definitely_new",""
"html-keyboard-response","85","277643","0.0-18.0-0.21","5967","approach_avoid_sv1","""event"",""trial"",""time""
""fullscreenenter"",""1"",""4765""
","
","
","""event"",""trial"",""time""
""fullscreenenter"",""1"",""4765""
","
","","","","","","null","<div style=""font-size:60px;"">+</div>","null","","fixation","","",""
"memory-trial","86","279401","0.0-18.0-1.21","5967","approach_avoid_sv1","""event"",""trial"",""time""
""fullscreenenter"",""1"",""4765""
","
","
","""event"",""trial"",""time""
""fullscreenenter"",""1"",""4765""
","
","","","","","","753.3000000007451","images/train5.png","","","memory_trial","4","definitely_new",""
"html-keyboard-response","87","279907","0.0-18.0-0.22","5967","approach_avoid_sv1","""event"",""trial"",""time""
""fullscreenenter"",""1"",""4765""
","
","
","""event"",""trial"",""time""
""fullscreenenter"",""1"",""4765""
","
","","","","","","null","<div style=""font-size:60px;"">+</div>","null","","fixation","","",""
"memory-trial","88","282060","0.0-18.0-1.22","5967","approach_avoid_sv1","""event"",""trial"",""time""
""fullscreenenter"",""1"",""4765""
","
","
","""event"",""trial"",""time""
""fullscreenenter"",""1"",""4765""
","
","","","","","","1138.5999999977648","images/apple5.png","","","memory_trial","4","definitely_new",""
"html-keyboard-response","89","282572","0.0-18.0-0.23","5967","approach_avoid_sv1","""event"",""trial"",""time""
""fullscreenenter"",""1"",""4765""
","
","
","""event"",""trial"",""time""
""fullscreenenter"",""1"",""4765""
","
","","","","","","null","<div style=""font-size:60px;"">+</div>","null","","fixation","","",""
"memory-trial","90","284969","0.0-18.0-1.23","5967","approach_avoid_sv1","""event"",""trial"",""time""
""fullscreenenter"",""1"",""4765""
","
","
","""event"",""trial"",""time""
""fullscreenenter"",""1"",""4765""
","
","","","","","","1385.699999999255","images/bush6.png","","","memory_trial","1","definitely_old",""
"html-keyboard-response","91","285474","0.0-18.0-0.24","5967","approach_avoid_sv1","""event"",""trial"",""time""
""fullscreenenter"",""1"",""4765""
","
","
","""event"",""trial"",""time""
""fullscreenenter"",""1"",""4765""
","
","","","","","","null","<div style=""font-size:60px;"">+</div>","null","","fixation","","",""
"memory-trial","92","288925","0.0-18.0-1.24","5967","approach_avoid_sv1","""event"",""trial"",""time""
""fullscreenenter"",""1"",""4765""
","
","
","""event"",""trial"",""time""
""fullscreenenter"",""1"",""4765""
","
","","","","","","2439.39999999851","images/cow6.png","","","memory_trial","2","maybe_old",""
"html-keyboard-response","93","289433","0.0-18.0-0.25","5967","approach_avoid_sv1","""event"",""trial"",""time""
""fullscreenenter"",""1"",""4765""
","
","
","""event"",""trial"",""time""
""fullscreenenter"",""1"",""4765""
","
","","","","","","null","<div style=""font-size:60px;"">+</div>","null","","fixation","","",""
"memory-trial","94","291457","0.0-18.0-1.25","5967","approach_avoid_sv1","""event"",""trial"",""time""
""fullscreenenter"",""1"",""4765""
","
","
","""event"",""trial"",""time""
""fullscreenenter"",""1"",""4765""
","
","","","","","","1017.3999999985099","images/goat6.png","","","memory_trial","4","definitely_new",""
"html-keyboard-response","95","291962","0.0-18.0-0.26","5967","approach_avoid_sv1","""event"",""trial"",""time""
""fullscreenenter"",""1"",""4765""
","
","
","""event"",""trial"",""time""
""fullscreenenter"",""1"",""4765""
","
","","","","","","null","<div style=""font-size:60px;"">+</div>","null","","fixation","","",""
"memory-trial","96","293996","0.0-18.0-1.26","5967","approach_avoid_sv1","""event"",""trial"",""time""
""fullscreenenter"",""1"",""4765""
","
","
","""event"",""trial"",""time""
""fullscreenenter"",""1"",""4765""
","
","","","","","","1024.8999999985099","images/goat4.png","","","memory_trial","4","definitely_new",""
"html-keyboard-response","97","294507","0.0-18.0-0.27","5967","approach_avoid_sv1","""event"",""trial"",""time""
""fullscreenenter"",""1"",""4765""
","
","
","""event"",""trial"",""time""
""fullscreenenter"",""1"",""4765""
","
","","","","","","null","<div style=""font-size:60px;"">+</div>","null","","fixation","","",""
"memory-trial","98","298002","0.0-18.0-1.27","5967","approach_avoid_sv1","""event"",""trial"",""time""
""fullscreenenter"",""1"",""4765""
","
","
","""event"",""trial"",""time""
""fullscreenenter"",""1"",""4765""
","
","","","","","","2486","images/sofa4.png","","","memory_trial","3","maybe_new",""
"html-keyboard-response","99","298507","0.0-18.0-0.28","5967","approach_avoid_sv1","""event"",""trial"",""time""
""fullscreenenter"",""1"",""4765""
","
","
","""event"",""trial"",""time""
""fullscreenenter"",""1"",""4765""
","
","","","","","","null","<div style=""font-size:60px;"">+</div>","null","","fixation","","",""
"memory-trial","100","301563","0.0-18.0-1.28","5967","approach_avoid_sv1","""event"",""trial"",""time""
""fullscreenenter"",""1"",""4765""
","
","
","""event"",""trial"",""time""
""fullscreenenter"",""1"",""4765""
","
","","","","","","2045.5","images/rabbit8.png","","","memory_trial","2","maybe_old",""
"html-keyboard-response","101","302065","0.0-18.0-0.29","5967","approach_avoid_sv1","""event"",""trial"",""time""
""fullscreenenter"",""1"",""4765""
","
","
","""event"",""trial"",""time""
""fullscreenenter"",""1"",""4765""
","
","","","","","","null","<div style=""font-size:60px;"">+</div>","null","","fixation","","",""
"memory-trial","102","304022","0.0-18.0-1.29","5967","approach_avoid_sv1","""event"",""trial"",""time""
""fullscreenenter"",""1"",""4765""
","
","
","""event"",""trial"",""time""
""fullscreenenter"",""1"",""4765""
","
","","","","","","944.6000000014901","images/tree8.png","","","memory_trial","4","definitely_new",""
"html-keyboard-response","103","304532","0.0-18.0-0.30","5967","approach_avoid_sv1","""event"",""trial"",""time""
""fullscreenenter"",""1"",""4765""
","
","
","""event"",""trial"",""time""
""fullscreenenter"",""1"",""4765""
","
","","","","","","null","<div style=""font-size:60px;"">+</div>","null","","fixation","","",""
"memory-trial","104","308596","0.0-18.0-1.30","5967","approach_avoid_sv1","""event"",""trial"",""time""
""fullscreenenter"",""1"",""4765""
","
","
","""event"",""trial"",""time""
""fullscreenenter"",""1"",""4765""
","
","","","","","","3050.599999997765","images/banana2.png","","","memory_trial","2","maybe_old",""
"html-keyboard-response","105","309107","0.0-18.0-0.31","5967","approach_avoid_sv1","""event"",""trial"",""time""
""fullscreenenter"",""1"",""4765""
","
","
","""event"",""trial"",""time""
""fullscreenenter"",""1"",""4765""
","
","","","","","","null","<div style=""font-size:60px;"">+</div>","null","","fixation","","",""
"memory-trial","106","312741","0.0-18.0-1.31","5967","approach_avoid_sv1","""event"",""trial"",""time""
""fullscreenenter"",""1"",""4765""
","
","
","""event"",""trial"",""time""
""fullscreenenter"",""1"",""4765""
","
","","","","","","2623.60000000149","images/boat3.png","","","memory_trial","4","definitely_new",""
"html-keyboard-response","107","313252","0.0-18.0-0.32","5967","approach_avoid_sv1","""event"",""trial"",""time""
""fullscreenenter"",""1"",""4765""
","
","
","""event"",""trial"",""time""
""fullscreenenter"",""1"",""4765""
","
","","","","","","null","<div style=""font-size:60px;"">+</div>","null","","fixation","","",""
"memory-trial","108","316491","0.0-18.0-1.32","5967","approach_avoid_sv1","""event"",""trial"",""time""
""fullscreenenter"",""1"",""4765""
","
","
","""event"",""trial"",""time""
""fullscreenenter"",""1"",""4765""
","
","","","","","","2227.5","images/sheep5.png","","","memory_trial","2","maybe_old",""
"html-keyboard-response","109","316996","0.0-18.0-0.33","5967","approach_avoid_sv1","""event"",""trial"",""time""
""fullscreenenter"",""1"",""4765""
","
","
","""event"",""trial"",""time""
""fullscreenenter"",""1"",""4765""
","
","","","","","","null","<div style=""font-size:60px;"">+</div>","null","","fixation","","",""
"memory-trial","110","320253","0.0-18.0-1.33","5967","approach_avoid_sv1","""event"",""trial"",""time""
""fullscreenenter"",""1"",""4765""
","
","
","""event"",""trial"",""time""
""fullscreenenter"",""1"",""4765""
","
","","","","","","2244.199999999255","images/boat4.png","","","memory_trial","1","definitely_old",""
"html-keyboard-response","111","320764","0.0-18.0-0.34","5967","approach_avoid_sv1","""event"",""trial"",""time""
""fullscreenenter"",""1"",""4765""
","
","
","""event"",""trial"",""time""
""fullscreenenter"",""1"",""4765""
","
","","","","","","null","<div style=""font-size:60px;"">+</div>","null","","fixation","","",""
"memory-trial","112","324293","0.0-18.0-1.34","5967","approach_avoid_sv1","""event"",""trial"",""time""
""fullscreenenter"",""1"",""4765""
","
","
","""event"",""trial"",""time""
""fullscreenenter"",""1"",""4765""
","
","","","","","","2515.89999999851","images/bed8.png","","","memory_trial","3","maybe_new",""
"html-keyboard-response","113","324804","0.0-18.0-0.35","5967","approach_avoid_sv1","""event"",""trial"",""time""
""fullscreenenter"",""1"",""4765""
","
","
","""event"",""trial"",""time""
""fullscreenenter"",""1"",""4765""
","
","","","","","","null","<div style=""font-size:60px;"">+</div>","null","","fixation","","",""
"memory-trial","114","327092","0.0-18.0-1.35","5967","approach_avoid_sv1","""event"",""trial"",""time""
""fullscreenenter"",""1"",""4765""
","
","
","""event"",""trial"",""time""
""fullscreenenter"",""1"",""4765""
","
","","","","","","1276.300000000745","images/horse5.png","","","memory_trial","4","definitely_new",""
"html-keyboard-response","115","327596","0.0-18.0-0.36","5967","approach_avoid_sv1","""event"",""trial"",""time""
""fullscreenenter"",""1"",""4765""
","
","
","""event"",""trial"",""time""
""fullscreenenter"",""1"",""4765""
","
","","","","","","null","<div style=""font-size:60px;"">+</div>","null","","fixation","","",""
"memory-trial","116","329866","0.0-18.0-1.36","5967","approach_avoid_sv1","""event"",""trial"",""time""
""fullscreenenter"",""1"",""4765""
","
","
","""event"",""trial"",""time""
""fullscreenenter"",""1"",""4765""
","
","","","","","","1259.9000000022352","images/cow5.png","","","memory_trial","4","definitely_new",""
"html-keyboard-response","117","330371","0.0-18.0-0.37","5967","approach_avoid_sv1","""event"",""trial"",""time""
""fullscreenenter"",""1"",""4765""
","
","
","""event"",""trial"",""time""
""fullscreenenter"",""1"",""4765""
","
","","","","","","null","<div style=""font-size:60px;"">+</div>","null","","fixation","","",""
"memory-trial","118","332810","0.0-18.0-1.37","5967","approach_avoid_sv1","""event"",""trial"",""time""
""fullscreenenter"",""1"",""4765""
","
","
","""event"",""trial"",""time""
""fullscreenenter"",""1"",""4765""
","
","","","","","","1429","images/rabbit7.png","","","memory_trial","1","definitely_old",""
"html-keyboard-response","119","333314","0.0-18.0-0.38","5967","approach_avoid_sv1","""event"",""trial"",""time""
""fullscreenenter"",""1"",""4765""
","
","
","""event"",""trial"",""time""
""fullscreenenter"",""1"",""4765""
","
","","","","","","null","<div style=""font-size:60px;"">+</div>","null","","fixation","","",""
"memory-trial","120","335108","0.0-18.0-1.38","5967","approach_avoid_sv1","""event"",""trial"",""time""
""fullscreenenter"",""1"",""4765""
","
","
","""event"",""trial"",""time""
""fullscreenenter"",""1"",""4765""
","
","","","","","","782.5","images/sofa1.png","","","memory_trial","4","definitely_new",""
"html-keyboard-response","121","335619","0.0-18.0-0.39","5967","approach_avoid_sv1","""event"",""trial"",""time""
""fullscreenenter"",""1"",""4765""
","
","
","""event"",""trial"",""time""
""fullscreenenter"",""1"",""4765""
","
","","","","","","null","<div style=""font-size:60px;"">+</div>","null","","fixation","","",""
"memory-trial","122","337622","0.0-18.0-1.39","5967","approach_avoid_sv1","""event"",""trial"",""time""
""fullscreenenter"",""1"",""4765""
","
","
","""event"",""trial"",""time""
""fullscreenenter"",""1"",""4765""
","
","","","","","","990.5999999977648","images/sheep8.png","","","memory_trial","1","definitely_old",""
"html-keyboard-response","123","338133","0.0-18.0-0.40","5967","approach_avoid_sv1","""event"",""trial"",""time""
""fullscreenenter"",""1"",""4765""
","
","
","""event"",""trial"",""time""
""fullscreenenter"",""1"",""4765""
","
","","","","","","null","<div style=""font-size:60px;"">+</div>","null","","fixation","","",""
"memory-trial","124","340427","0.0-18.0-1.40","5967","approach_avoid_sv1","""event"",""trial"",""time""
""fullscreenenter"",""1"",""4765""
","
","
","""event"",""trial"",""time""
""fullscreenenter"",""1"",""4765""
","
","","","","","","1283.6000000014901","images/table2.png","","","memory_trial","1","definitely_old",""
"html-keyboard-response","125","340931","0.0-18.0-0.41","5967","approach_avoid_sv1","""event"",""trial"",""time""
""fullscreenenter"",""1"",""4765""
","
","
","""event"",""trial"",""time""
""fullscreenenter"",""1"",""4765""
","
","","","","","","null","<div style=""font-size:60px;"">+</div>","null","","fixation","","",""
"memory-trial","126","343258","0.0-18.0-1.41","5967","approach_avoid_sv1","""event"",""trial"",""time""
""fullscreenenter"",""1"",""4765""
","
","
","""event"",""trial"",""time""
""fullscreenenter"",""1"",""4765""
","
","","","","","","1318.5","images/rodent5.png","","","memory_trial","1","definitely_old",""
"html-button-response","127","346232","0.0-18.0-2.41-0.41","5967","approach_avoid_sv1","""event"",""trial"",""time""
""fullscreenenter"",""1"",""4765""
","
","
","""event"",""trial"",""time""
""fullscreenenter"",""1"",""4765""
","
","","","","","","2971.7999999970198","<p> Take a break! </p><p> Click the button to continue. </p>","0","","break","","",""
"html-keyboard-response","128","346742","0.0-18.0-0.42","5967","approach_avoid_sv1","""event"",""trial"",""time""
""fullscreenenter"",""1"",""4765""
","
","
","""event"",""trial"",""time""
""fullscreenenter"",""1"",""4765""
","
","","","","","","null","<div style=""font-size:60px;"">+</div>","null","","fixation","","",""
"memory-trial","129","351694","0.0-18.0-1.42","5967","approach_avoid_sv1","""event"",""trial"",""time""
""fullscreenenter"",""1"",""4765""
","
","
","""event"",""trial"",""time""
""fullscreenenter"",""1"",""4765""
","
","","","","","","3940.2000000029802","images/goat8.png","","","memory_trial","4","definitely_new",""
"html-keyboard-response","130","352204","0.0-18.0-0.43","5967","approach_avoid_sv1","""event"",""trial"",""time""
""fullscreenenter"",""1"",""4765""
","
","
","""event"",""trial"",""time""
""fullscreenenter"",""1"",""4765""
","
","","","","","","null","<div style=""font-size:60px;"">+</div>","null","","fixation","","",""
"memory-trial","131","354039","0.0-18.0-1.43","5967","approach_avoid_sv1","""event"",""trial"",""time""
""fullscreenenter"",""1"",""4765""
","
","
","""event"",""trial"",""time""
""fullscreenenter"",""1"",""4765""
","
","","","","","","821.0999999977648","images/goat3.png","","","memory_trial","4","definitely_new",""
"html-keyboard-response","132","354550","0.0-18.0-0.44","5967","approach_avoid_sv1","""event"",""trial"",""time""
""fullscreenenter"",""1"",""4765""
","
","
","""event"",""trial"",""time""
""fullscreenenter"",""1"",""4765""
","
","","","","","","null","<div style=""font-size:60px;"">+</div>","null","","fixation","","",""
"memory-trial","133","356436","0.0-18.0-1.44","5967","approach_avoid_sv1","""event"",""trial"",""time""
""fullscreenenter"",""1"",""4765""
","
","
","""event"",""trial"",""time""
""fullscreenenter"",""1"",""4765""
","
","","","","","","877.1000000014901","images/chair6.png","","","memory_trial","4","definitely_new",""
"html-keyboard-response","134","356941","0.0-18.0-0.45","5967","approach_avoid_sv1","""event"",""trial"",""time""
""fullscreenenter"",""1"",""4765""
","
","
","""event"",""trial"",""time""
""fullscreenenter"",""1"",""4765""
","
","","","","","","null","<div style=""font-size:60px;"">+</div>","null","","fixation","","",""
"memory-trial","135","359350","0.0-18.0-1.45","5967","approach_avoid_sv1","""event"",""trial"",""time""
""fullscreenenter"",""1"",""4765""
","
","
","""event"",""trial"",""time""
""fullscreenenter"",""1"",""4765""
","
","","","","","","1397.5","images/cactus7.png","","","memory_trial","4","definitely_new",""
"html-keyboard-response","136","359861","0.0-18.0-0.46","5967","approach_avoid_sv1","""event"",""trial"",""time""
""fullscreenenter"",""1"",""4765""
","
","
","""event"",""trial"",""time""
""fullscreenenter"",""1"",""4765""
","
","","","","","","null","<div style=""font-size:60px;"">+</div>","null","","fixation","","",""
"memory-trial","137","361980","0.0-18.0-1.46","5967","approach_avoid_sv1","""event"",""trial"",""time""
""fullscreenenter"",""1"",""4765""
","
","
","""event"",""trial"",""time""
""fullscreenenter"",""1"",""4765""
","
","","","","","","1109","images/rodent4.png","","","memory_trial","4","definitely_new",""
"html-keyboard-response","138","362485","0.0-18.0-0.47","5967","approach_avoid_sv1","""event"",""trial"",""time""
""fullscreenenter"",""1"",""4765""
","
","
","""event"",""trial"",""time""
""fullscreenenter"",""1"",""4765""
","
","","","","","","null","<div style=""font-size:60px;"">+</div>","null","","fixation","","",""
"memory-trial","139","364251","0.0-18.0-1.47","5967","approach_avoid_sv1","""event"",""trial"",""time""
""fullscreenenter"",""1"",""4765""
","
","
","""event"",""trial"",""time""
""fullscreenenter"",""1"",""4765""
","
","","","","","","757.9000000022352","images/train1.png","","","memory_trial","4","definitely_new",""
"html-keyboard-response","140","364755","0.0-18.0-0.48","5967","approach_avoid_sv1","""event"",""trial"",""time""
""fullscreenenter"",""1"",""4765""
","
","
","""event"",""trial"",""time""
""fullscreenenter"",""1"",""4765""
","
","","","","","","null","<div style=""font-size:60px;"">+</div>","null","","fixation","","",""
"memory-trial","141","366990","0.0-18.0-1.48","5967","approach_avoid_sv1","""event"",""trial"",""time""
""fullscreenenter"",""1"",""4765""
","
","
","""event"",""trial"",""time""
""fullscreenenter"",""1"",""4765""
","
","","","","","","1224.0999999977648","images/boat5.png","","","memory_trial","4","definitely_new",""
"html-keyboard-response","142","367500","0.0-18.0-0.49","5967","approach_avoid_sv1","""event"",""trial"",""time""
""fullscreenenter"",""1"",""4765""
","
","
","""event"",""trial"",""time""
""fullscreenenter"",""1"",""4765""
","
","","","","","","null","<div style=""font-size:60px;"">+</div>","null","","fixation","","",""
"memory-trial","143","369732","0.0-18.0-1.49","5967","approach_avoid_sv1","""event"",""trial"",""time""
""fullscreenenter"",""1"",""4765""
","
","
","""event"",""trial"",""time""
""fullscreenenter"",""1"",""4765""
","
","","","","","","1222.800000000745","images/chair2.png","","","memory_trial","1","definitely_old",""
"html-keyboard-response","144","370234","0.0-18.0-0.50","5967","approach_avoid_sv1","""event"",""trial"",""time""
""fullscreenenter"",""1"",""4765""
","
","
","""event"",""trial"",""time""
""fullscreenenter"",""1"",""4765""
","
","","","","","","null","<div style=""font-size:60px;"">+</div>","null","","fixation","","",""
"memory-trial","145","372406","0.0-18.0-1.50","5967","approach_avoid_sv1","""event"",""trial"",""time""
""fullscreenenter"",""1"",""4765""
","
","
","""event"",""trial"",""time""
""fullscreenenter"",""1"",""4765""
","
","","","","","","1160.800000000745","images/bed4.png","","","memory_trial","1","definitely_old",""
"html-keyboard-response","146","372917","0.0-18.0-0.51","5967","approach_avoid_sv1","""event"",""trial"",""time""
""fullscreenenter"",""1"",""4765""
","
","
","""event"",""trial"",""time""
""fullscreenenter"",""1"",""4765""
","
","","","","","","null","<div style=""font-size:60px;"">+</div>","null","","fixation","","",""
"memory-trial","147","374653","0.0-18.0-1.51","5967","approach_avoid_sv1","""event"",""trial"",""time""
""fullscreenenter"",""1"",""4765""
","
","
","""event"",""trial"",""time""
""fullscreenenter"",""1"",""4765""
","
","","","","","","726.2000000029802","images/cow8.png","","","memory_trial","4","definitely_new",""
"html-keyboard-response","148","375158","0.0-18.0-0.52","5967","approach_avoid_sv1","""event"",""trial"",""time""
""fullscreenenter"",""1"",""4765""
","
","
","""event"",""trial"",""time""
""fullscreenenter"",""1"",""4765""
","
","","","","","","null","<div style=""font-size:60px;"">+</div>","null","","fixation","","",""
"memory-trial","149","377341","0.0-18.0-1.52","5967","approach_avoid_sv1","""event"",""trial"",""time""
""fullscreenenter"",""1"",""4765""
","
","
","""event"",""trial"",""time""
""fullscreenenter"",""1"",""4765""
","
","","","","","","1173.6000000014901","images/truck4.png","","","memory_trial","4","definitely_new",""
"html-keyboard-response","150","377846","0.0-18.0-0.53","5967","approach_avoid_sv1","""event"",""trial"",""time""
""fullscreenenter"",""1"",""4765""
","
","
","""event"",""trial"",""time""
""fullscreenenter"",""1"",""4765""
","
","","","","","","null","<div style=""font-size:60px;"">+</div>","null","","fixation","","",""
"memory-trial","151","380383","0.0-18.0-1.53","5967","approach_avoid_sv1","""event"",""trial"",""time""
""fullscreenenter"",""1"",""4765""
","
","
","""event"",""trial"",""time""
""fullscreenenter"",""1"",""4765""
","
","","","","","","1522.8999999985099","images/plane3.png","","","memory_trial","1","definitely_old",""
"html-keyboard-response","152","380893","0.0-18.0-0.54","5967","approach_avoid_sv1","""event"",""trial"",""time""
""fullscreenenter"",""1"",""4765""
","
","
","""event"",""trial"",""time""
""fullscreenenter"",""1"",""4765""
","
","","","","","","null","<div style=""font-size:60px;"">+</div>","null","","fixation","","",""
"memory-trial","153","382606","0.0-18.0-1.54","5967","approach_avoid_sv1","""event"",""trial"",""time""
""fullscreenenter"",""1"",""4765""
","
","
","""event"",""trial"",""time""
""fullscreenenter"",""1"",""4765""
","
","","","","","","701.3999999985099","images/bed5.png","","","memory_trial","1","definitely_old",""
"html-keyboard-response","154","383117","0.0-18.0-0.55","5967","approach_avoid_sv1","""event"",""trial"",""time""
""fullscreenenter"",""1"",""4765""
","
","
","""event"",""trial"",""time""
""fullscreenenter"",""1"",""4765""
","
","","","","","","null","<div style=""font-size:60px;"">+</div>","null","","fixation","","",""
"memory-trial","155","385445","0.0-18.0-1.55","5967","approach_avoid_sv1","""event"",""trial"",""time""
""fullscreenenter"",""1"",""4765""
","
","
","""event"",""trial"",""time""
""fullscreenenter"",""1"",""4765""
","
","","","","","","1318.800000000745","images/straw6.png","","","memory_trial","1","definitely_old",""
"html-keyboard-response","156","385950","0.0-18.0-0.56","5967","approach_avoid_sv1","""event"",""trial"",""time""
""fullscreenenter"",""1"",""4765""
","
","
","""event"",""trial"",""time""
""fullscreenenter"",""1"",""4765""
","
","","","","","","null","<div style=""font-size:60px;"">+</div>","null","","fixation","","",""
"memory-trial","157","388068","0.0-18.0-1.56","5967","approach_avoid_sv1","""event"",""trial"",""time""
""fullscreenenter"",""1"",""4765""
","
","
","""event"",""trial"",""time""
""fullscreenenter"",""1"",""4765""
","
","","","","","","1109","images/cactus5.png","","","memory_trial","4","definitely_new",""
"html-keyboard-response","158","388574","0.0-18.0-0.57","5967","approach_avoid_sv1","""event"",""trial"",""time""
""fullscreenenter"",""1"",""4765""
","
","
","""event"",""trial"",""time""
""fullscreenenter"",""1"",""4765""
","
","","","","","","null","<div style=""font-size:60px;"">+</div>","null","","fixation","","",""
"memory-trial","159","390774","0.0-18.0-1.57","5967","approach_avoid_sv1","""event"",""trial"",""time""
""fullscreenenter"",""1"",""4765""
","
","
","""event"",""trial"",""time""
""fullscreenenter"",""1"",""4765""
","
","","","","","","1190.2999999970198","images/table3.png","","","memory_trial","4","definitely_new",""
"html-keyboard-response","160","391285","0.0-18.0-0.58","5967","approach_avoid_sv1","""event"",""trial"",""time""
""fullscreenenter"",""1"",""4765""
","
","
","""event"",""trial"",""time""
""fullscreenenter"",""1"",""4765""
","
","","","","","","null","<div style=""font-size:60px;"">+</div>","null","","fixation","","",""
"memory-trial","161","393630","0.0-18.0-1.58","5967","approach_avoid_sv1","""event"",""trial"",""time""
""fullscreenenter"",""1"",""4765""
","
","
","""event"",""trial"",""time""
""fullscreenenter"",""1"",""4765""
","
","","","","","","1335.300000000745","images/bush4.png","","","memory_trial","4","definitely_new",""
"html-keyboard-response","162","394135","0.0-18.0-0.59","5967","approach_avoid_sv1","""event"",""trial"",""time""
""fullscreenenter"",""1"",""4765""
","
","
","""event"",""trial"",""time""
""fullscreenenter"",""1"",""4765""
","
","","","","","","null","<div style=""font-size:60px;"">+</div>","null","","fixation","","",""
"memory-trial","163","398454","0.0-18.0-1.59","5967","approach_avoid_sv1","""event"",""trial"",""time""
""fullscreenenter"",""1"",""4765""
","
","
","""event"",""trial"",""time""
""fullscreenenter"",""1"",""4765""
","
","","","","","","3307.099999997765","images/bed6.png","","","memory_trial","2","maybe_old",""
"html-keyboard-response","164","398965","0.0-18.0-0.60","5967","approach_avoid_sv1","""event"",""trial"",""time""
""fullscreenenter"",""1"",""4765""
","
","
","""event"",""trial"",""time""
""fullscreenenter"",""1"",""4765""
","
","","","","","","null","<div style=""font-size:60px;"">+</div>","null","","fixation","","",""
"memory-trial","165","401037","0.0-18.0-1.60","5967","approach_avoid_sv1","""event"",""trial"",""time""
""fullscreenenter"",""1"",""4765""
","
","
","""event"",""trial"",""time""
""fullscreenenter"",""1"",""4765""
","
","","","","","","1062.1000000014901","images/dog3.png","","","memory_trial","4","definitely_new",""
"html-keyboard-response","166","401542","0.0-18.0-0.61","5967","approach_avoid_sv1","""event"",""trial"",""time""
""fullscreenenter"",""1"",""4765""
","
","
","""event"",""trial"",""time""
""fullscreenenter"",""1"",""4765""
","
","","","","","","null","<div style=""font-size:60px;"">+</div>","null","","fixation","","",""
"memory-trial","167","404828","0.0-18.0-1.61","5967","approach_avoid_sv1","""event"",""trial"",""time""
""fullscreenenter"",""1"",""4765""
","
","
","""event"",""trial"",""time""
""fullscreenenter"",""1"",""4765""
","
","","","","","","2275.10000000149","images/cow7.png","","","memory_trial","2","maybe_old",""
"html-keyboard-response","168","405333","0.0-18.0-0.62","5967","approach_avoid_sv1","""event"",""trial"",""time""
""fullscreenenter"",""1"",""4765""
","
","
","""event"",""trial"",""time""
""fullscreenenter"",""1"",""4765""
","
","","","","","","null","<div style=""font-size:60px;"">+</div>","null","","fixation","","",""
"memory-trial","169","407719","0.0-18.0-1.62","5967","approach_avoid_sv1","""event"",""trial"",""time""
""fullscreenenter"",""1"",""4765""
","
","
","""event"",""trial"",""time""
""fullscreenenter"",""1"",""4765""
","
","","","","","","1376.8999999985099","images/apple4.png","","","memory_trial","1","definitely_old",""
"html-keyboard-response","170","408230","0.0-18.0-0.63","5967","approach_avoid_sv1","""event"",""trial"",""time""
""fullscreenenter"",""1"",""4765""
","
","
","""event"",""trial"",""time""
""fullscreenenter"",""1"",""4765""
","
","","","","","","null","<div style=""font-size:60px;"">+</div>","null","","fixation","","",""
"memory-trial","171","410448","0.0-18.0-1.63","5967","approach_avoid_sv1","""event"",""trial"",""time""
""fullscreenenter"",""1"",""4765""
","
","
","""event"",""trial"",""time""
""fullscreenenter"",""1"",""4765""
","
","","","","","","1208.699999999255","images/bush1.png","","","memory_trial","1","definitely_old",""
"html-keyboard-response","172","410958","0.0-18.0-0.64","5967","approach_avoid_sv1","""event"",""trial"",""time""
""fullscreenenter"",""1"",""4765""
","
","
","""event"",""trial"",""time""
""fullscreenenter"",""1"",""4765""
","
","","","","","","null","<div style=""font-size:60px;"">+</div>","null","","fixation","","",""
"memory-trial","173","413280","0.0-18.0-1.64","5967","approach_avoid_sv1","""event"",""trial"",""time""
""fullscreenenter"",""1"",""4765""
","
","
","""event"",""trial"",""time""
""fullscreenenter"",""1"",""4765""
","
","","","","","","1313","images/plane8.png","","","memory_trial","4","definitely_new",""
"html-keyboard-response","174","413791","0.0-18.0-0.65","5967","approach_avoid_sv1","""event"",""trial"",""time""
""fullscreenenter"",""1"",""4765""
","
","
","""event"",""trial"",""time""
""fullscreenenter"",""1"",""4765""
","
","","","","","","null","<div style=""font-size:60px;"">+</div>","null","","fixation","","",""
"memory-trial","175","415783","0.0-18.0-1.65","5967","approach_avoid_sv1","""event"",""trial"",""time""
""fullscreenenter"",""1"",""4765""
","
","
","""event"",""trial"",""time""
""fullscreenenter"",""1"",""4765""
","
","","","","","","984.5","images/flower1.png","","","memory_trial","1","definitely_old",""
"html-keyboard-response","176","416288","0.0-18.0-0.66","5967","approach_avoid_sv1","""event"",""trial"",""time""
""fullscreenenter"",""1"",""4765""
","
","
","""event"",""trial"",""time""
""fullscreenenter"",""1"",""4765""
","
","","","","","","null","<div style=""font-size:60px;"">+</div>","null","","fixation","","",""
"memory-trial","177","418975","0.0-18.0-1.66","5967","approach_avoid_sv1","""event"",""trial"",""time""
""fullscreenenter"",""1"",""4765""
","
","
","""event"",""trial"",""time""
""fullscreenenter"",""1"",""4765""
","
","","","","","","1678.6000000014901","images/flower4.png","","","memory_trial","2","maybe_old",""
"html-keyboard-response","178","419486","0.0-18.0-0.67","5967","approach_avoid_sv1","""event"",""trial"",""time""
""fullscreenenter"",""1"",""4765""
","
","
","""event"",""trial"",""time""
""fullscreenenter"",""1"",""4765""
","
","","","","","","null","<div style=""font-size:60px;"">+</div>","null","","fixation","","",""
"memory-trial","179","421367","0.0-18.0-1.67","5967","approach_avoid_sv1","""event"",""trial"",""time""
""fullscreenenter"",""1"",""4765""
","
","
","""event"",""trial"",""time""
""fullscreenenter"",""1"",""4765""
","
","","","","","","872.8999999985099","images/cat5.png","","","memory_trial","1","definitely_old",""
"html-keyboard-response","180","421878","0.0-18.0-0.68","5967","approach_avoid_sv1","""event"",""trial"",""time""
""fullscreenenter"",""1"",""4765""
","
","
","""event"",""trial"",""time""
""fullscreenenter"",""1"",""4765""
","
","","","","","","null","<div style=""font-size:60px;"">+</div>","null","","fixation","","",""
"memory-trial","181","424264","0.0-18.0-1.68","5967","approach_avoid_sv1","""event"",""trial"",""time""
""fullscreenenter"",""1"",""4765""
","
","
","""event"",""trial"",""time""
""fullscreenenter"",""1"",""4765""
","
","","","","","","1377.300000000745","images/cow2.png","","","memory_trial","1","definitely_old",""
"html-keyboard-response","182","424775","0.0-18.0-0.69","5967","approach_avoid_sv1","""event"",""trial"",""time""
""fullscreenenter"",""1"",""4765""
","
","
","""event"",""trial"",""time""
""fullscreenenter"",""1"",""4765""
","
","","","","","","null","<div style=""font-size:60px;"">+</div>","null","","fixation","","",""
"memory-trial","183","427265","0.0-18.0-1.69","5967","approach_avoid_sv1","""event"",""trial"",""time""
""fullscreenenter"",""1"",""4765""
","
","
","""event"",""trial"",""time""
""fullscreenenter"",""1"",""4765""
","
","","","","","","1480.300000000745","images/truck8.png","","","memory_trial","4","definitely_new",""
"html-keyboard-response","184","427776","0.0-18.0-0.70","5967","approach_avoid_sv1","""event"",""trial"",""time""
""fullscreenenter"",""1"",""4765""
","
","
","""event"",""trial"",""time""
""fullscreenenter"",""1"",""4765""
","
","","","","","","null","<div style=""font-size:60px;"">+</div>","null","","fixation","","",""
"memory-trial","185","431520","0.0-18.0-1.70","5967","approach_avoid_sv1","""event"",""trial"",""time""
""fullscreenenter"",""1"",""4765""
","
","
","""event"",""trial"",""time""
""fullscreenenter"",""1"",""4765""
","
","","","","","","2734.699999999255","images/rodent8.png","","","memory_trial","3","maybe_new",""
"html-keyboard-response","186","432031","0.0-18.0-0.71","5967","approach_avoid_sv1","""event"",""trial"",""time""
""fullscreenenter"",""1"",""4765""
","
","
","""event"",""trial"",""time""
""fullscreenenter"",""1"",""4765""
","
","","","","","","null","<div style=""font-size:60px;"">+</div>","null","","fixation","","",""
"memory-trial","187","435834","0.0-18.0-1.71","5967","approach_avoid_sv1","""event"",""trial"",""time""
""fullscreenenter"",""1"",""4765""
","
","
","""event"",""trial"",""time""
""fullscreenenter"",""1"",""4765""
","
","","","","","","2789.300000000745","images/banana5.png","","","memory_trial","2","maybe_old",""
"html-keyboard-response","188","436344","0.0-18.0-0.72","5967","approach_avoid_sv1","""event"",""trial"",""time""
""fullscreenenter"",""1"",""4765""
","
","
","""event"",""trial"",""time""
""fullscreenenter"",""1"",""4765""
","
","","","","","","null","<div style=""font-size:60px;"">+</div>","null","","fixation","","",""
"memory-trial","189","440121","0.0-18.0-1.72","5967","approach_avoid_sv1","""event"",""trial"",""time""
""fullscreenenter"",""1"",""4765""
","
","
","""event"",""trial"",""time""
""fullscreenenter"",""1"",""4765""
","
","","","","","","2762.900000002235","images/cow3.png","","","memory_trial","4","definitely_new",""
"html-keyboard-response","190","440629","0.0-18.0-0.73","5967","approach_avoid_sv1","""event"",""trial"",""time""
""fullscreenenter"",""1"",""4765""
","
","
","""event"",""trial"",""time""
""fullscreenenter"",""1"",""4765""
","
","","","","","","null","<div style=""font-size:60px;"">+</div>","null","","fixation","","",""
"memory-trial","191","444913","0.0-18.0-1.73","5967","approach_avoid_sv1","""event"",""trial"",""time""
""fullscreenenter"",""1"",""4765""
","
","
","""event"",""trial"",""time""
""fullscreenenter"",""1"",""4765""
","
","","","","","","3270.300000000745","images/banana3.png","","","memory_trial","3","maybe_new",""
"html-keyboard-response","192","445424","0.0-18.0-0.74","5967","approach_avoid_sv1","""event"",""trial"",""time""
""fullscreenenter"",""1"",""4765""
","
","
","""event"",""trial"",""time""
""fullscreenenter"",""1"",""4765""
","
","","","","","","null","<div style=""font-size:60px;"">+</div>","null","","fixation","","",""
"memory-trial","193","449342","0.0-18.0-1.74","5967","approach_avoid_sv1","""event"",""trial"",""time""
""fullscreenenter"",""1"",""4765""
","
","
","""event"",""trial"",""time""
""fullscreenenter"",""1"",""4765""
","
","","","","","","2913.400000002235","images/truck2.png","","","memory_trial","4","definitely_new",""
"html-keyboard-response","194","449847","0.0-18.0-0.75","5967","approach_avoid_sv1","""event"",""trial"",""time""
""fullscreenenter"",""1"",""4765""
","
","
","""event"",""trial"",""time""
""fullscreenenter"",""1"",""4765""
","
","","","","","","null","<div style=""font-size:60px;"">+</div>","null","","fixation","","",""
"memory-trial","195","452402","0.0-18.0-1.75","5967","approach_avoid_sv1","""event"",""trial"",""time""
""fullscreenenter"",""1"",""4765""
","
","
","""event"",""trial"",""time""
""fullscreenenter"",""1"",""4765""
","
","","","","","","1546.199999999255","images/cactus2.png","","","memory_trial","1","definitely_old",""
"html-keyboard-response","196","452912","0.0-18.0-0.76","5967","approach_avoid_sv1","""event"",""trial"",""time""
""fullscreenenter"",""1"",""4765""
","
","
","""event"",""trial"",""time""
""fullscreenenter"",""1"",""4765""
","
","","","","","","null","<div style=""font-size:60px;"">+</div>","null","","fixation","","",""
"memory-trial","197","454430","0.0-18.0-1.76","5967","approach_avoid_sv1","""event"",""trial"",""time""
""fullscreenenter"",""1"",""4765""
","
","
","""event"",""trial"",""time""
""fullscreenenter"",""1"",""4765""
","
","","","","","","512.6000000014901","images/plane6.png","","","memory_trial","1","definitely_old",""
"html-keyboard-response","198","454935","0.0-18.0-0.77","5967","approach_avoid_sv1","""event"",""trial"",""time""
""fullscreenenter"",""1"",""4765""
","
","
","""event"",""trial"",""time""
""fullscreenenter"",""1"",""4765""
","
","","","","","","null","<div style=""font-size:60px;"">+</div>","null","","fixation","","",""
"memory-trial","199","457046","0.0-18.0-1.77","5967","approach_avoid_sv1","""event"",""trial"",""time""
""fullscreenenter"",""1"",""4765""
","
","
","""event"",""trial"",""time""
""fullscreenenter"",""1"",""4765""
","
","","","","","","1107","images/table5.png","","","memory_trial","4","definitely_new",""
"html-keyboard-response","200","457551","0.0-18.0-0.78","5967","approach_avoid_sv1","""event"",""trial"",""time""
""fullscreenenter"",""1"",""4765""
","
","
","""event"",""trial"",""time""
""fullscreenenter"",""1"",""4765""
","
","","","","","","null","<div style=""font-size:60px;"">+</div>","null","","fixation","","",""
"memory-trial","201","459774","0.0-18.0-1.78","5967","approach_avoid_sv1","""event"",""trial"",""time""
""fullscreenenter"",""1"",""4765""
","
","
","""event"",""trial"",""time""
""fullscreenenter"",""1"",""4765""
","
","","","","","","1218.699999999255","images/orange4.png","","","memory_trial","4","definitely_new",""
"html-keyboard-response","202","460279","0.0-18.0-0.79","5967","approach_avoid_sv1","""event"",""trial"",""time""
""fullscreenenter"",""1"",""4765""
","
","
","""event"",""trial"",""time""
""fullscreenenter"",""1"",""4765""
","
","","","","","","null","<div style=""font-size:60px;"">+</div>","null","","fixation","","",""
"memory-trial","203","462602","0.0-18.0-1.79","5967","approach_avoid_sv1","""event"",""trial"",""time""
""fullscreenenter"",""1"",""4765""
","
","
","""event"",""trial"",""time""
""fullscreenenter"",""1"",""4765""
","
","","","","","","1314.300000000745","images/straw5.png","","","memory_trial","1","definitely_old",""
"html-keyboard-response","204","463112","0.0-18.0-0.80","5967","approach_avoid_sv1","""event"",""trial"",""time""
""fullscreenenter"",""1"",""4765""
","
","
","""event"",""trial"",""time""
""fullscreenenter"",""1"",""4765""
","
","","","","","","null","<div style=""font-size:60px;"">+</div>","null","","fixation","","",""
"memory-trial","205","465456","0.0-18.0-1.80","5967","approach_avoid_sv1","""event"",""trial"",""time""
""fullscreenenter"",""1"",""4765""
","
","
","""event"",""trial"",""time""
""fullscreenenter"",""1"",""4765""
","
","","","","","","1335.300000000745","images/cat7.png","","","memory_trial","1","definitely_old",""
"html-keyboard-response","206","465968","0.0-18.0-0.81","5967","approach_avoid_sv1","""event"",""trial"",""time""
""fullscreenenter"",""1"",""4765""
","
","
","""event"",""trial"",""time""
""fullscreenenter"",""1"",""4765""
","
","","","","","","null","<div style=""font-size:60px;"">+</div>","null","","fixation","","",""
"memory-trial","207","467968","0.0-18.0-1.81","5967","approach_avoid_sv1","""event"",""trial"",""time""
""fullscreenenter"",""1"",""4765""
","
","
","""event"",""trial"",""time""
""fullscreenenter"",""1"",""4765""
","
","","","","","","992.5","images/table8.png","","","memory_trial","1","definitely_old",""
"html-keyboard-response","208","468470","0.0-18.0-0.82","5967","approach_avoid_sv1","""event"",""trial"",""time""
""fullscreenenter"",""1"",""4765""
","
","
","""event"",""trial"",""time""
""fullscreenenter"",""1"",""4765""
","
","","","","","","null","<div style=""font-size:60px;"">+</div>","null","","fixation","","",""
"memory-trial","209","470530","0.0-18.0-1.82","5967","approach_avoid_sv1","""event"",""trial"",""time""
""fullscreenenter"",""1"",""4765""
","
","
","""event"",""trial"",""time""
""fullscreenenter"",""1"",""4765""
","
","","","","","","1051","images/dog6.png","","","memory_trial","4","definitely_new",""
"html-keyboard-response","210","471042","0.0-18.0-0.83","5967","approach_avoid_sv1","""event"",""trial"",""time""
""fullscreenenter"",""1"",""4765""
","
","
","""event"",""trial"",""time""
""fullscreenenter"",""1"",""4765""
","
","","","","","","null","<div style=""font-size:60px;"">+</div>","null","","fixation","","",""
"memory-trial","211","474310","0.0-18.0-1.83","5967","approach_avoid_sv1","""event"",""trial"",""time""
""fullscreenenter"",""1"",""4765""
","
","
","""event"",""trial"",""time""
""fullscreenenter"",""1"",""4765""
","
","","","","","","2260","images/rabbit2.png","","","memory_trial","2","maybe_old",""
"html-keyboard-response","212","474815","0.0-18.0-0.84","5967","approach_avoid_sv1","""event"",""trial"",""time""
""fullscreenenter"",""1"",""4765""
","
","
","""event"",""trial"",""time""
""fullscreenenter"",""1"",""4765""
","
","","","","","","null","<div style=""font-size:60px;"">+</div>","null","","fixation","","",""
"memory-trial","213","477335","0.0-18.0-1.84","5967","approach_avoid_sv1","""event"",""trial"",""time""
""fullscreenenter"",""1"",""4765""
","
","
","""event"",""trial"",""time""
""fullscreenenter"",""1"",""4765""
","
","","","","","","1507.3999999985099","images/orange8.png","","","memory_trial","4","definitely_new",""
"html-keyboard-response","214","477839","0.0-18.0-0.85","5967","approach_avoid_sv1","""event"",""trial"",""time""
""fullscreenenter"",""1"",""4765""
","
","
","""event"",""trial"",""time""
""fullscreenenter"",""1"",""4765""
","
","","","","","","null","<div style=""font-size:60px;"">+</div>","null","","fixation","","",""
"memory-trial","215","480214","0.0-18.0-1.85","5967","approach_avoid_sv1","""event"",""trial"",""time""
""fullscreenenter"",""1"",""4765""
","
","
","""event"",""trial"",""time""
""fullscreenenter"",""1"",""4765""
","
","","","","","","1366.5","images/straw3.png","","","memory_trial","4","definitely_new",""
"html-keyboard-response","216","480719","0.0-18.0-0.86","5967","approach_avoid_sv1","""event"",""trial"",""time""
""fullscreenenter"",""1"",""4765""
","
","
","""event"",""trial"",""time""
""fullscreenenter"",""1"",""4765""
","
","","","","","","null","<div style=""font-size:60px;"">+</div>","null","","fixation","","",""
"memory-trial","217","483082","0.0-18.0-1.86","5967","approach_avoid_sv1","""event"",""trial"",""time""
""fullscreenenter"",""1"",""4765""
","
","
","""event"",""trial"",""time""
""fullscreenenter"",""1"",""4765""
","
","","","","","","1350.8999999985099","images/sheep2.png","","","memory_trial","4","definitely_new",""
"html-keyboard-response","218","483593","0.0-18.0-0.87","5967","approach_avoid_sv1","""event"",""trial"",""time""
""fullscreenenter"",""1"",""4765""
","
","
","""event"",""trial"",""time""
""fullscreenenter"",""1"",""4765""
","
","","","","","","null","<div style=""font-size:60px;"">+</div>","null","","fixation","","",""
"memory-trial","219","487592","0.0-18.0-1.87","5967","approach_avoid_sv1","""event"",""trial"",""time""
""fullscreenenter"",""1"",""4765""
","
","
","""event"",""trial"",""time""
""fullscreenenter"",""1"",""4765""
","
","","","","","","2988.5","images/banana4.png","","","memory_trial","2","maybe_old",""
"html-keyboard-response","220","488097","0.0-18.0-0.88","5967","approach_avoid_sv1","""event"",""trial"",""time""
""fullscreenenter"",""1"",""4765""
","
","
","""event"",""trial"",""time""
""fullscreenenter"",""1"",""4765""
","
","","","","","","null","<div style=""font-size:60px;"">+</div>","null","","fixation","","",""
"memory-trial","221","490379","0.0-18.0-1.88","5967","approach_avoid_sv1","""event"",""trial"",""time""
""fullscreenenter"",""1"",""4765""
","
","
","""event"",""trial"",""time""
""fullscreenenter"",""1"",""4765""
","
","","","","","","1267.3999999985099","images/boat2.png","","","memory_trial","4","definitely_new",""
"html-keyboard-response","222","490890","0.0-18.0-0.89","5967","approach_avoid_sv1","""event"",""trial"",""time""
""fullscreenenter"",""1"",""4765""
","
","
","""event"",""trial"",""time""
""fullscreenenter"",""1"",""4765""
","
","","","","","","null","<div style=""font-size:60px;"">+</div>","null","","fixation","","",""
"memory-trial","223","492721","0.0-18.0-1.89","5967","approach_avoid_sv1","""event"",""trial"",""time""
""fullscreenenter"",""1"",""4765""
","
","
","""event"",""trial"",""time""
""fullscreenenter"",""1"",""4765""
","
","","","","","","819.3999999985099","images/tree2.png","","","memory_trial","4","definitely_new",""
"html-keyboard-response","224","493235","0.0-18.0-0.90","5967","approach_avoid_sv1","""event"",""trial"",""time""
""fullscreenenter"",""1"",""4765""
","
","
","""event"",""trial"",""time""
""fullscreenenter"",""1"",""4765""
","
","","","","","","null","<div style=""font-size:60px;"">+</div>","null","","fixation","","",""
"memory-trial","225","495250","0.0-18.0-1.90","5967","approach_avoid_sv1","""event"",""trial"",""time""
""fullscreenenter"",""1"",""4765""
","
","
","""event"",""trial"",""time""
""fullscreenenter"",""1"",""4765""
","
","","","","","","1002.8000000007451","images/rabbit3.png","","","memory_trial","4","definitely_new",""
"html-keyboard-response","226","495760","0.0-18.0-0.91","5967","approach_avoid_sv1","""event"",""trial"",""time""
""fullscreenenter"",""1"",""4765""
","
","
","""event"",""trial"",""time""
""fullscreenenter"",""1"",""4765""
","
","","","","","","null","<div style=""font-size:60px;"">+</div>","null","","fixation","","",""
"memory-trial","227","498442","0.0-18.0-1.91","5967","approach_avoid_sv1","""event"",""trial"",""time""
""fullscreenenter"",""1"",""4765""
","
","
","""event"",""trial"",""time""
""fullscreenenter"",""1"",""4765""
","
","","","","","","1670","images/cow1.png","","","memory_trial","1","definitely_old",""
"html-button-response","228","533769","0.0-18.0-2.91-0.91","5967","approach_avoid_sv1","""event"",""trial"",""time""
""fullscreenenter"",""1"",""4765""
","
","
","""event"",""trial"",""time""
""fullscreenenter"",""1"",""4765""
","
","","","","","","35323.800000000745","<p> Take a break! </p><p> Click the button to continue. </p>","0","","break","","",""
"html-keyboard-response","229","534272","0.0-18.0-0.92","5967","approach_avoid_sv1","""event"",""trial"",""time""
""fullscreenenter"",""1"",""4765""
","
","
","""event"",""trial"",""time""
""fullscreenenter"",""1"",""4765""
","
","","","","","","null","<div style=""font-size:60px;"">+</div>","null","","fixation","","",""
"memory-trial","230","537514","0.0-18.0-1.92","5967","approach_avoid_sv1","""event"",""trial"",""time""
""fullscreenenter"",""1"",""4765""
","
","
","""event"",""trial"",""time""
""fullscreenenter"",""1"",""4765""
","
","","","","","","2231.800000000745","images/apple1.png","","","memory_trial","4","definitely_new",""
"html-keyboard-response","231","538028","0.0-18.0-0.93","5967","approach_avoid_sv1","""event"",""trial"",""time""
""fullscreenenter"",""1"",""4765""
","
","
","""event"",""trial"",""time""
""fullscreenenter"",""1"",""4765""
","
","","","","","","null","<div style=""font-size:60px;"">+</div>","null","","fixation","","",""
"memory-trial","232","539833","0.0-18.0-1.93","5967","approach_avoid_sv1","""event"",""trial"",""time""
""fullscreenenter"",""1"",""4765""
","
","
","""event"",""trial"",""time""
""fullscreenenter"",""1"",""4765""
","
","","","","","","797.3999999985099","images/goat7.png","","","memory_trial","4","definitely_new",""
"html-keyboard-response","233","540338","0.0-18.0-0.94","5967","approach_avoid_sv1","""event"",""trial"",""time""
""fullscreenenter"",""1"",""4765""
","
","
","""event"",""trial"",""time""
""fullscreenenter"",""1"",""4765""
","
","","","","","","null","<div style=""font-size:60px;"">+</div>","null","","fixation","","",""
"memory-trial","234","544500","0.0-18.0-1.94","5967","approach_avoid_sv1","""event"",""trial"",""time""
""fullscreenenter"",""1"",""4765""
","
","
","""event"",""trial"",""time""
""fullscreenenter"",""1"",""4765""
","
","","","","","","3148.89999999851","images/straw2.png","","","memory_trial","3","maybe_new",""
"html-keyboard-response","235","545011","0.0-18.0-0.95","5967","approach_avoid_sv1","""event"",""trial"",""time""
""fullscreenenter"",""1"",""4765""
","
","
","""event"",""trial"",""time""
""fullscreenenter"",""1"",""4765""
","
","","","","","","null","<div style=""font-size:60px;"">+</div>","null","","fixation","","",""
"memory-trial","236","547275","0.0-18.0-1.95","5967","approach_avoid_sv1","""event"",""trial"",""time""
""fullscreenenter"",""1"",""4765""
","
","
","""event"",""trial"",""time""
""fullscreenenter"",""1"",""4765""
","
","","","","","","1252","images/orange6.png","","","memory_trial","4","definitely_new",""
"html-keyboard-response","237","547786","0.0-18.0-0.96","5967","approach_avoid_sv1","""event"",""trial"",""time""
""fullscreenenter"",""1"",""4765""
","
","
","""event"",""trial"",""time""
""fullscreenenter"",""1"",""4765""
","
","","","","","","null","<div style=""font-size:60px;"">+</div>","null","","fixation","","",""
"memory-trial","238","549649","0.0-18.0-1.96","5967","approach_avoid_sv1","""event"",""trial"",""time""
""fullscreenenter"",""1"",""4765""
","
","
","""event"",""trial"",""time""
""fullscreenenter"",""1"",""4765""
","
","","","","","","854.1000000014901","images/dog1.png","","","memory_trial","4","definitely_new",""
"html-keyboard-response","239","550155","0.0-18.0-0.97","5967","approach_avoid_sv1","""event"",""trial"",""time""
""fullscreenenter"",""1"",""4765""
","
","
","""event"",""trial"",""time""
""fullscreenenter"",""1"",""4765""
","
","","","","","","null","<div style=""font-size:60px;"">+</div>","null","","fixation","","",""
"memory-trial","240","552082","0.0-18.0-1.97","5967","approach_avoid_sv1","""event"",""trial"",""time""
""fullscreenenter"",""1"",""4765""
","
","
","""event"",""trial"",""time""
""fullscreenenter"",""1"",""4765""
","
","","","","","","917.5","images/plane1.png","","","memory_trial","4","definitely_new",""
"html-keyboard-response","241","552587","0.0-18.0-0.98","5967","approach_avoid_sv1","""event"",""trial"",""time""
""fullscreenenter"",""1"",""4765""
","
","
","""event"",""trial"",""time""
""fullscreenenter"",""1"",""4765""
","
","","","","","","null","<div style=""font-size:60px;"">+</div>","null","","fixation","","",""
"memory-trial","242","554572","0.0-18.0-1.98","5967","approach_avoid_sv1","""event"",""trial"",""time""
""fullscreenenter"",""1"",""4765""
","
","
","""event"",""trial"",""time""
""fullscreenenter"",""1"",""4765""
","
","","","","","","977.5","images/boat6.png","","","memory_trial","1","definitely_old",""
"html-keyboard-response","243","555083","0.0-18.0-0.99","5967","approach_avoid_sv1","""event"",""trial"",""time""
""fullscreenenter"",""1"",""4765""
","
","
","""event"",""trial"",""time""
""fullscreenenter"",""1"",""4765""
","
","","","","","","null","<div style=""font-size:60px;"">+</div>","null","","fixation","","",""
"memory-trial","244","557121","0.0-18.0-1.99","5967","approach_avoid_sv1","""event"",""trial"",""time""
""fullscreenenter"",""1"",""4765""
","
","
","""event"",""trial"",""time""
""fullscreenenter"",""1"",""4765""
","
","","","","","","1029","images/orange5.png","","","memory_trial","4","definitely_new",""
"html-keyboard-response","245","557625","0.0-18.0-0.100","5967","approach_avoid_sv1","""event"",""trial"",""time""
""fullscreenenter"",""1"",""4765""
","
","
","""event"",""trial"",""time""
""fullscreenenter"",""1"",""4765""
","
","","","","","","null","<div style=""font-size:60px;"">+</div>","null","","fixation","","",""
"memory-trial","246","559576","0.0-18.0-1.100","5967","approach_avoid_sv1","""event"",""trial"",""time""
""fullscreenenter"",""1"",""4765""
","
","
","""event"",""trial"",""time""
""fullscreenenter"",""1"",""4765""
","
","","","","","","943.2000000029802","images/tree1.png","","","memory_trial","4","definitely_new",""
"html-keyboard-response","247","560081","0.0-18.0-0.101","5967","approach_avoid_sv1","""event"",""trial"",""time""
""fullscreenenter"",""1"",""4765""
","
","
","""event"",""trial"",""time""
""fullscreenenter"",""1"",""4765""
","
","","","","","","null","<div style=""font-size:60px;"">+</div>","null","","fixation","","",""
"memory-trial","248","561922","0.0-18.0-1.101","5967","approach_avoid_sv1","""event"",""trial"",""time""
""fullscreenenter"",""1"",""4765""
","
","
","""event"",""trial"",""time""
""fullscreenenter"",""1"",""4765""
","
","","","","","","831.2999999970198","images/truck5.png","","","memory_trial","4","definitely_new",""
"html-keyboard-response","249","562427","0.0-18.0-0.102","5967","approach_avoid_sv1","""event"",""trial"",""time""
""fullscreenenter"",""1"",""4765""
","
","
","""event"",""trial"",""time""
""fullscreenenter"",""1"",""4765""
","
","","","","","","null","<div style=""font-size:60px;"">+</div>","null","","fixation","","",""
"memory-trial","250","564546","0.0-18.0-1.102","5967","approach_avoid_sv1","""event"",""trial"",""time""
""fullscreenenter"",""1"",""4765""
","
","
","""event"",""trial"",""time""
""fullscreenenter"",""1"",""4765""
","
","","","","","","1109.1000000014901","images/apple2.png","","","memory_trial","4","definitely_new",""
"html-keyboard-response","251","565050","0.0-18.0-0.103","5967","approach_avoid_sv1","""event"",""trial"",""time""
""fullscreenenter"",""1"",""4765""
","
","
","""event"",""trial"",""time""
""fullscreenenter"",""1"",""4765""
","
","","","","","","null","<div style=""font-size:60px;"">+</div>","null","","fixation","","",""
"memory-trial","252","567413","0.0-18.0-1.103","5967","approach_avoid_sv1","""event"",""trial"",""time""
""fullscreenenter"",""1"",""4765""
","
","
","""event"",""trial"",""time""
""fullscreenenter"",""1"",""4765""
","
","","","","","","1348.8999999985099","images/banana7.png","","","memory_trial","4","definitely_new",""
"html-keyboard-response","253","567924","0.0-18.0-0.104","5967","approach_avoid_sv1","""event"",""trial"",""time""
""fullscreenenter"",""1"",""4765""
","
","
","""event"",""trial"",""time""
""fullscreenenter"",""1"",""4765""
","
","","","","","","null","<div style=""font-size:60px;"">+</div>","null","","fixation","","",""
"memory-trial","254","570270","0.0-18.0-1.104","5967","approach_avoid_sv1","""event"",""trial"",""time""
""fullscreenenter"",""1"",""4765""
","
","
","""event"",""trial"",""time""
""fullscreenenter"",""1"",""4765""
","
","","","","","","1332.5","images/bed1.png","","","memory_trial","4","definitely_new",""
"html-keyboard-response","255","570780","0.0-18.0-0.105","5967","approach_avoid_sv1","""event"",""trial"",""time""
""fullscreenenter"",""1"",""4765""
","
","
","""event"",""trial"",""time""
""fullscreenenter"",""1"",""4765""
","
","","","","","","null","<div style=""font-size:60px;"">+</div>","null","","fixation","","",""
"memory-trial","256","572969","0.0-18.0-1.105","5967","approach_avoid_sv1","""event"",""trial"",""time""
""fullscreenenter"",""1"",""4765""
","
","
","""event"",""trial"",""time""
""fullscreenenter"",""1"",""4765""
","
","","","","","","1179.800000000745","images/rodent7.png","","","memory_trial","4","definitely_new",""
"html-keyboard-response","257","573474","0.0-18.0-0.106","5967","approach_avoid_sv1","""event"",""trial"",""time""
""fullscreenenter"",""1"",""4765""
","
","
","""event"",""trial"",""time""
""fullscreenenter"",""1"",""4765""
","
","","","","","","null","<div style=""font-size:60px;"">+</div>","null","","fixation","","",""
"memory-trial","258","575947","0.0-18.0-1.106","5967","approach_avoid_sv1","""event"",""trial"",""time""
""fullscreenenter"",""1"",""4765""
","
","
","""event"",""trial"",""time""
""fullscreenenter"",""1"",""4765""
","
","","","","","","1463.199999999255","images/sheep3.png","","","memory_trial","1","definitely_old",""
"html-keyboard-response","259","576449","0.0-18.0-0.107","5967","approach_avoid_sv1","""event"",""trial"",""time""
""fullscreenenter"",""1"",""4765""
","
","
","""event"",""trial"",""time""
""fullscreenenter"",""1"",""4765""
","
","","","","","","null","<div style=""font-size:60px;"">+</div>","null","","fixation","","",""
"memory-trial","260","577590","0.0-18.0-1.107","5967","approach_avoid_sv1","""event"",""trial"",""time""
""fullscreenenter"",""1"",""4765""
","
","
","""event"",""trial"",""time""
""fullscreenenter"",""1"",""4765""
","
","","","","","","127","images/apple6.png","","","memory_trial","1","definitely_old",""
"html-keyboard-response","261","578100","0.0-18.0-0.108","5967","approach_avoid_sv1","""event"",""trial"",""time""
""fullscreenenter"",""1"",""4765""
","
","
","""event"",""trial"",""time""
""fullscreenenter"",""1"",""4765""
","
","","","","","","null","<div style=""font-size:60px;"">+</div>","null","","fixation","","",""
"memory-trial","262","580818","0.0-18.0-1.108","5967","approach_avoid_sv1","""event"",""trial"",""time""
""fullscreenenter"",""1"",""4765""
","
","
","""event"",""trial"",""time""
""fullscreenenter"",""1"",""4765""
","
","","","","","","1710.1000000014901","images/plane4.png","","","memory_trial","1","definitely_old",""
"html-keyboard-response","263","581323","0.0-18.0-0.109","5967","approach_avoid_sv1","""event"",""trial"",""time""
""fullscreenenter"",""1"",""4765""
","
","
","""event"",""trial"",""time""
""fullscreenenter"",""1"",""4765""
","
","","","","","","null","<div style=""font-size:60px;"">+</div>","null","","fixation","","",""
"memory-trial","264","584614","0.0-18.0-1.109","5967","approach_avoid_sv1","""event"",""trial"",""time""
""fullscreenenter"",""1"",""4765""
","
","
","""event"",""trial"",""time""
""fullscreenenter"",""1"",""4765""
","
","","","","","","2276.7999999970198","images/flower8.png","","","memory_trial","2","maybe_old",""
"html-keyboard-response","265","585125","0.0-18.0-0.110","5967","approach_avoid_sv1","""event"",""trial"",""time""
""fullscreenenter"",""1"",""4765""
","
","
","""event"",""trial"",""time""
""fullscreenenter"",""1"",""4765""
","
","","","","","","null","<div style=""font-size:60px;"">+</div>","null","","fixation","","",""
"memory-trial","266","587180","0.0-18.0-1.110","5967","approach_avoid_sv1","""event"",""trial"",""time""
""fullscreenenter"",""1"",""4765""
","
","
","""event"",""trial"",""time""
""fullscreenenter"",""1"",""4765""
","
","","","","","","1042.199999999255","images/tree4.png","","","memory_trial","4","definitely_new",""
"html-keyboard-response","267","587691","0.0-18.0-0.111","5967","approach_avoid_sv1","""event"",""trial"",""time""
""fullscreenenter"",""1"",""4765""
","
","
","""event"",""trial"",""time""
""fullscreenenter"",""1"",""4765""
","
","","","","","","null","<div style=""font-size:60px;"">+</div>","null","","fixation","","",""
"memory-trial","268","590379","0.0-18.0-1.111","5967","approach_avoid_sv1","""event"",""trial"",""time""
""fullscreenenter"",""1"",""4765""
","
","
","""event"",""trial"",""time""
""fullscreenenter"",""1"",""4765""
","
","","","","","","1677.300000000745","images/cow4.png","","","memory_trial","4","definitely_new",""
"html-keyboard-response","269","590884","0.0-18.0-0.112","5967","approach_avoid_sv1","""event"",""trial"",""time""
""fullscreenenter"",""1"",""4765""
","
","
","""event"",""trial"",""time""
""fullscreenenter"",""1"",""4765""
","
","","","","","","null","<div style=""font-size:60px;"">+</div>","null","","fixation","","",""
"memory-trial","270","592683","0.0-18.0-1.112","5967","approach_avoid_sv1","""event"",""trial"",""time""
""fullscreenenter"",""1"",""4765""
","
","
","""event"",""trial"",""time""
""fullscreenenter"",""1"",""4765""
","
","","","","","","795.8000000007451","images/rabbit6.png","","","memory_trial","4","definitely_new",""
"html-keyboard-response","271","593188","0.0-18.0-0.113","5967","approach_avoid_sv1","""event"",""trial"",""time""
""fullscreenenter"",""1"",""4765""
","
","
","""event"",""trial"",""time""
""fullscreenenter"",""1"",""4765""
","
","","","","","","null","<div style=""font-size:60px;"">+</div>","null","","fixation","","",""
"memory-trial","272","595139","0.0-18.0-1.113","5967","approach_avoid_sv1","""event"",""trial"",""time""
""fullscreenenter"",""1"",""4765""
","
","
","""event"",""trial"",""time""
""fullscreenenter"",""1"",""4765""
","
","","","","","","939.8000000007451","images/cat2.png","","","memory_trial","1","definitely_old",""
"html-keyboard-response","273","595644","0.0-18.0-0.114","5967","approach_avoid_sv1","""event"",""trial"",""time""
""fullscreenenter"",""1"",""4765""
","
","
","""event"",""trial"",""time""
""fullscreenenter"",""1"",""4765""
","
","","","","","","null","<div style=""font-size:60px;"">+</div>","null","","fixation","","",""
"memory-trial","274","598715","0.0-18.0-1.114","5967","approach_avoid_sv1","""event"",""trial"",""time""
""fullscreenenter"",""1"",""4765""
","
","
","""event"",""trial"",""time""
""fullscreenenter"",""1"",""4765""
","
","","","","","","2060.5","images/bush7.png","","","memory_trial","2","maybe_old",""
"html-keyboard-response","275","599220","0.0-18.0-0.115","5967","approach_avoid_sv1","""event"",""trial"",""time""
""fullscreenenter"",""1"",""4765""
","
","
","""event"",""trial"",""time""
""fullscreenenter"",""1"",""4765""
","
","","","","","","null","<div style=""font-size:60px;"">+</div>","null","","fixation","","",""
"memory-trial","276","601443","0.0-18.0-1.115","5967","approach_avoid_sv1","""event"",""trial"",""time""
""fullscreenenter"",""1"",""4765""
","
","
","""event"",""trial"",""time""
""fullscreenenter"",""1"",""4765""
","
","","","","","","1211.699999999255","images/bush3.png","","","memory_trial","1","definitely_old",""
"html-keyboard-response","277","601948","0.0-18.0-0.116","5967","approach_avoid_sv1","""event"",""trial"",""time""
""fullscreenenter"",""1"",""4765""
","
","
","""event"",""trial"",""time""
""fullscreenenter"",""1"",""4765""
","
","","","","","","null","<div style=""font-size:60px;"">+</div>","null","","fixation","","",""
"memory-trial","278","604027","0.0-18.0-1.116","5967","approach_avoid_sv1","""event"",""trial"",""time""
""fullscreenenter"",""1"",""4765""
","
","
","""event"",""trial"",""time""
""fullscreenenter"",""1"",""4765""
","
","","","","","","1067.7000000029802","images/goat1.png","","","memory_trial","4","definitely_new",""
"html-keyboard-response","279","604532","0.0-18.0-0.117","5967","approach_avoid_sv1","""event"",""trial"",""time""
""fullscreenenter"",""1"",""4765""
","
","
","""event"",""trial"",""time""
""fullscreenenter"",""1"",""4765""
","
","","","","","","null","<div style=""font-size:60px;"">+</div>","null","","fixation","","",""
"memory-trial","280","608580","0.0-18.0-1.117","5967","approach_avoid_sv1","""event"",""trial"",""time""
""fullscreenenter"",""1"",""4765""
","
","
","""event"",""trial"",""time""
""fullscreenenter"",""1"",""4765""
","
","","","","","","3038.699999999255","images/chair1.png","","","memory_trial","2","maybe_old",""
"html-keyboard-response","281","609083","0.0-18.0-0.118","5967","approach_avoid_sv1","""event"",""trial"",""time""
""fullscreenenter"",""1"",""4765""
","
","
","""event"",""trial"",""time""
""fullscreenenter"",""1"",""4765""
","
","","","","","","null","<div style=""font-size:60px;"">+</div>","null","","fixation","","",""
"memory-trial","282","611405","0.0-18.0-1.118","5967","approach_avoid_sv1","""event"",""trial"",""time""
""fullscreenenter"",""1"",""4765""
","
","
","""event"",""trial"",""time""
""fullscreenenter"",""1"",""4765""
","
","","","","","","1310.6000000014901","images/train6.png","","","memory_trial","4","definitely_new",""
"html-keyboard-response","283","611916","0.0-18.0-0.119","5967","approach_avoid_sv1","""event"",""trial"",""time""
""fullscreenenter"",""1"",""4765""
","
","
","""event"",""trial"",""time""
""fullscreenenter"",""1"",""4765""
","
","","","","","","null","<div style=""font-size:60px;"">+</div>","null","","fixation","","",""
"memory-trial","284","614830","0.0-18.0-1.119","5967","approach_avoid_sv1","""event"",""trial"",""time""
""fullscreenenter"",""1"",""4765""
","
","
","""event"",""trial"",""time""
""fullscreenenter"",""1"",""4765""
","
","","","","","","1903.300000000745","images/flower5.png","","","memory_trial","3","maybe_new",""
"html-keyboard-response","285","615341","0.0-18.0-0.120","5967","approach_avoid_sv1","""event"",""trial"",""time""
""fullscreenenter"",""1"",""4765""
","
","
","""event"",""trial"",""time""
""fullscreenenter"",""1"",""4765""
","
","","","","","","null","<div style=""font-size:60px;"">+</div>","null","","fixation","","",""
"memory-trial","286","617868","0.0-18.0-1.120","5967","approach_avoid_sv1","""event"",""trial"",""time""
""fullscreenenter"",""1"",""4765""
","
","
","""event"",""trial"",""time""
""fullscreenenter"",""1"",""4765""
","
","","","","","","1517","images/bed2.png","","","memory_trial","4","definitely_new",""
"html-keyboard-response","287","618371","0.0-18.0-0.121","5967","approach_avoid_sv1","""event"",""trial"",""time""
""fullscreenenter"",""1"",""4765""
","
","
","""event"",""trial"",""time""
""fullscreenenter"",""1"",""4765""
","
","","","","","","null","<div style=""font-size:60px;"">+</div>","null","","fixation","","",""
"memory-trial","288","621509","0.0-18.0-1.121","5967","approach_avoid_sv1","""event"",""trial"",""time""
""fullscreenenter"",""1"",""4765""
","
","
","""event"",""trial"",""time""
""fullscreenenter"",""1"",""4765""
","
","","","","","","2127.199999999255","images/cactus3.png","","","memory_trial","1","definitely_old",""
"html-keyboard-response","289","622023","0.0-18.0-0.122","5967","approach_avoid_sv1","""event"",""trial"",""time""
""fullscreenenter"",""1"",""4765""
","
","
","""event"",""trial"",""time""
""fullscreenenter"",""1"",""4765""
","
","","","","","","null","<div style=""font-size:60px;"">+</div>","null","","fixation","","",""
"memory-trial","290","624820","0.0-18.0-1.122","5967","approach_avoid_sv1","""event"",""trial"",""time""
""fullscreenenter"",""1"",""4765""
","
","
","""event"",""trial"",""time""
""fullscreenenter"",""1"",""4765""
","
","","","","","","1787.5","images/rodent2.png","","","memory_trial","4","definitely_new",""
"html-keyboard-response","291","625326","0.0-18.0-0.123","5967","approach_avoid_sv1","""event"",""trial"",""time""
""fullscreenenter"",""1"",""4765""
","
","
","""event"",""trial"",""time""
""fullscreenenter"",""1"",""4765""
","
","","","","","","null","<div style=""font-size:60px;"">+</div>","null","","fixation","","",""
"memory-trial","292","628004","0.0-18.0-1.123","5967","approach_avoid_sv1","""event"",""trial"",""time""
""fullscreenenter"",""1"",""4765""
","
","
","""event"",""trial"",""time""
""fullscreenenter"",""1"",""4765""
","
","","","","","","1668.5","images/straw1.png","","","memory_trial","1","definitely_old",""
"html-keyboard-response","293","628506","0.0-18.0-0.124","5967","approach_avoid_sv1","""event"",""trial"",""time""
""fullscreenenter"",""1"",""4765""
","
","
","""event"",""trial"",""time""
""fullscreenenter"",""1"",""4765""
","
","","","","","","null","<div style=""font-size:60px;"">+</div>","null","","fixation","","",""
"memory-trial","294","631148","0.0-18.0-1.124","5967","approach_avoid_sv1","""event"",""trial"",""time""
""fullscreenenter"",""1"",""4765""
","
","
","""event"",""trial"",""time""
""fullscreenenter"",""1"",""4765""
","
","","","","","","1632.5","images/horse8.png","","","memory_trial","4","definitely_new",""
"html-keyboard-response","295","631653","0.0-18.0-0.125","5967","approach_avoid_sv1","""event"",""trial"",""time""
""fullscreenenter"",""1"",""4765""
","
","
","""event"",""trial"",""time""
""fullscreenenter"",""1"",""4765""
","
","","","","","","null","<div style=""font-size:60px;"">+</div>","null","","fixation","","",""
"memory-trial","296","634063","0.0-18.0-1.125","5967","approach_avoid_sv1","""event"",""trial"",""time""
""fullscreenenter"",""1"",""4765""
","
","
","""event"",""trial"",""time""
""fullscreenenter"",""1"",""4765""
","
","","","","","","1396.800000000745","images/apple8.png","","","memory_trial","4","definitely_new",""
"html-keyboard-response","297","634573","0.0-18.0-0.126","5967","approach_avoid_sv1","""event"",""trial"",""time""
""fullscreenenter"",""1"",""4765""
","
","
","""event"",""trial"",""time""
""fullscreenenter"",""1"",""4765""